#time,accel_x,accel_y,accel_z
951.882971,1149.143247,1110.308913,5847.626942
951.883290,842.705048,814.226536,5921.647536
951.883609,0.000000,296.082377,6439.791695
951.883928,0.000000,-296.082377,7179.997637
951.884247,-1685.410096,-74.020594,7846.182985
951.884566,-1762.019645,148.041188,8216.285956
951.884885,-2221.676944,518.144159,8438.347739
951.885204,-2528.115143,962.267725,9030.512492
951.885523,-2757.943793,1036.288319,8808.450710
951.885842,-2374.896044,1110.308913,9474.636058
951.886161,-2374.896044,962.267725,9474.636058
951.886481,-2145.067394,592.164754,9770.718434
951.886800,-2145.067394,222.061783,9918.759623
951.887119,-2298.286494,-296.082377,10140.821405
951.887438,-2145.067394,-370.102971,10140.821405
951.887757,-1532.190996,-444.123565,10436.903782
951.888076,-1225.752797,148.041188,10362.883188
951.888395,-766.095498,740.205942,10362.883188
951.888714,-229.828649,1258.350101,10658.965565
951.889033,76.609550,814.226536,10881.027347
951.889352,306.438199,740.205942,11399.171507
951.889671,766.095498,740.205942,11547.212695
951.889990,995.924147,518.144159,11769.274478
951.890309,689.485948,814.226536,11843.295072
951.890628,1608.800546,1036.288319,11621.233289
951.890947,1838.629195,1332.370696,11029.068536
951.891266,2374.896044,1554.432478,10584.944971
951.891585,2604.724693,1480.411884,10288.862594
951.891904,2451.505594,2294.638420,10066.800811
951.892223,2451.505594,2368.659014,10066.800811
951.892542,1991.848295,2294.638420,10214.842000
951.892861,1685.410096,2368.659014,10288.862594
951.893180,995.924147,2220.617826,9992.780217
951.893499,1225.752797,2294.638420,10140.821405
951.893818,459.657299,1850.514855,10140.821405
951.894137,229.828649,1628.453072,9696.697840
951.894457,0.000000,1110.308913,10066.800811
951.894776,-153.219100,1406.391290,9770.718434
951.895095,0.000000,1702.473667,9474.636058
951.895414,-306.438199,2072.576638,9548.656652
951.895733,-229.828649,2294.638420,9622.677246
951.896052,-383.047749,2220.617826,9400.615463
951.896371,-153.219100,1998.556043,9252.574275
951.896690,-229.828649,1776.494261,9326.594869
951.897009,0.000000,1480.411884,9326.594869
951.897328,306.438199,444.123565,9400.615463
951.897647,-153.219100,-0.000000,9326.594869
951.897966,0.000000,-666.185348,9548.656652
951.898285,0.000000,-740.205942,9474.636058
951.898604,153.219100,-740.205942,9622.677246
951.898923,-306.438199,-888.247130,9622.677246
951.899242,383.047749,-592.164754,9474.636058
951.899561,536.266849,-666.185348,9326.594869
951.899880,919.314598,-666.185348,9252.574275
951.900199,995.924147,-888.247130,8956.491898
951.900518,766.095498,-1554.432478,9104.533087
951.900837,842.705048,-2072.576638,8956.491898
951.901156,1302.362347,-1998.556043,8882.471304
951.901475,1532.190996,-2294.638420,8734.430116
951.901794,1608.800546,-1998.556043,8882.471304
951.902113,1608.800546,-1554.432478,9104.533087
951.902433,1762.019645,-1628.453072,8586.388927
951.902752,1302.362347,-1332.370696,8438.347739
951.903071,1302.362347,-1554.432478,8660.409521
951.903390,1072.533697,-1702.473667,8512.368333
951.903709,383.047749,-1850.514855,8808.450710
951.904028,0.000000,-1776.494261,8364.327145
951.904347,-76.609550,-1628.453072,8290.306550
951.904666,-383.047749,-1776.494261,8364.327145
951.904985,-995.924147,-1702.473667,8290.306550
951.905304,-995.924147,-1332.370696,8290.306550
951.905623,-995.924147,-962.267725,8142.265362
951.905942,-689.485948,-518.144159,8142.265362
951.906261,-919.314598,-518.144159,7846.182985
951.906580,-612.876398,-444.123565,7920.203579
951.906899,-536.266849,-74.020594,7994.224174
951.907218,-612.876398,-518.144159,8142.265362
951.907537,-306.438199,-222.061783,8068.244768
951.907856,-153.219100,-0.000000,8068.244768
951.908175,76.609550,370.102971,7994.224174
951.908494,306.438199,222.061783,8142.265362
951.908813,536.266849,666.185348,8216.285956
951.909132,459.657299,814.226536,8290.306550
951.909451,842.705048,592.164754,8364.327145
951.909770,1072.533697,444.123565,8512.368333
951.910090,689.485948,518.144159,8956.491898
951.910409,842.705048,370.102971,8660.409521
951.910728,995.924147,518.144159,9030.512492
951.911047,1302.362347,518.144159,9252.574275
951.911366,919.314598,444.123565,9252.574275
951.911685,766.095498,592.164754,9400.615463
951.912004,689.485948,666.185348,9696.697840
951.912323,383.047749,740.205942,10140.821405
951.912642,689.485948,740.205942,10288.862594
951.912961,306.438199,740.205942,10288.862594
951.913280,459.657299,962.267725,10510.924376
951.913599,0.000000,962.267725,10658.965565
951.913918,-229.828649,962.267725,10732.986159
951.914237,0.000000,592.164754,10807.006753
951.914556,-153.219100,740.205942,10807.006753
951.914875,-306.438199,888.247130,10881.027347
951.915194,-612.876398,1036.288319,10732.986159
951.915513,-689.485948,962.267725,10732.986159
951.915832,-383.047749,962.267725,10807.006753
951.916151,-459.657299,1110.308913,10658.965565
951.916470,-383.047749,1480.411884,10510.924376
951.916789,-306.438199,1332.370696,10436.903782
951.917108,76.609550,1406.391290,10288.862594
951.917427,0.000000,1332.370696,9844.739029
951.917746,306.438199,1406.391290,9548.656652
951.918066,612.876398,1406.391290,9474.636058
951.918385,536.266849,1332.370696,9400.615463
951.918704,842.705048,1110.308913,9474.636058
951.919023,689.485948,1036.288319,9400.615463
951.919342,383.047749,1036.288319,9622.677246
951.919661,383.047749,518.144159,9400.615463
951.919980,689.485948,296.082377,9918.759623
951.920299,229.828649,370.102971,9474.636058
951.920618,383.047749,222.061783,9400.615463
951.920937,536.266849,-0.000000,9400.615463
951.921256,536.266849,-0.000000,9548.656652
951.921575,306.438199,-222.061783,9104.533087
951.921894,153.219100,-296.082377,8956.491898
951.922213,459.657299,-518.144159,8956.491898
951.922532,306.438199,-666.185348,9030.512492
951.922851,383.047749,-1110.308913,8734.430116
951.923170,229.828649,-814.226536,8586.388927
951.923489,383.047749,-814.226536,8660.409521
951.923808,459.657299,-1110.308913,8512.368333
951.924127,766.095498,-1184.329507,8512.368333
951.924446,995.924147,-1480.411884,8586.388927
951.924765,536.266849,-1258.350101,8438.347739
951.925084,459.657299,-1332.370696,8364.327145
951.925403,383.047749,-1406.391290,8586.388927
951.925723,459.657299,-1258.350101,8586.388927
951.926042,919.314598,-1406.391290,8586.388927
951.926361,919.314598,-1258.350101,8364.327145
951.926680,612.876398,-1036.288319,8808.450710
951.926999,612.876398,-962.267725,8512.368333
951.927318,689.485948,-888.247130,8438.347739
951.927637,766.095498,-592.164754,8586.388927
951.927956,766.095498,-592.164754,8586.388927
951.928275,536.266849,-592.164754,8364.327145
951.928594,766.095498,-222.061783,8290.306550
951.928913,383.047749,-222.061783,8216.285956
951.929232,0.000000,-296.082377,8438.347739
951.929551,459.657299,-0.000000,8586.388927
951.929870,153.219100,-74.020594,8216.285956
951.930189,459.657299,444.123565,8438.347739
951.930508,689.485948,592.164754,8512.368333
951.930827,689.485948,814.226536,8808.450710
951.931146,536.266849,740.205942,8586.388927
951.931465,383.047749,888.247130,8882.471304
951.931784,536.266849,814.226536,9104.533087
951.932103,536.266849,814.226536,9104.533087
951.932422,459.657299,1258.350101,9178.553681
951.932741,306.438199,1110.308913,9178.553681
951.933060,612.876398,1480.411884,9548.656652
951.933379,459.657299,1406.391290,9548.656652
951.933699,842.705048,888.247130,9696.697840
951.934018,612.876398,1628.453072,10066.800811
951.934337,689.485948,1554.432478,9992.780217
951.934656,536.266849,1480.411884,10066.800811
951.934975,383.047749,1184.329507,10066.800811
951.935294,383.047749,1406.391290,10362.883188
951.935613,612.876398,1776.494261,10140.821405
951.935932,0.000000,1702.473667,10658.965565
951.936251,306.438199,1480.411884,10436.903782
951.936570,306.438199,1554.432478,10584.944971
951.936889,306.438199,1628.453072,10584.944971
951.937208,0.000000,1554.432478,10436.903782
951.937527,0.000000,1702.473667,10362.883188
951.937846,229.828649,1554.432478,10288.862594
951.938165,306.438199,1850.514855,10436.903782
951.938484,153.219100,1258.350101,10214.842000
951.938803,459.657299,1480.411884,10066.800811
951.939122,229.828649,1406.391290,10140.821405
951.939441,536.266849,1258.350101,9770.718434
951.939760,459.657299,1184.329507,9918.759623
951.940079,536.266849,962.267725,9696.697840
951.940398,536.266849,888.247130,9844.739029
951.940717,689.485948,740.205942,9770.718434
951.941036,383.047749,444.123565,9622.677246
951.941355,76.609550,518.144159,9474.636058
951.941674,229.828649,666.185348,9474.636058
951.941993,229.828649,148.041188,9178.553681
951.942312,306.438199,222.061783,9030.512492
951.942631,536.266849,-0.000000,9104.533087
951.942950,229.828649,-74.020594,8882.471304
951.943269,459.657299,-74.020594,8808.450710
951.943588,229.828649,-222.061783,8808.450710
951.943907,383.047749,-370.102971,8660.409521
951.944226,459.657299,-888.247130,8734.430116
951.944545,229.828649,-666.185348,8512.368333
951.944864,306.438199,-592.164754,8290.306550
951.945183,459.657299,-370.102971,8438.347739
951.945502,1072.533697,-814.226536,8068.244768
951.945821,459.657299,-888.247130,8142.265362
951.946140,459.657299,-740.205942,8068.244768
951.946459,612.876398,-814.226536,8216.285956
951.946778,536.266849,-888.247130,7772.162391
951.947097,919.314598,-962.267725,7994.224174
951.947416,766.095498,-740.205942,7920.203579
951.947735,919.314598,-814.226536,7994.224174
951.948054,995.924147,-666.185348,8068.244768
951.948373,766.095498,-444.123565,7920.203579
951.948692,1302.362347,-666.185348,8216.285956
951.949011,689.485948,-370.102971,7846.182985
951.949330,689.485948,-222.061783,8142.265362
951.949649,689.485948,-148.041188,8068.244768
951.949968,689.485948,-148.041188,8512.368333
951.950287,766.095498,-0.000000,8364.327145
951.950606,536.266849,-0.000000,8734.430116
951.950925,383.047749,-0.000000,8586.388927
951.951244,383.047749,222.061783,8734.430116
951.951563,536.266849,444.123565,8956.491898
951.951882,153.219100,296.082377,8956.491898
951.952201,536.266849,814.226536,9326.594869
951.952520,459.657299,962.267725,9252.574275
951.952839,689.485948,888.247130,9400.615463
951.953158,919.314598,814.226536,9474.636058
951.953477,766.095498,1184.329507,9622.677246
951.953796,995.924147,1554.432478,9548.656652
951.954115,689.485948,1776.494261,9622.677246
951.954434,995.924147,1628.453072,9548.656652
951.954753,1225.752797,1406.391290,9992.780217
951.955072,1149.143247,2146.597232,9918.759623
951.955391,995.924147,1554.432478,10140.821405
951.955710,842.705048,1776.494261,10140.821405
951.956029,842.705048,1924.535449,10362.883188
951.956348,919.314598,1702.473667,10510.924376
951.956667,689.485948,2072.576638,10362.883188
951.956986,842.705048,2146.597232,10436.903782
951.957305,689.485948,2368.659014,10510.924376
951.957624,612.876398,1998.556043,10658.965565
951.957943,1072.533697,2146.597232,10436.903782
951.958262,766.095498,1998.556043,10584.944971
951.958581,383.047749,2220.617826,10658.965565
951.958900,459.657299,2072.576638,10362.883188
951.959219,612.876398,1924.535449,10584.944971
951.959538,612.876398,1998.556043,10362.883188
951.959857,459.657299,1998.556043,10436.903782
951.960176,536.266849,2146.597232,10288.862594
951.960495,459.657299,1850.514855,10140.821405
951.960814,995.924147,1702.473667,9992.780217
951.961133,229.828649,1702.473667,9992.780217
951.961452,766.095498,1406.391290,9696.697840
951.961771,536.266849,1184.329507,9548.656652
951.962090,459.657299,1110.308913,9770.718434
951.962409,306.438199,592.164754,9326.594869
951.962728,766.095498,592.164754,9474.636058
951.963047,459.657299,666.185348,9474.636058
951.963366,766.095498,296.082377,9178.553681
951.963685,306.438199,296.082377,9548.656652
951.964004,689.485948,148.041188,9326.594869
951.964323,229.828649,-0.000000,9104.533087
951.964642,842.705048,-0.000000,8808.450710
951.964961,612.876398,-518.144159,8734.430116
951.965280,536.266849,-814.226536,8586.388927
951.965599,229.828649,-740.205942,8660.409521
951.965918,153.219100,-888.247130,8512.368333
951.966237,612.876398,-962.267725,8364.327145
951.966556,229.828649,-1036.288319,8364.327145
951.966875,383.047749,-1036.288319,8216.285956
951.967194,459.657299,-1258.350101,8142.265362
951.967513,306.438199,-888.247130,8216.285956
951.967832,153.219100,-1036.288319,7920.203579
951.968151,76.609550,-1036.288319,7846.182985
951.968470,536.266849,-962.267725,8290.306550
951.968789,459.657299,-1110.308913,7698.141797
951.969108,459.657299,-1036.288319,7994.224174
951.969427,689.485948,-962.267725,7772.162391
951.969746,536.266849,-1184.329507,7920.203579
951.970065,612.876398,-888.247130,7846.182985
951.970384,612.876398,-888.247130,8068.244768
951.970703,766.095498,-592.164754,7772.162391
951.971022,842.705048,-592.164754,8068.244768
951.971341,842.705048,-370.102971,7920.203579
951.971660,536.266849,-296.082377,8142.265362
951.971979,612.876398,-74.020594,8142.265362
951.972298,536.266849,-148.041188,8216.285956
951.972617,612.876398,-74.020594,8438.347739
951.972936,612.876398,222.061783,8882.471304
951.973255,612.876398,222.061783,8586.388927
951.973574,153.219100,370.102971,8882.471304
951.973893,383.047749,740.205942,8956.491898
951.974212,842.705048,518.144159,8882.471304
951.974531,306.438199,814.226536,9252.574275
951.974850,459.657299,962.267725,9400.615463
951.975169,612.876398,666.185348,9474.636058
951.975488,0.000000,814.226536,9548.656652
951.975807,76.609550,962.267725,9770.718434
951.976126,383.047749,1036.288319,9844.739029
951.976445,459.657299,1036.288319,10140.821405
951.976764,229.828649,1184.329507,10140.821405
951.977083,459.657299,1332.370696,10214.842000
951.977402,459.657299,1332.370696,10436.903782
951.977721,766.095498,1628.453072,10140.821405
951.978040,459.657299,1850.514855,10362.883188
951.978359,536.266849,1628.453072,10436.903782
951.978678,689.485948,1850.514855,10658.965565
951.978997,459.657299,1554.432478,10658.965565
951.979316,612.876398,1554.432478,10362.883188
951.979635,536.266849,1628.453072,10362.883188
951.979954,383.047749,1628.453072,10362.883188
951.980273,459.657299,1406.391290,10362.883188
951.980592,306.438199,1406.391290,10510.924376
951.980911,536.266849,1850.514855,10584.944971
951.981230,306.438199,1702.473667,10510.924376
951.981549,229.828649,1702.473667,10140.821405
951.981868,383.047749,1628.453072,10436.903782
951.982187,536.266849,1480.411884,10214.842000
951.982506,229.828649,1184.329507,10140.821405
951.982825,306.438199,1036.288319,9992.780217
951.983144,383.047749,1036.288319,9992.780217
951.983463,76.609550,592.164754,9252.574275
951.983782,153.219100,814.226536,9474.636058
951.984101,229.828649,592.164754,9696.697840
951.984420,612.876398,592.164754,9400.615463
951.984739,842.705048,592.164754,9178.553681
951.985058,689.485948,370.102971,9252.574275
951.985377,459.657299,222.061783,9252.574275
951.985696,459.657299,-74.020594,8882.471304
951.986015,612.876398,-74.020594,8956.491898
951.986334,612.876398,-444.123565,8808.450710
951.986653,459.657299,-444.123565,8660.409521
951.986972,536.266849,-444.123565,8660.409521
951.987291,306.438199,-740.205942,8512.368333
951.987610,229.828649,-814.226536,8734.430116
951.987929,229.828649,-814.226536,8734.430116
951.988248,383.047749,-1036.288319,8586.388927
951.988567,306.438199,-1184.329507,8586.388927
951.988886,0.000000,-1110.308913,8660.409521
951.989205,459.657299,-1110.308913,8512.368333
951.989524,76.609550,-1184.329507,8512.368333
951.989843,0.000000,-1110.308913,8438.347739
951.990162,306.438199,-888.247130,8438.347739
951.990481,229.828649,-962.267725,8216.285956
951.990800,0.000000,-888.247130,8142.265362
951.991119,229.828649,-1036.288319,8068.244768
951.991438,153.219100,-1036.288319,7846.182985
951.991757,76.609550,-888.247130,8216.285956
951.992076,153.219100,-740.205942,8290.306550
951.992395,229.828649,-740.205942,8364.327145
951.992714,459.657299,-666.185348,8290.306550
951.993033,0.000000,-666.185348,8142.265362
951.993352,383.047749,-148.041188,8068.244768
951.993671,229.828649,-296.082377,8364.327145
951.993990,229.828649,-148.041188,8438.347739
951.994309,229.828649,-222.061783,8586.388927
951.994628,306.438199,-0.000000,8734.430116
951.994947,229.828649,-0.000000,8808.450710
951.995266,306.438199,-0.000000,8956.491898
951.995585,459.657299,222.061783,9030.512492
951.995904,306.438199,296.082377,9030.512492
951.996223,612.876398,740.205942,8882.471304
951.996542,306.438199,370.102971,9030.512492
951.996861,766.095498,888.247130,9104.533087
951.997180,0.000000,592.164754,9400.615463
951.997499,306.438199,814.226536,9474.636058
951.997818,306.438199,740.205942,9622.677246
951.998137,153.219100,962.267725,9992.780217
951.998456,0.000000,740.205942,9696.697840
951.998775,229.828649,518.144159,9844.739029
951.999094,229.828649,1036.288319,10066.800811
951.999413,383.047749,962.267725,9992.780217
951.999732,229.828649,740.205942,10288.862594
952.000051,383.047749,962.267725,10288.862594
952.000370,536.266849,888.247130,10214.842000
952.000689,459.657299,1036.288319,10362.883188
952.001008,612.876398,1110.308913,10362.883188
952.001327,383.047749,1036.288319,10362.883188
952.001646,383.047749,1036.288319,10214.842000
952.001965,306.438199,888.247130,10214.842000
952.002284,536.266849,666.185348,10140.821405
952.002603,536.266849,962.267725,10140.821405
952.002922,689.485948,888.247130,10288.862594
952.003241,383.047749,888.247130,10214.842000
952.003560,153.219100,740.205942,9992.780217
952.003879,153.219100,592.164754,9918.759623
952.004198,76.609550,666.185348,9770.718434
952.004517,383.047749,740.205942,9844.739029
952.004836,306.438199,592.164754,9696.697840
952.005155,306.438199,518.144159,9622.677246
952.005474,383.047749,444.123565,9474.636058
952.005793,842.705048,296.082377,9474.636058
952.006112,919.314598,370.102971,9178.553681
952.006431,536.266849,222.061783,9104.533087
952.006750,459.657299,222.061783,9030.512492
952.007069,689.485948,222.061783,8882.471304
952.007388,919.314598,-0.000000,9178.553681
952.007707,842.705048,-0.000000,8882.471304
952.008026,766.095498,-148.041188,8734.430116
952.008345,689.485948,-148.041188,8734.430116
952.008664,459.657299,-296.082377,8660.409521
952.008983,689.485948,-518.144159,8512.368333
952.009302,689.485948,-296.082377,8808.450710
952.009622,459.657299,-222.061783,8512.368333
952.009941,383.047749,-444.123565,8586.388927
952.010260,306.438199,-444.123565,8660.409521
952.010579,459.657299,-444.123565,8660.409521
952.010898,612.876398,-518.144159,8586.388927
952.011217,612.876398,-518.144159,8586.388927
952.011536,383.047749,-518.144159,8734.430116
952.011855,459.657299,-666.185348,8586.388927
952.012174,459.657299,-444.123565,8586.388927
952.012493,459.657299,-518.144159,8808.450710
952.012812,536.266849,-444.123565,8586.388927
952.013131,383.047749,-592.164754,8512.368333
952.013450,459.657299,-148.041188,8660.409521
952.013769,536.266849,-296.082377,8734.430116
952.014088,536.266849,-148.041188,8734.430116
952.014407,536.266849,-222.061783,8734.430116
952.014726,536.266849,-0.000000,8956.491898
952.015045,383.047749,-0.000000,8808.450710
952.015364,306.438199,74.020594,9030.512492
952.015683,689.485948,370.102971,8882.471304
952.016002,306.438199,444.123565,9030.512492
952.016321,153.219100,518.144159,8956.491898
952.016640,612.876398,370.102971,9178.553681
952.016959,536.266849,518.144159,9326.594869
952.017278,536.266849,592.164754,9326.594869
952.017597,689.485948,740.205942,9474.636058
952.017916,459.657299,888.247130,9474.636058
952.018235,536.266849,888.247130,9474.636058
952.018554,306.438199,740.205942,9548.656652
952.018873,536.266849,1036.288319,9474.636058
952.019192,306.438199,1036.288319,9696.697840
952.019511,612.876398,962.267725,9992.780217
952.019830,383.047749,1036.288319,9844.739029
952.020149,383.047749,1110.308913,9770.718434
952.020468,306.438199,1036.288319,9844.739029
952.020787,0.000000,1184.329507,9918.759623
952.021106,306.438199,962.267725,9844.739029
952.021425,153.219100,962.267725,9918.759623
952.021744,612.876398,1184.329507,9770.718434
952.022063,306.438199,1036.288319,10140.821405
952.022382,612.876398,1184.329507,9918.759623
952.022701,766.095498,1258.350101,10066.800811
952.023020,766.095498,1406.391290,9918.759623
952.023339,459.657299,1110.308913,9770.718434
952.023658,766.095498,1110.308913,9844.739029
952.023977,459.657299,1036.288319,9918.759623
952.024296,536.266849,962.267725,9622.677246
952.024615,459.657299,962.267725,9770.718434
952.024934,536.266849,962.267725,9696.697840
952.025253,536.266849,444.123565,9622.677246
952.025572,306.438199,814.226536,9548.656652
952.025891,383.047749,888.247130,9622.677246
952.026210,459.657299,740.205942,9474.636058
952.026529,229.828649,592.164754,9474.636058
952.026848,306.438199,518.144159,9326.594869
952.027167,383.047749,296.082377,9252.574275
952.027486,383.047749,296.082377,9030.512492
952.027805,383.047749,370.102971,9252.574275
952.028124,383.047749,222.061783,8882.471304
952.028443,689.485948,296.082377,8512.368333
952.028762,536.266849,-0.000000,8734.430116
952.029081,842.705048,-0.000000,8734.430116
952.029400,612.876398,-0.000000,8734.430116
952.029719,536.266849,-0.000000,8512.368333
952.030038,1072.533697,-0.000000,8660.409521
952.030357,766.095498,-148.041188,8734.430116
952.030676,612.876398,-148.041188,8660.409521
952.030995,689.485948,-148.041188,8586.388927
952.031314,766.095498,-370.102971,8438.347739
952.031633,689.485948,-74.020594,8734.430116
952.031952,919.314598,-222.061783,8364.327145
952.032271,842.705048,-296.082377,8364.327145
952.032590,919.314598,-0.000000,8512.368333
952.032909,1225.752797,-370.102971,8660.409521
952.033228,766.095498,-148.041188,8586.388927
952.033547,766.095498,-0.000000,8734.430116
952.033866,689.485948,-74.020594,8660.409521
952.034185,689.485948,-0.000000,8734.430116
952.034504,306.438199,-296.082377,8882.471304
952.034823,612.876398,-0.000000,8660.409521
952.035142,536.266849,-0.000000,8808.450710
952.035461,536.266849,222.061783,8808.450710
952.035780,459.657299,148.041188,8734.430116
952.036099,536.266849,222.061783,9104.533087
952.036418,689.485948,370.102971,8956.491898
952.036737,612.876398,296.082377,9030.512492
952.037055,536.266849,370.102971,9104.533087
952.037374,612.876398,296.082377,9252.574275
952.037693,459.657299,444.123565,9400.615463
952.038012,766.095498,814.226536,9326.594869
952.038331,612.876398,740.205942,9474.636058
952.038650,536.266849,962.267725,9400.615463
952.038969,1225.752797,962.267725,9474.636058
952.039288,766.095498,888.247130,9474.636058
952.039607,306.438199,962.267725,9548.656652
952.039926,612.876398,814.226536,9252.574275
952.040245,76.609550,444.123565,9474.636058
952.040564,76.609550,444.123565,9474.636058
952.040883,-383.047749,370.102971,9548.656652
952.041202,-536.266849,-0.000000,9696.697840
952.041521,-306.438199,-296.082377,9844.739029
952.041840,-459.657299,-148.041188,10214.842000
952.042159,-76.609550,370.102971,10362.883188
952.042478,-306.438199,296.082377,9548.656652
952.042796,-536.266849,518.144159,9178.553681
952.043115,-459.657299,148.041188,8660.409521
952.043434,-766.095498,-0.000000,8734.430116
952.043753,-689.485948,-518.144159,8882.471304
952.044072,-1455.581446,-1110.308913,8512.368333
952.044391,-1455.581446,-1258.350101,8660.409521
952.044710,-1685.410096,-1702.473667,9474.636058
952.045029,-1608.800546,-1332.370696,9474.636058
952.045348,-1302.362347,-1036.288319,9474.636058
952.045667,-1915.238745,-370.102971,8956.491898
952.045986,-2221.676944,-222.061783,8808.450710
952.046305,-1762.019645,-222.061783,8142.265362
952.046624,-1915.238745,-222.061783,7920.203579
952.046943,-2145.067394,-740.205942,8142.265362
952.047262,-1915.238745,-1480.411884,8438.347739
952.047581,-1915.238745,-2368.659014,9400.615463
952.047900,-1838.629195,-2294.638420,9326.594869
952.048219,-1838.629195,-1998.556043,9178.553681
952.048537,-1915.238745,-1332.370696,9030.512492
952.048856,-1762.019645,-888.247130,8660.409521
952.049175,-1838.629195,-1036.288319,8290.306550
952.049494,-2221.676944,-1628.453072,8364.327145
952.049813,-2528.115143,-1702.473667,8586.388927
952.050132,-3140.991542,-2664.741391,9326.594869
952.050451,-3294.210641,-3701.029710,9918.759623
952.050770,-3983.696590,-4441.235652,11325.150913
952.051089,-4136.915689,-4515.256246,11103.089130
952.051408,-4519.963438,-4441.235652,11399.171507
952.051727,-4596.572988,-4071.132681,11621.233289
952.052046,-4290.134789,-3923.091493,11325.150913
952.052365,-4213.525239,-3627.009116,10881.027347
952.052684,-4060.306139,-3849.070898,10732.986159
952.053003,-4673.182538,-3849.070898,10584.944971
952.053322,-5132.839837,-4515.256246,10362.883188
952.053641,-4979.620737,-4737.318029,10584.944971
952.053960,-4673.182538,-5995.668130,11843.295072
952.054278,-4290.134789,-6069.688724,13175.665768
952.054597,-2681.334243,-5847.626942,14211.954086
952.054916,-1072.533697,-4515.256246,14730.098246
952.055235,689.485948,-2294.638420,13619.789333
952.055554,2451.505594,222.061783,11103.089130
952.055873,3983.696590,3034.844362,7994.224174
952.056192,4903.011187,4441.235652,4145.153275
952.056511,5056.230287,4145.153275,1036.288319
952.056830,4443.353888,1850.514855,1110.308913
952.057149,2604.724693,-1702.473667,4293.194464
952.057468,0.000000,-4811.338623,6217.729913
952.057787,-2604.724693,-6513.812290,8586.388927
952.058106,-5362.668486,-7105.977043,11251.130318
952.058425,-7277.907231,-5773.606348,11991.336260
952.058744,-8273.831378,-4367.215058,12361.439231
952.059063,-8656.879127,-1924.535449,12213.398043
952.059382,-8350.440928,-814.226536,12065.356855
952.059701,-8120.612279,-0.000000,10881.027347
952.060019,-6511.811733,518.144159,10955.047942
952.060338,-5132.839837,1036.288319,10881.027347
952.060657,-3064.381992,1110.308913,9474.636058
952.060976,-1072.533697,1258.350101,7402.059420
952.061295,2221.676944,1776.494261,6143.709319
952.061614,4749.792088,1406.391290,5773.606348
952.061933,6511.811733,2072.576638,4737.318029
952.062252,8350.440928,1998.556043,5033.400406
952.062571,9193.145976,2368.659014,4663.297435
952.062890,8886.707777,1480.411884,5181.441594
952.063209,8044.002729,962.267725,5847.626942
952.063528,5439.278036,1554.432478,6587.832884
952.063847,4290.134789,-148.041188,8290.306550
952.064166,2451.505594,-518.144159,9474.636058
952.064485,2681.334243,-1332.370696,13397.727550
952.064804,1915.238745,-74.020594,13249.686362
952.065123,2681.334243,2516.700203,12065.356855
952.065442,4290.134789,2812.782580,10510.924376
952.065760,4749.792088,4737.318029,7920.203579
952.066079,4903.011187,4737.318029,6291.750507
952.066398,3983.696590,5329.482782,4589.276840
952.066717,3677.258390,3478.967927,5921.647536
952.067036,1838.629195,1036.288319,7624.121203
952.067355,536.266849,-1110.308913,10881.027347
952.067674,-1225.752797,-814.226536,13027.624579
952.067993,-2451.505594,-148.041188,13619.789333
952.068312,-3524.039291,1776.494261,13323.706956
952.068631,-3830.477490,3552.988522,12805.562797
952.068950,-3677.258390,5329.482782,10658.965565
952.069269,-3447.429741,5033.400406,9770.718434
952.069588,-2911.162892,2442.679609,10436.903782
952.069907,-1915.238745,740.205942,9918.759623
952.070226,-1378.971896,-962.267725,10362.883188
952.070545,-1149.143247,-2072.576638,10362.883188
952.070864,-306.438199,-1406.391290,10510.924376
952.071183,383.047749,-444.123565,9918.759623
952.071501,383.047749,1480.411884,8586.388927
952.071820,306.438199,2516.700203,8586.388927
952.072139,-153.219100,2738.761985,8734.430116
952.072458,-995.924147,2072.576638,9918.759623
952.072777,-1915.238745,666.185348,11621.233289
952.073096,-2757.943793,-74.020594,12435.459826
952.073415,-3370.820191,-2368.659014,13989.892304
952.073734,-2834.553343,-4145.153275,15248.242405
952.074053,-2528.115143,-4515.256246,14878.139434
952.074372,-1455.581446,-3627.009116,13693.809927
952.074691,306.438199,-1628.453072,11695.253884
952.075010,2451.505594,-74.020594,9474.636058
952.075329,3907.087040,1850.514855,6957.935855
952.075648,4826.401637,1480.411884,5181.441594
952.075967,4443.353888,-0.000000,4737.318029
952.076286,4443.353888,-1036.288319,5329.482782
952.076605,3140.991542,-2664.741391,6513.812290
952.076924,1915.238745,-2960.823768,8290.306550
952.077242,153.219100,-4293.194464,9548.656652
952.077561,-919.314598,-4219.173869,10584.944971
952.077880,-1762.019645,-3404.947333,10955.047942
952.078199,-1685.410096,-1850.514855,10066.800811
952.078518,-1455.581446,-1406.391290,9770.718434
952.078837,-1149.143247,-962.267725,9548.656652
952.079156,-919.314598,-962.267725,9622.677246
952.079475,-459.657299,-592.164754,9474.636058
952.079794,1225.752797,222.061783,8438.347739
952.080113,2068.457845,1332.370696,6587.832884
952.080432,2911.162892,1850.514855,4441.235652
952.080751,2911.162892,1998.556043,3256.906145
952.081070,2911.162892,1406.391290,2812.782580
952.081389,2451.505594,518.144159,3404.947333
952.081708,1685.410096,-740.205942,5107.421000
952.082027,306.438199,-1628.453072,6365.771101
952.082346,-689.485948,-2368.659014,7994.224174
952.082665,-1991.848295,-3182.885551,9474.636058
952.082983,-2757.943793,-3034.844362,11177.109724
952.083302,-2987.772442,-2590.720797,11103.089130
952.083621,-2834.553343,-1480.411884,11177.109724
952.083940,-1685.410096,-518.144159,10658.965565
952.084259,-1532.190996,370.102971,9696.697840
952.084578,0.000000,1480.411884,8586.388927
952.084897,1915.238745,2294.638420,7179.997637
952.085216,2681.334243,2146.597232,6217.729913
952.085535,3064.381992,1628.453072,6069.688724
952.085854,3294.210641,1110.308913,6143.709319
952.086173,2298.286494,888.247130,6587.832884
952.086492,1378.971896,518.144159,7550.100608
952.086811,0.000000,-0.000000,8438.347739
952.087130,-1378.971896,-1480.411884,9844.739029
952.087449,-2911.162892,-1110.308913,11177.109724
952.087768,-3600.648841,-1332.370696,12361.439231
952.088087,-4136.915689,-1332.370696,12731.542202
952.088406,-3600.648841,-1036.288319,13841.851115
952.088724,-2451.505594,-1850.514855,15026.180623
952.089043,-1302.362347,-888.247130,14211.954086
952.089362,306.438199,666.185348,12509.480420
952.089681,2757.943793,2886.803174,10288.862594
952.090000,4213.525239,4071.132681,6883.915261
952.090319,5209.449386,4441.235652,5551.544565
952.090638,5056.230287,3330.926739,5921.647536
952.090957,4136.915689,2368.659014,5847.626942
952.091276,3217.601092,740.205942,7328.038826
952.091595,1302.362347,222.061783,9770.718434
952.091914,76.609550,-0.000000,11399.171507
952.092233,-1762.019645,-0.000000,12435.459826
952.092552,-3140.991542,-222.061783,14063.912898
952.092871,-3447.429741,-0.000000,14508.036463
952.093190,-2681.334243,222.061783,14211.954086
952.093509,-2298.286494,814.226536,13027.624579
952.093828,-1302.362347,1406.391290,12361.439231
952.094147,76.609550,2072.576638,10362.883188
952.094465,2374.896044,2294.638420,9030.512492
952.094784,2911.162892,2516.700203,7550.100608
952.095103,4366.744339,3108.864956,6217.729913
952.095422,4596.572988,3034.844362,5403.503377
952.095741,4443.353888,3182.885551,5773.606348
952.096060,4290.134789,2442.679609,6513.812290
952.096379,2451.505594,1924.535449,7105.977043
952.096698,766.095498,740.205942,8290.306550
952.097017,-919.314598,-592.164754,9622.677246
952.097336,-2451.505594,-1332.370696,11103.089130
952.097655,-3140.991542,-1702.473667,11917.315666
952.097974,-3524.039291,-1480.411884,12361.439231
952.098293,-3524.039291,-1480.411884,12805.562797
952.098612,-2528.115143,-518.144159,12139.377449
952.098931,-1149.143247,666.185348,10658.965565
952.099250,1072.533697,2220.617826,8882.471304
952.099569,2834.553343,3849.070898,6809.894666
952.099888,4213.525239,3627.009116,4885.359217
952.100206,4596.572988,3034.844362,4219.173869
952.100525,4826.401637,2294.638420,4441.235652
952.100844,4060.306139,370.102971,5033.400406
952.101163,3677.258390,-666.185348,6661.853478
952.101482,2068.457845,-1554.432478,8216.285956
952.101801,0.000000,-2738.761985,9696.697840
952.102120,-1838.629195,-2886.803174,11325.150913
952.102439,-2757.943793,-3034.844362,12657.521608
952.102758,-3140.991542,-2516.700203,12805.562797
952.103077,-2911.162892,-1850.514855,12731.542202
952.103396,-2221.676944,-1776.494261,12583.501014
952.103715,-1608.800546,-1702.473667,11621.233289
952.104034,153.219100,-1110.308913,10066.800811
952.104353,1838.629195,-148.041188,8660.409521
952.104672,3447.429741,666.185348,6957.935855
952.104991,4749.792088,1110.308913,5329.482782
952.105310,4903.011187,1998.556043,5181.441594
952.105629,4596.572988,1702.473667,4811.338623
952.105947,3600.648841,1776.494261,5033.400406
952.106266,2145.067394,1110.308913,7105.977043
952.106585,383.047749,444.123565,7846.182985
952.106904,-995.924147,-1406.391290,9992.780217
952.107223,-2757.943793,-2516.700203,12065.356855
952.107542,-3907.087040,-2294.638420,13027.624579
952.107861,-3907.087040,-2590.720797,13471.748144
952.108180,-3600.648841,-1036.288319,12879.583391
952.108499,-1991.848295,148.041188,12213.398043
952.108818,-612.876398,1332.370696,10436.903782
952.109137,766.095498,2812.782580,8438.347739
952.109456,2604.724693,3849.070898,6439.791695
952.109775,3983.696590,4737.318029,4663.297435
952.110094,4060.306139,4589.276840,4367.215058
952.110413,3983.696590,3182.885551,4663.297435
952.110732,2987.772442,1998.556043,5477.523971
952.111051,2298.286494,1850.514855,7476.080014
952.111369,919.314598,740.205942,9104.533087
952.111688,-689.485948,518.144159,10510.924376
952.112007,-1685.410096,-0.000000,11769.274478
952.112326,-2298.286494,518.144159,12657.521608
952.112645,-2451.505594,1406.391290,12731.542202
952.112964,-1762.019645,1850.514855,11991.336260
952.113283,-995.924147,1998.556043,11695.253884
952.113602,153.219100,2294.638420,11029.068536
952.113921,1378.971896,2368.659014,9622.677246
952.114240,2604.724693,2812.782580,8290.306550
952.114559,3677.258390,3108.864956,7105.977043
952.114878,4826.401637,3256.906145,6365.771101
952.115197,5056.230287,3108.864956,6291.750507
952.115516,4519.963438,2442.679609,6365.771101
952.115835,3447.429741,2072.576638,7698.141797
952.116154,1991.848295,1332.370696,9030.512492
952.116473,0.000000,148.041188,9992.780217
952.116792,-1762.019645,-518.144159,11843.295072
952.117110,-3370.820191,-888.247130,13471.748144
952.117429,-3370.820191,-1184.329507,14063.912898
952.117748,-3370.820191,-814.226536,14063.912898
952.118067,-2757.943793,-0.000000,13471.748144
952.118386,-1302.362347,1036.288319,12065.356855
952.118705,229.828649,2146.597232,10732.986159
952.119024,2221.676944,3034.844362,8216.285956
952.119343,3447.429741,3256.906145,6661.853478
952.119662,4366.744339,2886.803174,5773.606348
952.119981,4213.525239,2812.782580,5773.606348
952.120300,3677.258390,1036.288319,5995.668130
952.120619,2298.286494,-0.000000,7105.977043
952.120938,919.314598,-1110.308913,9326.594869
952.121257,-536.266849,-1258.350101,9918.759623
952.121576,-2451.505594,-1776.494261,10881.027347
952.121895,-3447.429741,-1998.556043,12583.501014
952.122214,-3677.258390,-1702.473667,12879.583391
952.122533,-3753.867940,-1480.411884,11843.295072
952.122851,-2451.505594,-1776.494261,12435.459826
952.123170,-1915.238745,-1554.432478,12065.356855
952.123489,-229.828649,-444.123565,9918.759623
952.123808,1302.362347,296.082377,8290.306550
952.124127,2681.334243,962.267725,6957.935855
952.124446,4290.134789,1554.432478,5255.462188
952.124765,4749.792088,2146.597232,4293.194464
952.125084,4443.353888,1702.473667,4515.256246
952.125403,3600.648841,1258.350101,5033.400406
952.125722,2604.724693,518.144159,6143.709319
952.126041,842.705048,-148.041188,7328.038826
952.126360,-306.438199,-1036.288319,9252.574275
952.126679,-1838.629195,-2516.700203,10510.924376
952.126998,-2451.505594,-3552.988522,12361.439231
952.127317,-2451.505594,-3478.967927,13175.665768
952.127636,-1915.238745,-1998.556043,12213.398043
952.127955,-1072.533697,-1110.308913,11621.233289
952.128274,536.266849,222.061783,10140.821405
952.128592,2374.896044,1850.514855,8438.347739
952.128911,3830.477490,3552.988522,5773.606348
952.129230,5132.839837,3923.091493,4515.256246
952.129549,5439.278036,4589.276840,3775.050304
952.129868,5362.668486,3923.091493,3923.091493
952.130187,4519.963438,2442.679609,4589.276840
952.130506,3140.991542,888.247130,6957.935855
952.130825,1302.362347,-0.000000,8290.306550
952.131144,76.609550,-592.164754,9696.697840
952.131463,-1608.800546,-1036.288319,11251.130318
952.131782,-2221.676944,-1332.370696,12879.583391
952.132101,-2834.553343,-0.000000,12953.603985
952.132420,-2757.943793,518.144159,12509.480420
952.132739,-1991.848295,1258.350101,12509.480420
952.133058,-612.876398,1998.556043,11029.068536
952.133377,536.266849,2590.720797,9622.677246
952.133696,2068.457845,3256.906145,8290.306550
952.134015,2604.724693,3404.947333,6809.894666
952.134333,3600.648841,3330.926739,5699.585753
952.134652,3524.039291,3108.864956,6143.709319
952.134971,3064.381992,2368.659014,7328.038826
952.135290,1838.629195,1702.473667,8290.306550
952.135609,306.438199,1480.411884,9548.656652
952.135928,-1072.533697,296.082377,10955.047942
952.136247,-2834.553343,-518.144159,12657.521608
952.136566,-3294.210641,-962.267725,14434.015869
952.136885,-4826.401637,-1110.308913,14656.077652
952.137204,-4290.134789,-888.247130,14656.077652
952.137523,-3524.039291,296.082377,13693.809927
952.137842,-1685.410096,814.226536,12657.521608
952.138161,-536.266849,1406.391290,10955.047942
952.138480,1378.971896,2516.700203,9030.512492
952.138798,2987.772442,3108.864956,7254.018232
952.139117,4060.306139,2960.823768,6069.688724
952.139436,4290.134789,2368.659014,5625.565159
952.139755,3677.258390,1332.370696,6291.750507
952.140074,2451.505594,370.102971,7772.162391
952.140393,1225.752797,-814.226536,9474.636058
952.140712,-229.828649,-1480.411884,10436.903782
952.141031,-1225.752797,-2368.659014,12065.356855
952.141349,-2604.724693,-2368.659014,13175.665768
952.141668,-3294.210641,-2220.617826,13397.727550
952.141987,-3217.601092,-1924.535449,12953.603985
952.142306,-2374.896044,-1258.350101,12435.459826
952.142625,-1149.143247,-740.205942,11695.253884
952.142944,459.657299,-0.000000,9992.780217
952.143263,1608.800546,592.164754,8290.306550
952.143581,3447.429741,740.205942,6661.853478
952.143900,3907.087040,1332.370696,4811.338623
952.144219,4519.963438,1184.329507,4441.235652
952.144538,3600.648841,1184.329507,3997.112087
952.144857,3140.991542,888.247130,4663.297435
952.145176,1302.362347,-592.164754,5921.647536
952.145495,0.000000,-1036.288319,7698.141797
952.145813,-2145.067394,-2442.679609,8956.491898
952.146132,-3294.210641,-2294.638420,10066.800811
952.146451,-4290.134789,-3404.947333,11991.336260
952.146770,-4443.353888,-3256.906145,11991.336260
952.147089,-3064.381992,-3182.885551,12213.398043
952.147408,-2911.162892,-1850.514855,11547.212695
952.147727,-1149.143247,-888.247130,10214.842000
952.148046,383.047749,1184.329507,6957.935855
952.148364,3064.381992,1998.556043,5921.647536
952.148683,3447.429741,3256.906145,4663.297435
952.149002,3983.696590,3182.885551,2960.823768
952.149321,4366.744339,2516.700203,3182.885551
952.149640,3830.477490,1184.329507,4737.318029
952.149959,2145.067394,296.082377,5921.647536
952.150278,1072.533697,-518.144159,7624.121203
952.150596,-612.876398,-2072.576638,9474.636058
952.150915,-1991.848295,-2812.782580,11695.253884
952.151234,-2834.553343,-3182.885551,12805.562797
952.151553,-2987.772442,-2294.638420,13027.624579
952.151872,-2451.505594,-1110.308913,13101.645173
952.152191,-1532.190996,-370.102971,12213.398043
952.152510,-153.219100,-0.000000,11621.233289
952.152829,1608.800546,1480.411884,10066.800811
952.153147,3140.991542,2072.576638,8142.265362
952.153466,4136.915689,2442.679609,6883.915261
952.153785,5056.230287,2368.659014,5995.668130
952.154104,5515.887586,2294.638420,6143.709319
952.154423,4673.182538,1850.514855,6513.812290
952.154742,3600.648841,1110.308913,7772.162391
952.155061,1532.190996,-0.000000,9252.574275
952.155379,0.000000,-0.000000,10510.924376
952.155698,-1455.581446,-222.061783,12065.356855
952.156017,-3064.381992,-592.164754,13471.748144
952.156336,-4443.353888,-888.247130,14063.912898
952.156655,-4673.182538,-518.144159,14137.933492
952.156974,-3830.477490,-0.000000,14137.933492
952.157293,-2911.162892,666.185348,13471.748144
952.157611,-1072.533697,1850.514855,11473.192101
952.157930,536.266849,3034.844362,9622.677246
952.158249,2068.457845,3478.967927,7846.182985
952.158568,3217.601092,3849.070898,6439.791695
952.158887,3524.039291,3775.050304,5551.544565
952.159206,3524.039291,2886.803174,5847.626942
952.159525,2604.724693,2146.597232,7105.977043
952.159844,1455.581446,1184.329507,8216.285956
952.160162,-153.219100,-74.020594,9918.759623
952.160481,-1762.019645,-814.226536,11251.130318
952.160800,-3217.601092,-1332.370696,12435.459826
952.161119,-3830.477490,-1110.308913,13471.748144
952.161438,-3983.696590,-814.226536,13323.706956
952.161757,-3217.601092,-592.164754,13175.665768
952.162076,-2298.286494,-444.123565,12805.562797
952.162394,-1225.752797,370.102971,11473.192101
952.162713,842.705048,888.247130,9178.553681
952.163032,2604.724693,1554.432478,7550.100608
952.163351,4443.353888,1480.411884,6143.709319
952.163670,4519.963438,1924.535449,5477.523971
952.163989,4749.792088,1554.432478,4959.379811
952.164308,3983.696590,740.205942,5181.441594
952.164626,2834.553343,-148.041188,6587.832884
952.164945,1455.581446,-740.205942,7920.203579
952.165264,-383.047749,-2072.576638,9104.533087
952.165583,-2145.067394,-2960.823768,10732.986159
952.165902,-3294.210641,-3627.009116,12065.356855
952.166221,-3294.210641,-3849.070898,13027.624579
952.166540,-3600.648841,-3627.009116,12583.501014
952.166859,-2757.943793,-2886.803174,12213.398043
952.167177,-1225.752797,-1850.514855,10955.047942
952.167496,459.657299,-814.226536,9178.553681
952.167815,2374.896044,-0.000000,7254.018232
952.168134,3064.381992,1184.329507,5403.503377
952.168453,4443.353888,2072.576638,3923.091493
952.168772,4596.572988,1924.535449,3478.967927
952.169091,4366.744339,1406.391290,4145.153275
952.169409,3140.991542,-148.041188,5403.503377
952.169728,1762.019645,-888.247130,7031.956449
952.170047,306.438199,-1628.453072,8586.388927
952.170366,-1225.752797,-2220.617826,9696.697840
952.170685,-2451.505594,-2516.700203,11177.109724
952.171004,-3064.381992,-2590.720797,11917.315666
952.171323,-3294.210641,-2294.638420,11991.336260
952.171642,-2757.943793,-1554.432478,11547.212695
952.171960,-2068.457845,-888.247130,11103.089130
952.172279,-459.657299,-74.020594,9696.697840
952.172598,766.095498,814.226536,8068.244768
952.172917,2068.457845,1776.494261,6957.935855
952.173236,3217.601092,2146.597232,5995.668130
952.173555,3447.429741,2368.659014,5181.441594
952.173874,3600.648841,1924.535449,5033.400406
952.174192,2987.772442,1184.329507,6217.729913
952.174511,2068.457845,666.185348,7772.162391
952.174830,229.828649,-0.000000,8290.306550
952.175149,-689.485948,-962.267725,10214.842000
952.175468,-2451.505594,-740.205942,11325.150913
952.175787,-3217.601092,-666.185348,12805.562797
952.176106,-3217.601092,-1332.370696,13249.686362
952.176424,-2834.553343,-148.041188,13545.768739
952.176743,-1838.629195,222.061783,13471.748144
952.177062,-612.876398,1628.453072,11177.109724
952.177381,1225.752797,2368.659014,10140.821405
952.177700,2451.505594,3330.926739,7772.162391
952.178019,3677.258390,4145.153275,6809.894666
952.178338,4903.011187,3478.967927,5699.585753
952.178657,4749.792088,3034.844362,6809.894666
952.178975,4213.525239,2146.597232,7254.018232
952.179294,3370.820191,1480.411884,8364.327145
952.179613,1762.019645,740.205942,9844.739029
952.179932,153.219100,222.061783,11177.109724
952.180251,-766.095498,-74.020594,12287.418637
952.180570,-1762.019645,-296.082377,13323.706956
952.180889,-1991.848295,-444.123565,13545.768739
952.181207,-1532.190996,-0.000000,13249.686362
952.181526,-1149.143247,814.226536,13101.645173
952.181845,-383.047749,962.267725,11917.315666
952.182164,842.705048,1702.473667,10066.800811
952.182483,2298.286494,2294.638420,8512.368333
952.182802,3140.991542,3182.885551,6809.894666
952.183121,4060.306139,2812.782580,6513.812290
952.183439,3830.477490,2368.659014,6143.709319
952.183758,3370.820191,1924.535449,6661.853478
952.184077,2068.457845,888.247130,7550.100608
952.184396,229.828649,370.102971,8660.409521
952.184715,-919.314598,-666.185348,9918.759623
952.185034,-2145.067394,-1258.350101,11399.171507
952.185353,-3677.258390,-1554.432478,12361.439231
952.185672,-3753.867940,-1924.535449,12953.603985
952.185990,-3370.820191,-1480.411884,13619.789333
952.186309,-2834.553343,-1184.329507,12731.542202
952.186628,-1608.800546,-296.082377,11177.109724
952.186947,0.000000,518.144159,9400.615463
952.187266,1302.362347,1480.411884,7772.162391
952.187585,2604.724693,1924.535449,5921.647536
952.187904,4060.306139,2294.638420,4589.276840
952.188222,4060.306139,1702.473667,4663.297435
952.188541,3983.696590,1110.308913,4959.379811
952.188860,3294.210641,-74.020594,5773.606348
952.189179,1991.848295,-962.267725,7402.059420
952.189498,153.219100,-1776.494261,8734.430116
952.189817,-1302.362347,-2294.638420,10288.862594
952.190136,-2068.457845,-2368.659014,11399.171507
952.190455,-2221.676944,-2368.659014,12065.356855
952.190773,-2374.896044,-1998.556043,11843.295072
952.191092,-1302.362347,-1258.350101,11843.295072
952.191411,-229.828649,-888.247130,10807.006753
952.191730,1302.362347,-148.041188,9252.574275
952.192049,2681.334243,814.226536,7772.162391
952.192368,4213.525239,1924.535449,5995.668130
952.192687,4979.620737,2294.638420,4589.276840
952.193005,5132.839837,2368.659014,3923.091493
952.193324,4366.744339,1702.473667,4145.153275
952.193643,3140.991542,1110.308913,5403.503377
952.193962,1608.800546,296.082377,6735.874072
952.194281,0.000000,-444.123565,8068.244768
952.194600,-2068.457845,-1480.411884,9844.739029
952.194919,-3524.039291,-2220.617826,11991.336260
952.195237,-4903.011187,-2220.617826,13249.686362
952.195556,-4673.182538,-1702.473667,13471.748144
952.195875,-4213.525239,-888.247130,13101.645173
952.196194,-3217.601092,-0.000000,12435.459826
952.196513,-1532.190996,1554.432478,11325.150913
952.196832,536.266849,2886.803174,9030.512492
952.197151,2451.505594,3701.029710,7105.977043
952.197470,3983.696590,4737.318029,5625.565159
952.197788,4519.963438,4441.235652,4737.318029
952.198107,4749.792088,3775.050304,4737.318029
952.198426,3677.258390,2738.761985,5847.626942
952.198745,2451.505594,1332.370696,7624.121203
952.199064,1149.143247,296.082377,9474.636058
952.199383,-383.047749,-444.123565,11251.130318
952.199702,-2221.676944,-962.267725,12731.542202
952.200020,-2681.334243,-666.185348,13841.851115
952.200339,-3217.601092,-518.144159,14137.933492
952.200658,-2604.724693,-74.020594,14063.912898
952.200977,-1608.800546,666.185348,13989.892304
952.201296,-383.047749,1110.308913,12657.521608
952.201615,1608.800546,2220.617826,10658.965565
952.201934,3294.210641,2960.823768,8660.409521
952.202252,5056.230287,3849.070898,7105.977043
952.202571,5898.935335,3775.050304,6143.709319
952.202890,6052.154434,3701.029710,5255.462188
952.203209,5515.887586,2738.761985,5921.647536
952.203528,4136.915689,1998.556043,7179.997637
952.203847,2451.505594,1184.329507,8364.327145
952.204166,459.657299,-0.000000,9770.718434
952.204485,-1455.581446,-444.123565,11621.233289
952.204803,-3064.381992,-1184.329507,12953.603985
952.205122,-4060.306139,-1332.370696,13841.851115
952.205441,-4366.744339,-1332.370696,14137.933492
952.205760,-3677.258390,-888.247130,13693.809927
952.206079,-2987.772442,-0.000000,12509.480420
952.206398,-1225.752797,814.226536,11177.109724
952.206717,0.000000,1554.432478,8882.471304
952.207035,2068.457845,2590.720797,6957.935855
952.207354,3600.648841,3256.906145,5329.482782
952.207673,3753.867940,3552.988522,4663.297435
952.207992,4060.306139,2368.659014,4663.297435
952.208311,2987.772442,1554.432478,5403.503377
952.208630,1838.629195,148.041188,6883.915261
952.208949,153.219100,-962.267725,8142.265362
952.209268,-1532.190996,-1406.391290,9400.615463
952.209586,-2374.896044,-2146.597232,11177.109724
952.209905,-3600.648841,-2590.720797,12435.459826
952.210224,-3600.648841,-2368.659014,12361.439231
952.210543,-2834.553343,-1776.494261,12139.377449
952.210862,-1532.190996,-814.226536,11399.171507
952.211181,0.000000,-0.000000,9770.718434
952.211500,1762.019645,666.185348,7994.224174
952.211818,3524.039291,1628.453072,6439.791695
952.212137,4903.011187,1924.535449,5107.421000
952.212456,5439.278036,1998.556043,4515.256246
952.212775,5822.325785,1480.411884,4811.338623
952.213094,4903.011187,1036.288319,5255.462188
952.213413,3600.648841,740.205942,6365.771101
952.213732,1838.629195,-296.082377,7772.162391
952.214050,459.657299,-1110.308913,9030.512492
952.214369,-1378.971896,-1406.391290,10955.047942
952.214688,-2604.724693,-2368.659014,12287.418637
952.215007,-3217.601092,-2442.679609,12731.542202
952.215326,-3217.601092,-2072.576638,12657.521608
952.215645,-2221.676944,-1332.370696,12287.418637
952.215964,-1455.581446,-518.144159,11103.089130
952.216283,612.876398,1110.308913,9104.533087
952.216601,2298.286494,2368.659014,7179.997637
952.216920,3524.039291,3182.885551,5995.668130
952.217239,4060.306139,3182.885551,5107.421000
952.217558,4136.915689,2738.761985,5033.400406
952.217877,3294.210641,1998.556043,5847.626942
952.218196,2298.286494,1036.288319,7254.018232
952.218515,383.047749,370.102971,8808.450710
952.218833,-1225.752797,-222.061783,10140.821405
952.219152,-2834.553343,-888.247130,11695.253884
952.219471,-3524.039291,-814.226536,12805.562797
952.219790,-4290.134789,-888.247130,13545.768739
952.220109,-3983.696590,-592.164754,13175.665768
952.220428,-3447.429741,-0.000000,13027.624579
952.220747,-2451.505594,740.205942,12361.439231
952.221065,-612.876398,1480.411884,10807.006753
952.221384,919.314598,2294.638420,8956.491898
952.221703,1838.629195,2812.782580,7550.100608
952.222022,3370.820191,3034.844362,6439.791695
952.222341,4366.744339,3108.864956,5773.606348
952.222660,4136.915689,2442.679609,6069.688724
952.222979,3217.601092,2072.576638,7179.997637
952.223298,2451.505594,740.205942,8364.327145
952.223616,612.876398,222.061783,9992.780217
952.223935,-766.095498,-370.102971,11325.150913
952.224254,-2221.676944,-1184.329507,13027.624579
952.224573,-2834.553343,-962.267725,13915.871710
952.224892,-2451.505594,-814.226536,14063.912898
952.225211,-2068.457845,-0.000000,13619.789333
952.225530,-1149.143247,74.020594,12361.439231
952.225848,306.438199,1184.329507,10658.965565
952.226167,2451.505594,1850.514855,8660.409521
952.226486,3753.867940,2368.659014,7105.977043
952.226805,4443.353888,2590.720797,6217.729913
952.227124,4903.011187,2442.679609,5477.523971
952.227443,4519.963438,1850.514855,5551.544565
952.227762,3524.039291,740.205942,6439.791695
952.228081,2068.457845,74.020594,7772.162391
952.228399,229.828649,-666.185348,8882.471304
952.228718,-1302.362347,-1036.288319,10288.862594
952.229037,-2451.505594,-1776.494261,11473.192101
952.229356,-3524.039291,-1776.494261,12435.459826
952.229675,-4060.306139,-1850.514855,12361.439231
952.229994,-3217.601092,-1480.411884,12139.377449
952.230313,-2298.286494,-962.267725,11769.274478
952.230631,-1225.752797,-370.102971,10658.965565
952.230950,229.828649,666.185348,8586.388927
952.231269,1991.848295,1480.411884,6957.935855
952.231588,2987.772442,1998.556043,5329.482782
952.231907,3140.991542,1998.556043,4219.173869
952.232226,3447.429741,1628.453072,4145.153275
952.232545,2528.115143,1110.308913,5107.421000
952.232863,1072.533697,-222.061783,6439.791695
952.233182,-306.438199,-962.267725,7698.141797
952.233501,-1991.848295,-1776.494261,9474.636058
952.233820,-3217.601092,-2368.659014,11325.150913
952.234139,-4213.525239,-2812.782580,12139.377449
952.234458,-4213.525239,-2960.823768,12435.459826
952.234777,-3447.429741,-2294.638420,12287.418637
952.235096,-2221.676944,-1332.370696,11769.274478
952.235414,-995.924147,-962.267725,11103.089130
952.235733,995.924147,-74.020594,9252.574275
952.236052,2757.943793,1110.308913,7179.997637
952.236371,4213.525239,1998.556043,5625.565159
952.236690,5209.449386,2368.659014,4515.256246
952.237009,5515.887586,2294.638420,4367.215058
952.237328,4826.401637,1406.391290,4959.379811
952.237646,3600.648841,518.144159,6735.874072
952.237965,2145.067394,-592.164754,8216.285956
952.238284,459.657299,-1406.391290,9918.759623
952.238603,-1072.533697,-1850.514855,11547.212695
952.238922,-2451.505594,-2294.638420,12953.603985
952.239241,-2834.553343,-2516.700203,13693.809927
952.239559,-2757.943793,-1702.473667,13175.665768
952.239878,-2068.457845,-888.247130,13397.727550
952.240197,-919.314598,-0.000000,11695.253884
952.240516,229.828649,1110.308913,10140.821405
952.240835,2068.457845,2220.617826,8290.306550
952.241154,3294.210641,2886.803174,6587.832884
952.241472,3524.039291,3330.926739,6069.688724
952.241791,4136.915689,3256.906145,5477.523971
952.242110,3524.039291,2590.720797,5773.606348
952.242429,2451.505594,1480.411884,6809.894666
952.242748,1225.752797,518.144159,8438.347739
952.243067,-689.485948,-148.041188,9474.636058
952.243386,-2451.505594,-666.185348,11103.089130
952.243704,-3677.258390,-1480.411884,12361.439231
952.244023,-4749.792088,-1850.514855,13767.830521
952.244342,-4749.792088,-1480.411884,13767.830521
952.244661,-4519.963438,-666.185348,13471.748144
952.244980,-3600.648841,-296.082377,12953.603985
952.245299,-2145.067394,888.247130,11251.130318
952.245617,-153.219100,1998.556043,9474.636058
952.245936,1302.362347,2664.741391,7698.141797
952.246255,2757.943793,3256.906145,6365.771101
952.246574,3830.477490,3256.906145,5551.544565
952.246893,4060.306139,2516.700203,5477.523971
952.247212,3907.087040,1702.473667,6439.791695
952.247530,2528.115143,148.041188,7772.162391
952.247849,1838.629195,-444.123565,9030.512492
952.248168,153.219100,-962.267725,10066.800811
952.248487,-1072.533697,-1258.350101,11547.212695
952.248806,-2068.457845,-1702.473667,13101.645173
952.249125,-2221.676944,-1406.391290,13323.706956
952.249443,-1915.238745,-962.267725,12657.521608
952.249762,-1149.143247,-296.082377,11843.295072
952.250081,0.000000,222.061783,10881.027347
952.250400,1608.800546,962.267725,9474.636058
952.250719,3140.991542,1628.453072,7476.080014
952.251038,4366.744339,2220.617826,6143.709319
952.251357,4903.011187,2368.659014,5181.441594
952.251675,4826.401637,2072.576638,5181.441594
952.251994,4060.306139,1258.350101,5403.503377
952.252313,2528.115143,444.123565,6365.771101
952.252632,919.314598,-0.000000,7846.182985
952.252951,-612.876398,-888.247130,8956.491898
952.253270,-2451.505594,-1702.473667,10436.903782
952.253588,-4060.306139,-2368.659014,12139.377449
952.253907,-4673.182538,-2590.720797,12953.603985
952.254226,-4826.401637,-2442.679609,13027.624579
952.254545,-4213.525239,-1998.556043,12509.480420
952.254864,-2604.724693,-1258.350101,11325.150913
952.255183,-1455.581446,-74.020594,9918.759623
952.255501,536.266849,1110.308913,7772.162391
952.255820,2298.286494,2072.576638,6217.729913
952.256139,2834.553343,1924.535449,5477.523971
952.256458,3830.477490,1998.556043,4145.153275
952.256777,3677.258390,1406.391290,4737.318029
952.257096,2911.162892,592.164754,6069.688724
952.257414,1915.238745,-518.144159,7254.018232
952.257733,229.828649,-1036.288319,8956.491898
952.258052,-1225.752797,-1702.473667,10362.883188
952.258371,-2528.115143,-2516.700203,11843.295072
952.258690,-3064.381992,-2294.638420,12657.521608
952.259009,-2681.334243,-1702.473667,12953.603985
952.259328,-1991.848295,-888.247130,12361.439231
952.259646,-842.705048,-370.102971,11399.171507
952.259965,536.266849,296.082377,10436.903782
952.260284,2298.286494,1628.453072,8734.430116
952.260603,4060.306139,1998.556043,6735.874072
952.260922,4903.011187,2590.720797,5329.482782
952.261241,5975.544884,2738.761985,4811.338623
952.261559,5439.278036,2146.597232,4959.379811
952.261878,4519.963438,1406.391290,5921.647536
952.262197,3524.039291,222.061783,7179.997637
952.262516,1532.190996,-148.041188,8734.430116
952.262835,-306.438199,-888.247130,10140.821405
952.263154,-2145.067394,-1702.473667,11917.315666
952.263472,-2834.553343,-1924.535449,13471.748144
952.263791,-3753.867940,-1924.535449,13915.871710
952.264110,-3447.429741,-888.247130,13323.706956
952.264429,-2528.115143,-0.000000,12435.459826
952.264748,-1302.362347,888.247130,11325.150913
952.265067,383.047749,1924.535449,9474.636058
952.265385,1762.019645,2664.741391,7698.141797
952.265704,2987.772442,3256.906145,6365.771101
952.266023,3524.039291,3404.947333,5551.544565
952.266342,3753.867940,3034.844362,5255.462188
952.266661,3064.381992,2368.659014,5847.626942
952.266980,1991.848295,1110.308913,7920.203579
952.267299,383.047749,296.082377,9104.533087
952.267617,-1072.533697,-444.123565,10214.842000
952.267936,-2451.505594,-1110.308913,11917.315666
952.268255,-3370.820191,-1480.411884,13249.686362
952.268574,-3677.258390,-1258.350101,13397.727550
952.268893,-3294.210641,-888.247130,13323.706956
952.269212,-2528.115143,-370.102971,12953.603985
952.269530,-995.924147,-0.000000,11917.315666
952.269849,612.876398,1110.308913,10362.883188
952.270168,2681.334243,2294.638420,8808.450710
952.270487,4060.306139,2590.720797,6661.853478
952.270806,5132.839837,3182.885551,5255.462188
952.271125,5515.887586,2294.638420,4885.359217
952.271443,5362.668486,2294.638420,5107.421000
952.271762,4519.963438,1554.432478,6365.771101
952.272081,2528.115143,592.164754,7772.162391
952.272400,689.485948,-296.082377,9030.512492
952.272719,-842.705048,-1036.288319,10288.862594
952.273038,-2374.896044,-1554.432478,12065.356855
952.273356,-3294.210641,-1998.556043,12805.562797
952.273675,-3217.601092,-1924.535449,13101.645173
952.273994,-2987.772442,-1332.370696,13027.624579
952.274313,-1532.190996,-740.205942,11991.336260
952.274632,-229.828649,148.041188,10510.924376
952.274951,1378.971896,1332.370696,8734.430116
952.275270,2987.772442,2442.679609,6439.791695
952.275588,3907.087040,2960.823768,4885.359217
952.275907,4519.963438,2812.782580,4293.194464
952.276226,4136.915689,2590.720797,4441.235652
952.276545,2987.772442,1480.411884,5329.482782
952.276864,1685.410096,296.082377,7179.997637
952.277183,-229.828649,-592.164754,8512.368333
952.277501,-1455.581446,-1036.288319,9770.718434
952.277820,-2681.334243,-1628.453072,11325.150913
952.278139,-3677.258390,-1850.514855,12213.398043
952.278458,-3830.477490,-1480.411884,12953.603985
952.278777,-3447.429741,-888.247130,12361.439231
952.279096,-2221.676944,-444.123565,11769.274478
952.279414,-689.485948,-0.000000,10732.986159
952.279733,766.095498,1332.370696,8956.491898
952.280052,2834.553343,2072.576638,7105.977043
952.280371,4060.306139,2812.782580,5551.544565
952.280690,4443.353888,2442.679609,5107.421000
952.281009,4749.792088,2294.638420,4737.318029
952.281328,4060.306139,1480.411884,5477.523971
952.281646,2681.334243,222.061783,6883.915261
952.281965,1072.533697,-592.164754,8586.388927
952.282284,-306.438199,-1332.370696,9918.759623
952.282603,-1991.848295,-1924.535449,11473.192101
952.282922,-3600.648841,-2442.679609,13101.645173
952.283241,-3753.867940,-2664.741391,13767.830521
952.283559,-3677.258390,-1702.473667,13471.748144
952.283878,-2604.724693,-740.205942,13471.748144
952.284197,-1608.800546,-0.000000,12287.418637
952.284516,153.219100,1110.308913,10436.903782
952.284835,1991.848295,2072.576638,8512.368333
952.285154,3524.039291,2812.782580,6957.935855
952.285472,4443.353888,3404.947333,5477.523971
952.285791,4979.620737,3108.864956,4885.359217
952.286110,4596.572988,2368.659014,5403.503377
952.286429,3140.991542,1406.391290,6661.853478
952.286748,2221.676944,814.226536,8290.306550
952.287067,459.657299,-74.020594,9474.636058
952.287385,-1225.752797,-518.144159,11029.068536
952.287704,-2528.115143,-1184.329507,12509.480420
952.288023,-2987.772442,-1036.288319,13397.727550
952.288342,-3294.210641,-740.205942,13323.706956
952.288661,-2604.724693,148.041188,13101.645173
952.288980,-1072.533697,296.082377,11473.192101
952.289299,-153.219100,1554.432478,10807.006753
952.289617,1608.800546,2738.761985,8734.430116
952.289936,2681.334243,3330.926739,6735.874072
952.290255,3907.087040,3552.988522,5551.544565
952.290574,4826.401637,2886.803174,4811.338623
952.290893,3983.696590,2442.679609,5107.421000
952.291212,3064.381992,1850.514855,6143.709319
952.291530,1838.629195,888.247130,7179.997637
952.291849,76.609550,-0.000000,8512.368333
952.292168,-1532.190996,-666.185348,10066.800811
952.292487,-2757.943793,-1332.370696,11769.274478
952.292806,-4136.915689,-1850.514855,12953.603985
952.293125,-4060.306139,-1628.453072,13249.686362
952.293443,-3524.039291,-1184.329507,13101.645173
952.293762,-2604.724693,-444.123565,12509.480420
952.294081,-689.485948,518.144159,11029.068536
952.294400,1302.362347,1554.432478,9400.615463
952.294719,2681.334243,2368.659014,7254.018232
952.295038,4596.572988,2516.700203,6217.729913
952.295356,4903.011187,2812.782580,5107.421000
952.295675,5132.839837,2368.659014,4737.318029
952.295994,4443.353888,1110.308913,5847.626942
952.296313,3064.381992,444.123565,7254.018232
952.296632,1991.848295,-222.061783,8512.368333
952.296951,0.000000,-888.247130,9696.697840
952.297270,-1532.190996,-1480.411884,11399.171507
952.297588,-2451.505594,-1554.432478,12805.562797
952.297907,-2987.772442,-1554.432478,13397.727550
952.298226,-2757.943793,-1184.329507,12953.603985
952.298545,-2221.676944,-592.164754,12583.501014
952.298864,-689.485948,-0.000000,11325.150913
952.299183,919.314598,1406.391290,9474.636058
952.299501,2451.505594,2294.638420,7624.121203
952.299820,3753.867940,2664.741391,6217.729913
952.300139,4213.525239,2664.741391,5107.421000
952.300458,4366.744339,2590.720797,4811.338623
952.300777,3907.087040,1924.535449,5329.482782
952.301096,2681.334243,1184.329507,6587.832884
952.301414,919.314598,296.082377,7698.141797
952.301733,-842.705048,-592.164754,8808.450710
952.302052,-2834.553343,-1406.391290,10881.027347
952.302371,-4443.353888,-2072.576638,12805.562797
952.302690,-4903.011187,-2146.597232,13027.624579
952.303009,-4519.963438,-1480.411884,13027.624579
952.303327,-3907.087040,-1036.288319,13027.624579
952.303646,-2604.724693,-74.020594,11843.295072
952.303965,-153.219100,1036.288319,9770.718434
952.304284,1072.533697,1998.556043,8290.306550
952.304603,2834.553343,2812.782580,6513.812290
952.304922,3983.696590,3034.844362,4959.379811
952.305241,4673.182538,2886.803174,4663.297435
952.305559,4213.525239,1998.556043,5477.523971
952.305878,3447.429741,888.247130,6513.812290
952.306197,2298.286494,-296.082377,7698.141797
952.306516,766.095498,-666.185348,9474.636058
952.306835,-612.876398,-1184.329507,10955.047942
952.307154,-2298.286494,-1998.556043,12583.501014
952.307472,-2987.772442,-1628.453072,13545.768739
952.307791,-2757.943793,-1184.329507,13323.706956
952.308110,-2451.505594,-666.185348,12879.583391
952.308429,-536.266849,-74.020594,12139.377449
952.308748,459.657299,592.164754,11103.089130
952.309067,2068.457845,1480.411884,9030.512492
952.309385,3294.210641,2220.617826,7105.977043
952.309704,4443.353888,2590.720797,5921.647536
952.310023,4749.792088,2442.679609,5107.421000
952.310342,4519.963438,2146.597232,5107.421000
952.310661,3294.210641,1406.391290,5847.626942
952.310980,1685.410096,814.226536,7402.059420
952.311298,-306.438199,-222.061783,8956.491898
952.311617,-2221.676944,-1184.329507,10436.903782
952.311936,-3600.648841,-1924.535449,12213.398043
952.312255,-5056.230287,-2516.700203,13619.789333
952.312574,-5132.839837,-1998.556043,13841.851115
952.312893,-4903.011187,-1480.411884,13619.789333
952.313212,-3830.477490,-1036.288319,13249.686362
952.313530,-2145.067394,296.082377,11621.233289
952.313849,0.000000,1554.432478,9548.656652
952.314168,2145.067394,2368.659014,7254.018232
952.314487,4136.915689,3182.885551,5773.606348
952.314806,4213.525239,3330.926739,4737.318029
952.315125,4979.620737,2516.700203,4145.153275
952.315443,4366.744339,1480.411884,4959.379811
952.315762,2834.553343,296.082377,6735.874072
952.316081,1302.362347,-592.164754,8142.265362
952.316400,0.000000,-1184.329507,9474.636058
952.316719,-1532.190996,-1776.494261,11029.068536
952.317038,-2451.505594,-1924.535449,12435.459826
952.317356,-3064.381992,-1850.514855,12731.542202
952.317675,-2604.724693,-1702.473667,12879.583391
952.317994,-2145.067394,-1258.350101,12287.418637
952.318313,-153.219100,-148.041188,10955.047942
952.318632,1225.752797,592.164754,9474.636058
952.318951,2911.162892,1702.473667,8142.265362
952.319270,4443.353888,2590.720797,6143.709319
952.319588,5439.278036,2664.741391,4663.297435
952.319907,5669.106685,2812.782580,4515.256246
952.320226,5132.839837,2294.638420,4663.297435
952.320545,3753.867940,1258.350101,5625.565159
952.320864,2451.505594,962.267725,7476.080014
952.321183,76.609550,-296.082377,9104.533087
952.321501,-1838.629195,-1258.350101,10362.883188
952.321820,-3600.648841,-1702.473667,12139.377449
952.322139,-3907.087040,-2220.617826,13471.748144
952.322458,-4443.353888,-1850.514855,13471.748144
952.322777,-4136.915689,-1258.350101,13323.706956
952.323096,-2911.162892,-444.123565,12731.542202
952.323414,-1608.800546,518.144159,10955.047942
952.323733,153.219100,1480.411884,8956.491898
952.324052,1608.800546,2738.761985,7328.038826
952.324371,2987.772442,3034.844362,5477.523971
952.324690,3907.087040,2812.782580,5329.482782
952.325009,3830.477490,1998.556043,5329.482782
952.325327,3294.210641,370.102971,6587.832884
952.325646,1915.238745,-296.082377,7772.162391
952.325965,536.266849,-1036.288319,9326.594869
952.326284,-842.705048,-1924.535449,10807.006753
952.326603,-2451.505594,-1998.556043,12435.459826
952.326922,-3064.381992,-2294.638420,13249.686362
952.327241,-3370.820191,-2072.576638,13767.830521
952.327559,-3140.991542,-1554.432478,13471.748144
952.327878,-2221.676944,-1036.288319,12657.521608
952.328197,-459.657299,-370.102971,11251.130318
952.328516,842.705048,444.123565,9844.739029
952.328835,2681.334243,1554.432478,7846.182985
952.329154,4136.915689,2220.617826,6661.853478
952.329472,4673.182538,2812.782580,5551.544565
952.329791,4979.620737,2368.659014,4885.359217
952.330110,4826.401637,2294.638420,5477.523971
952.330429,3217.601092,1332.370696,6587.832884
952.330748,1915.238745,370.102971,7994.224174
952.331067,383.047749,-592.164754,9474.636058
952.331385,-1762.019645,-1406.391290,11399.171507
952.331704,-2604.724693,-2072.576638,12435.459826
952.332023,-3524.039291,-1924.535449,13101.645173
952.332342,-3524.039291,-1850.514855,13101.645173
952.332661,-2987.772442,-814.226536,12213.398043
952.332980,-1685.410096,148.041188,11473.192101
952.333298,76.609550,1406.391290,9400.615463
952.333617,1762.019645,2590.720797,7328.038826
952.333936,3217.601092,2960.823768,6143.709319
952.334255,3524.039291,3256.906145,5107.421000
952.334574,3830.477490,2442.679609,4589.276840
952.334893,3370.820191,1776.494261,5181.441594
952.335212,2145.067394,740.205942,6513.812290
952.335530,612.876398,-296.082377,7920.203579
952.335849,-766.095498,-888.247130,9252.574275
952.336168,-2451.505594,-1406.391290,10510.924376
952.336487,-3830.477490,-1998.556043,11991.336260
952.336806,-4366.744339,-2220.617826,12879.583391
952.337125,-3524.039291,-1776.494261,13175.665768
952.337443,-3064.381992,-1258.350101,12583.501014
952.337762,-1991.848295,-370.102971,11917.315666
952.338081,-306.438199,592.164754,10362.883188
952.338400,1685.410096,1628.453072,8290.306550
952.338719,3830.477490,2220.617826,6439.791695
952.339038,4673.182538,2886.803174,5255.462188
952.339357,5209.449386,2812.782580,4663.297435
952.339675,5056.230287,2146.597232,4811.338623
952.339994,4366.744339,1110.308913,5625.565159
952.340313,2757.943793,222.061783,7476.080014
952.340632,1532.190996,-518.144159,9104.533087
952.340951,-766.095498,-1480.411884,10658.965565
952.341270,-2145.067394,-1850.514855,12509.480420
952.341589,-2221.676944,-2442.679609,13249.686362
952.341908,-3140.991542,-2220.617826,13545.768739
952.342227,-2681.334243,-1332.370696,13175.665768
952.342546,-1532.190996,-370.102971,12213.398043
952.342865,-306.438199,666.185348,10362.883188
952.343183,1838.629195,1776.494261,8956.491898
952.343502,3294.210641,2442.679609,7105.977043
952.343821,4213.525239,2886.803174,5625.565159
952.344140,4596.572988,2812.782580,4811.338623
952.344459,4673.182538,1924.535449,5255.462188
952.344778,3447.429741,740.205942,5995.668130
952.345097,2221.676944,-0.000000,7698.141797
952.345416,689.485948,-592.164754,9030.512492
952.345735,-995.924147,-1110.308913,10584.944971
952.346054,-2451.505594,-1554.432478,11991.336260
952.346373,-4290.134789,-2072.576638,13101.645173
952.346691,-4290.134789,-1332.370696,13471.748144
952.347010,-3983.696590,-1036.288319,12953.603985
952.347329,-2834.553343,-296.082377,12213.398043
952.347648,-842.705048,444.123565,11251.130318
952.347967,383.047749,1406.391290,9474.636058
952.348286,1762.019645,1924.535449,7624.121203
952.348605,3140.991542,2738.761985,6291.750507
952.348924,3907.087040,2664.741391,5403.503377
952.349243,4290.134789,2368.659014,5181.441594
952.349562,2987.772442,1628.453072,5107.421000
952.349881,2757.943793,1406.391290,6587.832884
952.350199,919.314598,444.123565,8142.265362
952.350518,-536.266849,-518.144159,9326.594869
952.350837,-2068.457845,-1110.308913,11103.089130
952.351156,-3140.991542,-1628.453072,13027.624579
952.351475,-3524.039291,-1628.453072,13397.727550
952.351794,-3064.381992,-1258.350101,13619.789333
952.352113,-2374.896044,-888.247130,12731.542202
952.352432,-689.485948,148.041188,11843.295072
952.352751,1302.362347,1406.391290,10066.800811
952.353070,3370.820191,2368.659014,8068.244768
952.353389,4673.182538,3108.864956,6513.812290
952.353707,5592.497135,2738.761985,4737.318029
952.354026,5975.544884,2960.823768,4071.132681
952.354345,5515.887586,1998.556043,4367.215058
952.354664,4060.306139,962.267725,5995.668130
952.354983,2604.724693,-148.041188,7624.121203
952.355302,612.876398,-592.164754,9178.553681
952.355621,-1378.971896,-1628.453072,10510.924376
952.355940,-2834.553343,-1924.535449,12213.398043
952.356259,-3677.258390,-1998.556043,13323.706956
952.356578,-3677.258390,-1924.535449,13175.665768
952.356897,-3370.820191,-1332.370696,13101.645173
952.357215,-2298.286494,-444.123565,12361.439231
952.357534,-1072.533697,592.164754,11029.068536
952.357853,842.705048,1628.453072,9178.553681
952.358172,1762.019645,2294.638420,7772.162391
952.358491,3370.820191,2886.803174,6291.750507
952.358810,3983.696590,2886.803174,4959.379811
952.359129,4060.306139,2368.659014,5181.441594
952.359448,3217.601092,1480.411884,5995.668130
952.359767,2221.676944,1036.288319,7105.977043
952.360086,306.438199,222.061783,8142.265362
952.360405,-1302.362347,-1036.288319,9918.759623
952.360723,-2987.772442,-1480.411884,11547.212695
952.361042,-4136.915689,-2146.597232,12805.562797
952.361361,-4366.744339,-1776.494261,13175.665768
952.361680,-3753.867940,-1184.329507,13249.686362
952.361999,-2681.334243,-296.082377,12509.480420
952.362318,-995.924147,444.123565,11251.130318
952.362637,842.705048,1628.453072,9400.615463
952.362956,2834.553343,2294.638420,7476.080014
952.363275,4673.182538,3182.885551,5773.606348
952.363594,5209.449386,3108.864956,4811.338623
952.363913,5515.887586,2590.720797,4959.379811
952.364231,4903.011187,1332.370696,5995.668130
952.364550,3677.258390,666.185348,7254.018232
952.364869,2451.505594,-222.061783,8586.388927
952.365188,842.705048,-814.226536,9918.759623
952.365507,-842.705048,-1406.391290,11251.130318
952.365826,-2604.724693,-1850.514855,12657.521608
952.366145,-2528.115143,-1702.473667,13101.645173
952.366464,-2911.162892,-1480.411884,12953.603985
952.366783,-1915.238745,-370.102971,12731.542202
952.367102,-612.876398,222.061783,11473.192101
952.367421,919.314598,1110.308913,9918.759623
952.367739,2298.286494,2294.638420,7994.224174
952.368058,3524.039291,2812.782580,6291.750507
952.368377,4290.134789,2960.823768,5403.503377
952.368696,4826.401637,2812.782580,4959.379811
952.369015,4060.306139,2368.659014,5403.503377
952.369334,2604.724693,1480.411884,6217.729913
952.369653,919.314598,592.164754,8216.285956
952.369972,-459.657299,-148.041188,9474.636058
952.370291,-2681.334243,-1406.391290,11177.109724
952.370610,-3753.867940,-1702.473667,12657.521608
952.370929,-4213.525239,-1850.514855,13693.809927
952.371247,-4443.353888,-1480.411884,13323.706956
952.371566,-3753.867940,-740.205942,12953.603985
952.371885,-2757.943793,-74.020594,12139.377449
952.372204,-1072.533697,1184.329507,10288.862594
952.372523,842.705048,2368.659014,8438.347739
952.372842,2451.505594,3182.885551,6661.853478
952.373161,4290.134789,3182.885551,5329.482782
952.373480,4443.353888,2442.679609,4885.359217
952.373799,4213.525239,2146.597232,5255.462188
952.374118,3600.648841,1480.411884,5995.668130
952.374437,2374.896044,370.102971,7476.080014
952.374755,1149.143247,-370.102971,9178.553681
952.375074,-306.438199,-444.123565,10140.821405
952.375393,-1991.848295,-1184.329507,11769.274478
952.375712,-2681.334243,-1184.329507,12657.521608
952.376031,-2528.115143,-1110.308913,13101.645173
952.376350,-1991.848295,-1332.370696,12805.562797
952.376669,-1225.752797,-518.144159,12361.439231
952.376988,0.000000,148.041188,11103.089130
952.377307,2298.286494,1258.350101,9178.553681
952.377626,3753.867940,2146.597232,7328.038826
952.377945,4749.792088,2368.659014,5847.626942
952.378263,4826.401637,2294.638420,5107.421000
952.378582,4979.620737,2294.638420,4811.338623
952.378901,4213.525239,1110.308913,6365.771101
952.379220,2911.162892,592.164754,7402.059420
952.379539,766.095498,-0.000000,8512.368333
952.379858,-612.876398,-814.226536,10140.821405
952.380177,-2451.505594,-1258.350101,11325.150913
952.380496,-3447.429741,-2072.576638,12953.603985
952.380815,-4136.915689,-1924.535449,12657.521608
952.381134,-4060.306139,-1258.350101,13027.624579
952.381452,-3370.820191,-814.226536,12435.459826
952.381771,-2145.067394,-0.000000,11251.130318
952.382090,-459.657299,296.082377,9992.780217
952.382409,766.095498,1924.535449,8068.244768
952.382728,1991.848295,2516.700203,6365.771101
952.383047,2987.772442,2886.803174,5477.523971
952.383366,3064.381992,2368.659014,5181.441594
952.383685,3370.820191,1258.350101,5625.565159
952.384004,1915.238745,740.205942,6735.874072
952.384323,689.485948,-74.020594,8216.285956
952.384642,-536.266849,-1036.288319,9474.636058
952.384960,-1608.800546,-1554.432478,10807.006753
952.385279,-2987.772442,-2146.597232,12657.521608
952.385598,-2987.772442,-1776.494261,13101.645173
952.385917,-2528.115143,-1036.288319,12731.542202
952.386236,-1685.410096,-518.144159,12065.356855
952.386555,-536.266849,296.082377,10881.027347
952.386874,1378.971896,1480.411884,9474.636058
952.387193,3140.991542,2220.617826,7476.080014
952.387512,4366.744339,2738.761985,6143.709319
952.387831,5056.230287,2886.803174,5033.400406
952.388150,5209.449386,2442.679609,5107.421000
952.388468,4903.011187,1998.556043,5329.482782
952.388787,3907.087040,1184.329507,6661.853478
952.389106,2374.896044,518.144159,8068.244768
952.389425,383.047749,-74.020594,9104.533087
952.389744,-1455.581446,-962.267725,10658.965565
952.390063,-2451.505594,-1850.514855,12435.459826
952.390382,-3524.039291,-2072.576638,13249.686362
952.390701,-3677.258390,-1554.432478,13693.809927
952.391020,-3064.381992,-666.185348,12731.542202
952.391339,-2374.896044,148.041188,12287.418637
952.391658,-995.924147,666.185348,10955.047942
952.391976,995.924147,2146.597232,8956.491898
952.392295,2221.676944,2886.803174,6957.935855
952.392614,3140.991542,3256.906145,5847.626942
952.392933,3677.258390,3330.926739,5033.400406
952.393252,3677.258390,2368.659014,4811.338623
952.393571,2374.896044,1406.391290,6439.791695
952.393890,766.095498,296.082377,7772.162391
952.394209,-229.828649,-1036.288319,9104.533087
952.394528,-2145.067394,-1628.453072,10807.006753
952.394847,-3600.648841,-2146.597232,12361.439231
952.395166,-4213.525239,-2220.617826,13175.665768
952.395484,-4366.744339,-1850.514855,13249.686362
952.395803,-3447.429741,-1776.494261,13027.624579
952.396122,-2145.067394,-0.000000,11991.336260
952.396441,-612.876398,592.164754,10658.965565
952.396760,1378.971896,1406.391290,9104.533087
952.397079,3064.381992,2516.700203,7328.038826
952.397398,4366.744339,2590.720797,6069.688724
952.397717,5209.449386,2590.720797,5033.400406
952.398036,4903.011187,1998.556043,4959.379811
952.398355,4673.182538,1554.432478,5403.503377
952.398674,3140.991542,592.164754,6661.853478
952.398992,1685.410096,-0.000000,8438.347739
952.399311,-153.219100,-444.123565,9548.656652
952.399630,-2145.067394,-1258.350101,10955.047942
952.399949,-2834.553343,-1998.556043,12805.562797
952.400268,-3830.477490,-1924.535449,13175.665768
952.400587,-3447.429741,-1776.494261,13323.706956
952.400906,-2834.553343,-1258.350101,12731.542202
952.401225,-1149.143247,-74.020594,11843.295072
952.401544,459.657299,518.144159,9844.739029
952.401863,2221.676944,1628.453072,7920.203579
952.402182,3677.258390,2368.659014,6661.853478
952.402500,4673.182538,3256.906145,4811.338623
952.402819,5056.230287,2886.803174,4293.194464
952.403138,4136.915689,1702.473667,4663.297435
952.403457,2911.162892,592.164754,6439.791695
952.403776,1302.362347,-518.144159,7624.121203
952.404095,-306.438199,-1184.329507,9104.533087
952.404414,-1838.629195,-1924.535449,10955.047942
952.404733,-3524.039291,-2072.576638,12287.418637
952.405052,-4519.963438,-2294.638420,12805.562797
952.405371,-4443.353888,-1702.473667,13101.645173
952.405690,-3753.867940,-962.267725,12879.583391
952.406008,-2451.505594,-296.082377,12065.356855
952.406327,-766.095498,888.247130,10732.986159
952.406646,995.924147,1998.556043,8734.430116
952.406965,2834.553343,3034.844362,6883.915261
952.407284,3907.087040,3256.906145,5625.565159
952.407603,4903.011187,2812.782580,4663.297435
952.407922,4673.182538,2294.638420,4737.318029
952.408241,3907.087040,1554.432478,5403.503377
952.408560,2451.505594,740.205942,6883.915261
952.408879,1072.533697,-296.082377,8586.388927
952.409198,-536.266849,-1628.453072,10140.821405
952.409516,-2374.896044,-2220.617826,11917.315666
952.409835,-3447.429741,-2516.700203,13471.748144
952.410154,-3677.258390,-2368.659014,13841.851115
952.410473,-3217.601092,-1480.411884,13693.809927
952.410792,-2221.676944,-814.226536,12731.542202
952.411111,-689.485948,296.082377,11399.171507
952.411430,1302.362347,1406.391290,9030.512492
952.411749,3217.601092,2368.659014,7254.018232
952.412068,4673.182538,2886.803174,5921.647536
952.412387,5362.668486,2590.720797,4589.276840
952.412706,5362.668486,2368.659014,4885.359217
952.413024,4673.182538,1480.411884,6069.688724
952.413343,3217.601092,592.164754,7179.997637
952.413662,2068.457845,-148.041188,8290.306550
952.413981,76.609550,-74.020594,9474.636058
952.414300,-2145.067394,-1332.370696,10881.027347
952.414619,-3447.429741,-1702.473667,12361.439231
952.414938,-4213.525239,-2146.597232,13175.665768
952.415257,-3907.087040,-2072.576638,13619.789333
952.415576,-3907.087040,-1332.370696,13101.645173
952.415895,-2528.115143,-370.102971,12361.439231
952.416214,-1072.533697,888.247130,10436.903782
952.416532,536.266849,1776.494261,8290.306550
952.416851,2221.676944,2516.700203,6883.915261
952.417170,3294.210641,2812.782580,5699.585753
952.417489,3830.477490,2590.720797,4811.338623
952.417808,3677.258390,2072.576638,5403.503377
952.418127,2604.724693,1184.329507,6291.750507
952.418446,1608.800546,-0.000000,7550.100608
952.418765,0.000000,-222.061783,8956.491898
952.419084,-1378.971896,-888.247130,10436.903782
952.419403,-2604.724693,-1184.329507,11917.315666
952.419722,-3140.991542,-1702.473667,13323.706956
952.420040,-2757.943793,-1406.391290,13027.624579
952.420359,-2298.286494,-814.226536,12805.562797
952.420678,-995.924147,-222.061783,11547.212695
952.420997,0.000000,740.205942,10288.862594
952.421316,2451.505594,1332.370696,8734.430116
952.421635,3524.039291,2146.597232,6735.874072
952.421954,4519.963438,2294.638420,5477.523971
952.422273,5056.230287,1850.514855,5329.482782
952.422592,4443.353888,1554.432478,5551.544565
952.422911,4213.525239,666.185348,6735.874072
952.423230,2528.115143,-0.000000,7920.203579
952.423548,1302.362347,-592.164754,8660.409521
952.423867,-689.485948,-1258.350101,10510.924376
952.424186,-1991.848295,-1776.494261,12139.377449
952.424505,-2834.553343,-2146.597232,12805.562797
952.424824,-2604.724693,-1776.494261,12953.603985
952.425143,-2221.676944,-1480.411884,13027.624579
952.425462,-1762.019645,-814.226536,12213.398043
952.425781,306.438199,296.082377,10436.903782
952.426100,1378.971896,1554.432478,8882.471304
952.426419,2604.724693,2368.659014,7031.956449
952.426738,3983.696590,2664.741391,5699.585753
952.427056,3753.867940,3034.844362,4663.297435
952.427375,4136.915689,2294.638420,4959.379811
952.427694,3370.820191,962.267725,5921.647536
952.428013,1532.190996,592.164754,7402.059420
952.428332,689.485948,-740.205942,8956.491898
952.428651,-1302.362347,-666.185348,9474.636058
952.428970,-2757.943793,-592.164754,11621.233289
952.429289,-3677.258390,-1406.391290,11991.336260
952.429608,-4213.525239,-1628.453072,12509.480420
952.429927,-3983.696590,-1998.556043,13767.830521
952.430245,-2911.162892,-1036.288319,13397.727550
952.430564,-1685.410096,666.185348,11399.171507
952.430883,229.828649,1406.391290,9770.718434
952.431202,1838.629195,2072.576638,8364.327145
952.431521,3600.648841,2368.659014,6143.709319
952.431840,4290.134789,2368.659014,5329.482782
952.432159,4290.134789,2220.617826,4737.318029
952.432478,4519.963438,1702.473667,5181.441594
952.432797,3447.429741,740.205942,6439.791695
952.433116,1608.800546,-222.061783,8512.368333
952.433435,76.609550,-1554.432478,9474.636058
952.433753,-842.705048,-2220.617826,11695.253884
952.434072,-1838.629195,-2516.700203,13101.645173
952.434391,-2451.505594,-1924.535449,13027.624579
952.434710,-2604.724693,-1628.453072,13249.686362
952.435029,-1991.848295,-740.205942,13101.645173
952.435348,-306.438199,-0.000000,11991.336260
952.435667,1072.533697,888.247130,10066.800811
952.435986,2451.505594,1998.556043,8068.244768
952.436305,4366.744339,2442.679609,6365.771101
952.436624,4749.792088,2590.720797,5255.462188
952.436943,5056.230287,2738.761985,4885.359217
952.437261,4519.963438,2368.659014,5477.523971
952.437580,3524.039291,1924.535449,6143.709319
952.437899,1915.238745,962.267725,7920.203579
952.438218,306.438199,-0.000000,8956.491898
952.438537,-1455.581446,-222.061783,9696.697840
952.438856,-3064.381992,-962.267725,11547.212695
952.439175,-4060.306139,-1332.370696,12805.562797
952.439494,-3983.696590,-1258.350101,13545.768739
952.439813,-3830.477490,-592.164754,13545.768739
952.440132,-3140.991542,-0.000000,12435.459826
952.440451,-1378.971896,1184.329507,11251.130318
952.440769,153.219100,1998.556043,9770.718434
952.441088,1685.410096,2960.823768,7402.059420
952.441407,2911.162892,3034.844362,6217.729913
952.441726,3524.039291,3108.864956,5477.523971
952.442045,3370.820191,2516.700203,5107.421000
952.442364,3294.210641,1702.473667,5921.647536
952.442683,1532.190996,518.144159,7105.977043
952.443002,153.219100,-814.226536,8734.430116
952.443321,-1608.800546,-1702.473667,9844.739029
952.443640,-2374.896044,-2072.576638,11769.274478
952.443959,-3447.429741,-2294.638420,12583.501014
952.444277,-3677.258390,-2220.617826,13175.665768
952.444596,-3447.429741,-1776.494261,13027.624579
952.444915,-2374.896044,-888.247130,12213.398043
952.445234,-766.095498,-296.082377,11029.068536
952.445553,1302.362347,1110.308913,9918.759623
952.445872,2528.115143,1332.370696,7920.203579
952.446191,4290.134789,2516.700203,6291.750507
952.446510,5056.230287,2368.659014,5255.462188
952.446829,5592.497135,2294.638420,4811.338623
952.447148,5056.230287,1924.535449,5181.441594
952.447467,4060.306139,1332.370696,6069.688724
952.447785,2757.943793,666.185348,7402.059420
952.448104,1378.971896,-0.000000,8808.450710
952.448423,-229.828649,-888.247130,10658.965565
952.448742,-2221.676944,-1480.411884,11769.274478
952.449061,-2604.724693,-1628.453072,12953.603985
952.449380,-2604.724693,-1184.329507,13249.686362
952.449699,-2221.676944,-666.185348,13027.624579
952.450018,-1225.752797,-0.000000,11769.274478
952.450337,306.438199,1554.432478,10288.862594
952.450656,1532.190996,1924.535449,8438.347739
952.450974,3064.381992,2516.700203,6513.812290
952.451293,3447.429741,2812.782580,5921.647536
952.451612,3830.477490,2368.659014,4737.318029
952.451931,3677.258390,1406.391290,5329.482782
952.452250,2528.115143,-148.041188,7624.121203
952.452569,1455.581446,-666.185348,8512.368333
952.452888,-689.485948,-962.267725,9104.533087
952.453207,-1991.848295,-1628.453072,10955.047942
952.453526,-3524.039291,-2294.638420,12213.398043
952.453845,-4213.525239,-2294.638420,13175.665768
952.454164,-4290.134789,-1924.535449,13767.830521
952.454482,-4213.525239,-1036.288319,13101.645173
952.454801,-2604.724693,-0.000000,12213.398043
952.455120,-919.314598,666.185348,11103.089130
952.455439,536.266849,2294.638420,9104.533087
952.455758,2987.772442,2442.679609,7105.977043
952.456077,3830.477490,2368.659014,5995.668130
952.456396,4749.792088,2590.720797,5255.462188
952.456715,5209.449386,2738.761985,4515.256246
952.457034,4290.134789,2294.638420,5255.462188
952.457353,2834.553343,1258.350101,7105.977043
952.457672,1762.019645,296.082377,8142.265362
952.457990,76.609550,-0.000000,9400.615463
952.458309,-1608.800546,-888.247130,11325.150913
952.458628,-2987.772442,-1258.350101,12509.480420
952.458947,-3064.381992,-1702.473667,12953.603985
952.459266,-2604.724693,-1110.308913,13101.645173
952.459585,-2681.334243,-222.061783,12657.521608
952.459904,-1225.752797,666.185348,11251.130318
952.460223,229.828649,1554.432478,9548.656652
952.460542,2374.896044,1998.556043,7920.203579
952.460861,3524.039291,2664.741391,6513.812290
952.461179,4366.744339,2812.782580,5477.523971
952.461498,4443.353888,2146.597232,5329.482782
952.461817,4366.744339,1332.370696,6217.729913
952.462136,2911.162892,666.185348,6957.935855
952.462455,1838.629195,222.061783,8068.244768
952.462774,229.828649,-296.082377,9400.615463
952.463093,-1149.143247,-962.267725,10955.047942
952.463412,-2451.505594,-1702.473667,11843.295072
952.463731,-3064.381992,-1628.453072,13027.624579
952.464050,-3524.039291,-1554.432478,13323.706956
952.464369,-2834.553343,-666.185348,12953.603985
952.464687,-1455.581446,-370.102971,12213.398043
952.465006,0.000000,740.205942,10436.903782
952.465325,919.314598,1628.453072,8734.430116
952.465644,2451.505594,2368.659014,7105.977043
952.465963,3907.087040,2516.700203,5921.647536
952.466282,4443.353888,2590.720797,5033.400406
952.466601,3753.867940,1776.494261,5107.421000
952.466920,3217.601092,1184.329507,6291.750507
952.467239,1838.629195,814.226536,7254.018232
952.467558,459.657299,666.185348,8364.327145
952.467877,-919.314598,-444.123565,10214.842000
952.468195,-2451.505594,-518.144159,11251.130318
952.468514,-3064.381992,-1110.308913,12583.501014
952.468833,-3753.867940,-1110.308913,12361.439231
952.469152,-3600.648841,-0.000000,11991.336260
952.469471,-2298.286494,-370.102971,11843.295072
952.469790,-1455.581446,592.164754,9992.780217
952.470109,76.609550,370.102971,9918.759623
952.470428,1915.238745,370.102971,8216.285956
952.470747,2451.505594,2220.617826,7031.956449
952.471066,4060.306139,2146.597232,6587.832884
952.471384,4136.915689,3182.885551,4737.318029
952.471703,3830.477490,1850.514855,5847.626942
952.472022,2987.772442,-0.000000,6809.894666
952.472341,919.314598,-0.000000,7846.182985
952.472660,-153.219100,-1184.329507,9474.636058
952.472979,-1072.533697,-1332.370696,10584.944971
952.473298,-2374.896044,-1924.535449,12213.398043
952.473617,-2374.896044,-2812.782580,13175.665768
952.473936,-2911.162892,-2368.659014,13397.727550
952.474255,-2068.457845,-1998.556043,12879.583391
952.474574,-842.705048,-814.226536,11325.150913
952.474892,766.095498,740.205942,10658.965565
952.475211,1991.848295,1258.350101,8364.327145
952.475530,2987.772442,2368.659014,6661.853478
952.475849,3217.601092,1924.535449,6217.729913
952.476168,3983.696590,1702.473667,5625.565159
952.476487,3140.991542,1702.473667,5699.585753
952.476806,2451.505594,592.164754,7031.956449
952.477125,766.095498,-0.000000,7846.182985
952.477444,-536.266849,-1184.329507,9622.677246
952.477763,-2068.457845,-1998.556043,11325.150913
952.478082,-3140.991542,-1406.391290,12361.439231
952.478400,-3447.429741,-1258.350101,12731.542202
952.478719,-3370.820191,-592.164754,12879.583391
952.479038,-2911.162892,-222.061783,12213.398043
952.479357,-1762.019645,740.205942,11029.068536
952.479676,-612.876398,1998.556043,9696.697840
952.479995,1149.143247,1702.473667,8586.388927
952.480314,2528.115143,2590.720797,6735.874072
952.480633,3524.039291,3182.885551,5773.606348
952.480952,3677.258390,2886.803174,4885.359217
952.481271,4060.306139,2368.659014,5033.400406
952.481590,2834.553343,1480.411884,6513.812290
952.481908,1838.629195,592.164754,7476.080014
952.482227,459.657299,-444.123565,8882.471304
952.482546,-689.485948,-888.247130,10584.944971
952.482865,-1685.410096,-1554.432478,12213.398043
952.483184,-2374.896044,-1924.535449,12879.583391
952.483503,-2068.457845,-1406.391290,13027.624579
952.483822,-1608.800546,-888.247130,12805.562797
952.484141,-766.095498,-0.000000,11621.233289
952.484460,1149.143247,1332.370696,10066.800811
952.484779,2681.334243,2146.597232,8068.244768
952.485097,3753.867940,2516.700203,6513.812290
952.485416,4519.963438,2368.659014,5847.626942
952.485735,4979.620737,1998.556043,5329.482782
952.486054,4673.182538,1332.370696,5403.503377
952.486373,3370.820191,888.247130,6587.832884
952.486692,2145.067394,-0.000000,7920.203579
952.487011,153.219100,-444.123565,8734.430116
952.487330,-1762.019645,-888.247130,10436.903782
952.487649,-3370.820191,-1554.432478,12213.398043
952.487968,-4136.915689,-1406.391290,12805.562797
952.488287,-4443.353888,-1406.391290,13397.727550
952.488605,-3907.087040,-1110.308913,13545.768739
952.488924,-3524.039291,-74.020594,13027.624579
952.489243,-2145.067394,740.205942,11103.089130
952.489562,-536.266849,1702.473667,9696.697840
952.489881,1378.971896,2220.617826,7698.141797
952.490200,2911.162892,2664.741391,5995.668130
952.490519,3753.867940,2664.741391,5477.523971
952.490838,3830.477490,1924.535449,4811.338623
952.491157,3447.429741,1554.432478,5329.482782
952.491476,2298.286494,592.164754,6365.771101
952.491795,919.314598,-370.102971,7698.141797
952.492113,-766.095498,-1258.350101,9326.594869
952.492432,-2604.724693,-1480.411884,11029.068536
952.492751,-3600.648841,-2146.597232,12509.480420
952.493070,-3830.477490,-1998.556043,13101.645173
952.493389,-3600.648841,-1998.556043,13619.789333
952.493708,-3370.820191,-1554.432478,13175.665768
952.494027,-1915.238745,-592.164754,12361.439231
952.494346,76.609550,518.144159,10436.903782
952.494665,2221.676944,1702.473667,8438.347739
952.494984,3370.820191,2516.700203,6587.832884
952.495302,4979.620737,2960.823768,5403.503377
952.495621,5362.668486,2516.700203,4885.359217
952.495940,5132.839837,1776.494261,5033.400406
952.496259,4213.525239,1184.329507,6143.709319
952.496578,2681.334243,-0.000000,7179.997637
952.496897,1072.533697,-370.102971,8290.306550
952.497216,-1072.533697,-1628.453072,10510.924376
952.497535,-2451.505594,-2368.659014,12361.439231
952.497854,-3524.039291,-2368.659014,12879.583391
952.498173,-3600.648841,-2072.576638,13545.768739
952.498492,-2911.162892,-1480.411884,13397.727550
952.498810,-2068.457845,-444.123565,12139.377449
952.499129,-689.485948,740.205942,10584.944971
952.499448,1378.971896,2146.597232,8660.409521
952.499767,2911.162892,2516.700203,6587.832884
952.500086,3753.867940,2960.823768,5033.400406
952.500405,4673.182538,3108.864956,4663.297435
952.500724,4290.134789,1850.514855,4441.235652
952.501043,3753.867940,888.247130,5625.565159
952.501362,2681.334243,-0.000000,7105.977043
952.501681,1302.362347,-370.102971,8364.327145
952.502000,-536.266849,-518.144159,9918.759623
952.502318,-1915.238745,-888.247130,11473.192101
952.502637,-3064.381992,-740.205942,12287.418637
952.502956,-3447.429741,-518.144159,12287.418637
952.503275,-3064.381992,-518.144159,12657.521608
952.503594,-2451.505594,-74.020594,12139.377449
952.503913,-1302.362347,370.102971,10807.006753
952.504232,229.828649,1036.288319,9326.594869
952.504551,1762.019645,1850.514855,8142.265362
952.504870,3140.991542,2072.576638,6587.832884
952.505189,3907.087040,2146.597232,5773.606348
952.505507,4366.744339,1480.411884,5551.544565
952.505826,3524.039291,1332.370696,6069.688724
952.506145,2298.286494,888.247130,7105.977043
952.506464,1225.752797,-0.000000,8290.306550
952.506783,-459.657299,-814.226536,10140.821405
952.507102,-2145.067394,-1776.494261,11917.315666
952.507421,-3294.210641,-2146.597232,12879.583391
952.507740,-3677.258390,-2146.597232,13397.727550
952.508059,-3294.210641,-1702.473667,13545.768739
952.508378,-2757.943793,-1184.329507,13471.748144
952.508697,-1225.752797,-222.061783,12065.356855
952.509015,0.000000,666.185348,10436.903782
952.509334,1991.848295,1702.473667,8512.368333
952.509653,3600.648841,2146.597232,6735.874072
952.509972,3983.696590,2516.700203,5995.668130
952.510291,4903.011187,2368.659014,4885.359217
952.510610,4213.525239,1924.535449,5625.565159
952.510929,3600.648841,814.226536,6661.853478
952.511248,1991.848295,-0.000000,8142.265362
952.511567,229.828649,-518.144159,9474.636058
952.511886,-919.314598,-666.185348,11103.089130
952.512205,-2298.286494,-962.267725,12139.377449
952.512523,-2681.334243,-888.247130,12805.562797
952.512842,-2757.943793,-740.205942,12805.562797
952.513161,-2221.676944,74.020594,12361.439231
952.513480,-1072.533697,518.144159,11251.130318
952.513799,229.828649,1110.308913,9622.677246
952.514118,1762.019645,1998.556043,8216.285956
952.514437,3524.039291,2220.617826,6957.935855
952.514756,4060.306139,2664.741391,5699.585753
952.515075,4673.182538,2590.720797,4959.379811
952.515394,4290.134789,2294.638420,5107.421000
952.515712,3600.648841,1480.411884,6217.729913
952.516031,2068.457845,-0.000000,7254.018232
952.516350,459.657299,-518.144159,8956.491898
952.516669,-1072.533697,-1258.350101,10288.862594
952.516988,-2298.286494,-1850.514855,11843.295072
952.517307,-2987.772442,-1998.556043,12805.562797
952.517626,-2911.162892,-2146.597232,12953.603985
952.517945,-2681.334243,-1110.308913,12805.562797
952.518264,-1762.019645,-222.061783,12065.356855
952.518583,-153.219100,666.185348,10732.986159
952.518902,1378.971896,1702.473667,8956.491898
952.519220,2681.334243,2294.638420,7402.059420
952.519539,3983.696590,2442.679609,5921.647536
952.519858,4290.134789,2368.659014,5107.421000
952.520177,4519.963438,1776.494261,5625.565159
952.520496,3370.820191,814.226536,6439.791695
952.520815,2145.067394,-74.020594,7550.100608
952.521134,689.485948,-888.247130,8956.491898
952.521453,-689.485948,-1406.391290,10510.924376
952.521772,-2298.286494,-1554.432478,11473.192101
952.522091,-2911.162892,-1776.494261,12435.459826
952.522410,-2987.772442,-1332.370696,12953.603985
952.522728,-2604.724693,-740.205942,12879.583391
952.523047,-1608.800546,-222.061783,11843.295072
952.523366,-536.266849,888.247130,10881.027347
952.523685,1608.800546,1184.329507,9030.512492
952.524004,2604.724693,1850.514855,7105.977043
952.524323,3600.648841,2368.659014,6365.771101
952.524642,4596.572988,2590.720797,4885.359217
952.524961,4749.792088,2368.659014,4219.173869
952.525280,3907.087040,1776.494261,5699.585753
952.525599,2604.724693,888.247130,7105.977043
952.525917,229.828649,74.020594,7624.121203
952.526236,-995.924147,-814.226536,9474.636058
952.526555,-3140.991542,-1480.411884,11695.253884
952.526874,-4136.915689,-2072.576638,12657.521608
952.527193,-4979.620737,-1924.535449,13249.686362
952.527512,-4443.353888,-1332.370696,13915.871710
952.527831,-3677.258390,-740.205942,13471.748144
952.528150,-2145.067394,-370.102971,11917.315666
952.528469,0.000000,1036.288319,10066.800811
952.528788,1762.019645,2368.659014,7920.203579
952.529107,3447.429741,2738.761985,6291.750507
952.529425,4596.572988,3182.885551,5181.441594
952.529744,5209.449386,2812.782580,4589.276840
952.530063,4749.792088,1850.514855,4885.359217
952.530382,3677.258390,888.247130,6291.750507
952.530701,2451.505594,-444.123565,7772.162391
952.531020,612.876398,-1332.370696,9474.636058
952.531339,-1149.143247,-1702.473667,11547.212695
952.531658,-2145.067394,-1776.494261,12657.521608
952.531977,-3064.381992,-1776.494261,13545.768739
952.532296,-2298.286494,-1036.288319,13027.624579
952.532615,-1915.238745,-148.041188,12731.542202
952.532933,-612.876398,148.041188,12213.398043
952.533252,459.657299,1258.350101,10214.842000
952.533571,2374.896044,2590.720797,8290.306550
952.533890,3907.087040,3182.885551,6217.729913
952.534209,5362.668486,3701.029710,5255.462188
952.534528,5209.449386,2664.741391,4441.235652
952.534847,5056.230287,2590.720797,4737.318029
952.535166,3907.087040,1998.556043,5699.585753
952.535485,2451.505594,962.267725,7105.977043
952.535804,76.609550,222.061783,8512.368333
952.536123,-1072.533697,-518.144159,10362.883188
952.536441,-3294.210641,-1184.329507,11917.315666
952.536760,-4366.744339,-1776.494261,13249.686362
952.537079,-4749.792088,-1850.514855,13767.830521
952.537398,-4749.792088,-1406.391290,13767.830521
952.537717,-3753.867940,-592.164754,12805.562797
952.538036,-2374.896044,444.123565,11695.253884
952.538355,-612.876398,1480.411884,9622.677246
952.538674,1991.848295,2590.720797,7698.141797
952.538993,2681.334243,2886.803174,6217.729913
952.539312,3677.258390,2886.803174,5033.400406
952.539630,4136.915689,2368.659014,4959.379811
952.539949,3447.429741,1332.370696,5921.647536
952.540268,2451.505594,-0.000000,7328.038826
952.540587,1072.533697,-518.144159,8808.450710
952.540906,-842.705048,-1110.308913,10140.821405
952.541225,-2145.067394,-1850.514855,11843.295072
952.541544,-3064.381992,-1924.535449,12583.501014
952.541862,-3217.601092,-1702.473667,13693.809927
952.542181,-3294.210641,-1406.391290,13027.624579
952.542500,-2451.505594,-740.205942,12509.480420
952.542819,-842.705048,-148.041188,11325.150913
952.543138,689.485948,962.267725,9474.636058
952.543457,2911.162892,1628.453072,7994.224174
952.543776,4519.963438,2294.638420,6661.853478
952.544094,5209.449386,2294.638420,5255.462188
952.544413,5822.325785,2294.638420,4959.379811
952.544732,5592.497135,1480.411884,5329.482782
952.545051,4366.744339,1036.288319,6217.729913
952.545370,2528.115143,518.144159,7179.997637
952.545689,842.705048,-0.000000,8586.388927
952.546007,-1378.971896,-740.205942,10066.800811
952.546326,-2987.772442,-1702.473667,11843.295072
952.546645,-3830.477490,-1850.514855,12805.562797
952.546964,-4213.525239,-1924.535449,13175.665768
952.547283,-4060.306139,-1332.370696,13101.645173
952.547602,-3294.210641,-444.123565,12213.398043
952.547921,-1455.581446,666.185348,11029.068536
952.548239,0.000000,2146.597232,8512.368333
952.548558,1915.238745,3182.885551,7105.977043
952.548877,2911.162892,3404.947333,5477.523971
952.549196,3753.867940,2590.720797,4885.359217
952.549515,3600.648841,2146.597232,5107.421000
952.549834,2911.162892,888.247130,5921.647536
952.550152,1685.410096,222.061783,7105.977043
952.550471,0.000000,-370.102971,8660.409521
952.550790,-919.314598,-962.267725,11029.068536
952.551109,-2604.724693,-1406.391290,11621.233289
952.551428,-3294.210641,-962.267725,12879.583391
952.551747,-3907.087040,-518.144159,12361.439231
952.552066,-3753.867940,518.144159,11843.295072
952.552384,-2298.286494,-222.061783,11843.295072
952.552703,-1302.362347,370.102971,10584.944971
952.553022,306.438199,-0.000000,10436.903782
952.553341,2068.457845,1702.473667,7772.162391
952.553660,3447.429741,2590.720797,6735.874072
952.553979,4979.620737,2368.659014,6217.729913
952.554298,4519.963438,2072.576638,5699.585753
952.554616,4213.525239,1628.453072,6069.688724
952.554935,3600.648841,888.247130,7031.956449
952.555254,1915.238745,888.247130,8068.244768
952.555573,1378.971896,-888.247130,9992.780217
952.555892,-1149.143247,-1036.288319,10881.027347
952.556211,-2298.286494,-2146.597232,13545.768739
952.556529,-2834.553343,-2072.576638,12435.459826
952.556848,-2681.334243,-1702.473667,13249.686362
952.557167,-1685.410096,-1554.432478,13101.645173
952.557486,-842.705048,370.102971,11547.212695
952.557805,383.047749,1184.329507,10066.800811
952.558124,2221.676944,1776.494261,8734.430116
952.558443,3524.039291,2442.679609,6809.894666
952.558761,4136.915689,2368.659014,5773.606348
952.559080,4213.525239,1776.494261,5181.441594
952.559399,3677.258390,888.247130,6439.791695
952.559718,2757.943793,-74.020594,7105.977043
952.560037,1378.971896,-296.082377,7920.203579
952.560356,-459.657299,-814.226536,9622.677246
952.560674,-1762.019645,-962.267725,10807.006753
952.560993,-2987.772442,-1036.288319,11769.274478
952.561312,-3064.381992,-1702.473667,11991.336260
952.561631,-3370.820191,-666.185348,12213.398043
952.561950,-3064.381992,-296.082377,12139.377449
952.562269,-1991.848295,-0.000000,11177.109724
952.562588,-612.876398,666.185348,10066.800811
952.562906,842.705048,1110.308913,8142.265362
952.563225,2145.067394,2072.576638,6291.750507
952.563544,3140.991542,2072.576638,5181.441594
952.563863,3830.477490,2072.576638,4589.276840
952.564182,4060.306139,1776.494261,4515.256246
952.564501,3064.381992,1258.350101,5329.482782
952.564820,1991.848295,888.247130,6661.853478
952.565138,459.657299,-0.000000,7476.080014
952.565457,-612.876398,-888.247130,8882.471304
952.565776,-2451.505594,-1850.514855,10881.027347
952.566095,-3064.381992,-2072.576638,12065.356855
952.566414,-3294.210641,-1628.453072,12657.521608
952.566733,-2451.505594,-1184.329507,12953.603985
952.567051,-1149.143247,-222.061783,11843.295072
952.567370,0.000000,1406.391290,9992.780217
952.567689,1915.238745,2368.659014,8438.347739
952.568008,3524.039291,3404.947333,6661.853478
952.568327,4596.572988,3627.009116,5551.544565
952.568646,5362.668486,2960.823768,5033.400406
952.568965,5209.449386,2072.576638,5773.606348
952.569283,4136.915689,1258.350101,7254.018232
952.569602,2987.772442,444.123565,8290.306550
952.569921,2374.896044,-444.123565,9622.677246
952.570240,0.000000,-1332.370696,10658.965565
952.570559,-1762.019645,-1702.473667,12435.459826
952.570878,-2681.334243,-1776.494261,13693.809927
952.571196,-3140.991542,-1628.453072,13841.851115
952.571515,-2834.553343,-1184.329507,14211.954086
952.571834,-2757.943793,-740.205942,13249.686362
952.572153,-1225.752797,-0.000000,11843.295072
952.572472,306.438199,888.247130,10140.821405
952.572791,1685.410096,1184.329507,8290.306550
952.573110,2528.115143,1850.514855,7105.977043
952.573428,3217.601092,1850.514855,6365.771101
952.573747,2911.162892,1554.432478,5995.668130
952.574066,2451.505594,814.226536,6513.812290
952.574385,1149.143247,740.205942,7105.977043
952.574704,229.828649,-296.082377,9104.533087
952.575023,-1378.971896,-592.164754,10066.800811
952.575342,-2987.772442,-1184.329507,12065.356855
952.575660,-4290.134789,-1110.308913,12953.603985
952.575979,-4749.792088,-0.000000,12731.542202
952.576298,-4673.182538,-0.000000,12805.562797
952.576617,-3217.601092,-0.000000,11991.336260
952.576936,-1685.410096,-0.000000,11547.212695
952.577255,0.000000,666.185348,9696.697840
952.577573,1991.848295,2220.617826,7698.141797
952.577892,3753.867940,2960.823768,6957.935855
952.578211,5439.278036,3404.947333,5403.503377
952.578530,5439.278036,2738.761985,3923.091493
952.578849,5439.278036,1628.453072,4885.359217
952.579168,4136.915689,814.226536,5773.606348
952.579487,3140.991542,518.144159,6513.812290
952.579805,1838.629195,-222.061783,7920.203579
952.580124,-689.485948,-1332.370696,10436.903782
952.580443,-2145.067394,-2220.617826,11843.295072
952.580762,-2757.943793,-2516.700203,13175.665768
952.581081,-2834.553343,-2368.659014,13323.706956
952.581400,-2298.286494,-1554.432478,13027.624579
952.581719,-1149.143247,-518.144159,11991.336260
952.582037,-76.609550,814.226536,10362.883188
952.582356,1838.629195,1924.535449,8216.285956
952.582675,3447.429741,2590.720797,6735.874072
952.582994,4749.792088,2368.659014,4959.379811
952.583313,4749.792088,2072.576638,4293.194464
952.583632,4749.792088,1554.432478,4367.215058
952.583950,3294.210641,592.164754,5699.585753
952.584269,1685.410096,-0.000000,7105.977043
952.584588,-229.828649,-666.185348,8438.347739
952.584907,-2298.286494,-1406.391290,10288.862594
952.585226,-3907.087040,-2072.576638,12065.356855
952.585545,-4673.182538,-2220.617826,12657.521608
952.585864,-4749.792088,-1850.514855,12805.562797
952.586182,-4596.572988,-1332.370696,13323.706956
952.586501,-3677.258390,-814.226536,13101.645173
952.586820,-1991.848295,-0.000000,11473.192101
952.587139,76.609550,1554.432478,9474.636058
952.587458,1762.019645,3108.864956,7105.977043
952.587777,3447.429741,3849.070898,5107.421000
952.588095,4443.353888,3997.112087,3997.112087
952.588414,4903.011187,3256.906145,4367.215058
952.588733,4366.744339,1998.556043,5181.441594
952.589052,3140.991542,518.144159,7105.977043
952.589371,1991.848295,-148.041188,8808.450710
952.589690,0.000000,-1036.288319,10362.883188
952.590009,-1532.190996,-1924.535449,12731.542202
952.590327,-2298.286494,-2294.638420,12953.603985
952.590646,-3524.039291,-1702.473667,13397.727550
952.590965,-1991.848295,-1332.370696,13619.789333
952.591284,-1991.848295,-148.041188,13027.624579
952.591603,-383.047749,-0.000000,11991.336260
952.591922,689.485948,1184.329507,9474.636058
952.592241,2451.505594,2146.597232,8290.306550
952.592559,4443.353888,2442.679609,7179.997637
952.592878,4749.792088,2442.679609,5995.668130
952.593197,5056.230287,1998.556043,5403.503377
952.593516,4596.572988,1850.514855,6217.729913
952.593835,3524.039291,888.247130,7031.956449
952.594154,1608.800546,222.061783,8216.285956
952.594472,76.609550,-0.000000,9030.512492
952.594791,-2068.457845,-444.123565,10436.903782
952.595110,-3524.039291,-1776.494261,12435.459826
952.595429,-4136.915689,-2220.617826,13545.768739
952.595748,-4060.306139,-1628.453072,14656.077652
952.596067,-4060.306139,-962.267725,14063.912898
952.596386,-2911.162892,-0.000000,11991.336260
952.596704,-1072.533697,1036.288319,11473.192101
952.597023,1455.581446,2368.659014,8734.430116
952.597342,2451.505594,3404.947333,5847.626942
952.597661,3830.477490,3701.029710,4811.338623
952.597980,4749.792088,2886.803174,4737.318029
952.598299,4596.572988,2590.720797,4441.235652
952.598617,4136.915689,1480.411884,5699.585753
952.598936,2221.676944,370.102971,7402.059420
952.599255,1225.752797,-0.000000,8734.430116
952.599574,-689.485948,-814.226536,10140.821405
952.599893,-1838.629195,-1258.350101,11843.295072
952.600212,-2757.943793,-1406.391290,12361.439231
952.600531,-3140.991542,-1258.350101,12953.603985
952.600849,-2987.772442,-1184.329507,12657.521608
952.601168,-1685.410096,-592.164754,12213.398043
952.601487,0.000000,296.082377,10807.006753
952.601806,1302.362347,666.185348,9030.512492
952.602125,3140.991542,1480.411884,7254.018232
952.602444,4366.744339,1924.535449,5773.606348
952.602763,4979.620737,2146.597232,5107.421000
952.603081,4826.401637,1406.391290,4811.338623
952.603400,4443.353888,1036.288319,5699.585753
952.603719,3064.381992,296.082377,6513.812290
952.604038,1302.362347,-592.164754,7994.224174
952.604357,-842.705048,-1628.453072,9770.718434
952.604676,-2374.896044,-1998.556043,11547.212695
952.604994,-3753.867940,-2442.679609,13027.624579
952.605313,-3983.696590,-2220.617826,13545.768739
952.605632,-4290.134789,-1628.453072,13693.809927
952.605951,-3294.210641,-740.205942,12879.583391
952.606270,-1991.848295,222.061783,11325.150913
952.606589,0.000000,1776.494261,9548.656652
952.606908,1838.629195,2664.741391,7476.080014
952.607226,3064.381992,3034.844362,5773.606348
952.607545,4903.011187,2960.823768,5181.441594
952.607864,4749.792088,2220.617826,4663.297435
952.608183,4290.134789,1628.453072,5181.441594
952.608502,3064.381992,1036.288319,6661.853478
952.608821,2068.457845,148.041188,7550.100608
952.609139,153.219100,-222.061783,9104.533087
952.609458,-1378.971896,-962.267725,10955.047942
952.609777,-2528.115143,-1258.350101,11991.336260
952.610096,-3370.820191,-1332.370696,12657.521608
952.610415,-3370.820191,-962.267725,13471.748144
952.610734,-2987.772442,-962.267725,12805.562797
952.611053,-1378.971896,-296.082377,11843.295072
952.611371,229.828649,740.205942,10362.883188
952.611690,2374.896044,1628.453072,8512.368333
952.612009,3830.477490,2368.659014,7031.956449
952.612328,4826.401637,2812.782580,5403.503377
952.612647,4979.620737,2516.700203,4737.318029
952.612966,4673.182538,1998.556043,4885.359217
952.613285,3907.087040,1480.411884,6069.688724
952.613603,2451.505594,-0.000000,7698.141797
952.613922,306.438199,-592.164754,9474.636058
952.614241,-1532.190996,-1406.391290,11103.089130
952.614560,-2987.772442,-1998.556043,12805.562797
952.614879,-3753.867940,-1776.494261,13915.871710
952.615198,-3447.429741,-1332.370696,14211.954086
952.615516,-3524.039291,-888.247130,13397.727550
952.615835,-2451.505594,74.020594,12509.480420
952.616154,-766.095498,1406.391290,11029.068536
952.616473,1532.190996,2368.659014,8956.491898
952.616792,2681.334243,2516.700203,7031.956449
952.617111,3907.087040,2516.700203,5773.606348
952.617430,4673.182538,2664.741391,4959.379811
952.617748,4290.134789,1776.494261,5255.462188
952.618067,3600.648841,1184.329507,6291.750507
952.618386,2451.505594,518.144159,7772.162391
952.618705,612.876398,-370.102971,8660.409521
952.619024,-1225.752797,-888.247130,10510.924376
952.619343,-2068.457845,-1036.288319,12287.418637
952.619662,-3370.820191,-1850.514855,12879.583391
952.619980,-3140.991542,-1110.308913,13397.727550
952.620299,-2834.553343,-814.226536,13471.748144
952.620618,-2145.067394,-148.041188,12435.459826
952.620937,-536.266849,592.164754,10732.986159
952.621256,1838.629195,1406.391290,9030.512492
952.621575,2911.162892,2294.638420,6883.915261
952.621893,4290.134789,2516.700203,5551.544565
952.622212,4903.011187,1924.535449,4663.297435
952.622531,4749.792088,1850.514855,4663.297435
952.622850,3907.087040,1258.350101,5255.462188
952.623169,2374.896044,518.144159,6735.874072
952.623488,766.095498,-296.082377,8216.285956
952.623807,-1225.752797,-1036.288319,10140.821405
952.624125,-2987.772442,-1554.432478,11695.253884
952.624444,-3830.477490,-2516.700203,12805.562797
952.624763,-4443.353888,-2368.659014,13841.851115
952.625082,-3983.696590,-1554.432478,13693.809927
952.625401,-3217.601092,-962.267725,13249.686362
952.625720,-1762.019645,-444.123565,11399.171507
952.626038,229.828649,1110.308913,9474.636058
952.626357,2451.505594,1924.535449,7402.059420
952.626676,3830.477490,2442.679609,5625.565159
952.626995,4903.011187,2738.761985,4737.318029
952.627314,5286.058936,1924.535449,4367.215058
952.627633,4366.744339,1184.329507,5033.400406
952.627952,3370.820191,370.102971,6513.812290
952.628270,1762.019645,-222.061783,7846.182985
952.628589,-229.828649,-1036.288319,9326.594869
952.628908,-1991.848295,-1776.494261,11177.109724
952.629227,-3370.820191,-1776.494261,12435.459826
952.629546,-3677.258390,-1406.391290,13397.727550
952.629865,-3983.696590,-1258.350101,13397.727550
952.630184,-2834.553343,-518.144159,12583.501014
952.630502,-1532.190996,666.185348,11917.315666
952.630821,153.219100,1702.473667,9992.780217
952.631140,1991.848295,2368.659014,7846.182985
952.631459,3447.429741,2812.782580,6809.894666
952.631778,4443.353888,2960.823768,4959.379811
952.632097,5209.449386,3034.844362,4589.276840
952.632415,4903.011187,2368.659014,4589.276840
952.632734,3677.258390,2294.638420,5551.544565
952.633053,2374.896044,888.247130,6809.894666
952.633372,459.657299,-0.000000,8586.388927
952.633691,-1608.800546,-1110.308913,10881.027347
952.634010,-3677.258390,-1702.473667,12361.439231
952.634329,-4213.525239,-2220.617826,13693.809927
952.634647,-4903.011187,-1924.535449,13841.851115
952.634966,-3907.087040,-2220.617826,15100.201217
952.635285,-3370.820191,-962.267725,12953.603985
952.635604,-1378.971896,740.205942,11843.295072
952.635923,1072.533697,1702.473667,9326.594869
952.636242,2528.115143,3404.947333,6957.935855
952.636560,4673.182538,3404.947333,6143.709319
952.636879,4826.401637,3478.967927,4293.194464
952.637198,4749.792088,2664.741391,4367.215058
952.637517,4443.353888,1332.370696,5921.647536
952.637836,3064.381992,370.102971,7550.100608
952.638155,995.924147,-518.144159,8808.450710
952.638474,-1149.143247,-1480.411884,10955.047942
952.638792,-3064.381992,-1998.556043,12435.459826
952.639111,-3677.258390,-2368.659014,13841.851115
952.639430,-4136.915689,-1850.514855,14063.912898
952.639749,-4213.525239,-1036.288319,13989.892304
952.640068,-3140.991542,-148.041188,13027.624579
952.640387,-1915.238745,1036.288319,11547.212695
952.640706,0.000000,1850.514855,10066.800811
952.641024,2221.676944,2516.700203,7476.080014
952.641343,3677.258390,2738.761985,6069.688724
952.641662,4903.011187,2590.720797,4737.318029
952.641981,5132.839837,2664.741391,4441.235652
952.642300,5056.230287,2294.638420,4885.359217
952.642619,3600.648841,1480.411884,6143.709319
952.642938,2145.067394,444.123565,7550.100608
952.643256,229.828649,-666.185348,9030.512492
952.643575,-1685.410096,-1406.391290,10881.027347
952.643894,-3447.429741,-2146.597232,12509.480420
952.644213,-4443.353888,-1924.535449,12879.583391
952.644532,-4060.306139,-1480.411884,13397.727550
952.644851,-3753.867940,-1110.308913,13101.645173
952.645170,-1915.238745,-0.000000,11621.233289
952.645488,-612.876398,740.205942,9918.759623
952.645807,1378.971896,1480.411884,7772.162391
952.646126,2911.162892,2368.659014,5995.668130
952.646445,4443.353888,2442.679609,4959.379811
952.646764,4749.792088,2368.659014,4441.235652
952.647083,5056.230287,1480.411884,5033.400406
952.647402,3753.867940,740.205942,5921.647536
952.647721,2451.505594,296.082377,7031.956449
952.648039,919.314598,-444.123565,8586.388927
952.648358,-995.924147,-962.267725,9992.780217
952.648677,-2451.505594,-1702.473667,11621.233289
952.648996,-3370.820191,-1924.535449,12361.439231
952.649315,-3830.477490,-1776.494261,13175.665768
952.649634,-3677.258390,-1702.473667,13175.665768
952.649953,-2834.553343,-444.123565,12361.439231
952.650271,-766.095498,518.144159,10584.944971
952.650590,536.266849,1554.432478,9030.512492
952.650909,2221.676944,1998.556043,7328.038826
952.651228,3830.477490,2294.638420,6365.771101
952.651547,4596.572988,2220.617826,4811.338623
952.651866,4519.963438,2220.617826,5033.400406
952.652185,3830.477490,1628.453072,5625.565159
952.652504,2528.115143,1184.329507,6883.915261
952.652822,1762.019645,-148.041188,8512.368333
952.653141,-766.095498,-740.205942,9992.780217
952.653460,-2681.334243,-1850.514855,11917.315666
952.653779,-3447.429741,-1776.494261,13027.624579
952.654098,-3753.867940,-1702.473667,13915.871710
952.654417,-3753.867940,-1332.370696,14434.015869
952.654736,-2987.772442,-888.247130,13471.748144
952.655054,-1532.190996,148.041188,11695.253884
952.655373,536.266849,1332.370696,9844.739029
952.655692,2068.457845,2072.576638,8068.244768
952.656011,3983.696590,2960.823768,6291.750507
952.656330,4903.011187,2738.761985,5403.503377
952.656649,5056.230287,2368.659014,5181.441594
952.656968,4596.572988,1850.514855,5625.565159
952.657287,3600.648841,888.247130,7105.977043
952.657605,2451.505594,444.123565,7846.182985
952.657924,536.266849,-222.061783,9400.615463
952.658243,-1225.752797,-1036.288319,11103.089130
952.658562,-2374.896044,-1480.411884,12361.439231
952.658881,-3524.039291,-1628.453072,13619.789333
952.659200,-3524.039291,-1332.370696,13471.748144
952.659519,-2757.943793,-814.226536,13101.645173
952.659837,-2068.457845,-0.000000,12139.377449
952.660156,0.000000,1036.288319,10362.883188
952.660475,919.314598,2146.597232,8660.409521
952.660794,2451.505594,2812.782580,6735.874072
952.661113,3677.258390,3182.885551,5255.462188
952.661432,4596.572988,2960.823768,4737.318029
952.661751,4060.306139,2072.576638,5181.441594
952.662070,3600.648841,1480.411884,5995.668130
952.662388,1685.410096,444.123565,7031.956449
952.662707,536.266849,-74.020594,8586.388927
952.663026,-1302.362347,-962.267725,10214.842000
952.663345,-2911.162892,-1480.411884,11843.295072
952.663664,-3140.991542,-1554.432478,12509.480420
952.663983,-3600.648841,-1258.350101,13323.706956
952.664302,-3140.991542,-1036.288319,13101.645173
952.664620,-2374.896044,-148.041188,12139.377449
952.664939,-919.314598,740.205942,10584.944971
952.665258,1149.143247,1628.453072,8734.430116
952.665577,2528.115143,2516.700203,7031.956449
952.665896,4060.306139,2516.700203,5995.668130
952.666215,4826.401637,2442.679609,4885.359217
952.666534,4826.401637,1776.494261,4885.359217
952.666853,4136.915689,666.185348,5995.668130
952.667171,2834.553343,-0.000000,7105.977043
952.667490,1225.752797,-592.164754,8660.409521
952.667809,0.000000,-962.267725,9992.780217
952.668128,-1532.190996,-1628.453072,11473.192101
952.668447,-2451.505594,-2220.617826,12657.521608
952.668766,-3064.381992,-1850.514855,12805.562797
952.669085,-2911.162892,-1628.453072,13249.686362
952.669404,-2298.286494,-1480.411884,12731.542202
952.669722,-459.657299,-222.061783,11103.089130
952.670041,766.095498,888.247130,9400.615463
952.670360,2451.505594,1850.514855,7920.203579
952.670679,3677.258390,2368.659014,6513.812290
952.670998,4673.182538,2442.679609,4737.318029
952.671317,4596.572988,1702.473667,4885.359217
952.671636,3677.258390,1110.308913,5699.585753
952.671954,2987.772442,814.226536,6735.874072
952.672273,1455.581446,-0.000000,7994.224174
952.672592,-459.657299,-740.205942,9474.636058
952.672911,-2451.505594,-1554.432478,11399.171507
952.673230,-3830.477490,-1776.494261,12879.583391
952.673549,-4366.744339,-1702.473667,13323.706956
952.673868,-4213.525239,-1036.288319,13767.830521
952.674187,-3370.820191,-370.102971,13249.686362
952.674505,-2145.067394,740.205942,11695.253884
952.674824,0.000000,1554.432478,9622.677246
952.675143,1762.019645,2294.638420,7402.059420
952.675462,3447.429741,2812.782580,5921.647536
952.675781,4366.744339,3182.885551,4959.379811
952.676100,4519.963438,2368.659014,4663.297435
952.676419,4060.306139,1406.391290,5255.462188
952.676737,3064.381992,444.123565,6587.832884
952.677056,1762.019645,-0.000000,7920.203579
952.677375,0.000000,-518.144159,9474.636058
952.677694,-1685.410096,-1332.370696,11325.150913
952.678013,-2604.724693,-1924.535449,12731.542202
952.678332,-3217.601092,-1702.473667,13397.727550
952.678651,-3140.991542,-1184.329507,13767.830521
952.678970,-2987.772442,-1036.288319,13545.768739
952.679288,-1378.971896,-0.000000,12287.418637
952.679607,383.047749,1110.308913,10214.842000
952.679926,2451.505594,2220.617826,8068.244768
952.680245,4136.915689,2738.761985,6661.853478
952.680564,5362.668486,2812.782580,4885.359217
952.680883,5898.935335,2812.782580,4515.256246
952.681202,5669.106685,2294.638420,5033.400406
952.681520,4903.011187,1554.432478,5551.544565
952.681839,2757.943793,962.267725,6661.853478
952.682158,1149.143247,-0.000000,8512.368333
952.682477,-1072.533697,-962.267725,10362.883188
952.682796,-2528.115143,-1776.494261,12287.418637
952.683115,-3677.258390,-2294.638420,13323.706956
952.683434,-4136.915689,-1628.453072,13619.789333
952.683753,-3753.867940,-888.247130,13693.809927
952.684071,-2604.724693,-0.000000,12953.603985
952.684390,-842.705048,1110.308913,11029.068536
952.684709,919.314598,2368.659014,8882.471304
952.685028,2528.115143,3256.906145,7105.977043
952.685347,4060.306139,3404.947333,5477.523971
952.685666,5209.449386,2664.741391,5033.400406
952.685985,4749.792088,2294.638420,5033.400406
952.686303,4060.306139,1258.350101,5699.585753
952.686622,2528.115143,444.123565,7031.956449
952.686941,689.485948,-296.082377,8364.327145
952.687260,-1149.143247,-888.247130,9992.780217
952.687579,-2604.724693,-1332.370696,11621.233289
952.687898,-4290.134789,-1850.514855,13027.624579
952.688217,-4673.182538,-1776.494261,13619.789333
952.688536,-3830.477490,-1184.329507,13989.892304
952.688854,-3294.210641,-814.226536,13471.748144
952.689173,-1915.238745,-0.000000,12065.356855
952.689492,76.609550,962.267725,10140.821405
952.689811,2068.457845,1776.494261,8068.244768
