#time,accel_x,accel_y,accel_z
1400.951116,2221.676944,-1258.350101,9326.594869
1400.951433,2604.724693,-962.267725,7624.121203
1400.951750,3524.039291,-296.082377,7105.977043
1400.952067,3524.039291,-148.041188,6365.771101
1400.952384,3217.601092,-666.185348,6217.729913
1400.952701,2757.943793,-1406.391290,6513.812290
1400.953018,1685.410096,-2146.597232,7550.100608
1400.953335,842.705048,-2590.720797,8216.285956
1400.953651,76.609550,-2812.782580,8142.265362
1400.953968,0.000000,-2368.659014,7994.224174
1400.954285,-536.266849,-1332.370696,7698.141797
1400.954602,-229.828649,-740.205942,7179.997637
1400.954919,306.438199,-0.000000,6735.874072
1400.955236,306.438199,444.123565,7105.977043
1400.955553,0.000000,296.082377,7105.977043
1400.955870,-766.095498,-0.000000,8216.285956
1400.956187,-1072.533697,-0.000000,9474.636058
1400.956504,-1762.019645,592.164754,9696.697840
1400.956821,-1762.019645,740.205942,9770.718434
1400.957137,-1455.581446,1554.432478,9696.697840
1400.957454,-1072.533697,1924.535449,9178.553681
1400.957771,-153.219100,2072.576638,8364.327145
1400.958088,306.438199,1702.473667,7846.182985
1400.958405,612.876398,1406.391290,7994.224174
1400.958722,459.657299,370.102971,8734.430116
1400.959039,306.438199,-444.123565,9622.677246
1400.959356,0.000000,-888.247130,10658.965565
1400.959673,-995.924147,-666.185348,11103.089130
1400.959990,-842.705048,-148.041188,12065.356855
1400.960306,-842.705048,592.164754,12065.356855
1400.960623,-229.828649,1036.288319,11843.295072
1400.960940,383.047749,888.247130,12065.356855
1400.961257,842.705048,1258.350101,11843.295072
1400.961574,2145.067394,1554.432478,11251.130318
1400.961891,3217.601092,1702.473667,10658.965565
1400.962208,2911.162892,1628.453072,11029.068536
1400.962525,2834.553343,1554.432478,11547.212695
1400.962842,2374.896044,2146.597232,10584.944971
1400.963159,2681.334243,2590.720797,10288.862594
1400.963476,1378.971896,3034.844362,10510.924376
1400.963792,1378.971896,2812.782580,9992.780217
1400.964109,766.095498,2072.576638,9844.739029
1400.964426,-153.219100,962.267725,10510.924376
1400.964743,-383.047749,370.102971,11251.130318
1400.965060,-995.924147,-148.041188,10955.047942
1400.965377,-995.924147,-74.020594,11103.089130
1400.965694,-919.314598,-0.000000,11473.192101
1400.966011,-689.485948,444.123565,11177.109724
1400.966328,-689.485948,814.226536,10510.924376
1400.966645,-153.219100,1258.350101,10140.821405
1400.966962,0.000000,1554.432478,9622.677246
1400.967278,0.000000,1776.494261,9030.512492
1400.967595,612.876398,2072.576638,8808.450710
1400.967912,1378.971896,1554.432478,8586.388927
1400.968229,1608.800546,1184.329507,8142.265362
1400.968546,1532.190996,740.205942,8142.265362
1400.968863,1378.971896,222.061783,8512.368333
1400.969180,842.705048,-740.205942,8734.430116
1400.969497,766.095498,-1258.350101,9326.594869
1400.969814,383.047749,-1406.391290,9326.594869
1400.970131,76.609550,-1628.453072,9474.636058
1400.970447,76.609550,-1332.370696,9474.636058
1400.970764,0.000000,-1554.432478,9622.677246
1400.971081,0.000000,-1480.411884,9696.697840
1400.971398,229.828649,-1480.411884,9548.656652
1400.971715,689.485948,-1332.370696,9622.677246
1400.972032,1072.533697,-1406.391290,9252.574275
1400.972349,1685.410096,-1628.453072,9326.594869
1400.972666,1608.800546,-1628.453072,8882.471304
1400.972983,1915.238745,-1480.411884,8586.388927
1400.973300,2221.676944,-1332.370696,8438.347739
1400.973617,1991.848295,-1776.494261,8216.285956
1400.973933,1991.848295,-1850.514855,8068.244768
1400.974250,1608.800546,-1924.535449,8216.285956
1400.974567,1072.533697,-2072.576638,8364.327145
1400.974884,536.266849,-2368.659014,8512.368333
1400.975201,-229.828649,-2664.741391,8882.471304
1400.975518,-459.657299,-2812.782580,9326.594869
1400.975835,-919.314598,-3108.864956,9400.615463
1400.976152,-689.485948,-2664.741391,9252.574275
1400.976469,-919.314598,-2590.720797,9178.553681
1400.976786,-383.047749,-2220.617826,8882.471304
1400.977103,-536.266849,-1702.473667,8512.368333
1400.977419,-536.266849,-1480.411884,8216.285956
1400.977736,0.000000,-740.205942,7698.141797
1400.978053,306.438199,-296.082377,7328.038826
1400.978370,612.876398,-148.041188,7624.121203
1400.978687,153.219100,-592.164754,7772.162391
1400.979004,229.828649,-592.164754,8068.244768
1400.979321,0.000000,-666.185348,8438.347739
1400.979638,229.828649,-666.185348,9030.512492
1400.979955,-153.219100,-370.102971,9252.574275
1400.980272,-153.219100,-74.020594,9252.574275
1400.980589,0.000000,-222.061783,9252.574275
1400.980906,76.609550,-296.082377,9474.636058
1400.981223,76.609550,-444.123565,9548.656652
1400.981540,229.828649,-0.000000,9326.594869
1400.981857,383.047749,-0.000000,9326.594869
1400.982174,689.485948,-0.000000,9696.697840
1400.982492,919.314598,-74.020594,10066.800811
1400.982809,1378.971896,370.102971,10362.883188
1400.983126,1455.581446,1036.288319,9770.718434
1400.983443,1608.800546,962.267725,9992.780217
1400.983760,1608.800546,1184.329507,9696.697840
1400.984078,1915.238745,1480.411884,9696.697840
1400.984395,2068.457845,1554.432478,10066.800811
1400.984712,1762.019645,1480.411884,9474.636058
1400.985029,1455.581446,1036.288319,9548.656652
1400.985346,1149.143247,1184.329507,9844.739029
1400.985664,919.314598,1184.329507,10066.800811
1400.985981,0.000000,740.205942,10732.986159
1400.986298,-153.219100,1110.308913,10807.006753
1400.986615,-306.438199,1258.350101,11177.109724
1400.986932,-306.438199,1332.370696,10881.027347
1400.987250,0.000000,1406.391290,10658.965565
1400.987567,0.000000,1110.308913,10732.986159
1400.987884,153.219100,1480.411884,10288.862594
1400.988201,383.047749,1480.411884,9992.780217
1400.988518,306.438199,1628.453072,9770.718434
1400.988836,306.438199,1628.453072,9696.697840
1400.989153,383.047749,1480.411884,10214.842000
1400.989470,0.000000,1628.453072,9696.697840
1400.989787,229.828649,1480.411884,9992.780217
1400.990104,0.000000,1332.370696,10066.800811
1400.990422,0.000000,1110.308913,10288.862594
1400.990739,153.219100,148.041188,10140.821405
1400.991056,76.609550,-0.000000,10214.842000
1400.991373,383.047749,-0.000000,10140.821405
1400.991690,229.828649,-0.000000,10436.903782
1400.992008,0.000000,-0.000000,10214.842000
1400.992325,536.266849,-148.041188,10362.883188
1400.992642,229.828649,-0.000000,10288.862594
1400.992959,306.438199,222.061783,10140.821405
1400.993276,536.266849,-0.000000,9992.780217
1400.993593,919.314598,-296.082377,9474.636058
1400.993911,1149.143247,-592.164754,9474.636058
1400.994228,1608.800546,-518.144159,9548.656652
1400.994545,1685.410096,-666.185348,9178.553681
1400.994862,1991.848295,-592.164754,9178.553681
1400.995179,1838.629195,-592.164754,9104.533087
1400.995497,1378.971896,-592.164754,9104.533087
1400.995814,1532.190996,-518.144159,8808.450710
1400.996131,1072.533697,-592.164754,9030.512492
1400.996448,919.314598,-592.164754,8882.471304
1400.996765,612.876398,-888.247130,9030.512492
1400.997083,1149.143247,-888.247130,8808.450710
1400.997400,1149.143247,-814.226536,9030.512492
1400.997717,1072.533697,-814.226536,8734.430116
1400.998034,1378.971896,-666.185348,8882.471304
1400.998351,1455.581446,-1036.288319,8586.388927
1400.998669,1455.581446,-666.185348,8364.327145
1400.998986,1225.752797,-592.164754,8660.409521
1400.999303,1455.581446,-592.164754,8512.368333
1400.999620,1302.362347,-444.123565,8290.306550
1400.999937,1838.629195,-518.144159,8216.285956
1401.000255,1302.362347,-814.226536,8142.265362
1401.000572,1532.190996,-740.205942,8068.244768
1401.000889,1302.362347,-1036.288319,8290.306550
1401.001206,1072.533697,-888.247130,8438.347739
1401.001523,1455.581446,-666.185348,8512.368333
1401.001841,766.095498,-518.144159,8586.388927
1401.002158,306.438199,-814.226536,9104.533087
1401.002475,76.609550,-740.205942,9326.594869
1401.002792,0.000000,-518.144159,9474.636058
1401.003109,0.000000,-148.041188,9474.636058
1401.003427,0.000000,-444.123565,9622.677246
1401.003744,0.000000,-0.000000,9474.636058
1401.004061,306.438199,-0.000000,9474.636058
1401.004378,536.266849,444.123565,9252.574275
1401.004695,306.438199,740.205942,9474.636058
1401.005012,995.924147,888.247130,9030.512492
1401.005330,842.705048,814.226536,9104.533087
1401.005647,766.095498,962.267725,9474.636058
1401.005964,689.485948,1332.370696,9696.697840
1401.006281,459.657299,1184.329507,9622.677246
1401.006598,383.047749,1480.411884,9622.677246
1401.006916,459.657299,1332.370696,9844.739029
1401.007233,153.219100,1554.432478,9770.718434
1401.007550,229.828649,1924.535449,9622.677246
1401.007867,153.219100,1628.453072,9696.697840
1401.008184,536.266849,1776.494261,9548.656652
1401.008502,306.438199,1702.473667,9696.697840
1401.008819,612.876398,1850.514855,9622.677246
1401.009136,536.266849,1998.556043,9844.739029
1401.009453,536.266849,1998.556043,9844.739029
1401.009770,459.657299,1998.556043,9770.718434
1401.010088,766.095498,2294.638420,9918.759623
1401.010405,1149.143247,1776.494261,9696.697840
1401.010722,919.314598,2368.659014,9770.718434
1401.011039,995.924147,1998.556043,9696.697840
1401.011356,995.924147,1998.556043,9548.656652
1401.011674,1302.362347,1850.514855,9844.739029
1401.011991,1378.971896,1628.453072,9992.780217
1401.012308,1072.533697,1628.453072,9918.759623
1401.012625,1149.143247,1702.473667,10066.800811
1401.012942,766.095498,1406.391290,10066.800811
1401.013260,766.095498,1332.370696,10214.842000
1401.013577,536.266849,1110.308913,10066.800811
1401.013894,1149.143247,1406.391290,10066.800811
1401.014211,612.876398,888.247130,10140.821405
1401.014528,1072.533697,962.267725,9992.780217
1401.014846,1072.533697,814.226536,9992.780217
1401.015163,1302.362347,444.123565,9770.718434
1401.015480,1072.533697,740.205942,9918.759623
1401.015797,842.705048,518.144159,9770.718434
1401.016114,1225.752797,444.123565,9474.636058
1401.016431,1072.533697,814.226536,9474.636058
1401.016749,1072.533697,740.205942,9548.656652
1401.017066,1225.752797,444.123565,9326.594869
1401.017383,995.924147,518.144159,9400.615463
1401.017700,1072.533697,-0.000000,9178.553681
1401.018017,1455.581446,-148.041188,9252.574275
1401.018335,766.095498,-74.020594,9178.553681
1401.018652,1072.533697,-296.082377,9030.512492
1401.018969,995.924147,-296.082377,9104.533087
1401.019286,1072.533697,-148.041188,9104.533087
1401.019603,919.314598,-74.020594,8660.409521
1401.019921,1072.533697,-74.020594,8734.430116
1401.020238,1149.143247,-0.000000,8734.430116
1401.020555,1149.143247,-0.000000,8808.450710
1401.020872,995.924147,-222.061783,8586.388927
1401.021189,1225.752797,-296.082377,8364.327145
1401.021507,995.924147,-222.061783,8882.471304
1401.021824,1225.752797,-148.041188,8660.409521
1401.022141,1072.533697,-296.082377,8660.409521
1401.022458,919.314598,-222.061783,9030.512492
1401.022775,1072.533697,-148.041188,8956.491898
1401.023093,842.705048,-296.082377,9030.512492
1401.023410,842.705048,-222.061783,9104.533087
1401.023727,842.705048,-296.082377,8956.491898
1401.024044,842.705048,-296.082377,9252.574275
1401.024361,612.876398,-222.061783,9326.594869
1401.024679,689.485948,-370.102971,9178.553681
1401.024996,766.095498,-222.061783,9474.636058
1401.025313,842.705048,-148.041188,9326.594869
1401.025630,919.314598,-148.041188,9326.594869
1401.025947,612.876398,-0.000000,9400.615463
1401.026265,689.485948,-0.000000,9474.636058
1401.026582,919.314598,296.082377,9548.656652
1401.026899,536.266849,592.164754,9770.718434
1401.027216,766.095498,592.164754,9474.636058
1401.027533,919.314598,444.123565,9474.636058
1401.027850,919.314598,666.185348,9326.594869
1401.028168,842.705048,888.247130,9252.574275
1401.028485,1838.629195,666.185348,9178.553681
1401.028802,919.314598,1036.288319,9474.636058
1401.029119,1072.533697,962.267725,9474.636058
1401.029436,689.485948,1036.288319,9622.677246
1401.029754,842.705048,740.205942,9622.677246
1401.030071,612.876398,1554.432478,9844.739029
1401.030388,459.657299,962.267725,9770.718434
1401.030705,766.095498,1332.370696,9622.677246
1401.031022,689.485948,1258.350101,9474.636058
1401.031340,1072.533697,1406.391290,9622.677246
1401.031657,919.314598,1332.370696,9622.677246
1401.031974,919.314598,1554.432478,9548.656652
1401.032291,842.705048,1258.350101,9548.656652
1401.032608,383.047749,1554.432478,9844.739029
1401.032926,842.705048,1184.329507,9770.718434
1401.033243,306.438199,962.267725,10140.821405
1401.033560,459.657299,1184.329507,10140.821405
1401.033877,612.876398,740.205942,10066.800811
1401.034194,459.657299,740.205942,10140.821405
1401.034512,536.266849,666.185348,9844.739029
1401.034829,229.828649,740.205942,9770.718434
1401.035146,536.266849,666.185348,9918.759623
1401.035463,229.828649,518.144159,9844.739029
1401.035780,536.266849,666.185348,9844.739029
1401.036098,459.657299,222.061783,9918.759623
1401.036415,153.219100,-0.000000,9844.739029
1401.036732,153.219100,296.082377,9696.697840
1401.037049,229.828649,-0.000000,9770.718434
1401.037366,459.657299,222.061783,9474.636058
1401.037684,612.876398,-0.000000,9400.615463
1401.038001,459.657299,-0.000000,9548.656652
1401.038318,612.876398,-74.020594,9400.615463
1401.038635,459.657299,-74.020594,9400.615463
1401.038952,536.266849,-0.000000,9400.615463
1401.039269,536.266849,-0.000000,9326.594869
1401.039587,306.438199,-148.041188,9030.512492
1401.039904,229.828649,-148.041188,9104.533087
1401.040221,612.876398,-296.082377,9178.553681
1401.040538,536.266849,-74.020594,8956.491898
1401.040855,842.705048,-370.102971,8660.409521
1401.041173,919.314598,-444.123565,8808.450710
1401.041490,842.705048,-444.123565,8882.471304
1401.041807,919.314598,-444.123565,8808.450710
1401.042124,766.095498,-222.061783,8734.430116
1401.042441,995.924147,-296.082377,8660.409521
1401.042759,1378.971896,-370.102971,8882.471304
1401.043076,1072.533697,-518.144159,8586.388927
1401.043393,1378.971896,-592.164754,8660.409521
1401.043710,1072.533697,-666.185348,8882.471304
1401.044027,1072.533697,-592.164754,8734.430116
1401.044345,1149.143247,-666.185348,9030.512492
1401.044662,1302.362347,-814.226536,9178.553681
1401.044979,995.924147,-888.247130,9326.594869
1401.045296,842.705048,-444.123565,9622.677246
1401.045613,1072.533697,-888.247130,9474.636058
1401.045931,995.924147,-518.144159,9474.636058
1401.046248,766.095498,-814.226536,9252.574275
1401.046565,689.485948,-740.205942,9548.656652
1401.046882,842.705048,-592.164754,9400.615463
1401.047199,689.485948,-518.144159,9326.594869
1401.047517,766.095498,-592.164754,9326.594869
1401.047834,766.095498,-370.102971,9474.636058
1401.048151,766.095498,-148.041188,9474.636058
1401.048468,689.485948,-222.061783,9474.636058
1401.048785,536.266849,-222.061783,9400.615463
1401.049103,229.828649,-74.020594,9400.615463
1401.049420,459.657299,-0.000000,9400.615463
1401.049737,383.047749,-0.000000,9548.656652
1401.050054,383.047749,-0.000000,9474.636058
1401.050371,306.438199,222.061783,9622.677246
1401.050688,153.219100,222.061783,9696.697840
1401.051006,153.219100,222.061783,9770.718434
1401.051323,459.657299,-74.020594,9770.718434
1401.051640,459.657299,296.082377,9696.697840
1401.051957,612.876398,518.144159,9474.636058
1401.052274,459.657299,666.185348,9400.615463
1401.052592,536.266849,518.144159,9548.656652
1401.052909,612.876398,444.123565,9474.636058
1401.053226,536.266849,666.185348,9696.697840
1401.053543,459.657299,592.164754,9548.656652
1401.053860,459.657299,592.164754,9844.739029
1401.054178,536.266849,518.144159,9770.718434
1401.054495,612.876398,592.164754,9770.718434
1401.054812,766.095498,740.205942,9770.718434
1401.055129,919.314598,740.205942,9622.677246
1401.055446,536.266849,370.102971,9844.739029
1401.055764,1072.533697,370.102971,9696.697840
1401.056081,766.095498,444.123565,9770.718434
1401.056398,919.314598,666.185348,9992.780217
1401.056715,689.485948,592.164754,9844.739029
1401.057032,919.314598,444.123565,9770.718434
1401.057350,842.705048,370.102971,9696.697840
1401.057667,689.485948,444.123565,9770.718434
1401.057984,689.485948,-0.000000,9696.697840
1401.058301,919.314598,296.082377,9844.739029
1401.058618,919.314598,222.061783,9770.718434
1401.058936,919.314598,148.041188,9474.636058
1401.059253,766.095498,148.041188,9474.636058
1401.059570,612.876398,296.082377,9474.636058
1401.059887,536.266849,-0.000000,9474.636058
1401.060204,842.705048,148.041188,9474.636058
1401.060522,229.828649,-0.000000,9400.615463
1401.060839,229.828649,-0.000000,9400.615463
1401.061156,229.828649,-148.041188,9400.615463
1401.061473,76.609550,-0.000000,9326.594869
1401.061790,-459.657299,-370.102971,9252.574275
1401.062107,459.657299,-0.000000,9178.553681
1401.062425,0.000000,-222.061783,9030.512492
1401.062742,306.438199,-74.020594,9030.512492
1401.063059,306.438199,-74.020594,9252.574275
1401.063376,306.438199,-296.082377,8882.471304
1401.063693,153.219100,-222.061783,8882.471304
1401.064011,689.485948,-222.061783,8882.471304
1401.064328,306.438199,-74.020594,8956.491898
1401.064645,306.438199,-222.061783,9030.512492
1401.064962,612.876398,-296.082377,9178.553681
1401.065279,536.266849,-370.102971,9104.533087
1401.065597,766.095498,-444.123565,8956.491898
1401.065914,612.876398,-444.123565,8956.491898
1401.066231,689.485948,-296.082377,9104.533087
1401.066548,689.485948,-740.205942,9474.636058
1401.066865,689.485948,-444.123565,9104.533087
1401.067183,842.705048,-296.082377,9178.553681
1401.067500,536.266849,-592.164754,9030.512492
1401.067817,536.266849,-148.041188,9178.553681
1401.068134,766.095498,-74.020594,9622.677246
1401.068451,1149.143247,-296.082377,9474.636058
1401.068769,766.095498,-370.102971,9400.615463
1401.069086,919.314598,-370.102971,9252.574275
1401.069403,842.705048,-222.061783,9474.636058
1401.069720,1149.143247,-444.123565,9326.594869
1401.070037,1149.143247,-148.041188,9474.636058
1401.070355,1072.533697,-222.061783,9474.636058
1401.070672,919.314598,-74.020594,9474.636058
1401.070989,1072.533697,-296.082377,9474.636058
1401.071306,995.924147,-0.000000,9622.677246
1401.071623,842.705048,-0.000000,9770.718434
1401.071941,766.095498,222.061783,9548.656652
1401.072258,689.485948,222.061783,9474.636058
1401.072575,842.705048,-0.000000,9400.615463
1401.072892,689.485948,296.082377,9622.677246
1401.073209,842.705048,222.061783,9548.656652
1401.073526,995.924147,296.082377,9474.636058
1401.073844,689.485948,444.123565,9696.697840
1401.074161,842.705048,444.123565,9548.656652
1401.074478,842.705048,592.164754,9696.697840
1401.074795,689.485948,740.205942,9622.677246
1401.075112,842.705048,666.185348,9548.656652
1401.075430,766.095498,518.144159,9548.656652
1401.075747,919.314598,740.205942,9770.718434
1401.076064,766.095498,740.205942,9770.718434
1401.076381,612.876398,740.205942,9770.718434
1401.076698,766.095498,592.164754,9548.656652
1401.077016,689.485948,666.185348,9770.718434
1401.077333,689.485948,518.144159,9918.759623
1401.077650,689.485948,814.226536,9844.739029
1401.077967,842.705048,666.185348,9474.636058
1401.078284,842.705048,1036.288319,9622.677246
1401.078602,766.095498,1036.288319,9696.697840
1401.078919,842.705048,814.226536,9474.636058
1401.079236,995.924147,888.247130,9474.636058
1401.079553,919.314598,814.226536,9696.697840
1401.079870,995.924147,962.267725,9548.656652
1401.080188,1072.533697,814.226536,9992.780217
1401.080505,1072.533697,888.247130,9474.636058
1401.080822,612.876398,666.185348,9474.636058
1401.081139,995.924147,1036.288319,9474.636058
1401.081456,919.314598,1036.288319,9474.636058
1401.081774,612.876398,1184.329507,9474.636058
1401.082091,919.314598,666.185348,9400.615463
1401.082408,766.095498,666.185348,9326.594869
1401.082725,766.095498,666.185348,9326.594869
1401.083043,689.485948,814.226536,9400.615463
1401.083360,995.924147,888.247130,9326.594869
1401.083677,536.266849,666.185348,9400.615463
1401.083994,689.485948,666.185348,9326.594869
1401.084312,689.485948,740.205942,9326.594869
1401.084629,612.876398,370.102971,9326.594869
1401.084946,689.485948,592.164754,9326.594869
1401.085264,612.876398,518.144159,9400.615463
1401.085581,689.485948,518.144159,9178.553681
1401.085898,306.438199,370.102971,9178.553681
1401.086216,612.876398,148.041188,9326.594869
1401.086533,766.095498,296.082377,9030.512492
1401.086850,383.047749,370.102971,9178.553681
1401.087167,306.438199,148.041188,9178.553681
1401.087485,459.657299,148.041188,9104.533087
1401.087802,459.657299,296.082377,8956.491898
1401.088119,536.266849,148.041188,9178.553681
1401.088437,459.657299,148.041188,9178.553681
1401.088754,536.266849,-0.000000,9178.553681
1401.089071,459.657299,-148.041188,9400.615463
1401.089388,689.485948,-74.020594,9178.553681
1401.089706,766.095498,-0.000000,9326.594869
1401.090023,612.876398,-0.000000,9178.553681
1401.090340,689.485948,-74.020594,9104.533087
1401.090658,1072.533697,-74.020594,9104.533087
1401.090975,766.095498,222.061783,9326.594869
1401.091292,383.047749,-0.000000,9474.636058
1401.091609,995.924147,-0.000000,9474.636058
1401.091927,842.705048,222.061783,9252.574275
1401.092244,842.705048,-0.000000,9400.615463
1401.092561,766.095498,222.061783,9474.636058
1401.092879,995.924147,-0.000000,9474.636058
1401.093196,842.705048,370.102971,9474.636058
1401.093513,919.314598,-0.000000,9474.636058
1401.093831,689.485948,222.061783,9548.656652
1401.094148,919.314598,-0.000000,9252.574275
1401.094465,1072.533697,222.061783,9474.636058
1401.094782,919.314598,222.061783,9474.636058
1401.095100,689.485948,296.082377,9622.677246
1401.095417,1149.143247,148.041188,9992.780217
1401.095734,995.924147,518.144159,9548.656652
1401.096052,842.705048,296.082377,9474.636058
1401.096369,766.095498,518.144159,9474.636058
1401.096686,1072.533697,222.061783,9548.656652
1401.097003,689.485948,444.123565,9622.677246
1401.097321,995.924147,148.041188,9474.636058
1401.097638,689.485948,222.061783,9622.677246
1401.097955,689.485948,370.102971,9622.677246
1401.098273,766.095498,222.061783,9696.697840
1401.098590,919.314598,296.082377,9770.718434
1401.098907,842.705048,592.164754,9622.677246
1401.099224,612.876398,370.102971,9548.656652
1401.099542,689.485948,518.144159,9474.636058
1401.099859,842.705048,518.144159,9548.656652
1401.100176,919.314598,370.102971,8956.491898
1401.100494,995.924147,296.082377,9474.636058
1401.100811,919.314598,814.226536,9548.656652
1401.101128,689.485948,592.164754,9400.615463
1401.101446,995.924147,740.205942,9474.636058
1401.101763,766.095498,666.185348,9696.697840
1401.102080,1302.362347,666.185348,9474.636058
1401.102397,1149.143247,814.226536,9400.615463
1401.102715,1149.143247,740.205942,9326.594869
1401.103032,1455.581446,518.144159,9252.574275
1401.103349,1455.581446,740.205942,9104.533087
1401.103667,995.924147,592.164754,9178.553681
1401.103984,1225.752797,740.205942,9326.594869
1401.104301,1149.143247,814.226536,9474.636058
1401.104618,1149.143247,592.164754,9326.594869
1401.104936,1149.143247,666.185348,9474.636058
1401.105253,1149.143247,814.226536,9326.594869
1401.105570,1378.971896,888.247130,9178.553681
1401.105888,1302.362347,592.164754,9252.574275
1401.106205,1302.362347,592.164754,9178.553681
1401.106522,995.924147,814.226536,9400.615463
1401.106839,995.924147,666.185348,9400.615463
1401.107157,1225.752797,592.164754,9252.574275
1401.107474,995.924147,592.164754,9326.594869
1401.107791,1072.533697,592.164754,9400.615463
1401.108109,1149.143247,814.226536,9252.574275
1401.108426,766.095498,592.164754,9474.636058
1401.108743,842.705048,518.144159,9400.615463
1401.109061,689.485948,592.164754,9326.594869
1401.109378,842.705048,-0.000000,9474.636058
1401.109695,766.095498,444.123565,9400.615463
1401.110012,689.485948,370.102971,9622.677246
1401.110330,536.266849,518.144159,9474.636058
1401.110647,612.876398,296.082377,9400.615463
1401.110964,919.314598,-0.000000,9474.636058
1401.111282,229.828649,148.041188,9326.594869
1401.111599,536.266849,296.082377,9474.636058
1401.111916,459.657299,148.041188,9474.636058
1401.112233,689.485948,-0.000000,9474.636058
1401.112551,1378.971896,-0.000000,9474.636058
1401.112868,689.485948,222.061783,9474.636058
1401.113185,536.266849,148.041188,9400.615463
1401.113503,76.609550,-0.000000,9622.677246
1401.113820,536.266849,-0.000000,9474.636058
1401.114137,689.485948,-0.000000,9474.636058
1401.114454,306.438199,-0.000000,9548.656652
1401.114772,383.047749,-0.000000,9474.636058
1401.115089,383.047749,-0.000000,9622.677246
1401.115406,383.047749,-148.041188,9844.739029
1401.115724,459.657299,-518.144159,9548.656652
1401.116041,306.438199,-222.061783,9474.636058
1401.116358,842.705048,-0.000000,9474.636058
1401.116676,689.485948,-0.000000,9326.594869
1401.116993,612.876398,-74.020594,9400.615463
1401.117310,689.485948,-148.041188,9252.574275
1401.117627,612.876398,-148.041188,9326.594869
1401.117945,612.876398,-74.020594,9400.615463
1401.118262,689.485948,-74.020594,9474.636058
1401.118579,459.657299,-74.020594,9696.697840
1401.118897,689.485948,-148.041188,9474.636058
1401.119214,842.705048,-0.000000,9400.615463
1401.119531,536.266849,-370.102971,9474.636058
1401.119848,689.485948,-222.061783,9326.594869
1401.120166,612.876398,-592.164754,9400.615463
1401.120483,536.266849,-444.123565,9400.615463
1401.120800,612.876398,-296.082377,9400.615463
1401.121118,536.266849,-74.020594,9400.615463
1401.121435,536.266849,-370.102971,9326.594869
1401.121752,459.657299,-222.061783,9178.553681
1401.122069,153.219100,-0.000000,9400.615463
1401.122387,766.095498,-74.020594,9030.512492
1401.122704,689.485948,-222.061783,9474.636058
1401.123021,459.657299,-0.000000,9400.615463
1401.123339,383.047749,-444.123565,9400.615463
1401.123656,689.485948,-222.061783,9326.594869
1401.123973,612.876398,-148.041188,9252.574275
1401.124291,919.314598,-0.000000,9178.553681
1401.124608,689.485948,-0.000000,9178.553681
1401.124925,842.705048,-370.102971,9178.553681
1401.125242,842.705048,148.041188,9178.553681
1401.125560,766.095498,-0.000000,9252.574275
1401.125877,612.876398,-0.000000,9326.594869
1401.126194,536.266849,-0.000000,9178.553681
1401.126512,689.485948,148.041188,9326.594869
1401.126829,842.705048,148.041188,9252.574275
1401.127146,919.314598,-0.000000,9400.615463
1401.127463,1072.533697,296.082377,9474.636058
1401.127781,1302.362347,-0.000000,9326.594869
1401.128098,1302.362347,370.102971,9474.636058
1401.128415,919.314598,296.082377,9326.594869
1401.128733,919.314598,518.144159,9474.636058
1401.129050,995.924147,296.082377,9474.636058
1401.129367,1072.533697,296.082377,9400.615463
1401.129684,1072.533697,444.123565,9474.636058
1401.130002,766.095498,370.102971,9474.636058
1401.130319,1072.533697,370.102971,9474.636058
1401.130636,1072.533697,518.144159,9474.636058
1401.130954,766.095498,222.061783,9474.636058
1401.131271,995.924147,370.102971,9252.574275
1401.131588,919.314598,222.061783,9474.636058
1401.131906,995.924147,444.123565,9548.656652
1401.132223,1149.143247,370.102971,9474.636058
1401.132540,1072.533697,296.082377,9474.636058
1401.132857,766.095498,296.082377,9474.636058
1401.133175,766.095498,518.144159,9474.636058
1401.133492,842.705048,296.082377,9548.656652
1401.133809,919.314598,666.185348,9622.677246
1401.134127,612.876398,666.185348,9696.697840
1401.134444,229.828649,444.123565,9696.697840
1401.134761,536.266849,592.164754,9474.636058
1401.135078,536.266849,-0.000000,9474.636058
1401.135396,612.876398,370.102971,9400.615463
1401.135713,229.828649,444.123565,9548.656652
1401.136030,689.485948,222.061783,9548.656652
1401.136348,459.657299,148.041188,9548.656652
1401.136665,612.876398,-0.000000,9400.615463
1401.136982,229.828649,296.082377,9474.636058
1401.137299,536.266849,148.041188,9548.656652
1401.137617,536.266849,-0.000000,9474.636058
1401.137934,-229.828649,-0.000000,9474.636058
1401.138251,536.266849,148.041188,9326.594869
1401.138569,536.266849,-0.000000,9326.594869
1401.138886,153.219100,-148.041188,9400.615463
1401.139203,306.438199,-0.000000,9474.636058
1401.139520,383.047749,-148.041188,9474.636058
1401.139838,612.876398,-74.020594,9474.636058
1401.140155,536.266849,-74.020594,9474.636058
1401.140472,919.314598,-74.020594,9622.677246
1401.140790,536.266849,-222.061783,9400.615463
1401.141107,689.485948,-370.102971,9030.512492
1401.141424,919.314598,-222.061783,9770.718434
1401.141742,612.876398,-148.041188,9326.594869
1401.142059,536.266849,-370.102971,9400.615463
1401.142376,536.266849,-444.123565,9252.574275
1401.142693,383.047749,-296.082377,9548.656652
1401.143011,689.485948,-518.144159,9400.615463
1401.143328,459.657299,-518.144159,9474.636058
1401.143645,536.266849,-222.061783,9326.594869
1401.143963,536.266849,-296.082377,9104.533087
1401.144280,612.876398,-222.061783,9400.615463
1401.144597,842.705048,-592.164754,9252.574275
1401.144914,689.485948,-518.144159,9104.533087
1401.145232,766.095498,-296.082377,9474.636058
1401.145549,612.876398,-370.102971,9104.533087
1401.145866,842.705048,-74.020594,9326.594869
1401.146184,766.095498,-444.123565,8956.491898
1401.146501,612.876398,-222.061783,9104.533087
1401.146818,766.095498,-222.061783,9252.574275
1401.147135,612.876398,-74.020594,9178.553681
1401.147453,383.047749,-0.000000,9400.615463
1401.147770,612.876398,-148.041188,8882.471304
1401.148087,536.266849,-0.000000,9400.615463
1401.148405,612.876398,-0.000000,9252.574275
1401.148722,766.095498,-0.000000,9252.574275
1401.149039,919.314598,222.061783,9252.574275
1401.149357,919.314598,-0.000000,9178.553681
1401.149674,612.876398,296.082377,9326.594869
1401.149991,689.485948,444.123565,9252.574275
1401.150308,766.095498,296.082377,9474.636058
1401.150626,842.705048,444.123565,9252.574275
1401.150943,536.266849,296.082377,9326.594869
1401.151260,919.314598,444.123565,9252.574275
1401.151578,919.314598,444.123565,9326.594869
1401.151895,689.485948,592.164754,9474.636058
1401.152212,1149.143247,592.164754,9400.615463
1401.152529,995.924147,666.185348,9400.615463
1401.152847,766.095498,666.185348,9474.636058
1401.153164,766.095498,740.205942,9400.615463
1401.153481,1072.533697,666.185348,9474.636058
1401.153799,1072.533697,1184.329507,9770.718434
1401.154116,689.485948,888.247130,9474.636058
1401.154433,842.705048,888.247130,9548.656652
1401.154750,689.485948,962.267725,9548.656652
1401.155068,919.314598,962.267725,9474.636058
1401.155385,1149.143247,1036.288319,9844.739029
1401.155702,842.705048,814.226536,9474.636058
1401.156020,919.314598,1184.329507,9548.656652
1401.156337,689.485948,962.267725,9622.677246
1401.156654,919.314598,888.247130,9548.656652
1401.156972,612.876398,962.267725,9918.759623
1401.157289,766.095498,962.267725,9622.677246
1401.157606,766.095498,888.247130,9844.739029
1401.157923,536.266849,888.247130,9696.697840
1401.158241,1302.362347,888.247130,9696.697840
1401.158558,536.266849,740.205942,9696.697840
1401.158875,536.266849,740.205942,9548.656652
1401.159193,689.485948,592.164754,9548.656652
1401.159510,459.657299,962.267725,9770.718434
1401.159827,842.705048,1036.288319,9844.739029
1401.160144,536.266849,814.226536,9696.697840
1401.160462,383.047749,370.102971,9622.677246
1401.160779,766.095498,518.144159,9696.697840
1401.161096,842.705048,666.185348,9474.636058
1401.161414,612.876398,222.061783,9474.636058
1401.161731,612.876398,518.144159,9474.636058
1401.162048,536.266849,370.102971,9474.636058
1401.162365,612.876398,222.061783,9622.677246
1401.162683,842.705048,296.082377,9474.636058
1401.163000,689.485948,592.164754,9548.656652
1401.163317,689.485948,444.123565,9474.636058
1401.163635,842.705048,222.061783,9474.636058
1401.163952,612.876398,148.041188,9474.636058
1401.164269,459.657299,-0.000000,9474.636058
1401.164587,612.876398,-0.000000,9474.636058
1401.164904,689.485948,-74.020594,9252.574275
1401.165221,612.876398,-74.020594,9400.615463
1401.165538,689.485948,-222.061783,9252.574275
1401.165856,842.705048,222.061783,9474.636058
1401.166173,612.876398,-74.020594,9178.553681
1401.166490,919.314598,-148.041188,9030.512492
1401.166808,689.485948,-370.102971,9252.574275
1401.167125,689.485948,-148.041188,9104.533087
1401.167442,383.047749,-222.061783,9326.594869
1401.167759,766.095498,-296.082377,8956.491898
1401.168077,919.314598,-222.061783,9030.512492
1401.168394,766.095498,-0.000000,8956.491898
1401.168711,766.095498,-74.020594,8956.491898
1401.169029,536.266849,-370.102971,9030.512492
1401.169346,1072.533697,-0.000000,9178.553681
1401.169663,1149.143247,-0.000000,8956.491898
1401.169980,842.705048,-74.020594,9030.512492
1401.170298,842.705048,-0.000000,9104.533087
1401.170615,995.924147,-74.020594,8586.388927
1401.170932,689.485948,-0.000000,9252.574275
1401.171250,766.095498,-222.061783,9178.553681
1401.171567,766.095498,-0.000000,9178.553681
1401.171884,1149.143247,-370.102971,9030.512492
1401.172202,995.924147,-0.000000,9030.512492
1401.172519,766.095498,370.102971,9252.574275
1401.172836,919.314598,-0.000000,9400.615463
1401.173153,919.314598,296.082377,9178.553681
1401.173471,919.314598,222.061783,9400.615463
1401.173788,995.924147,370.102971,9400.615463
1401.174105,919.314598,370.102971,9474.636058
1401.174423,842.705048,444.123565,9474.636058
1401.174740,995.924147,592.164754,9400.615463
1401.175057,1225.752797,592.164754,9474.636058
1401.175374,689.485948,444.123565,9474.636058
1401.175692,995.924147,888.247130,9474.636058
1401.176009,919.314598,592.164754,9474.636058
1401.176326,919.314598,444.123565,9474.636058
1401.176644,919.314598,814.226536,9474.636058
1401.176961,919.314598,740.205942,9474.636058
1401.177278,919.314598,814.226536,9622.677246
1401.177595,842.705048,740.205942,9844.739029
1401.177913,995.924147,814.226536,9474.636058
1401.178230,766.095498,962.267725,9474.636058
1401.178547,995.924147,1036.288319,9622.677246
1401.178865,919.314598,962.267725,9696.697840
1401.179182,612.876398,888.247130,9474.636058
1401.179499,612.876398,444.123565,9918.759623
1401.179817,229.828649,740.205942,9844.739029
1401.180134,536.266849,888.247130,9844.739029
1401.180451,612.876398,888.247130,9918.759623
1401.180768,766.095498,666.185348,9770.718434
1401.181086,536.266849,666.185348,9770.718434
1401.181403,383.047749,740.205942,9770.718434
1401.181720,536.266849,962.267725,9696.697840
1401.182038,383.047749,888.247130,9622.677246
1401.182355,919.314598,592.164754,9622.677246
1401.182672,459.657299,740.205942,9696.697840
1401.182990,536.266849,814.226536,9696.697840
1401.183307,612.876398,666.185348,9548.656652
1401.183624,689.485948,592.164754,9622.677246
1401.183942,766.095498,444.123565,9770.718434
1401.184259,536.266849,444.123565,9696.697840
1401.184576,459.657299,370.102971,9474.636058
1401.184894,383.047749,592.164754,9696.697840
1401.185211,689.485948,444.123565,9474.636058
1401.185528,842.705048,518.144159,9770.718434
1401.185845,995.924147,-0.000000,9252.574275
1401.186163,689.485948,-0.000000,9252.574275
1401.186480,766.095498,-0.000000,9474.636058
1401.186797,842.705048,222.061783,9474.636058
1401.187115,459.657299,-0.000000,9474.636058
1401.187432,919.314598,-0.000000,9178.553681
1401.187749,766.095498,-74.020594,9252.574275
1401.188067,1072.533697,-0.000000,9326.594869
1401.188384,459.657299,-0.000000,9178.553681
1401.188701,1532.190996,-222.061783,9326.594869
1401.189019,919.314598,-148.041188,9252.574275
1401.189336,689.485948,-370.102971,9400.615463
1401.189653,842.705048,-222.061783,9400.615463
1401.189971,995.924147,-74.020594,9252.574275
1401.190288,919.314598,-222.061783,9400.615463
1401.190605,766.095498,-222.061783,9030.512492
1401.190923,689.485948,-222.061783,9252.574275
1401.191240,842.705048,-444.123565,8956.491898
1401.191557,536.266849,-592.164754,9178.553681
1401.191874,1072.533697,74.020594,9696.697840
1401.192192,612.876398,-222.061783,9104.533087
1401.192509,766.095498,-370.102971,9326.594869
1401.192826,689.485948,-222.061783,9178.553681
1401.193144,1378.971896,-296.082377,9252.574275
1401.193461,1149.143247,-518.144159,9104.533087
1401.193778,766.095498,-222.061783,8956.491898
1401.194096,766.095498,-222.061783,9104.533087
1401.194413,766.095498,-74.020594,9400.615463
1401.194730,995.924147,-222.061783,9104.533087
1401.195048,842.705048,-222.061783,9252.574275
1401.195365,919.314598,-0.000000,9104.533087
1401.195682,766.095498,-0.000000,9400.615463
1401.196000,612.876398,-74.020594,9326.594869
1401.196317,995.924147,-74.020594,9030.512492
1401.196634,842.705048,-74.020594,9252.574275
1401.196952,766.095498,-0.000000,9400.615463
1401.197269,842.705048,296.082377,9400.615463
1401.197586,1225.752797,-222.061783,9474.636058
1401.197903,612.876398,-0.000000,9474.636058
1401.198221,766.095498,296.082377,9548.656652
1401.198538,1072.533697,370.102971,9474.636058
1401.198855,842.705048,518.144159,9474.636058
1401.199173,919.314598,518.144159,9474.636058
1401.199490,842.705048,370.102971,9474.636058
1401.199807,919.314598,370.102971,9474.636058
1401.200125,842.705048,370.102971,9474.636058
1401.200442,766.095498,592.164754,9622.677246
1401.200759,919.314598,222.061783,9696.697840
1401.201077,766.095498,296.082377,9696.697840
1401.201394,842.705048,518.144159,9474.636058
1401.201711,766.095498,518.144159,9548.656652
1401.202029,842.705048,740.205942,9696.697840
1401.202346,1149.143247,592.164754,9622.677246
1401.202663,842.705048,666.185348,9622.677246
1401.202981,842.705048,666.185348,9474.636058
1401.203298,459.657299,666.185348,9548.656652
1401.203615,306.438199,444.123565,9770.718434
1401.203932,919.314598,592.164754,9770.718434
1401.204250,766.095498,444.123565,9696.697840
1401.204567,612.876398,444.123565,9992.780217
1401.204884,383.047749,444.123565,9548.656652
1401.205202,229.828649,370.102971,9696.697840
1401.205519,536.266849,444.123565,9622.677246
1401.205836,536.266849,370.102971,9548.656652
1401.206154,536.266849,296.082377,9474.636058
1401.206471,536.266849,296.082377,9474.636058
1401.206788,459.657299,148.041188,9844.739029
1401.207106,383.047749,518.144159,9622.677246
1401.207423,459.657299,222.061783,9474.636058
1401.207740,536.266849,-0.000000,9400.615463
1401.208058,459.657299,-0.000000,9474.636058
1401.208375,459.657299,222.061783,9474.636058
1401.208692,536.266849,148.041188,9474.636058
1401.209010,459.657299,-0.000000,9474.636058
1401.209327,536.266849,-0.000000,9252.574275
1401.209644,766.095498,-0.000000,9474.636058
1401.209961,689.485948,-0.000000,9400.615463
1401.210279,612.876398,-74.020594,9400.615463
1401.210596,689.485948,-0.000000,9474.636058
1401.210913,612.876398,-0.000000,9326.594869
1401.211231,689.485948,-74.020594,9474.636058
1401.211548,612.876398,-0.000000,9548.656652
1401.211865,1072.533697,-0.000000,9178.553681
1401.212183,689.485948,-222.061783,9252.574275
1401.212500,919.314598,-296.082377,9252.574275
1401.212817,689.485948,-74.020594,9104.533087
1401.213135,842.705048,-148.041188,9252.574275
1401.213452,919.314598,-296.082377,9252.574275
1401.213769,919.314598,-296.082377,9178.553681
1401.214087,766.095498,-296.082377,9030.512492
1401.214404,459.657299,-592.164754,8660.409521
1401.214721,689.485948,-222.061783,9326.594869
1401.215039,995.924147,-518.144159,9252.574275
1401.215356,766.095498,-444.123565,9178.553681
1401.215673,919.314598,-370.102971,9178.553681
1401.215990,1149.143247,-296.082377,9252.574275
1401.216308,766.095498,-444.123565,9104.533087
1401.216625,536.266849,-0.000000,9326.594869
1401.216942,766.095498,-148.041188,9252.574275
1401.217260,536.266849,-74.020594,9474.636058
1401.217577,536.266849,-222.061783,9326.594869
1401.217894,383.047749,-0.000000,9400.615463
1401.218212,919.314598,-74.020594,9178.553681
1401.218529,842.705048,-148.041188,9252.574275
1401.218846,842.705048,-74.020594,9252.574275
1401.219164,919.314598,592.164754,9622.677246
1401.219481,766.095498,-0.000000,9548.656652
1401.219798,766.095498,-0.000000,9400.615463
1401.220116,689.485948,222.061783,9474.636058
1401.220433,766.095498,148.041188,9326.594869
1401.220750,1072.533697,-0.000000,9326.594869
1401.221068,995.924147,-0.000000,9474.636058
1401.221385,459.657299,222.061783,9548.656652
1401.221702,766.095498,74.020594,9474.636058
1401.222019,536.266849,444.123565,9474.636058
1401.222337,76.609550,370.102971,9474.636058
1401.222654,842.705048,592.164754,9548.656652
1401.222971,766.095498,518.144159,9474.636058
1401.223289,612.876398,296.082377,9474.636058
1401.223606,766.095498,222.061783,9548.656652
1401.223923,1072.533697,148.041188,9622.677246
1401.224241,612.876398,814.226536,9622.677246
1401.224558,383.047749,592.164754,9548.656652
1401.224875,842.705048,814.226536,9770.718434
1401.225193,612.876398,666.185348,9548.656652
1401.225510,536.266849,592.164754,9770.718434
1401.225827,689.485948,592.164754,9622.677246
1401.226145,536.266849,666.185348,9474.636058
1401.226462,689.485948,666.185348,9622.677246
1401.226779,766.095498,148.041188,9548.656652
1401.227096,842.705048,518.144159,9844.739029
1401.227414,459.657299,740.205942,9622.677246
1401.227731,536.266849,666.185348,9474.636058
1401.228048,536.266849,592.164754,9474.636058
1401.228366,612.876398,592.164754,9622.677246
1401.228683,689.485948,296.082377,9770.718434
1401.229000,612.876398,444.123565,9474.636058
1401.229318,459.657299,370.102971,9622.677246
1401.229635,229.828649,518.144159,9548.656652
1401.229952,0.000000,518.144159,9474.636058
1401.230270,76.609550,296.082377,9622.677246
1401.230587,766.095498,370.102971,9252.574275
1401.230904,612.876398,148.041188,9622.677246
1401.231222,612.876398,296.082377,9548.656652
1401.231539,536.266849,370.102971,9474.636058
1401.231856,536.266849,148.041188,9696.697840
1401.232174,612.876398,296.082377,9400.615463
1401.232491,612.876398,-0.000000,9400.615463
1401.232808,689.485948,148.041188,9474.636058
1401.233125,919.314598,-0.000000,9326.594869
1401.233443,766.095498,148.041188,9474.636058
1401.233760,612.876398,-0.000000,9474.636058
1401.234077,1072.533697,-0.000000,9400.615463
1401.234395,612.876398,222.061783,9178.553681
1401.234712,842.705048,222.061783,9252.574275
1401.235029,842.705048,-0.000000,9326.594869
1401.235347,919.314598,-0.000000,9104.533087
1401.235664,1072.533697,-0.000000,9104.533087
1401.235981,689.485948,-0.000000,9400.615463
1401.236299,842.705048,-0.000000,9474.636058
1401.236616,536.266849,-0.000000,9622.677246
1401.236933,842.705048,-296.082377,9400.615463
1401.237251,766.095498,-0.000000,9030.512492
1401.237568,689.485948,-0.000000,9178.553681
1401.237885,995.924147,-296.082377,9252.574275
1401.238203,919.314598,-0.000000,9178.553681
1401.238520,766.095498,-0.000000,9104.533087
1401.238837,689.485948,-0.000000,9326.594869
1401.239154,766.095498,-0.000000,9252.574275
1401.239472,919.314598,-296.082377,9474.636058
1401.239789,1072.533697,-222.061783,9400.615463
1401.240106,689.485948,296.082377,9400.615463
1401.240424,766.095498,-0.000000,9326.594869
1401.240741,689.485948,-0.000000,9326.594869
1401.241058,1302.362347,-0.000000,9474.636058
1401.241376,919.314598,-0.000000,9326.594869
1401.241693,766.095498,148.041188,9326.594869
1401.242010,766.095498,148.041188,9474.636058
1401.242328,612.876398,370.102971,9548.656652
1401.242645,689.485948,148.041188,9622.677246
1401.242962,919.314598,148.041188,9474.636058
1401.243280,995.924147,518.144159,9326.594869
1401.243597,919.314598,296.082377,9252.574275
1401.243914,919.314598,370.102971,9474.636058
1401.244232,1455.581446,518.144159,9474.636058
1401.244549,766.095498,518.144159,9548.656652
1401.244866,689.485948,518.144159,9548.656652
1401.245183,919.314598,518.144159,9474.636058
1401.245501,1072.533697,592.164754,9474.636058
1401.245818,1225.752797,148.041188,9400.615463
1401.246135,1149.143247,592.164754,9326.594869
1401.246453,919.314598,666.185348,9474.636058
1401.246770,1149.143247,666.185348,9400.615463
1401.247087,995.924147,740.205942,9548.656652
1401.247405,995.924147,518.144159,9474.636058
1401.247722,842.705048,592.164754,9474.636058
1401.248039,919.314598,740.205942,9548.656652
1401.248357,842.705048,666.185348,9474.636058
1401.248674,229.828649,444.123565,9548.656652
1401.248991,919.314598,666.185348,9400.615463
1401.249309,842.705048,962.267725,9474.636058
1401.249626,612.876398,888.247130,9326.594869
1401.249943,612.876398,962.267725,9474.636058
1401.250261,689.485948,666.185348,9474.636058
1401.250578,689.485948,666.185348,9474.636058
1401.250895,612.876398,740.205942,9548.656652
1401.251212,689.485948,740.205942,9474.636058
1401.251530,612.876398,592.164754,9474.636058
1401.251847,536.266849,592.164754,9474.636058
1401.252164,612.876398,296.082377,9474.636058
1401.252482,842.705048,740.205942,9474.636058
1401.252799,459.657299,814.226536,9548.656652
1401.253116,459.657299,592.164754,9474.636058
1401.253434,536.266849,666.185348,9400.615463
1401.253751,612.876398,296.082377,9474.636058
1401.254068,459.657299,592.164754,9548.656652
1401.254386,306.438199,518.144159,9474.636058
1401.254703,612.876398,444.123565,9474.636058
1401.255020,689.485948,444.123565,9622.677246
1401.255338,842.705048,592.164754,9474.636058
1401.255655,612.876398,444.123565,9400.615463
1401.255972,536.266849,222.061783,9252.574275
1401.256290,76.609550,370.102971,9326.594869
1401.256607,766.095498,-0.000000,9400.615463
1401.256924,842.705048,-0.000000,9474.636058
1401.257241,612.876398,222.061783,9474.636058
1401.257559,459.657299,-0.000000,9474.636058
1401.257876,766.095498,-74.020594,9252.574275
1401.258193,536.266849,-74.020594,9400.615463
1401.258511,766.095498,-0.000000,9326.594869
1401.258828,919.314598,-0.000000,9252.574275
1401.259145,536.266849,-74.020594,9326.594869
1401.259463,1378.971896,222.061783,9252.574275
1401.259780,919.314598,-74.020594,9326.594869
1401.260097,766.095498,-0.000000,9474.636058
1401.260415,995.924147,-0.000000,9400.615463
1401.260732,1072.533697,-0.000000,9178.553681
1401.261049,1225.752797,-370.102971,9326.594869
1401.261367,995.924147,-148.041188,9178.553681
1401.261684,842.705048,-296.082377,9400.615463
1401.262001,1072.533697,-0.000000,9104.533087
1401.262319,842.705048,-222.061783,9326.594869
1401.262636,919.314598,-148.041188,9252.574275
1401.262953,1072.533697,-0.000000,9326.594869
1401.263270,919.314598,-0.000000,9474.636058
1401.263588,1072.533697,-0.000000,9326.594869
1401.263905,919.314598,-148.041188,9400.615463
1401.264222,842.705048,-222.061783,9252.574275
1401.264540,1072.533697,-148.041188,9178.553681
1401.264857,842.705048,-0.000000,9474.636058
1401.265174,1378.971896,-0.000000,9326.594869
1401.265492,995.924147,-0.000000,9326.594869
1401.265809,995.924147,-0.000000,9400.615463
1401.266126,766.095498,-0.000000,9326.594869
1401.266444,766.095498,-0.000000,9474.636058
1401.266761,1149.143247,-74.020594,9326.594869
1401.267078,766.095498,-0.000000,9326.594869
1401.267396,995.924147,-0.000000,9178.553681
1401.267713,1225.752797,222.061783,9252.574275
1401.268030,689.485948,444.123565,9770.718434
1401.268348,842.705048,296.082377,9326.594869
1401.268665,842.705048,222.061783,9252.574275
1401.268982,995.924147,370.102971,9474.636058
1401.269299,842.705048,148.041188,9400.615463
1401.269617,766.095498,666.185348,9474.636058
1401.269934,919.314598,444.123565,9474.636058
1401.270251,689.485948,296.082377,9474.636058
1401.270569,995.924147,370.102971,9400.615463
1401.270886,919.314598,444.123565,9400.615463
1401.271203,689.485948,814.226536,9844.739029
1401.271521,383.047749,518.144159,9474.636058
1401.271838,766.095498,296.082377,9252.574275
1401.272155,766.095498,666.185348,9326.594869
1401.272473,766.095498,518.144159,9474.636058
1401.272790,612.876398,592.164754,9400.615463
1401.273107,689.485948,222.061783,9474.636058
1401.273425,766.095498,592.164754,9400.615463
1401.273742,919.314598,666.185348,9474.636058
1401.274059,919.314598,518.144159,9326.594869
1401.274377,766.095498,444.123565,9548.656652
1401.274694,1225.752797,222.061783,9548.656652
1401.275011,612.876398,666.185348,9474.636058
1401.275328,536.266849,592.164754,9474.636058
1401.275646,689.485948,444.123565,9400.615463
1401.275963,536.266849,370.102971,9474.636058
1401.276280,306.438199,444.123565,9622.677246
1401.276598,536.266849,370.102971,9548.656652
1401.276915,536.266849,444.123565,9622.677246
1401.277232,306.438199,444.123565,9400.615463
1401.277550,459.657299,444.123565,9622.677246
1401.277867,612.876398,-0.000000,9474.636058
1401.278184,842.705048,370.102971,9474.636058
1401.278502,536.266849,222.061783,9622.677246
1401.278819,306.438199,-0.000000,9474.636058
1401.279136,536.266849,-0.000000,9474.636058
1401.279454,459.657299,-0.000000,9474.636058
1401.279771,536.266849,296.082377,9622.677246
1401.280088,459.657299,148.041188,9622.677246
1401.280406,766.095498,-0.000000,9548.656652
1401.280723,689.485948,222.061783,9548.656652
1401.281040,842.705048,148.041188,9622.677246
1401.281357,306.438199,-0.000000,9696.697840
1401.281675,689.485948,-0.000000,9326.594869
1401.281992,306.438199,148.041188,9252.574275
1401.282309,536.266849,-296.082377,9474.636058
1401.282626,612.876398,-222.061783,9474.636058
1401.282944,459.657299,-148.041188,9474.636058
1401.283261,383.047749,-74.020594,9548.656652
1401.283578,536.266849,-222.061783,9326.594869
1401.283895,1072.533697,-222.061783,9400.615463
1401.284212,766.095498,-148.041188,9474.636058
1401.284529,383.047749,-148.041188,9696.697840
1401.284847,689.485948,-370.102971,9252.574275
1401.285164,536.266849,-74.020594,9400.615463
1401.285481,229.828649,-222.061783,9622.677246
1401.285798,612.876398,-148.041188,9400.615463
1401.286115,919.314598,-222.061783,9474.636058
1401.286432,459.657299,-222.061783,9400.615463
1401.286749,766.095498,-148.041188,9326.594869
1401.287067,1072.533697,-814.226536,9030.512492
1401.287384,383.047749,-222.061783,9474.636058
1401.287701,689.485948,-0.000000,9400.615463
1401.288018,612.876398,-148.041188,9252.574275
1401.288335,766.095498,-74.020594,9252.574275
1401.288652,1149.143247,-444.123565,9252.574275
1401.288970,842.705048,-148.041188,9178.553681
1401.289287,689.485948,-222.061783,9252.574275
1401.289604,612.876398,-148.041188,9252.574275
1401.289921,1302.362347,-148.041188,9178.553681
1401.290238,1455.581446,-222.061783,9474.636058
1401.290555,842.705048,-0.000000,9326.594869
1401.290873,612.876398,-148.041188,9400.615463
1401.291190,995.924147,222.061783,9326.594869
1401.291507,1225.752797,-0.000000,9326.594869
1401.291824,919.314598,-0.000000,9400.615463
1401.292141,919.314598,222.061783,9400.615463
1401.292458,842.705048,222.061783,9474.636058
1401.292775,766.095498,370.102971,9178.553681
1401.293093,1072.533697,222.061783,9178.553681
1401.293410,766.095498,370.102971,9252.574275
1401.293727,766.095498,370.102971,9474.636058
1401.294044,842.705048,592.164754,9400.615463
1401.294361,1072.533697,444.123565,9252.574275
1401.294678,1072.533697,518.144159,9770.718434
1401.294996,1072.533697,592.164754,9400.615463
1401.295313,1072.533697,518.144159,9474.636058
1401.295630,995.924147,666.185348,9474.636058
1401.295947,995.924147,592.164754,9474.636058
1401.296264,766.095498,888.247130,9918.759623
1401.296581,919.314598,666.185348,9400.615463
1401.296899,689.485948,888.247130,9696.697840
1401.297216,919.314598,666.185348,9474.636058
1401.297533,689.485948,888.247130,9474.636058
1401.297850,766.095498,814.226536,9844.739029
1401.298167,842.705048,666.185348,9548.656652
1401.298484,842.705048,592.164754,9474.636058
1401.298801,766.095498,444.123565,9548.656652
1401.299119,689.485948,370.102971,9474.636058
1401.299436,689.485948,592.164754,9844.739029
1401.299753,612.876398,592.164754,9474.636058
1401.300070,689.485948,814.226536,9548.656652
1401.300387,459.657299,666.185348,9696.697840
1401.300704,536.266849,444.123565,9474.636058
1401.301022,306.438199,444.123565,9474.636058
1401.301339,459.657299,370.102971,9696.697840
1401.301656,536.266849,444.123565,9844.739029
1401.301973,306.438199,444.123565,9844.739029
1401.302290,689.485948,444.123565,9622.677246
1401.302607,536.266849,370.102971,9696.697840
1401.302924,383.047749,444.123565,9474.636058
1401.303242,536.266849,370.102971,9474.636058
1401.303559,612.876398,-0.000000,9474.636058
1401.303876,1149.143247,222.061783,9548.656652
1401.304193,383.047749,148.041188,9474.636058
1401.304510,536.266849,-0.000000,9474.636058
1401.304827,612.876398,-0.000000,9474.636058
1401.305145,689.485948,-0.000000,9474.636058
1401.305462,689.485948,-0.000000,9400.615463
1401.305779,459.657299,-0.000000,9400.615463
1401.306096,612.876398,-0.000000,9178.553681
1401.306413,842.705048,-0.000000,9474.636058
1401.306730,536.266849,-0.000000,9400.615463
1401.307048,459.657299,-74.020594,9548.656652
1401.307365,842.705048,-0.000000,9474.636058
1401.307682,612.876398,-74.020594,9474.636058
1401.307999,459.657299,-0.000000,9400.615463
1401.308316,842.705048,-74.020594,9400.615463
1401.308633,842.705048,-148.041188,9178.553681
1401.308950,766.095498,-74.020594,9178.553681
1401.309268,766.095498,-74.020594,9326.594869
1401.309585,919.314598,-148.041188,9400.615463
1401.309902,229.828649,-222.061783,9548.656652
1401.310219,689.485948,-74.020594,9326.594869
1401.310536,766.095498,-0.000000,9178.553681
1401.310853,842.705048,-148.041188,9178.553681
1401.311171,536.266849,-148.041188,9252.574275
1401.311488,766.095498,-74.020594,9178.553681
1401.311805,612.876398,-148.041188,9326.594869
1401.312122,842.705048,-0.000000,9104.533087
1401.312439,689.485948,-74.020594,9178.553681
1401.312756,1072.533697,-222.061783,8956.491898
1401.313074,766.095498,-74.020594,9178.553681
1401.313391,689.485948,-0.000000,9326.594869
1401.313708,689.485948,-0.000000,9178.553681
1401.314025,612.876398,-0.000000,9104.533087
1401.314342,689.485948,222.061783,9474.636058
1401.314659,919.314598,370.102971,9252.574275
1401.314976,689.485948,444.123565,9400.615463
1401.315294,919.314598,222.061783,9252.574275
1401.315611,766.095498,370.102971,9474.636058
1401.315928,919.314598,148.041188,9326.594869
1401.316245,689.485948,370.102971,9548.656652
1401.316562,766.095498,444.123565,9474.636058
1401.316879,995.924147,518.144159,9474.636058
1401.317197,842.705048,666.185348,9474.636058
1401.317514,995.924147,518.144159,9474.636058
1401.317831,842.705048,666.185348,9474.636058
1401.318148,995.924147,888.247130,9474.636058
1401.318465,995.924147,740.205942,9326.594869
1401.318782,689.485948,592.164754,9474.636058
1401.319100,995.924147,740.205942,9474.636058
1401.319417,689.485948,518.144159,9474.636058
1401.319734,842.705048,1036.288319,9548.656652
1401.320051,842.705048,814.226536,9696.697840
1401.320368,689.485948,740.205942,9696.697840
1401.320685,612.876398,740.205942,9474.636058
1401.321002,612.876398,962.267725,9474.636058
1401.321320,766.095498,740.205942,9400.615463
1401.321637,842.705048,666.185348,9474.636058
1401.321954,766.095498,370.102971,9548.656652
1401.322271,766.095498,962.267725,9770.718434
1401.322588,995.924147,814.226536,9770.718434
1401.322905,842.705048,888.247130,9548.656652
1401.323223,766.095498,666.185348,9622.677246
1401.323540,689.485948,518.144159,9622.677246
1401.323857,919.314598,814.226536,9622.677246
1401.324174,766.095498,740.205942,9622.677246
1401.324491,689.485948,518.144159,9622.677246
1401.324808,919.314598,444.123565,9918.759623
1401.325126,995.924147,-0.000000,9622.677246
1401.325443,536.266849,370.102971,9622.677246
1401.325760,689.485948,518.144159,9548.656652
1401.326077,689.485948,370.102971,9474.636058
1401.326394,919.314598,444.123565,9474.636058
1401.326711,612.876398,296.082377,9548.656652
1401.327028,612.876398,222.061783,9474.636058
1401.327346,766.095498,296.082377,9474.636058
1401.327663,766.095498,296.082377,9622.677246
1401.327980,842.705048,-0.000000,9474.636058
1401.328297,689.485948,-0.000000,9474.636058
1401.328614,919.314598,296.082377,9474.636058
1401.328931,766.095498,-0.000000,9252.574275
1401.329249,536.266849,-0.000000,9474.636058
1401.329566,842.705048,-0.000000,9178.553681
1401.329883,612.876398,-74.020594,9178.553681
1401.330200,842.705048,-0.000000,9326.594869
1401.330517,689.485948,-74.020594,9326.594869
1401.330834,612.876398,-222.061783,9326.594869
1401.331152,1149.143247,-148.041188,9104.533087
1401.331469,995.924147,-222.061783,9400.615463
1401.331786,689.485948,-148.041188,8882.471304
1401.332103,842.705048,-74.020594,9178.553681
1401.332420,612.876398,-74.020594,9104.533087
1401.332737,842.705048,-148.041188,9252.574275
1401.333054,842.705048,-148.041188,9326.594869
1401.333372,689.485948,-148.041188,9326.594869
1401.333689,689.485948,-148.041188,9326.594869
1401.334006,0.000000,-444.123565,9474.636058
1401.334323,459.657299,-296.082377,9178.553681
1401.334640,612.876398,-0.000000,9326.594869
1401.334957,919.314598,-0.000000,9178.553681
1401.335275,766.095498,-222.061783,9252.574275
1401.335592,1072.533697,-74.020594,9178.553681
1401.335909,995.924147,-148.041188,9178.553681
1401.336226,689.485948,-74.020594,9326.594869
1401.336543,766.095498,-148.041188,9104.533087
1401.336860,612.876398,-74.020594,9252.574275
1401.337178,919.314598,-0.000000,9326.594869
1401.337495,1072.533697,-0.000000,9104.533087
1401.337812,919.314598,-0.000000,9400.615463
1401.338129,766.095498,148.041188,9252.574275
1401.338446,842.705048,148.041188,9252.574275
1401.338763,1225.752797,-0.000000,9252.574275
1401.339080,766.095498,296.082377,9400.615463
1401.339398,995.924147,296.082377,9400.615463
1401.339715,919.314598,148.041188,9474.636058
1401.340032,612.876398,-0.000000,9326.594869
1401.340349,919.314598,296.082377,9400.615463
1401.340666,919.314598,222.061783,9474.636058
1401.340983,1149.143247,592.164754,9622.677246
1401.341301,842.705048,666.185348,9474.636058
1401.341618,1072.533697,444.123565,9326.594869
1401.341935,689.485948,592.164754,9622.677246
1401.342252,995.924147,518.144159,9474.636058
1401.342569,995.924147,592.164754,9548.656652
1401.342886,536.266849,592.164754,9548.656652
1401.343203,689.485948,592.164754,9400.615463
1401.343521,689.485948,666.185348,9474.636058
1401.343838,459.657299,592.164754,9696.697840
1401.344155,919.314598,888.247130,9474.636058
1401.344472,766.095498,592.164754,9622.677246
1401.344789,766.095498,814.226536,9696.697840
1401.345106,536.266849,740.205942,9696.697840
1401.345424,689.485948,666.185348,9696.697840
1401.345741,766.095498,740.205942,9622.677246
1401.346058,766.095498,296.082377,9622.677246
1401.346375,689.485948,592.164754,9622.677246
1401.346692,689.485948,592.164754,9548.656652
1401.347009,612.876398,740.205942,9696.697840
1401.347327,919.314598,814.226536,9474.636058
1401.347644,306.438199,444.123565,9548.656652
1401.347961,459.657299,592.164754,9696.697840
1401.348278,536.266849,518.144159,9474.636058
1401.348595,689.485948,518.144159,9696.697840
1401.348912,766.095498,222.061783,9696.697840
1401.349229,995.924147,222.061783,9474.636058
1401.349547,689.485948,370.102971,9400.615463
1401.349864,459.657299,444.123565,9474.636058
1401.350181,689.485948,222.061783,9548.656652
1401.350498,612.876398,148.041188,9474.636058
1401.350815,536.266849,-0.000000,9548.656652
1401.351132,612.876398,222.061783,9474.636058
1401.351450,612.876398,-148.041188,9474.636058
1401.351767,689.485948,148.041188,9474.636058
1401.352084,612.876398,-0.000000,9474.636058
1401.352401,536.266849,-222.061783,9400.615463
1401.352718,612.876398,-0.000000,9326.594869
1401.353035,689.485948,-0.000000,9326.594869
1401.353353,766.095498,-0.000000,9474.636058
1401.353670,689.485948,-222.061783,9474.636058
1401.353987,1072.533697,-296.082377,9326.594869
1401.354304,306.438199,-370.102971,9252.574275
1401.354621,842.705048,-296.082377,9252.574275
1401.354938,919.314598,-296.082377,9252.574275
1401.355255,766.095498,-444.123565,9474.636058
1401.355573,842.705048,-148.041188,9252.574275
1401.355890,766.095498,-74.020594,9326.594869
1401.356207,842.705048,-222.061783,9178.553681
1401.356524,919.314598,-296.082377,9252.574275
1401.356841,689.485948,-296.082377,9030.512492
1401.357158,689.485948,-444.123565,9178.553681
1401.357476,919.314598,-148.041188,9178.553681
1401.357793,842.705048,-296.082377,9178.553681
1401.358110,842.705048,-296.082377,9178.553681
1401.358427,995.924147,-370.102971,9178.553681
1401.358744,919.314598,-74.020594,9178.553681
1401.359061,842.705048,-74.020594,9252.574275
1401.359379,919.314598,-296.082377,9326.594869
1401.359696,766.095498,-148.041188,9400.615463
1401.360013,842.705048,-296.082377,9326.594869
1401.360330,766.095498,-0.000000,9400.615463
1401.360647,842.705048,-0.000000,9474.636058
1401.360964,766.095498,-74.020594,9400.615463
1401.361281,919.314598,-0.000000,9252.574275
1401.361599,766.095498,-0.000000,9474.636058
1401.361916,766.095498,-0.000000,9326.594869
1401.362233,766.095498,148.041188,9474.636058
1401.362550,842.705048,222.061783,9400.615463
1401.362867,766.095498,222.061783,9474.636058
1401.363184,536.266849,-0.000000,9474.636058
1401.363502,1149.143247,592.164754,9548.656652
1401.363819,842.705048,222.061783,9400.615463
1401.364136,842.705048,370.102971,9474.636058
1401.364453,842.705048,444.123565,9474.636058
1401.364770,612.876398,518.144159,9474.636058
1401.365087,766.095498,444.123565,9474.636058
1401.365405,689.485948,296.082377,9474.636058
1401.365722,842.705048,444.123565,9548.656652
1401.366039,919.314598,592.164754,9696.697840
1401.366356,919.314598,592.164754,9474.636058
1401.366673,383.047749,370.102971,9474.636058
1401.366990,842.705048,740.205942,9696.697840
1401.367307,842.705048,518.144159,9548.656652
1401.367625,919.314598,444.123565,9474.636058
1401.367942,689.485948,370.102971,9474.636058
1401.368259,842.705048,666.185348,9474.636058
1401.368576,612.876398,666.185348,9622.677246
1401.368893,536.266849,666.185348,9548.656652
1401.369210,383.047749,148.041188,9548.656652
1401.369528,383.047749,592.164754,9548.656652
1401.369845,229.828649,444.123565,9844.739029
1401.370162,612.876398,518.144159,9474.636058
1401.370479,459.657299,740.205942,9548.656652
1401.370796,612.876398,370.102971,9548.656652
1401.371113,612.876398,296.082377,9622.677246
1401.371431,383.047749,518.144159,9474.636058
1401.371748,536.266849,370.102971,9548.656652
1401.372065,229.828649,-0.000000,9770.718434
1401.372382,766.095498,296.082377,9400.615463
1401.372699,612.876398,518.144159,9548.656652
1401.373016,383.047749,74.020594,9548.656652
1401.373333,612.876398,296.082377,9474.636058
1401.373651,612.876398,-0.000000,9474.636058
1401.373968,766.095498,222.061783,9252.574275
1401.374285,766.095498,222.061783,9474.636058
1401.374602,612.876398,-0.000000,9400.615463
1401.374919,689.485948,296.082377,9474.636058
1401.375236,766.095498,-0.000000,9622.677246
1401.375554,919.314598,-0.000000,9326.594869
1401.375871,383.047749,-0.000000,9252.574275
1401.376188,766.095498,-74.020594,9252.574275
1401.376505,766.095498,-0.000000,9326.594869
1401.376822,842.705048,-0.000000,9474.636058
1401.377139,536.266849,-74.020594,9252.574275
1401.377457,536.266849,-296.082377,9104.533087
1401.377774,766.095498,-222.061783,9178.553681
1401.378091,1149.143247,-74.020594,9252.574275
1401.378408,995.924147,-296.082377,9326.594869
1401.378725,536.266849,-74.020594,9252.574275
1401.379042,536.266849,-0.000000,9400.615463
1401.379359,689.485948,-0.000000,9326.594869
1401.379677,919.314598,-222.061783,9178.553681
1401.379994,612.876398,-222.061783,9104.533087
1401.380311,766.095498,-74.020594,9400.615463
1401.380628,842.705048,-0.000000,9400.615463
1401.380945,689.485948,-0.000000,9326.594869
1401.381263,842.705048,-296.082377,9104.533087
1401.381580,766.095498,-0.000000,9400.615463
1401.381897,919.314598,-0.000000,9104.533087
1401.382215,842.705048,-0.000000,9104.533087
1401.382532,1225.752797,-74.020594,9400.615463
1401.382849,919.314598,-0.000000,9252.574275
1401.383166,612.876398,-0.000000,9252.574275
1401.383484,995.924147,-74.020594,9326.594869
1401.383801,689.485948,-0.000000,9400.615463
1401.384118,766.095498,-0.000000,9474.636058
1401.384436,689.485948,-0.000000,9326.594869
1401.384753,842.705048,-0.000000,9400.615463
1401.385070,689.485948,296.082377,9622.677246
1401.385387,766.095498,-0.000000,9030.512492
1401.385705,842.705048,-74.020594,9252.574275
1401.386022,689.485948,222.061783,9252.574275
1401.386339,995.924147,148.041188,9474.636058
1401.386657,995.924147,666.185348,9548.656652
1401.386974,995.924147,370.102971,9474.636058
1401.387291,919.314598,296.082377,9622.677246
1401.387608,919.314598,444.123565,9474.636058
1401.387926,766.095498,518.144159,9400.615463
1401.388243,842.705048,666.185348,9474.636058
1401.388560,766.095498,518.144159,9474.636058
1401.388878,766.095498,296.082377,9548.656652
1401.389195,919.314598,666.185348,9622.677246
1401.389512,1149.143247,666.185348,9622.677246
1401.389829,842.705048,666.185348,9622.677246
1401.390147,689.485948,518.144159,9770.718434
1401.390464,766.095498,740.205942,9474.636058
1401.390781,919.314598,740.205942,9474.636058
1401.391099,689.485948,814.226536,9474.636058
1401.391416,689.485948,740.205942,9548.656652
1401.391733,842.705048,814.226536,9548.656652
1401.392050,459.657299,592.164754,9548.656652
1401.392368,842.705048,666.185348,9474.636058
1401.392685,766.095498,592.164754,9474.636058
1401.393002,612.876398,740.205942,9622.677246
1401.393320,842.705048,888.247130,9696.697840
1401.393637,689.485948,592.164754,9474.636058
1401.393954,689.485948,740.205942,9474.636058
1401.394271,536.266849,666.185348,9474.636058
1401.394589,689.485948,592.164754,9548.656652
1401.394906,689.485948,444.123565,9622.677246
1401.395223,383.047749,296.082377,9696.697840
1401.395541,612.876398,666.185348,9474.636058
1401.395858,689.485948,370.102971,9474.636058
1401.396175,689.485948,592.164754,9622.677246
1401.396492,766.095498,296.082377,9400.615463
1401.396810,153.219100,222.061783,9474.636058
1401.397127,459.657299,296.082377,9400.615463
1401.397444,536.266849,370.102971,9548.656652
1401.397762,612.876398,-148.041188,9400.615463
1401.398079,76.609550,-0.000000,9622.677246
1401.398396,766.095498,296.082377,9622.677246
1401.398713,459.657299,-296.082377,9474.636058
1401.399031,459.657299,148.041188,9622.677246
1401.399348,612.876398,148.041188,9474.636058
1401.399665,689.485948,-0.000000,9474.636058
1401.399983,612.876398,-0.000000,9252.574275
1401.400300,689.485948,-0.000000,9326.594869
1401.400617,612.876398,-74.020594,9400.615463
1401.400934,536.266849,-0.000000,9474.636058
1401.401252,919.314598,-222.061783,9474.636058
1401.401569,842.705048,-0.000000,9474.636058
1401.401886,919.314598,-0.000000,9104.533087
1401.402204,842.705048,-74.020594,9252.574275
1401.402521,995.924147,-74.020594,9104.533087
1401.402838,766.095498,-222.061783,9178.553681
1401.403155,919.314598,-74.020594,9400.615463
1401.403473,919.314598,-0.000000,9252.574275
1401.403790,689.485948,-0.000000,9400.615463
1401.404107,766.095498,-74.020594,9400.615463
1401.404425,766.095498,-74.020594,9326.594869
1401.404742,919.314598,-222.061783,9178.553681
1401.405059,689.485948,-0.000000,9326.594869
1401.405376,689.485948,-0.000000,9178.553681
1401.405694,1302.362347,-370.102971,9326.594869
1401.406011,612.876398,148.041188,9548.656652
1401.406328,612.876398,-0.000000,9474.636058
1401.406646,842.705048,-0.000000,9326.594869
1401.406963,919.314598,-0.000000,9326.594869
1401.407280,1149.143247,-148.041188,9252.574275
1401.407597,1072.533697,-0.000000,9326.594869
1401.407915,459.657299,-0.000000,9178.553681
1401.408232,919.314598,148.041188,9178.553681
1401.408549,766.095498,148.041188,9326.594869
1401.408867,766.095498,444.123565,9400.615463
1401.409184,536.266849,444.123565,9474.636058
1401.409501,612.876398,222.061783,9474.636058
1401.409818,766.095498,370.102971,9400.615463
1401.410136,995.924147,-0.000000,9622.677246
1401.410453,1072.533697,592.164754,9474.636058
1401.410770,689.485948,296.082377,9474.636058
1401.411088,689.485948,592.164754,9474.636058
1401.411405,842.705048,370.102971,9326.594869
1401.411722,1072.533697,370.102971,9474.636058
1401.412039,842.705048,666.185348,9548.656652
1401.412357,842.705048,518.144159,9474.636058
1401.412674,766.095498,592.164754,9474.636058
1401.412991,919.314598,740.205942,9400.615463
1401.413309,842.705048,518.144159,9548.656652
1401.413626,689.485948,666.185348,9474.636058
1401.413943,689.485948,518.144159,9622.677246
1401.414260,842.705048,740.205942,9474.636058
1401.414578,689.485948,592.164754,9474.636058
1401.414895,842.705048,592.164754,9474.636058
1401.415212,766.095498,740.205942,9474.636058
1401.415530,536.266849,518.144159,9474.636058
1401.415847,536.266849,444.123565,9474.636058
1401.416164,766.095498,444.123565,9622.677246
1401.416481,229.828649,592.164754,9770.718434
1401.416799,536.266849,370.102971,9696.697840
1401.417116,536.266849,814.226536,9474.636058
1401.417433,689.485948,592.164754,9548.656652
1401.417751,1072.533697,296.082377,9548.656652
1401.418068,842.705048,370.102971,9474.636058
1401.418385,689.485948,518.144159,9474.636058
1401.418702,842.705048,444.123565,9548.656652
1401.419020,536.266849,370.102971,9474.636058
1401.419337,383.047749,370.102971,9548.656652
1401.419654,689.485948,370.102971,9548.656652
1401.419972,919.314598,296.082377,9474.636058
1401.420289,612.876398,296.082377,9326.594869
1401.420606,689.485948,148.041188,9622.677246
1401.420923,459.657299,-0.000000,9474.636058
1401.421241,842.705048,-0.000000,9326.594869
1401.421558,459.657299,-0.000000,9548.656652
1401.421875,536.266849,222.061783,9400.615463
1401.422192,612.876398,-0.000000,9548.656652
1401.422510,612.876398,-0.000000,9474.636058
1401.422827,842.705048,-0.000000,9474.636058
1401.423144,612.876398,-0.000000,9252.574275
1401.423462,536.266849,-0.000000,9104.533087
1401.423779,612.876398,-444.123565,9178.553681
1401.424096,1072.533697,-0.000000,9326.594869
1401.424413,612.876398,-74.020594,9474.636058
1401.424731,766.095498,-148.041188,9326.594869
1401.425048,842.705048,-148.041188,9474.636058
1401.425365,612.876398,-148.041188,9548.656652
1401.425683,612.876398,-148.041188,9400.615463
1401.426000,612.876398,-222.061783,9326.594869
1401.426317,842.705048,-0.000000,9326.594869
1401.426634,995.924147,-222.061783,9104.533087
1401.426952,919.314598,-148.041188,9400.615463
1401.427269,766.095498,-148.041188,9178.553681
1401.427586,995.924147,-0.000000,9400.615463
1401.427904,689.485948,-296.082377,9400.615463
1401.428221,766.095498,-296.082377,9252.574275
1401.428538,689.485948,-148.041188,9326.594869
1401.428855,842.705048,-74.020594,9400.615463
1401.429173,842.705048,-0.000000,9326.594869
1401.429490,766.095498,-74.020594,9252.574275
1401.429807,919.314598,-0.000000,9252.574275
1401.430125,995.924147,-74.020594,9326.594869
1401.430442,766.095498,-148.041188,9252.574275
1401.430759,995.924147,-0.000000,9178.553681
1401.431076,766.095498,-0.000000,9474.636058
1401.431394,766.095498,-370.102971,9844.739029
1401.431711,842.705048,-0.000000,9252.574275
1401.432028,995.924147,-0.000000,9400.615463
1401.432346,536.266849,-0.000000,9252.574275
1401.432663,766.095498,222.061783,9326.594869
1401.432980,919.314598,-74.020594,9474.636058
1401.433297,612.876398,148.041188,9548.656652
1401.433615,689.485948,74.020594,9474.636058
1401.433932,995.924147,296.082377,9474.636058
1401.434249,919.314598,222.061783,9400.615463
1401.434567,1072.533697,222.061783,9474.636058
1401.434884,919.314598,148.041188,9474.636058
1401.435201,842.705048,370.102971,9474.636058
1401.435518,995.924147,444.123565,9400.615463
1401.435836,842.705048,592.164754,9474.636058
1401.436153,995.924147,370.102971,9474.636058
1401.436470,689.485948,444.123565,9474.636058
1401.436788,995.924147,296.082377,9400.615463
1401.437105,842.705048,592.164754,9474.636058
1401.437422,689.485948,518.144159,9474.636058
1401.437739,842.705048,444.123565,9548.656652
1401.438057,689.485948,370.102971,9326.594869
1401.438374,689.485948,666.185348,9474.636058
1401.438691,766.095498,592.164754,9326.594869
1401.439009,919.314598,814.226536,9474.636058
1401.439326,612.876398,296.082377,9696.697840
1401.439643,689.485948,740.205942,9622.677246
1401.439960,689.485948,814.226536,9918.759623
1401.440278,612.876398,740.205942,9474.636058
1401.440595,689.485948,518.144159,9474.636058
1401.440912,766.095498,444.123565,9696.697840
1401.441230,766.095498,592.164754,9474.636058
1401.441547,536.266849,370.102971,9474.636058
1401.441864,536.266849,518.144159,9474.636058
1401.442181,536.266849,296.082377,9474.636058
1401.442499,383.047749,296.082377,9474.636058
1401.442816,689.485948,518.144159,9548.656652
1401.443133,536.266849,296.082377,9474.636058
1401.443451,536.266849,444.123565,9622.677246
1401.443768,536.266849,148.041188,9400.615463
1401.444085,383.047749,222.061783,9622.677246
1401.444402,536.266849,370.102971,9474.636058
1401.444720,766.095498,-0.000000,9474.636058
1401.445037,612.876398,370.102971,9474.636058
1401.445354,383.047749,148.041188,9474.636058
1401.445672,459.657299,-74.020594,9326.594869
1401.445989,536.266849,222.061783,9178.553681
1401.446306,459.657299,-0.000000,9400.615463
1401.446623,536.266849,-0.000000,9326.594869
1401.446941,306.438199,-0.000000,9474.636058
1401.447258,766.095498,-0.000000,9400.615463
1401.447575,459.657299,-0.000000,9474.636058
1401.447893,689.485948,-0.000000,9400.615463
1401.448210,689.485948,-0.000000,9400.615463
1401.448527,842.705048,222.061783,9474.636058
1401.448844,766.095498,-74.020594,9326.594869
1401.449162,766.095498,-296.082377,9400.615463
1401.449479,536.266849,-0.000000,9326.594869
1401.449796,766.095498,-0.000000,9326.594869
1401.450114,612.876398,-0.000000,9400.615463
1401.450431,689.485948,-148.041188,9252.574275
1401.450748,842.705048,-296.082377,9178.553681
1401.451065,536.266849,-148.041188,9326.594869
1401.451383,1072.533697,-0.000000,9474.636058
1401.451700,612.876398,-0.000000,9104.533087
1401.452017,689.485948,-0.000000,9178.553681
1401.452335,612.876398,-222.061783,9252.574275
1401.452652,995.924147,-0.000000,9326.594869
1401.452969,995.924147,-148.041188,9178.553681
1401.453286,612.876398,-0.000000,9326.594869
1401.453604,689.485948,-74.020594,9252.574275
1401.453921,919.314598,-74.020594,9326.594869
1401.454238,689.485948,-0.000000,9474.636058
1401.454556,459.657299,74.020594,9548.656652
1401.454873,842.705048,-0.000000,9474.636058
1401.455190,919.314598,370.102971,9252.574275
1401.455507,842.705048,148.041188,9252.574275
1401.455825,1072.533697,296.082377,9326.594869
1401.456142,919.314598,-148.041188,9326.594869
1401.456459,995.924147,148.041188,9400.615463
1401.456777,842.705048,222.061783,9474.636058
1401.457094,995.924147,-0.000000,9400.615463
1401.457411,1225.752797,222.061783,9548.656652
1401.457728,919.314598,370.102971,9474.636058
1401.458046,842.705048,592.164754,9474.636058
1401.458363,1225.752797,740.205942,9474.636058
1401.458680,689.485948,518.144159,9474.636058
1401.458998,1149.143247,814.226536,9474.636058
1401.459315,1072.533697,740.205942,9474.636058
1401.459632,995.924147,592.164754,9474.636058
1401.459949,766.095498,444.123565,9474.636058
1401.460267,766.095498,444.123565,9548.656652
1401.460584,919.314598,518.144159,9622.677246
1401.460901,842.705048,592.164754,9474.636058
1401.461219,766.095498,666.185348,9400.615463
1401.461536,1072.533697,814.226536,9548.656652
1401.461853,919.314598,666.185348,9474.636058
1401.462170,612.876398,814.226536,9474.636058
1401.462488,689.485948,740.205942,9548.656652
1401.462805,689.485948,518.144159,9622.677246
1401.463122,919.314598,592.164754,9696.697840
1401.463440,842.705048,666.185348,9474.636058
1401.463757,612.876398,592.164754,9548.656652
1401.464074,612.876398,666.185348,9548.656652
1401.464391,689.485948,592.164754,9400.615463
1401.464709,766.095498,296.082377,9474.636058
1401.465026,612.876398,222.061783,9474.636058
1401.465343,766.095498,370.102971,9474.636058
1401.465660,689.485948,444.123565,9474.636058
1401.465978,766.095498,370.102971,9548.656652
1401.466295,536.266849,444.123565,9474.636058
1401.466612,612.876398,444.123565,9326.594869
1401.466930,536.266849,666.185348,9474.636058
1401.467247,459.657299,370.102971,9474.636058
1401.467564,459.657299,370.102971,9474.636058
1401.467881,612.876398,148.041188,9400.615463
1401.468199,536.266849,370.102971,9400.615463
1401.468516,536.266849,-74.020594,9252.574275
1401.468833,689.485948,296.082377,9548.656652
1401.469151,612.876398,296.082377,9474.636058
1401.469468,459.657299,-0.000000,9474.636058
1401.469785,842.705048,-0.000000,9400.615463
1401.470102,842.705048,148.041188,9474.636058
1401.470420,842.705048,296.082377,9326.594869
1401.470737,766.095498,-74.020594,9252.574275
1401.471054,919.314598,-0.000000,9474.636058
1401.471372,689.485948,-74.020594,9400.615463
1401.471689,842.705048,-74.020594,9178.553681
1401.472006,842.705048,-0.000000,9400.615463
1401.472323,612.876398,148.041188,9400.615463
1401.472641,1225.752797,-148.041188,9326.594869
1401.472958,842.705048,-148.041188,9178.553681
1401.473275,766.095498,-0.000000,9252.574275
1401.473593,919.314598,-148.041188,9400.615463
1401.473910,689.485948,-148.041188,9474.636058
1401.474227,612.876398,-0.000000,9474.636058
1401.474544,536.266849,-74.020594,9326.594869
1401.474862,306.438199,-148.041188,9326.594869
1401.475179,689.485948,-74.020594,9326.594869
1401.475496,766.095498,-0.000000,9400.615463
1401.475814,919.314598,-370.102971,9474.636058
1401.476131,689.485948,-0.000000,9474.636058
1401.476448,766.095498,-222.061783,9326.594869
1401.476765,689.485948,-0.000000,9252.574275
1401.477083,612.876398,-148.041188,9030.512492
1401.477400,459.657299,-148.041188,9474.636058
1401.477717,919.314598,-148.041188,9104.533087
1401.478035,842.705048,-0.000000,9252.574275
1401.478352,842.705048,-0.000000,9252.574275
1401.478669,842.705048,-0.000000,9400.615463
1401.478986,612.876398,-222.061783,9474.636058
1401.479304,536.266849,222.061783,9178.553681
1401.479621,842.705048,296.082377,9326.594869
1401.479938,689.485948,222.061783,9474.636058
1401.480256,689.485948,296.082377,9326.594869
1401.480573,766.095498,-148.041188,9326.594869
1401.480890,842.705048,222.061783,9548.656652
1401.481207,1302.362347,370.102971,9474.636058
1401.481525,919.314598,444.123565,9474.636058
1401.481842,995.924147,296.082377,9474.636058
1401.482162,842.705048,444.123565,9400.615463
1401.482479,1072.533697,592.164754,9474.636058
1401.482796,919.314598,444.123565,9400.615463
1401.483114,1225.752797,518.144159,9474.636058
1401.483431,1225.752797,592.164754,9474.636058
1401.483748,919.314598,740.205942,9474.636058
1401.484065,842.705048,740.205942,9474.636058
1401.484382,919.314598,518.144159,9548.656652
1401.484700,919.314598,666.185348,9474.636058
1401.485017,1072.533697,666.185348,9622.677246
1401.485334,919.314598,592.164754,9474.636058
1401.485651,995.924147,666.185348,9474.636058
1401.485968,1532.190996,666.185348,9548.656652
1401.486286,1072.533697,814.226536,9474.636058
1401.486603,842.705048,740.205942,9548.656652
1401.486920,536.266849,666.185348,9474.636058
1401.487237,689.485948,666.185348,9770.718434
1401.487554,766.095498,666.185348,9622.677246
1401.487872,689.485948,592.164754,9548.656652
1401.488189,536.266849,370.102971,9474.636058
1401.488506,766.095498,592.164754,9696.697840
1401.488823,612.876398,518.144159,9474.636058
1401.489141,306.438199,592.164754,9474.636058
1401.489458,919.314598,444.123565,9474.636058
1401.489775,229.828649,370.102971,9696.697840
1401.490092,612.876398,518.144159,9474.636058
1401.490409,612.876398,370.102971,9548.656652
1401.490727,612.876398,444.123565,9474.636058
1401.491044,689.485948,296.082377,9474.636058
1401.491361,306.438199,296.082377,9696.697840
1401.491678,536.266849,222.061783,9474.636058
1401.491995,766.095498,222.061783,9326.594869
1401.492313,689.485948,148.041188,9474.636058
1401.492630,842.705048,-0.000000,9622.677246
1401.492947,689.485948,-74.020594,9474.636058
1401.493264,689.485948,-0.000000,9326.594869
1401.493582,612.876398,-0.000000,9474.636058
1401.493899,536.266849,-74.020594,9178.553681
1401.494216,689.485948,-0.000000,9474.636058
1401.494533,766.095498,-74.020594,9474.636058
1401.494850,766.095498,-0.000000,9474.636058
1401.495168,612.876398,-74.020594,9400.615463
1401.495485,689.485948,-74.020594,9326.594869
1401.495802,536.266849,-222.061783,9474.636058
1401.496119,842.705048,-370.102971,9400.615463
1401.496436,459.657299,-296.082377,9400.615463
1401.496754,919.314598,-148.041188,9252.574275
1401.497071,766.095498,-222.061783,9252.574275
1401.497388,612.876398,-296.082377,9474.636058
1401.497705,919.314598,-148.041188,9326.594869
1401.498022,766.095498,-148.041188,9252.574275
1401.498340,919.314598,-148.041188,9252.574275
1401.498657,995.924147,-222.061783,9474.636058
1401.498974,536.266849,-222.061783,9474.636058
1401.499291,842.705048,-74.020594,9474.636058
1401.499609,536.266849,-0.000000,9474.636058
1401.499926,995.924147,-0.000000,9252.574275
1401.500243,919.314598,-0.000000,9178.553681
1401.500560,689.485948,-0.000000,9252.574275
1401.500877,995.924147,-148.041188,9252.574275
1401.501195,919.314598,-0.000000,9400.615463
1401.501512,689.485948,-0.000000,9400.615463
1401.501829,842.705048,-74.020594,9400.615463
1401.502146,536.266849,-74.020594,9400.615463
1401.502463,689.485948,148.041188,9400.615463
1401.502781,919.314598,222.061783,9474.636058
1401.503098,995.924147,-0.000000,9400.615463
1401.503415,689.485948,-0.000000,9474.636058
1401.503732,689.485948,148.041188,9474.636058
1401.504050,689.485948,148.041188,9474.636058
1401.504367,689.485948,-0.000000,9474.636058
1401.504684,842.705048,296.082377,9474.636058
1401.505001,995.924147,296.082377,9474.636058
1401.505318,995.924147,296.082377,9474.636058
1401.505636,842.705048,296.082377,9474.636058
1401.505953,536.266849,444.123565,9474.636058
1401.506270,689.485948,222.061783,9548.656652
1401.506587,689.485948,370.102971,9326.594869
1401.506904,919.314598,518.144159,9548.656652
1401.507222,689.485948,518.144159,9474.636058
1401.507539,689.485948,518.144159,9474.636058
1401.507856,612.876398,592.164754,9474.636058
1401.508173,689.485948,666.185348,9622.677246
1401.508490,689.485948,592.164754,9474.636058
1401.508808,459.657299,740.205942,9548.656652
1401.509125,842.705048,518.144159,9474.636058
1401.509442,459.657299,370.102971,9474.636058
1401.509759,383.047749,740.205942,9918.759623
1401.510077,842.705048,592.164754,9622.677246
1401.510394,689.485948,666.185348,9474.636058
1401.510711,766.095498,666.185348,9474.636058
1401.511028,766.095498,370.102971,9622.677246
1401.511345,689.485948,518.144159,9474.636058
1401.511663,459.657299,518.144159,9548.656652
1401.511980,612.876398,592.164754,9474.636058
1401.512297,383.047749,370.102971,9696.697840
1401.512614,766.095498,444.123565,9474.636058
1401.512931,1072.533697,518.144159,9474.636058
1401.513249,612.876398,370.102971,9400.615463
1401.513566,459.657299,370.102971,9622.677246
1401.513883,612.876398,-74.020594,9400.615463
1401.514200,766.095498,296.082377,9548.656652
1401.514518,536.266849,370.102971,9474.636058
1401.514835,459.657299,296.082377,9622.677246
1401.515152,612.876398,222.061783,9474.636058
1401.515469,306.438199,814.226536,9474.636058
1401.515786,536.266849,-0.000000,9770.718434
1401.516104,766.095498,-0.000000,9474.636058
1401.516421,612.876398,-0.000000,9474.636058
1401.516738,459.657299,-0.000000,9474.636058
1401.517055,689.485948,74.020594,9474.636058
1401.517372,689.485948,222.061783,9400.615463
1401.517690,766.095498,-0.000000,9474.636058
1401.518007,766.095498,-0.000000,9252.574275
1401.518324,919.314598,-74.020594,9252.574275
1401.518641,383.047749,-296.082377,9400.615463
1401.518958,766.095498,-0.000000,9400.615463
1401.519276,766.095498,-0.000000,9474.636058
1401.519593,842.705048,-296.082377,9474.636058
1401.519910,766.095498,-222.061783,9400.615463
1401.520227,919.314598,-0.000000,9400.615463
1401.520545,919.314598,-222.061783,9252.574275
1401.520862,612.876398,-148.041188,9252.574275
1401.521179,612.876398,-74.020594,9326.594869
1401.521496,536.266849,-148.041188,9104.533087
1401.521813,842.705048,-296.082377,9326.594869
1401.522131,689.485948,-0.000000,9252.574275
1401.522448,383.047749,-0.000000,9474.636058
1401.522765,919.314598,-148.041188,9326.594869
1401.523082,1225.752797,-74.020594,9770.718434
1401.523399,766.095498,-0.000000,9474.636058
1401.523717,536.266849,-0.000000,9400.615463
1401.524034,919.314598,-74.020594,9178.553681
1401.524351,842.705048,-0.000000,9326.594869
1401.524668,842.705048,-370.102971,9252.574275
1401.524986,842.705048,-74.020594,9104.533087
1401.525303,766.095498,-0.000000,9400.615463
1401.525620,766.095498,-0.000000,9400.615463
1401.525937,1072.533697,-0.000000,9400.615463
1401.526254,459.657299,-296.082377,9104.533087
1401.526572,842.705048,-0.000000,9400.615463
1401.526889,459.657299,-0.000000,9474.636058
1401.527206,766.095498,-0.000000,9326.594869
1401.527523,1225.752797,296.082377,9252.574275
1401.527840,995.924147,-74.020594,9030.512492
1401.528158,995.924147,296.082377,9400.615463
1401.528475,766.095498,296.082377,9252.574275
1401.528792,1149.143247,370.102971,9400.615463
1401.529109,995.924147,222.061783,9474.636058
1401.529426,919.314598,296.082377,9400.615463
1401.529744,842.705048,518.144159,9326.594869
1401.530061,1072.533697,370.102971,9474.636058
1401.530378,919.314598,444.123565,9474.636058
1401.530695,1072.533697,518.144159,9474.636058
1401.531013,536.266849,592.164754,9548.656652
1401.531330,919.314598,370.102971,9474.636058
1401.531647,689.485948,666.185348,9548.656652
1401.531964,842.705048,740.205942,9474.636058
1401.532281,995.924147,592.164754,9622.677246
1401.532599,919.314598,740.205942,9474.636058
1401.532916,689.485948,666.185348,9548.656652
1401.533233,919.314598,740.205942,9474.636058
1401.533550,689.485948,666.185348,9548.656652
1401.533867,689.485948,740.205942,9474.636058
1401.534185,612.876398,666.185348,9622.677246
1401.534502,842.705048,740.205942,9474.636058
1401.534819,536.266849,666.185348,9696.697840
1401.535136,536.266849,592.164754,9474.636058
1401.535454,689.485948,666.185348,9548.656652
1401.535771,536.266849,592.164754,9474.636058
1401.536088,459.657299,592.164754,9400.615463
1401.536405,459.657299,740.205942,9548.656652
1401.536722,689.485948,-0.000000,9400.615463
1401.537040,536.266849,370.102971,9548.656652
1401.537357,689.485948,444.123565,9696.697840
1401.537674,842.705048,518.144159,9548.656652
1401.537991,306.438199,-0.000000,9474.636058
1401.538308,536.266849,518.144159,9622.677246
1401.538626,612.876398,222.061783,9400.615463
1401.538943,689.485948,296.082377,9548.656652
1401.539260,536.266849,222.061783,9548.656652
1401.539577,766.095498,-0.000000,9770.718434
1401.539894,842.705048,-0.000000,9474.636058
1401.540212,766.095498,222.061783,9474.636058
1401.540529,612.876398,222.061783,9474.636058
1401.540846,612.876398,-0.000000,9326.594869
1401.541163,612.876398,-0.000000,9474.636058
1401.541481,536.266849,-0.000000,9326.594869
1401.541798,919.314598,148.041188,9474.636058
1401.542115,766.095498,-0.000000,9474.636058
1401.542432,766.095498,-0.000000,9474.636058
1401.542749,995.924147,-0.000000,9474.636058
1401.543067,1072.533697,-0.000000,9400.615463
1401.543384,766.095498,-0.000000,9326.594869
1401.543701,919.314598,-74.020594,9326.594869
1401.544018,995.924147,-148.041188,9474.636058
1401.544335,383.047749,-148.041188,9252.574275
1401.544653,919.314598,-74.020594,8956.491898
1401.544970,766.095498,-148.041188,9400.615463
1401.545287,842.705048,-0.000000,9400.615463
1401.545604,1149.143247,-74.020594,9326.594869
1401.545922,842.705048,-0.000000,9252.574275
1401.546239,842.705048,-74.020594,9326.594869
1401.546556,919.314598,-148.041188,9178.553681
1401.546873,689.485948,-0.000000,9252.574275
1401.547190,919.314598,-0.000000,9178.553681
1401.547508,919.314598,-0.000000,9548.656652
1401.547825,766.095498,74.020594,9548.656652
1401.548142,842.705048,-222.061783,9178.553681
1401.548459,766.095498,148.041188,9326.594869
1401.548776,995.924147,-0.000000,9104.533087
1401.549094,919.314598,-0.000000,9326.594869
1401.549411,919.314598,148.041188,9400.615463
1401.549728,995.924147,222.061783,9400.615463
1401.550045,842.705048,296.082377,9474.636058
1401.550362,995.924147,148.041188,9400.615463
1401.550680,689.485948,-0.000000,9400.615463
1401.550997,1378.971896,296.082377,9474.636058
1401.551314,1072.533697,222.061783,9548.656652
1401.551631,995.924147,222.061783,9326.594869
1401.551949,842.705048,296.082377,9400.615463
1401.552266,689.485948,370.102971,9474.636058
1401.552583,689.485948,444.123565,9400.615463
1401.552900,689.485948,296.082377,9400.615463
1401.553217,612.876398,518.144159,9400.615463
1401.553535,995.924147,518.144159,9326.594869
1401.553852,612.876398,370.102971,9622.677246
1401.554169,536.266849,518.144159,9622.677246
1401.554486,766.095498,444.123565,9474.636058
1401.554803,766.095498,592.164754,9474.636058
1401.555121,766.095498,296.082377,9400.615463
1401.555438,842.705048,592.164754,9474.636058
1401.555755,766.095498,888.247130,9696.697840
1401.556072,1072.533697,592.164754,9548.656652
1401.556390,689.485948,518.144159,9400.615463
1401.556707,919.314598,888.247130,9696.697840
1401.557024,689.485948,592.164754,9696.697840
1401.557341,842.705048,740.205942,9474.636058
1401.557658,766.095498,592.164754,9622.677246
1401.557976,536.266849,592.164754,9474.636058
1401.558293,766.095498,444.123565,9770.718434
1401.558610,536.266849,740.205942,9548.656652
1401.558927,842.705048,592.164754,9474.636058
1401.559244,536.266849,592.164754,9474.636058
1401.559562,689.485948,370.102971,9474.636058
1401.559879,919.314598,666.185348,9548.656652
1401.560196,766.095498,592.164754,9474.636058
1401.560513,536.266849,370.102971,9548.656652
1401.560830,536.266849,518.144159,9474.636058
1401.561148,919.314598,444.123565,9548.656652
1401.561465,1225.752797,518.144159,9770.718434
1401.561782,459.657299,222.061783,9548.656652
1401.562099,842.705048,370.102971,9474.636058
1401.562417,689.485948,370.102971,9474.636058
1401.562734,766.095498,370.102971,9474.636058
1401.563051,76.609550,148.041188,9696.697840
1401.563368,536.266849,148.041188,9622.677246
1401.563685,766.095498,370.102971,9474.636058
1401.564003,689.485948,296.082377,9400.615463
1401.564320,459.657299,222.061783,9400.615463
1401.564637,612.876398,-0.000000,9622.677246
1401.564954,689.485948,-0.000000,9400.615463
1401.565271,689.485948,-0.000000,9474.636058
1401.565589,766.095498,-0.000000,9400.615463
1401.565906,842.705048,-148.041188,9252.574275
1401.566223,842.705048,-296.082377,9252.574275
1401.566540,612.876398,-0.000000,9622.677246
1401.566858,689.485948,-74.020594,9474.636058
1401.567175,459.657299,-0.000000,9326.594869
1401.567492,612.876398,-0.000000,9326.594869
1401.567809,536.266849,-74.020594,9252.574275
1401.568126,842.705048,-0.000000,9252.574275
1401.568444,766.095498,-74.020594,9252.574275
1401.568761,766.095498,-148.041188,9400.615463
1401.569078,766.095498,-222.061783,9400.615463
1401.569395,536.266849,-148.041188,9400.615463
1401.569712,766.095498,-148.041188,9104.533087
1401.570030,766.095498,-0.000000,9252.574275
1401.570347,919.314598,-0.000000,9400.615463
1401.570664,1302.362347,-74.020594,9326.594869
1401.570981,842.705048,-0.000000,9178.553681
1401.571298,612.876398,-74.020594,9326.594869
1401.571616,612.876398,-74.020594,9252.574275
1401.571933,842.705048,-0.000000,9326.594869
1401.572250,1149.143247,222.061783,9474.636058
1401.572567,995.924147,-0.000000,9326.594869
1401.572885,689.485948,296.082377,9474.636058
1401.573202,689.485948,-0.000000,9326.594869
1401.573519,766.095498,-0.000000,9326.594869
1401.573836,919.314598,-0.000000,9252.574275
1401.574153,536.266849,-0.000000,9252.574275
1401.574471,919.314598,-0.000000,9326.594869
1401.574788,842.705048,148.041188,9326.594869
1401.575105,689.485948,444.123565,9844.739029
1401.575422,1072.533697,-0.000000,9400.615463
1401.575739,1149.143247,444.123565,9252.574275
1401.576057,766.095498,148.041188,9548.656652
1401.576374,995.924147,370.102971,9400.615463
1401.576691,995.924147,370.102971,9474.636058
1401.577008,1149.143247,518.144159,9474.636058
1401.577326,919.314598,592.164754,9474.636058
1401.577643,842.705048,518.144159,9400.615463
1401.577960,995.924147,444.123565,9474.636058
1401.578277,612.876398,370.102971,9548.656652
1401.578594,842.705048,592.164754,9622.677246
1401.578912,766.095498,370.102971,9548.656652
1401.579229,766.095498,592.164754,9548.656652
1401.579546,995.924147,592.164754,9474.636058
1401.579863,689.485948,222.061783,9622.677246
1401.580180,995.924147,592.164754,9548.656652
1401.580498,842.705048,592.164754,9474.636058
1401.580815,919.314598,444.123565,9474.636058
1401.581132,1455.581446,444.123565,9474.636058
1401.581449,995.924147,370.102971,9474.636058
1401.581767,612.876398,592.164754,9622.677246
1401.582084,919.314598,666.185348,9474.636058
1401.582401,689.485948,518.144159,9548.656652
1401.582718,383.047749,296.082377,9474.636058
1401.583035,612.876398,518.144159,9474.636058
1401.583353,612.876398,444.123565,9474.636058
1401.583670,536.266849,518.144159,9474.636058
1401.583987,459.657299,444.123565,9548.656652
1401.584304,383.047749,222.061783,9622.677246
1401.584621,306.438199,296.082377,9474.636058
1401.584938,689.485948,518.144159,9474.636058
1401.585255,766.095498,444.123565,9474.636058
1401.585573,459.657299,296.082377,9474.636058
1401.585890,459.657299,296.082377,9326.594869
1401.586207,612.876398,296.082377,9474.636058
1401.586524,536.266849,-0.000000,9474.636058
1401.586841,689.485948,-0.000000,9474.636058
1401.587158,689.485948,-0.000000,9474.636058
1401.587475,842.705048,222.061783,9548.656652
1401.587793,536.266849,-0.000000,9474.636058
1401.588110,612.876398,-0.000000,9400.615463
1401.588427,612.876398,296.082377,9622.677246
1401.588744,383.047749,-74.020594,9400.615463
1401.589061,536.266849,-222.061783,9326.594869
1401.589378,689.485948,222.061783,9326.594869
1401.589695,612.876398,-148.041188,9400.615463
1401.590013,612.876398,-0.000000,9474.636058
1401.590330,689.485948,-0.000000,9622.677246
1401.590647,612.876398,-148.041188,9400.615463
1401.590964,766.095498,-0.000000,9326.594869
1401.591281,766.095498,-74.020594,9474.636058
1401.591598,842.705048,-296.082377,9030.512492
1401.591915,842.705048,-148.041188,9178.553681
1401.592233,612.876398,-0.000000,9326.594869
1401.592550,842.705048,-296.082377,9400.615463
1401.592867,919.314598,-0.000000,9326.594869
1401.593184,919.314598,-296.082377,9326.594869
1401.593501,842.705048,-74.020594,9474.636058
1401.593818,842.705048,-0.000000,9326.594869
1401.594135,919.314598,-0.000000,9252.574275
1401.594453,842.705048,-0.000000,9252.574275
1401.594770,612.876398,-222.061783,8956.491898
1401.595087,536.266849,148.041188,9326.594869
1401.595404,842.705048,-0.000000,9400.615463
1401.595721,612.876398,-74.020594,9252.574275
1401.596038,689.485948,222.061783,9474.636058
1401.596356,842.705048,148.041188,9326.594869
1401.596673,1149.143247,-74.020594,9474.636058
1401.596990,842.705048,-0.000000,9326.594869
1401.597307,766.095498,222.061783,9252.574275
1401.597624,1149.143247,222.061783,9178.553681
1401.597941,842.705048,148.041188,9474.636058
1401.598258,766.095498,-148.041188,9326.594869
1401.598576,842.705048,-0.000000,9474.636058
1401.598893,919.314598,370.102971,9474.636058
1401.599210,919.314598,370.102971,9474.636058
1401.599527,689.485948,370.102971,9400.615463
1401.599844,842.705048,592.164754,9326.594869
1401.600161,612.876398,444.123565,9474.636058
1401.600478,842.705048,592.164754,9474.636058
1401.600796,612.876398,518.144159,9474.636058
1401.601113,842.705048,888.247130,9770.718434
1401.601430,689.485948,222.061783,9622.677246
1401.601747,689.485948,370.102971,9474.636058
1401.602064,842.705048,444.123565,9474.636058
1401.602381,842.705048,592.164754,9548.656652
1401.602698,1149.143247,814.226536,9992.780217
1401.603016,689.485948,666.185348,9474.636058
1401.603333,612.876398,666.185348,9548.656652
1401.603650,766.095498,740.205942,9474.636058
1401.603967,766.095498,814.226536,9548.656652
1401.604284,536.266849,592.164754,9918.759623
1401.604601,766.095498,296.082377,9622.677246
1401.604918,536.266849,592.164754,9548.656652
1401.605236,689.485948,592.164754,9548.656652
1401.605553,612.876398,666.185348,9696.697840
1401.605870,766.095498,296.082377,9770.718434
1401.606187,459.657299,518.144159,9474.636058
1401.606504,689.485948,518.144159,9474.636058
1401.606821,536.266849,666.185348,9548.656652
1401.607138,689.485948,518.144159,9474.636058
1401.607456,766.095498,148.041188,9696.697840
1401.607773,919.314598,518.144159,9474.636058
1401.608090,459.657299,148.041188,9400.615463
1401.608407,689.485948,370.102971,9474.636058
1401.608724,536.266849,444.123565,9474.636058
1401.609041,459.657299,518.144159,9474.636058
1401.609358,612.876398,296.082377,9474.636058
1401.609676,536.266849,370.102971,9548.656652
1401.609993,612.876398,370.102971,9548.656652
1401.610310,919.314598,74.020594,9326.594869
1401.610627,842.705048,-74.020594,9844.739029
1401.610944,612.876398,-0.000000,9548.656652
1401.611261,689.485948,148.041188,9252.574275
1401.611578,536.266849,148.041188,9474.636058
1401.611896,612.876398,-0.000000,9400.615463
1401.612213,536.266849,-0.000000,9400.615463
1401.612530,612.876398,-0.000000,9400.615463
1401.612847,766.095498,222.061783,9326.594869
1401.613164,612.876398,-0.000000,9326.594869
1401.613481,842.705048,-74.020594,9474.636058
1401.613798,689.485948,-296.082377,9252.574275
1401.614116,612.876398,-74.020594,9474.636058
1401.614433,689.485948,-0.000000,9400.615463
1401.614750,842.705048,-148.041188,9326.594869
1401.615067,229.828649,-74.020594,9474.636058
1401.615384,612.876398,-0.000000,9400.615463
1401.615701,612.876398,-148.041188,9400.615463
1401.616018,689.485948,-222.061783,9474.636058
1401.616336,766.095498,-222.061783,9326.594869
1401.616653,689.485948,-148.041188,9474.636058
1401.616970,459.657299,-74.020594,9400.615463
1401.617287,766.095498,-148.041188,9326.594869
1401.617604,766.095498,-0.000000,9178.553681
1401.617921,766.095498,-0.000000,9252.574275
1401.618239,842.705048,-0.000000,9326.594869
1401.618556,766.095498,-0.000000,9178.553681
1401.618873,919.314598,-148.041188,9326.594869
1401.619190,689.485948,-0.000000,9326.594869
1401.619507,842.705048,-222.061783,9474.636058
1401.619824,689.485948,-0.000000,9400.615463
1401.620141,766.095498,148.041188,9548.656652
1401.620459,842.705048,222.061783,9400.615463
1401.620776,995.924147,-0.000000,9400.615463
1401.621093,1149.143247,-0.000000,9474.636058
1401.621410,919.314598,148.041188,9474.636058
1401.621727,1072.533697,222.061783,9178.553681
1401.622044,842.705048,148.041188,9400.615463
1401.622361,995.924147,444.123565,9474.636058
1401.622679,1149.143247,296.082377,9474.636058
1401.622996,1149.143247,518.144159,9474.636058
1401.623313,1225.752797,592.164754,9252.574275
1401.623630,995.924147,666.185348,9474.636058
1401.623947,1072.533697,444.123565,9400.615463
1401.624264,1225.752797,518.144159,9548.656652
1401.624581,842.705048,444.123565,9474.636058
1401.624899,1072.533697,518.144159,9474.636058
1401.625216,995.924147,518.144159,9474.636058
1401.625533,536.266849,444.123565,9622.677246
1401.625850,995.924147,370.102971,9622.677246
1401.626167,919.314598,592.164754,9474.636058
1401.626484,995.924147,888.247130,9474.636058
1401.626801,689.485948,592.164754,9474.636058
1401.627119,1149.143247,444.123565,9474.636058
1401.627436,919.314598,518.144159,9474.636058
1401.627753,766.095498,592.164754,9474.636058
1401.628070,766.095498,666.185348,9548.656652
1401.628387,842.705048,592.164754,9548.656652
1401.628704,536.266849,666.185348,9548.656652
1401.629021,766.095498,592.164754,9770.718434
1401.629339,459.657299,592.164754,9474.636058
1401.629656,459.657299,444.123565,9474.636058
1401.629973,612.876398,740.205942,9770.718434
1401.630290,536.266849,592.164754,9548.656652
1401.630607,536.266849,444.123565,9548.656652
1401.630924,612.876398,370.102971,9474.636058
1401.631241,459.657299,296.082377,9474.636058
1401.631559,766.095498,444.123565,9474.636058
1401.631876,383.047749,370.102971,9326.594869
1401.632193,459.657299,370.102971,9474.636058
1401.632510,459.657299,444.123565,9474.636058
1401.632827,766.095498,444.123565,9622.677246
1401.633144,459.657299,-0.000000,9474.636058
1401.633461,459.657299,222.061783,9474.636058
1401.633779,612.876398,222.061783,9548.656652
1401.634096,612.876398,222.061783,9400.615463
1401.634413,995.924147,-0.000000,9400.615463
1401.634730,689.485948,296.082377,9548.656652
1401.635047,612.876398,-0.000000,9400.615463
1401.635364,612.876398,-0.000000,9474.636058
1401.635681,689.485948,148.041188,9400.615463
1401.635999,612.876398,-0.000000,9400.615463
1401.636316,536.266849,148.041188,9252.574275
1401.636633,536.266849,-148.041188,9548.656652
1401.636950,536.266849,-0.000000,9474.636058
1401.637267,689.485948,-0.000000,9326.594869
1401.637584,1072.533697,296.082377,9104.533087
1401.637901,766.095498,-74.020594,9252.574275
1401.638219,766.095498,-0.000000,9252.574275
1401.638536,612.876398,-0.000000,9326.594869
1401.638853,612.876398,-148.041188,9400.615463
1401.639170,1225.752797,-148.041188,9400.615463
1401.639487,766.095498,-296.082377,9400.615463
1401.639804,842.705048,-0.000000,9400.615463
1401.640122,995.924147,-296.082377,9326.594869
1401.640439,766.095498,-0.000000,9178.553681
1401.640756,766.095498,-148.041188,9400.615463
1401.641073,842.705048,-0.000000,9252.574275
1401.641390,919.314598,-0.000000,9252.574275
1401.641707,919.314598,-0.000000,9326.594869
1401.642024,1378.971896,-0.000000,9326.594869
1401.642342,1532.190996,-74.020594,9326.594869
1401.642659,689.485948,-296.082377,9400.615463
1401.642976,842.705048,-0.000000,9400.615463
1401.643293,766.095498,-0.000000,9474.636058
1401.643610,689.485948,-0.000000,9326.594869
1401.643927,766.095498,148.041188,9548.656652
1401.644244,919.314598,-0.000000,9326.594869
1401.644562,766.095498,-0.000000,9326.594869
1401.644879,766.095498,-0.000000,9326.594869
1401.645196,612.876398,-0.000000,9474.636058
1401.645513,306.438199,-0.000000,9400.615463
1401.645830,766.095498,-0.000000,9474.636058
1401.646147,842.705048,370.102971,9474.636058
1401.646464,842.705048,370.102971,9326.594869
1401.646782,1072.533697,222.061783,9548.656652
1401.647099,1072.533697,222.061783,9400.615463
1401.647416,1149.143247,518.144159,9474.636058
1401.647733,766.095498,296.082377,9474.636058
1401.648050,842.705048,444.123565,9400.615463
1401.648367,689.485948,370.102971,9474.636058
1401.648684,766.095498,148.041188,9474.636058
1401.649002,919.314598,592.164754,9474.636058
1401.649319,459.657299,444.123565,9474.636058
1401.649636,766.095498,592.164754,9400.615463
1401.649953,1072.533697,296.082377,9474.636058
1401.650270,842.705048,444.123565,9400.615463
1401.650587,995.924147,666.185348,9548.656652
1401.650904,536.266849,592.164754,9622.677246
1401.651222,842.705048,444.123565,9548.656652
1401.651539,919.314598,296.082377,9696.697840
1401.651856,842.705048,666.185348,9474.636058
1401.652173,766.095498,592.164754,9474.636058
1401.652490,459.657299,148.041188,9548.656652
1401.652807,612.876398,444.123565,9474.636058
1401.653124,229.828649,518.144159,9622.677246
1401.653442,612.876398,518.144159,9622.677246
1401.653759,766.095498,370.102971,9474.636058
1401.654076,766.095498,370.102971,9474.636058
1401.654393,842.705048,-0.000000,9548.656652
1401.654710,919.314598,-0.000000,9326.594869
1401.655027,612.876398,444.123565,9474.636058
1401.655344,612.876398,222.061783,9474.636058
1401.655662,459.657299,296.082377,9474.636058
1401.655979,612.876398,518.144159,9474.636058
1401.656296,306.438199,296.082377,9474.636058
1401.656613,842.705048,148.041188,9548.656652
1401.656930,536.266849,222.061783,9474.636058
1401.657247,689.485948,-0.000000,9474.636058
1401.657564,842.705048,-222.061783,9548.656652
1401.657882,766.095498,296.082377,9474.636058
1401.658199,536.266849,148.041188,9400.615463
1401.658516,689.485948,222.061783,9474.636058
1401.658833,766.095498,-0.000000,9252.574275
1401.659150,1072.533697,-0.000000,9474.636058
1401.659467,689.485948,-0.000000,9474.636058
1401.659784,689.485948,-0.000000,9400.615463
1401.660102,612.876398,-0.000000,9104.533087
1401.660419,842.705048,-148.041188,9326.594869
1401.660736,1072.533697,-222.061783,9178.553681
1401.661053,612.876398,-148.041188,9400.615463
1401.661370,766.095498,-0.000000,9326.594869
1401.661687,766.095498,-148.041188,9252.574275
1401.662005,842.705048,-74.020594,9400.615463
1401.662322,612.876398,-0.000000,9400.615463
1401.662639,766.095498,-148.041188,9178.553681
1401.662956,612.876398,-148.041188,9326.594869
1401.663273,766.095498,-0.000000,9326.594869
1401.663590,919.314598,-148.041188,9326.594869
1401.663907,766.095498,-222.061783,9178.553681
1401.664225,842.705048,-74.020594,9400.615463
1401.664542,919.314598,-0.000000,9104.533087
1401.664859,689.485948,-0.000000,9326.594869
1401.665176,766.095498,74.020594,9326.594869
1401.665493,842.705048,-74.020594,9178.553681
1401.665810,459.657299,-222.061783,9326.594869
1401.666127,689.485948,-0.000000,9326.594869
1401.666445,1072.533697,-0.000000,9326.594869
1401.666762,842.705048,-0.000000,9326.594869
1401.667079,766.095498,-0.000000,9178.553681
1401.667396,612.876398,148.041188,9326.594869
1401.667713,536.266849,296.082377,9474.636058
1401.668030,1072.533697,296.082377,9770.718434
1401.668347,689.485948,-0.000000,9326.594869
1401.668665,612.876398,370.102971,9400.615463
1401.668982,919.314598,296.082377,9326.594869
1401.669299,995.924147,148.041188,9474.636058
1401.669616,842.705048,518.144159,9474.636058
1401.669933,842.705048,222.061783,9252.574275
1401.670250,919.314598,296.082377,9474.636058
1401.670567,689.485948,444.123565,9548.656652
1401.670885,1149.143247,444.123565,9474.636058
1401.671202,1149.143247,592.164754,9474.636058
1401.671519,842.705048,518.144159,9474.636058
1401.671836,689.485948,666.185348,9400.615463
1401.672153,842.705048,518.144159,9474.636058
1401.672470,766.095498,518.144159,9548.656652
1401.672787,842.705048,666.185348,9474.636058
1401.673105,536.266849,444.123565,9400.615463
1401.673422,612.876398,888.247130,9548.656652
1401.673739,766.095498,592.164754,9548.656652
1401.674056,536.266849,666.185348,9622.677246
1401.674373,1149.143247,666.185348,9474.636058
1401.674690,612.876398,592.164754,9548.656652
1401.675007,995.924147,592.164754,9474.636058
1401.675325,689.485948,592.164754,9474.636058
1401.675642,612.876398,666.185348,9474.636058
1401.675959,919.314598,296.082377,9696.697840
1401.676276,842.705048,740.205942,9548.656652
1401.676593,612.876398,666.185348,9548.656652
1401.676910,612.876398,592.164754,9474.636058
1401.677227,689.485948,592.164754,9622.677246
1401.677545,229.828649,296.082377,9252.574275
1401.677862,766.095498,666.185348,9474.636058
1401.678179,689.485948,592.164754,9474.636058
1401.678496,689.485948,666.185348,9400.615463
1401.678813,689.485948,444.123565,9474.636058
1401.679130,689.485948,370.102971,9326.594869
1401.679447,766.095498,444.123565,9474.636058
1401.679765,536.266849,296.082377,9474.636058
1401.680082,383.047749,-0.000000,9474.636058
1401.680399,536.266849,370.102971,9622.677246
1401.680716,842.705048,-0.000000,9548.656652
1401.681033,612.876398,148.041188,9474.636058
1401.681350,766.095498,74.020594,9326.594869
1401.681667,766.095498,148.041188,9474.636058
1401.681985,919.314598,-0.000000,9474.636058
1401.682302,689.485948,-0.000000,9474.636058
1401.682619,383.047749,148.041188,9400.615463
1401.682936,459.657299,148.041188,9326.594869
1401.683253,612.876398,-0.000000,9474.636058
1401.683570,842.705048,148.041188,9474.636058
1401.683888,1072.533697,-0.000000,9474.636058
1401.684205,306.438199,-222.061783,9252.574275
1401.684522,536.266849,-0.000000,9474.636058
1401.684839,689.485948,-148.041188,9400.615463
1401.685156,1072.533697,-444.123565,9252.574275
1401.685473,766.095498,-74.020594,9178.553681
1401.685790,766.095498,-74.020594,9326.594869
1401.686108,766.095498,-0.000000,9104.533087
1401.686425,612.876398,-0.000000,9326.594869
1401.686742,536.266849,-222.061783,9474.636058
1401.687059,919.314598,-0.000000,9400.615463
1401.687376,842.705048,-0.000000,9400.615463
1401.687693,689.485948,-74.020594,9178.553681
1401.688010,612.876398,-222.061783,9252.574275
1401.688328,766.095498,-296.082377,9400.615463
1401.688645,995.924147,-0.000000,9178.553681
1401.688962,995.924147,-148.041188,9252.574275
1401.689279,766.095498,-0.000000,9178.553681
1401.689596,919.314598,-148.041188,9104.533087
1401.689913,842.705048,-592.164754,9178.553681
1401.690231,919.314598,-0.000000,9030.512492
1401.690548,383.047749,-0.000000,9400.615463
1401.690865,612.876398,222.061783,9474.636058
1401.691182,842.705048,-0.000000,9178.553681
1401.691499,1072.533697,148.041188,9326.594869
1401.691816,766.095498,222.061783,9400.615463
1401.692133,766.095498,222.061783,9326.594869
1401.692451,842.705048,296.082377,9474.636058
1401.692768,536.266849,222.061783,9474.636058
1401.693085,153.219100,370.102971,9474.636058
1401.693402,842.705048,518.144159,9474.636058
1401.693719,842.705048,370.102971,9474.636058
1401.694036,842.705048,370.102971,9474.636058
1401.694354,536.266849,370.102971,9474.636058
1401.694671,995.924147,444.123565,9474.636058
1401.694988,689.485948,518.144159,9400.615463
1401.695305,842.705048,592.164754,9400.615463
1401.695622,995.924147,444.123565,9474.636058
1401.695939,459.657299,370.102971,9548.656652
1401.696256,842.705048,740.205942,9770.718434
1401.696574,1072.533697,592.164754,9474.636058
1401.696891,995.924147,518.144159,9474.636058
1401.697208,766.095498,666.185348,9548.656652
1401.697525,919.314598,592.164754,9770.718434
1401.697842,689.485948,592.164754,9548.656652
1401.698159,842.705048,666.185348,9474.636058
1401.698476,612.876398,888.247130,9622.677246
1401.698794,766.095498,666.185348,9474.636058
1401.699111,1149.143247,444.123565,9474.636058
1401.699428,612.876398,370.102971,9548.656652
1401.699745,766.095498,592.164754,9474.636058
1401.700062,612.876398,222.061783,9474.636058
1401.700379,536.266849,518.144159,9622.677246
1401.700697,612.876398,444.123565,9622.677246
1401.701014,766.095498,296.082377,9474.636058
1401.701331,612.876398,518.144159,9548.656652
1401.701648,612.876398,444.123565,9474.636058
1401.701965,689.485948,444.123565,9622.677246
1401.702282,536.266849,592.164754,9770.718434
1401.702599,383.047749,296.082377,9770.718434
1401.702917,459.657299,370.102971,9474.636058
1401.703234,306.438199,296.082377,9474.636058
1401.703551,919.314598,148.041188,9696.697840
1401.703868,536.266849,296.082377,9326.594869
1401.704185,383.047749,296.082377,9474.636058
1401.704502,459.657299,148.041188,9326.594869
1401.704820,306.438199,-0.000000,9326.594869
1401.705137,842.705048,148.041188,9326.594869
1401.705454,689.485948,-0.000000,9474.636058
1401.705771,306.438199,148.041188,9474.636058
1401.706088,919.314598,296.082377,9400.615463
1401.706405,612.876398,296.082377,9474.636058
1401.706722,842.705048,-0.000000,9400.615463
1401.707040,612.876398,-0.000000,9252.574275
1401.707357,536.266849,-74.020594,9252.574275
1401.707674,536.266849,-74.020594,9400.615463
1401.707991,383.047749,-222.061783,9326.594869
1401.708308,306.438199,-296.082377,9104.533087
1401.708625,842.705048,-0.000000,9400.615463
1401.708943,536.266849,-0.000000,9474.636058
1401.709260,689.485948,-0.000000,9400.615463
1401.709577,536.266849,-148.041188,9400.615463
1401.709894,689.485948,-74.020594,9178.553681
1401.710211,612.876398,-148.041188,9474.636058
1401.710528,612.876398,-0.000000,9400.615463
1401.710845,689.485948,-148.041188,9326.594869
1401.711163,612.876398,-74.020594,9400.615463
1401.711480,689.485948,-74.020594,9252.574275
1401.711797,689.485948,-74.020594,9326.594869
1401.712114,995.924147,-0.000000,9104.533087
1401.712431,1149.143247,-148.041188,9474.636058
1401.712748,842.705048,-0.000000,9252.574275
1401.713065,1072.533697,-0.000000,9474.636058
1401.713383,766.095498,-0.000000,9326.594869
1401.713700,689.485948,-0.000000,9326.594869
1401.714017,766.095498,-0.000000,9400.615463
1401.714334,842.705048,-74.020594,9400.615463
1401.714651,689.485948,-0.000000,9474.636058
1401.714968,919.314598,-0.000000,9474.636058
1401.715286,766.095498,-0.000000,9474.636058
1401.715603,995.924147,-0.000000,9252.574275
1401.715920,689.485948,518.144159,9326.594869
1401.716237,919.314598,444.123565,9474.636058
1401.716554,995.924147,296.082377,9400.615463
1401.716871,919.314598,296.082377,9474.636058
1401.717188,766.095498,296.082377,9326.594869
1401.717506,766.095498,370.102971,9400.615463
1401.717823,842.705048,370.102971,9326.594869
1401.718140,689.485948,444.123565,9400.615463
1401.718457,612.876398,296.082377,9474.636058
1401.718774,995.924147,592.164754,9992.780217
1401.719091,459.657299,74.020594,9844.739029
1401.719409,306.438199,148.041188,9844.739029
1401.719726,383.047749,222.061783,9548.656652
1401.720043,153.219100,370.102971,9844.739029
1401.720360,153.219100,370.102971,9992.780217
1401.720677,306.438199,444.123565,9696.697840
1401.720994,536.266849,1036.288319,9622.677246
1401.721311,842.705048,740.205942,9474.636058
1401.721629,842.705048,518.144159,9178.553681
1401.721946,919.314598,444.123565,9326.594869
1401.722263,689.485948,296.082377,9474.636058
1401.722580,995.924147,518.144159,9474.636058
1401.722897,842.705048,518.144159,9474.636058
1401.723214,1149.143247,518.144159,9474.636058
1401.723531,995.924147,518.144159,9326.594869
1401.723849,919.314598,444.123565,9622.677246
1401.724166,919.314598,296.082377,9548.656652
1401.724483,1225.752797,814.226536,9400.615463
1401.724800,1225.752797,814.226536,9474.636058
1401.725117,1225.752797,148.041188,9622.677246
1401.725434,1302.362347,518.144159,9622.677246
1401.725752,1149.143247,518.144159,9178.553681
1401.726069,995.924147,888.247130,9252.574275
1401.726386,1072.533697,444.123565,9400.615463
1401.726703,1225.752797,518.144159,9326.594869
1401.727020,1302.362347,592.164754,9178.553681
1401.727337,995.924147,518.144159,9178.553681
1401.727654,1072.533697,-0.000000,9474.636058
1401.727972,612.876398,148.041188,9548.656652
1401.728289,1072.533697,444.123565,9474.636058
1401.728606,842.705048,370.102971,9400.615463
1401.728923,612.876398,370.102971,9400.615463
1401.729240,689.485948,296.082377,9400.615463
1401.729557,766.095498,370.102971,9178.553681
1401.729875,612.876398,444.123565,9474.636058
1401.730192,306.438199,74.020594,9400.615463
1401.730509,459.657299,148.041188,9400.615463
1401.730826,229.828649,-0.000000,9474.636058
1401.731143,383.047749,222.061783,9622.677246
1401.731460,306.438199,-74.020594,9474.636058
1401.731777,383.047749,-296.082377,9548.656652
1401.732095,383.047749,-74.020594,9326.594869
1401.732412,536.266849,296.082377,9474.636058
1401.732729,153.219100,-0.000000,9548.656652
1401.733046,612.876398,-74.020594,9400.615463
1401.733363,536.266849,-0.000000,9400.615463
1401.733680,612.876398,148.041188,9104.533087
1401.733998,919.314598,-0.000000,9400.615463
1401.734315,766.095498,74.020594,9474.636058
1401.734632,766.095498,-0.000000,9474.636058
1401.734949,612.876398,-74.020594,9400.615463
1401.735266,536.266849,-222.061783,9400.615463
1401.735583,689.485948,-74.020594,9326.594869
1401.735900,612.876398,-74.020594,9474.636058
1401.736218,766.095498,-0.000000,9474.636058
1401.736535,766.095498,-74.020594,9474.636058
1401.736852,842.705048,-74.020594,9474.636058
1401.737169,766.095498,-0.000000,9474.636058
1401.737486,1149.143247,-0.000000,9252.574275
1401.737803,919.314598,296.082377,9474.636058
1401.738120,842.705048,148.041188,9400.615463
1401.738438,995.924147,222.061783,9326.594869
1401.738755,536.266849,148.041188,9252.574275
1401.739072,689.485948,296.082377,9400.615463
1401.739389,919.314598,-0.000000,9474.636058
1401.739706,842.705048,-0.000000,9252.574275
1401.740023,842.705048,74.020594,9474.636058
1401.740341,612.876398,-0.000000,9474.636058
1401.740658,995.924147,-0.000000,9474.636058
1401.740975,995.924147,222.061783,9548.656652
1401.741292,919.314598,296.082377,9474.636058
1401.741609,995.924147,148.041188,9400.615463
1401.741926,1072.533697,518.144159,9548.656652
1401.742243,842.705048,296.082377,9474.636058
1401.742561,995.924147,370.102971,9622.677246
1401.742878,1149.143247,444.123565,9474.636058
1401.743195,766.095498,222.061783,9548.656652
1401.743512,842.705048,444.123565,9696.697840
1401.743829,842.705048,518.144159,9474.636058
1401.744146,1072.533697,444.123565,9178.553681
1401.744464,995.924147,370.102971,9474.636058
1401.744781,995.924147,-0.000000,9252.574275
1401.745098,919.314598,444.123565,9326.594869
1401.745415,612.876398,518.144159,9474.636058
1401.745732,766.095498,666.185348,9548.656652
1401.746049,689.485948,444.123565,9474.636058
1401.746366,1149.143247,518.144159,9252.574275
1401.746684,766.095498,592.164754,9622.677246
1401.747001,383.047749,370.102971,9400.615463
1401.747318,459.657299,444.123565,9548.656652
1401.747635,383.047749,148.041188,9474.636058
1401.747952,306.438199,370.102971,9474.636058
1401.748269,459.657299,296.082377,9474.636058
1401.748587,153.219100,444.123565,9474.636058
1401.748904,383.047749,444.123565,9548.656652
1401.749221,766.095498,296.082377,9474.636058
1401.749538,919.314598,148.041188,9474.636058
1401.749855,229.828649,370.102971,9400.615463
1401.750172,383.047749,370.102971,9400.615463
1401.750489,536.266849,296.082377,9474.636058
1401.750807,842.705048,222.061783,9400.615463
1401.751124,383.047749,296.082377,9400.615463
1401.751441,383.047749,296.082377,9474.636058
1401.751758,306.438199,148.041188,9474.636058
1401.752075,383.047749,296.082377,9622.677246
1401.752392,536.266849,-0.000000,9622.677246
1401.752709,383.047749,222.061783,9548.656652
1401.753027,536.266849,222.061783,9548.656652
1401.753344,306.438199,222.061783,9400.615463
1401.753661,1149.143247,-0.000000,9400.615463
1401.753978,766.095498,-0.000000,9474.636058
1401.754295,766.095498,-0.000000,9326.594869
1401.754612,689.485948,148.041188,9474.636058
1401.754930,842.705048,-0.000000,9474.636058
1401.755247,995.924147,-148.041188,9548.656652
1401.755564,689.485948,148.041188,9474.636058
1401.755881,689.485948,-0.000000,9400.615463
1401.756198,766.095498,-0.000000,9326.594869
1401.756515,995.924147,-222.061783,9178.553681
1401.756832,459.657299,-74.020594,9474.636058
1401.757150,612.876398,-222.061783,9400.615463
1401.757467,995.924147,-0.000000,9326.594869
1401.757784,766.095498,-0.000000,9474.636058
1401.758101,766.095498,-74.020594,9474.636058
1401.758418,919.314598,-0.000000,9622.677246
1401.758735,919.314598,-0.000000,9326.594869
1401.759053,842.705048,-0.000000,9252.574275
1401.759370,919.314598,222.061783,9474.636058
1401.759687,1225.752797,-0.000000,9104.533087
1401.760004,612.876398,-74.020594,9474.636058
1401.760321,766.095498,-74.020594,9400.615463
1401.760638,919.314598,-0.000000,9252.574275
1401.760955,689.485948,-0.000000,9178.553681
1401.761273,612.876398,148.041188,9474.636058
1401.761590,766.095498,-0.000000,9474.636058
1401.761907,766.095498,-0.000000,9400.615463
1401.762224,612.876398,296.082377,9326.594869
1401.762541,689.485948,148.041188,9400.615463
1401.762858,766.095498,370.102971,9474.636058
1401.763176,919.314598,-0.000000,9178.553681
1401.763493,689.485948,222.061783,9252.574275
1401.763810,766.095498,222.061783,9326.594869
1401.764127,995.924147,444.123565,9474.636058
1401.764444,1072.533697,296.082377,9474.636058
1401.764761,919.314598,296.082377,9400.615463
1401.765078,842.705048,444.123565,9252.574275
1401.765396,842.705048,592.164754,9326.594869
1401.765713,842.705048,592.164754,9474.636058
1401.766030,842.705048,444.123565,9252.574275
1401.766347,536.266849,296.082377,9400.615463
1401.766664,995.924147,518.144159,9400.615463
1401.766981,689.485948,518.144159,9474.636058
1401.767298,766.095498,518.144159,9400.615463
1401.767616,1302.362347,518.144159,9696.697840
1401.767933,766.095498,518.144159,9474.636058
1401.768250,766.095498,518.144159,9474.636058
1401.768567,612.876398,518.144159,9474.636058
1401.768884,995.924147,666.185348,9474.636058
1401.769201,1225.752797,370.102971,9474.636058
1401.769519,766.095498,888.247130,9474.636058
1401.769836,919.314598,666.185348,9178.553681
1401.770153,842.705048,666.185348,9548.656652
1401.770470,766.095498,592.164754,9400.615463
1401.770787,689.485948,-0.000000,9400.615463
1401.771104,612.876398,518.144159,9326.594869
1401.771421,536.266849,666.185348,9474.636058
1401.771739,459.657299,592.164754,9474.636058
1401.772056,1072.533697,296.082377,9548.656652
1401.772373,612.876398,296.082377,9770.718434
1401.772690,612.876398,148.041188,9622.677246
1401.773007,383.047749,370.102971,9622.677246
1401.773324,689.485948,370.102971,9474.636058
1401.773642,689.485948,444.123565,9548.656652
1401.773959,766.095498,444.123565,9474.636058
1401.774276,536.266849,370.102971,9548.656652
1401.774593,689.485948,296.082377,9474.636058
1401.774910,459.657299,296.082377,9548.656652
1401.775227,536.266849,-0.000000,9474.636058
