#time,accel_x,accel_y,accel_z
1532.985596,919.314598,296.082377,9252.574275
1532.985915,766.095498,370.102971,9252.574275
1532.986233,459.657299,370.102971,9400.615463
1532.986552,383.047749,148.041188,9104.533087
1532.986871,229.828649,370.102971,9252.574275
1532.987190,306.438199,222.061783,9474.636058
1532.987509,153.219100,518.144159,9474.636058
1532.987828,0.000000,296.082377,9474.636058
1532.988147,76.609550,222.061783,9252.574275
1532.988466,0.000000,222.061783,9474.636058
1532.988785,766.095498,444.123565,8956.491898
1532.989104,459.657299,444.123565,9252.574275
1532.989423,459.657299,296.082377,9252.574275
1532.989741,383.047749,592.164754,9252.574275
1532.990060,306.438199,666.185348,9104.533087
1532.990379,459.657299,444.123565,9178.553681
1532.990698,383.047749,370.102971,9178.553681
1532.991017,459.657299,518.144159,9178.553681
1532.991336,536.266849,444.123565,9400.615463
1532.991655,1225.752797,370.102971,9326.594869
1532.991974,76.609550,-0.000000,9252.574275
1532.992293,612.876398,296.082377,9178.553681
1532.992612,536.266849,370.102971,9252.574275
1532.992931,383.047749,296.082377,9252.574275
1532.993249,0.000000,296.082377,9178.553681
1532.993568,383.047749,518.144159,9326.594869
1532.993887,383.047749,370.102971,9326.594869
1532.994206,459.657299,296.082377,9104.533087
1532.994525,612.876398,296.082377,9252.574275
1532.994844,383.047749,148.041188,9178.553681
1532.995163,536.266849,370.102971,9178.553681
1532.995482,229.828649,518.144159,9326.594869
1532.995801,306.438199,444.123565,9178.553681
1532.996120,612.876398,222.061783,9400.615463
1532.996439,153.219100,296.082377,9326.594869
1532.996757,383.047749,370.102971,9326.594869
1532.997076,76.609550,296.082377,9474.636058
1532.997395,306.438199,296.082377,9252.574275
1532.997714,76.609550,370.102971,9548.656652
1532.998033,383.047749,296.082377,9474.636058
1532.998352,0.000000,74.020594,9474.636058
1532.998671,536.266849,148.041188,9104.533087
1532.998990,612.876398,518.144159,9178.553681
1532.999309,612.876398,222.061783,9252.574275
1532.999628,766.095498,518.144159,9326.594869
1532.999947,689.485948,518.144159,8882.471304
1533.000265,612.876398,370.102971,8956.491898
1533.000584,1072.533697,296.082377,9326.594869
1533.000903,383.047749,-0.000000,9104.533087
1533.001222,459.657299,74.020594,9104.533087
1533.001541,689.485948,296.082377,9178.553681
1533.001860,306.438199,296.082377,9326.594869
1533.002179,0.000000,444.123565,9400.615463
1533.002498,153.219100,370.102971,9326.594869
1533.002817,306.438199,296.082377,9474.636058
1533.003136,0.000000,222.061783,9326.594869
1533.003455,229.828649,370.102971,9400.615463
1533.003773,229.828649,370.102971,9474.636058
1533.004092,229.828649,370.102971,9400.615463
1533.004411,76.609550,296.082377,9252.574275
1533.004730,383.047749,296.082377,9252.574275
1533.005049,766.095498,518.144159,9178.553681
1533.005368,536.266849,370.102971,9178.553681
1533.005687,612.876398,370.102971,9178.553681
1533.006006,383.047749,148.041188,9400.615463
1533.006325,536.266849,148.041188,9252.574275
1533.006644,612.876398,148.041188,9474.636058
1533.006963,459.657299,222.061783,9326.594869
1533.007281,306.438199,-0.000000,9178.553681
1533.007600,383.047749,370.102971,9400.615463
1533.007919,459.657299,444.123565,9474.636058
1533.008238,459.657299,370.102971,9178.553681
1533.008557,459.657299,444.123565,9252.574275
1533.008876,536.266849,296.082377,9326.594869
1533.009195,536.266849,370.102971,9178.553681
1533.009514,689.485948,370.102971,9030.512492
1533.009833,689.485948,518.144159,9104.533087
1533.010152,612.876398,518.144159,9178.553681
1533.010471,612.876398,444.123565,9252.574275
1533.010789,612.876398,444.123565,9104.533087
1533.011108,383.047749,444.123565,9178.553681
1533.011427,612.876398,592.164754,9474.636058
1533.011746,153.219100,-0.000000,9178.553681
1533.012065,229.828649,370.102971,9474.636058
1533.012384,229.828649,444.123565,9326.594869
1533.012703,0.000000,148.041188,9252.574275
1533.013022,229.828649,296.082377,9400.615463
1533.013341,383.047749,518.144159,9400.615463
1533.013660,229.828649,296.082377,9400.615463
1533.013979,76.609550,296.082377,9326.594869
1533.014297,1072.533697,296.082377,9474.636058
1533.014616,383.047749,444.123565,9326.594869
1533.014935,612.876398,518.144159,9326.594869
1533.015254,689.485948,518.144159,9104.533087
1533.015573,919.314598,518.144159,9104.533087
1533.015892,766.095498,-0.000000,9104.533087
1533.016211,612.876398,222.061783,9178.553681
1533.016530,766.095498,444.123565,9030.512492
1533.016849,612.876398,296.082377,9400.615463
1533.017168,766.095498,296.082377,9252.574275
1533.017487,459.657299,296.082377,9252.574275
1533.017805,383.047749,444.123565,9326.594869
1533.018124,459.657299,-0.000000,9178.553681
1533.018443,229.828649,296.082377,9326.594869
1533.018762,842.705048,370.102971,9474.636058
1533.019081,306.438199,518.144159,9178.553681
1533.019400,383.047749,222.061783,9104.533087
1533.019719,229.828649,592.164754,9326.594869
1533.020038,536.266849,666.185348,9252.574275
1533.020357,842.705048,296.082377,8956.491898
1533.020676,459.657299,592.164754,9252.574275
1533.020995,383.047749,370.102971,9030.512492
1533.021313,536.266849,222.061783,9326.594869
1533.021632,229.828649,296.082377,9178.553681
1533.021951,76.609550,296.082377,9326.594869
1533.022270,536.266849,222.061783,9178.553681
1533.022589,306.438199,296.082377,9400.615463
1533.022908,306.438199,370.102971,9178.553681
1533.023227,229.828649,222.061783,9770.718434
1533.023546,689.485948,74.020594,9252.574275
1533.023865,383.047749,518.144159,9400.615463
1533.024184,766.095498,592.164754,9178.553681
1533.024503,766.095498,444.123565,9252.574275
1533.024821,766.095498,148.041188,9030.512492
1533.025140,766.095498,666.185348,9326.594869
1533.025459,612.876398,518.144159,9252.574275
1533.025778,536.266849,370.102971,9178.553681
1533.026097,766.095498,296.082377,9178.553681
1533.026416,766.095498,222.061783,9326.594869
1533.026735,612.876398,592.164754,9326.594869
1533.027054,153.219100,74.020594,9326.594869
1533.027373,306.438199,370.102971,9400.615463
1533.027692,306.438199,370.102971,9326.594869
1533.028011,306.438199,222.061783,9326.594869
1533.028329,383.047749,370.102971,9400.615463
1533.028648,76.609550,296.082377,9326.594869
1533.028967,229.828649,444.123565,9252.574275
1533.029286,536.266849,370.102971,9030.512492
1533.029605,383.047749,962.267725,8956.491898
1533.029924,0.000000,888.247130,9178.553681
1533.030243,153.219100,1036.288319,9178.553681
1533.030562,153.219100,962.267725,9252.574275
1533.030881,0.000000,1406.391290,9178.553681
1533.031200,76.609550,1184.329507,9252.574275
1533.031519,0.000000,1480.411884,9474.636058
1533.031837,-229.828649,1184.329507,9474.636058
1533.032156,-229.828649,814.226536,9474.636058
1533.032475,-536.266849,1036.288319,9622.677246
1533.032794,-689.485948,1036.288319,9622.677246
1533.033113,-1149.143247,962.267725,9326.594869
1533.033432,-1225.752797,888.247130,9178.553681
1533.033751,-1302.362347,1258.350101,9104.533087
1533.034070,-1378.971896,1480.411884,8882.471304
1533.034389,-1762.019645,1776.494261,9030.512492
1533.034708,-2068.457845,1776.494261,8660.409521
1533.035027,-2145.067394,2072.576638,8512.368333
1533.035345,-2451.505594,2368.659014,8364.327145
1533.035664,-2604.724693,2368.659014,8216.285956
1533.035983,-2987.772442,2664.741391,8216.285956
1533.036302,-3447.429741,2738.761985,8364.327145
1533.036621,-3447.429741,2738.761985,8660.409521
1533.036940,-3907.087040,3256.906145,8882.471304
1533.037259,-3983.696590,3330.926739,8734.430116
1533.037578,-4136.915689,3627.009116,9104.533087
1533.037897,-4290.134789,3552.988522,9252.574275
1533.038216,-4290.134789,3108.864956,9622.677246
1533.038535,-4213.525239,3256.906145,9548.656652
1533.038853,-4290.134789,3256.906145,9844.739029
1533.039172,-4443.353888,3404.947333,9622.677246
1533.039491,-4673.182538,3923.091493,9548.656652
1533.039810,-4060.306139,4219.173869,9252.574275
1533.040129,-3983.696590,4811.338623,9178.553681
1533.040448,-3983.696590,4959.379811,8956.491898
1533.040767,-3217.601092,5255.462188,8882.471304
1533.041086,-3064.381992,4959.379811,8808.450710
1533.041405,-2834.553343,4663.297435,9104.533087
1533.041724,-2451.505594,4293.194464,9474.636058
1533.042043,-2221.676944,4071.132681,9548.656652
1533.042361,-1915.238745,4145.153275,9326.594869
1533.042680,-2145.067394,4515.256246,9030.512492
1533.042999,-1532.190996,4811.338623,8734.430116
1533.043318,-1378.971896,5551.544565,8290.306550
1533.043637,-1838.629195,5107.421000,8216.285956
1533.043956,-2298.286494,4737.318029,8734.430116
1533.044275,-2757.943793,4219.173869,9474.636058
1533.044594,-3064.381992,3034.844362,9918.759623
1533.044913,-3600.648841,2368.659014,10436.903782
1533.045232,-3907.087040,2442.679609,10436.903782
1533.045551,-3217.601092,3034.844362,10140.821405
1533.045869,-1915.238745,3627.009116,9770.718434
1533.046188,-1149.143247,3923.091493,9326.594869
1533.046507,76.609550,4811.338623,8512.368333
1533.046826,689.485948,4589.276840,7698.141797
1533.047145,459.657299,3923.091493,7772.162391
1533.047464,-612.876398,2886.803174,8216.285956
1533.047783,-842.705048,2368.659014,8290.306550
1533.048102,-1302.362347,2072.576638,8734.430116
1533.048421,-842.705048,2072.576638,9400.615463
1533.048740,-1072.533697,2886.803174,8808.450710
1533.049059,153.219100,3108.864956,9104.533087
1533.049377,-919.314598,2738.761985,9104.533087
1533.049696,-1072.533697,2590.720797,9474.636058
1533.050015,-2221.676944,1036.288319,10436.903782
1533.050334,-2528.115143,148.041188,11695.253884
1533.050653,-2221.676944,222.061783,12065.356855
1533.050972,-1455.581446,962.267725,11177.109724
1533.051291,-229.828649,1776.494261,9918.759623
1533.051610,229.828649,1998.556043,9252.574275
1533.051929,536.266849,1924.535449,8586.388927
1533.052248,0.000000,1702.473667,8216.285956
1533.052567,0.000000,1332.370696,8734.430116
1533.052885,-766.095498,1924.535449,8364.327145
1533.053204,-995.924147,1628.453072,8586.388927
1533.053523,-1991.848295,518.144159,9178.553681
1533.053842,-2528.115143,-740.205942,10140.821405
1533.054161,-2451.505594,-1332.370696,10955.047942
1533.054480,-3064.381992,-888.247130,11473.192101
1533.054799,-2757.943793,-592.164754,11251.130318
1533.055118,-2681.334243,518.144159,10288.862594
1533.055437,-2451.505594,1110.308913,9770.718434
1533.055756,-1608.800546,1480.411884,8882.471304
1533.056075,-1455.581446,2220.617826,8290.306550
1533.056393,-689.485948,3330.926739,7920.203579
1533.056712,-1149.143247,3478.967927,7179.997637
1533.057031,-1149.143247,2960.823768,7550.100608
1533.057350,-1838.629195,1480.411884,8586.388927
1533.057669,-1915.238745,1110.308913,8734.430116
1533.057988,-2068.457845,2072.576638,7920.203579
1533.058307,-2145.067394,2886.803174,7402.059420
1533.058625,-1762.019645,3182.885551,7920.203579
1533.058944,-1991.848295,2960.823768,8734.430116
1533.059263,-2757.943793,2590.720797,8808.450710
1533.059582,-2145.067394,3701.029710,8068.244768
1533.059901,-1685.410096,3923.091493,8216.285956
1533.060220,-1455.581446,3701.029710,8660.409521
1533.060538,-1072.533697,2738.761985,9178.553681
1533.060857,-1455.581446,2960.823768,8290.306550
1533.061176,-842.705048,3108.864956,8364.327145
1533.061495,459.657299,3923.091493,8142.265362
1533.061814,1149.143247,3849.070898,8512.368333
1533.062133,1762.019645,4071.132681,7328.038826
1533.062451,1455.581446,4663.297435,7402.059420
1533.062770,1072.533697,4589.276840,7179.997637
1533.063089,995.924147,3849.070898,8364.327145
1533.063408,229.828649,2664.741391,9770.718434
1533.063727,-1149.143247,2368.659014,9474.636058
1533.064046,-2604.724693,1776.494261,10140.821405
1533.064364,-3140.991542,1776.494261,10732.986159
1533.064683,-3524.039291,2664.741391,11399.171507
1533.065002,-3753.867940,2738.761985,10955.047942
1533.065321,-4213.525239,3997.112087,9992.780217
1533.065640,-4903.011187,3775.050304,10140.821405
1533.065959,-3907.087040,3034.844362,10955.047942
1533.066277,-4136.915689,2590.720797,11547.212695
1533.066596,-4290.134789,1702.473667,11547.212695
1533.066915,-3677.258390,1924.535449,11621.233289
1533.067234,-2757.943793,2738.761985,11251.130318
1533.067553,-1455.581446,2886.803174,10140.821405
1533.067872,-1532.190996,3997.112087,9770.718434
1533.068190,-536.266849,4367.215058,9474.636058
1533.068509,-689.485948,5033.400406,8068.244768
1533.068828,-995.924147,4515.256246,7624.121203
1533.069147,-766.095498,4589.276840,7698.141797
1533.069466,-2145.067394,4737.318029,8142.265362
1533.069785,-3217.601092,3552.988522,8734.430116
1533.070103,-3753.867940,2886.803174,9622.677246
1533.070422,-4366.744339,2960.823768,10510.924376
1533.070741,-4290.134789,2442.679609,11843.295072
1533.071060,-4519.963438,2220.617826,11769.274478
1533.071379,-4673.182538,1924.535449,12213.398043
1533.071698,-3447.429741,1850.514855,13323.706956
1533.072016,-1991.848295,2664.741391,11843.295072
1533.072335,-306.438199,2368.659014,10955.047942
1533.072654,459.657299,3330.926739,9696.697840
1533.072973,1838.629195,3701.029710,8142.265362
1533.073292,2374.896044,2812.782580,6439.791695
1533.073611,1302.362347,2590.720797,6069.688724
1533.073929,842.705048,2960.823768,6439.791695
1533.074248,459.657299,3182.885551,4441.235652
1533.074567,-3217.601092,4219.173869,5033.400406
1533.074886,-2604.724693,2368.659014,9104.533087
1533.075205,-4826.401637,2886.803174,9326.594869
1533.075524,-4366.744339,296.082377,11325.150913
1533.075842,-4443.353888,-1258.350101,13323.706956
1533.076161,-4366.744339,-148.041188,14804.118840
1533.076480,-1838.629195,-370.102971,13249.686362
1533.076799,-383.047749,1110.308913,11843.295072
1533.077118,1532.190996,1702.473667,10288.862594
1533.077437,3294.210641,4071.132681,7031.956449
1533.077755,3983.696590,6513.812290,2738.761985
1533.078074,3294.210641,6365.771101,1998.556043
1533.078393,1838.629195,6291.750507,888.247130
1533.078712,-1378.971896,4959.379811,2368.659014
1533.079031,-3753.867940,2516.700203,6661.853478
1533.079350,-6818.249932,1628.453072,7476.080014
1533.079668,-7660.954980,148.041188,12361.439231
1533.079987,-7124.688131,-1480.411884,13989.892304
1533.080306,-7124.688131,-1036.288319,13175.665768
1533.080625,-5592.497135,-2368.659014,17616.901420
1533.080944,-4366.744339,444.123565,15692.365970
1533.081263,-229.828649,2590.720797,11769.274478
1533.081582,2528.115143,5107.421000,9252.574275
1533.081900,2987.772442,3923.091493,6809.894666
1533.082219,4136.915689,4145.153275,3034.844362
1533.082538,3830.477490,5773.606348,814.226536
1533.082857,1762.019645,5033.400406,592.164754
1533.083176,-689.485948,4737.318029,1554.432478
1533.083495,-3064.381992,5329.482782,3997.112087
1533.083813,-5975.544884,2960.823768,8216.285956
1533.084132,-7890.783629,-0.000000,12805.562797
1533.084451,-8350.440928,-1480.411884,15248.242405
1533.084770,-7507.735880,-3108.864956,18209.066173
1533.085089,-6205.373534,-2146.597232,19393.395680
1533.085408,-4673.182538,-1110.308913,17542.880825
1533.085726,-1762.019645,-148.041188,15840.407159
1533.086045,2298.286494,2368.659014,13397.727550
1533.086364,4673.182538,3997.112087,7476.080014
1533.086683,6665.030833,6069.688724,1998.556043
1533.087002,6894.859482,8882.471304,-1628.453072
1533.087321,6435.202183,8734.430116,-2146.597232
1533.087639,3140.991542,7772.162391,-370.102971
1533.087958,-995.924147,4589.276840,2220.617826
1533.088277,-4903.011187,1110.308913,7031.956449
1533.088596,-7507.735880,-222.061783,10955.047942
1533.088915,-8503.660028,-3108.864956,16802.674883
1533.089234,-8810.098227,-5181.441594,20577.725188
1533.089552,-8810.098227,-5033.400406,22354.219448
1533.089871,-7201.297681,-2368.659014,21243.910535
1533.090190,-3600.648841,1184.329507,18135.045579
1533.090509,76.609550,4515.256246,14211.954086
1533.090828,3830.477490,6957.935855,9622.677246
1533.091147,6128.763984,9474.636058,1480.411884
1533.091465,7507.735880,10807.006753,-1850.514855
1533.091784,6281.983084,9474.636058,-3923.091493
1533.092103,4596.572988,7105.977043,-1406.391290
1533.092422,1532.190996,3997.112087,1776.494261
1533.092741,-2528.115143,1480.411884,4737.318029
1533.093060,-6205.373534,-1406.391290,11621.233289
1533.093378,-8197.221829,-3478.967927,16432.571912
1533.093697,-7124.688131,-3404.947333,18949.272115
1533.094016,-6205.373534,-2886.803174,21984.116477
1533.094335,-4213.525239,-444.123565,22798.343014
1533.094654,0.000000,1628.453072,18875.251521
1533.094973,4443.353888,3108.864956,14063.912898
1533.095291,7584.345430,2960.823768,9548.656652
1533.095610,10112.460574,4293.194464,2516.700203
1533.095929,10801.946522,5477.523971,-3775.050304
1533.096248,9806.022374,5921.647536,-4885.359217
1533.096567,8810.098227,3478.967927,-1110.308913
1533.096886,4519.963438,2738.761985,-1776.494261
1533.097204,842.705048,222.061783,4811.338623
1533.097523,-3830.477490,-3182.885551,11991.336260
1533.097842,-5362.668486,-4959.379811,17542.880825
1533.098161,-5669.106685,-7031.956449,20799.786970
1533.098480,-4443.353888,-8512.368333,24130.713709
1533.098799,-4596.572988,-7550.100608,25167.002028
1533.099117,-1072.533697,-8586.388927,22872.363608
1533.099436,2757.943793,-5255.462188,17320.819043
1533.099755,7124.688131,-962.267725,8808.450710
1533.100074,9116.536426,3034.844362,-592.164754
1533.100393,9652.803275,7105.977043,-6957.935855
1533.100712,7814.174080,5995.668130,-6809.894666
1533.101030,4443.353888,4071.132681,-4737.318029
1533.101349,-383.047749,814.226536,-1628.453072
1533.101668,-3370.820191,-4219.173869,6883.915261
1533.101987,-6971.469032,-7698.141797,12287.418637
1533.102306,-8656.879127,-9548.656652,16284.530724
1533.102625,-8733.488677,-11325.150913,19985.560434
1533.102943,-6281.983084,-9622.677246,24944.940245
1533.103262,-3907.087040,-4663.297435,23538.548956
1533.103581,842.705048,296.082377,17246.798449
1533.103900,3983.696590,2072.576638,13619.789333
1533.104219,7507.735880,5181.441594,8586.388927
1533.104538,8580.269578,7105.977043,-1258.350101
1533.104856,10112.460574,8438.347739,-7254.018232
1533.105175,7814.174080,7920.203579,-8512.368333
1533.105494,4673.182538,4071.132681,-6513.812290
1533.105813,-536.266849,1776.494261,-4737.318029
1533.106132,-4366.744339,-3404.947333,3552.988522
1533.106451,-6588.421283,-5995.668130,11991.336260
1533.106769,-8503.660028,-7179.997637,16654.633695
1533.107088,-7201.297681,-9992.780217,20355.663405
1533.107407,-7431.126331,-7328.038826,24278.754898
1533.107726,-4060.306139,-5477.523971,24500.816680
1533.108045,-1072.533697,-1184.329507,17468.860231
1533.108364,4673.182538,4071.132681,16580.613101
1533.108682,8197.221829,6069.688724,7254.018232
1533.109001,11184.994271,11695.253884,-4959.379811
1533.109320,11721.261119,11769.274478,-8956.491898
1533.109639,9193.145976,9844.739029,-6291.750507
1533.109958,4366.744339,5551.544565,-6661.853478
1533.110277,-689.485948,4071.132681,-3478.967927
1533.110595,-6435.202183,-2590.720797,6069.688724
1533.110914,-9193.145976,-5477.523971,16654.633695
1533.111233,-9576.193725,-6217.729913,19023.292709
1533.111552,-10342.289223,-9252.574275,22576.281231
1533.111871,-6358.592633,-5995.668130,29830.299463
1533.112190,-4290.134789,-2960.823768,29534.217086
1533.112508,842.705048,3256.906145,19985.560434
1533.112827,5975.544884,5921.647536,16210.510130
1533.113146,8963.317327,4737.318029,9326.594869
1533.113465,12027.699319,8290.306550,-1702.473667
1533.113784,12640.575717,12287.418637,-10510.924376
1533.114103,11108.384721,10955.047942,-10214.842000
1533.114421,8350.440928,7254.018232,-6883.915261
1533.114740,2451.505594,7105.977043,-3330.926739
1533.115059,-4749.792088,-0.000000,4219.173869
1533.115378,-9959.241474,-5625.565159,16580.613101
1533.115697,-11031.775171,-8734.430116,22280.198854
1533.116016,-10955.165621,-9696.697840,23390.507767
1533.116334,-10725.336972,-11843.295072,31236.690752
1533.116653,-7201.297681,-7698.141797,33161.226202
1533.116972,-3294.210641,222.061783,21836.075289
1533.117291,3830.477490,4737.318029,18061.024985
1533.117610,8044.002729,5477.523971,14582.057057
1533.117929,11261.603821,12509.480420,518.144159
1533.118247,13253.452115,11991.336260,-10807.006753
1533.118566,12257.527968,11547.212695,-7920.203579
1533.118885,7737.564530,3404.947333,-8512.368333
1533.119204,2528.115143,2960.823768,-6365.771101
1533.119523,-2987.772442,-2072.576638,4367.215058
1533.119842,-8810.098227,-8882.471304,13619.789333
1533.120160,-9806.022374,-9326.594869,20281.642811
1533.120479,-9882.631924,-11103.089130,21465.972318
1533.120798,-9576.193725,-12731.542202,26055.249158
1533.121117,-7660.954980,-11399.171507,30940.608376
1533.121436,-3447.429741,-1406.391290,23982.672521
1533.121755,4443.353888,2812.782580,17690.922014
1533.122073,9499.584175,370.102971,11325.150913
1533.122392,11644.651570,4441.235652,-296.082377
1533.122711,12947.013916,9696.697840,-11177.109724
1533.123030,15092.081311,9178.553681,-14063.912898
1533.123349,11797.870669,6957.935855,-12953.603985
1533.123668,5132.839837,3997.112087,-8142.265362
1533.123986,-3217.601092,-2368.659014,1776.494261
1533.124305,-8044.002729,-8882.471304,14063.912898
1533.124624,-9806.022374,-11843.295072,18431.127956
1533.124943,-10878.556072,-13249.686362,16876.695478
1533.125262,-9959.241474,-12213.398043,25389.063811
1533.125581,-6818.249932,-10510.924376,33827.411549
1533.125899,-2298.286494,-2442.679609,23094.425390
1533.126218,5669.106685,4737.318029,15840.407159
1533.126537,12257.527968,6809.894666,12731.542202
1533.126856,12870.404366,6809.894666,-518.144159
1533.127175,14555.814462,9548.656652,-11177.109724
1533.127494,14938.862211,11103.089130,-11029.068536
1533.127812,11184.994271,6587.832884,-15914.427753
1533.128131,5822.325785,4515.256246,-11695.253884
1533.128450,-1762.019645,-1406.391290,814.226536
1533.128769,-8350.440928,-7105.977043,10807.006753
1533.129088,-10495.508323,-11917.315666,18209.066173
1533.129407,-10801.946522,-11917.315666,17172.777854
1533.129725,-10955.165621,-14211.954086,23168.445985
1533.130044,-9193.145976,-12583.501014,32495.040854
1533.130363,-6818.249932,-2294.638420,28719.990550
1533.130682,1302.362347,1480.411884,21614.013506
1533.131001,8044.002729,5033.400406,17690.922014
1533.131320,12180.918418,11029.068536,3849.070898
1533.131638,13636.499864,14582.057057,-10140.821405
1533.131957,13713.109414,12583.501014,-10732.986159
1533.132276,7890.783629,7550.100608,-10658.965565
1533.132595,2911.162892,1924.535449,-10362.883188
1533.132914,-2451.505594,-814.226536,-592.164754
1533.133233,-8427.050478,-8438.347739,11843.295072
1533.133551,-11414.822920,-7994.224174,18949.272115
1533.133870,-11568.042020,-10362.883188,20799.786970
1533.134189,-12870.404366,-12657.521608,24352.775492
1533.134508,-12793.794817,-17246.798449,37528.441259
1533.134827,-7507.735880,-2220.617826,31532.773129
1533.135146,-612.876398,7105.977043,18801.230927
1533.135464,7507.735880,7698.141797,17468.860231
1533.135783,11951.089769,9770.718434,9178.553681
1533.136102,15781.567259,14804.118840,-6883.915261
1533.136421,16624.272307,15988.448347,-14582.057057
1533.136740,13942.938064,12139.377449,-11399.171507
1533.137059,7584.345430,8512.368333,-10881.027347
1533.137377,2451.505594,2664.741391,-4367.215058
1533.137696,-5439.278036,-1332.370696,9622.677246
1533.138015,-9806.022374,-9474.636058,19097.313304
1533.138334,-10035.851024,-9474.636058,23612.569550
1533.138653,-12257.527968,-12509.480420,21021.848753
1533.138972,-11184.994271,-10288.862594,30126.381839
1533.139290,-8503.660028,-5773.606348,33531.329173
1533.139609,-1302.362347,4959.379811,22650.301825
1533.139928,6971.469032,8142.265362,19467.416275
1533.140247,15015.471761,11991.336260,12805.562797
1533.140566,16241.224558,11917.315666,-6365.771101
1533.140885,20684.578446,14285.974681,-15100.201217
1533.141203,18079.853753,12065.356855,-11177.109724
1533.141522,9882.631924,5551.544565,-16136.489536
1533.141841,3064.381992,1850.514855,-6513.812290
1533.142160,-3064.381992,-2960.823768,6735.874072
1533.142479,-9039.926876,-8586.388927,14804.118840
1533.142798,-11338.213370,-10881.027347,20207.622217
1533.143116,-13023.623466,-13767.830521,18357.107362
1533.143435,-14709.033562,-17764.942608,29386.175897
1533.143754,-12027.699319,-19245.354492,40415.244433
1533.144073,-7967.393179,-3256.906145,25537.104999
1533.144392,2451.505594,8216.285956,21465.972318
1533.144711,11108.384721,12213.398043,15100.201217
1533.145029,14709.033562,9474.636058,1998.556043
1533.145348,15321.909960,14211.954086,-11547.212695
1533.145667,18156.463303,13989.892304,-7328.038826
1533.145986,9499.584175,9696.697840,-21539.992912
1533.146305,3600.648841,2072.576638,-13989.892304
1533.146624,-1455.581446,-3256.906145,5995.668130
1533.146942,-9039.926876,-9474.636058,12731.542202
1533.147261,-11644.651570,-14434.015869,18949.272115
1533.147580,-11951.089769,-11547.212695,14878.139434
1533.147899,-14172.766713,-17024.736666,20799.786970
1533.148218,-14632.424012,-20059.581028,31532.773129
1533.148537,-10189.070123,-6661.853478,32124.937883
1533.148855,-2298.286494,7254.018232,20355.663405
1533.149174,8656.879127,10066.800811,16210.510130
1533.149493,13483.280765,11029.068536,4663.297435
1533.149812,15321.909960,13397.727550,-10066.800811
1533.150131,16164.615008,12953.603985,-11843.295072
1533.150450,12793.794817,13027.624579,-17616.901420
1533.150768,4826.401637,6365.771101,-17098.757260
1533.151087,-1685.410096,-3552.988522,74.020594
1533.151406,-6741.640382,-1702.473667,10436.903782
1533.151725,-9959.241474,-11843.295072,15988.448347
1533.152044,-12717.185267,-11547.212695,13175.665768
1533.152363,-15321.909960,-18727.210333,18949.272115
1533.152681,-14862.252661,-20503.704593,34715.658680
1533.153000,-10265.679673,-9474.636058,33531.329173
1533.153319,-3677.258390,6809.894666,20355.663405
1533.153638,9039.926876,11103.089130,19393.395680
1533.153957,15628.348159,12953.603985,9770.718434
1533.154276,19075.777900,13397.727550,-5921.647536
1533.154594,18233.072852,18061.024985,-11473.192101
1533.154913,18539.511052,12065.356855,-15100.201217
1533.155232,10878.556072,9104.533087,-17690.922014
1533.155551,4979.620737,2220.617826,-4367.215058
1533.155870,-4060.306139,-4145.153275,4885.359217
1533.156189,-7890.783629,-4737.318029,14211.954086
1533.156507,-8427.050478,-6143.709319,18357.107362
1533.156826,-12180.918418,-13249.686362,15988.448347
1533.157145,-15551.738609,-21762.054695,23982.672521
1533.157464,-13023.623466,-15544.324782,35677.926404
1533.157783,-9806.022374,-518.144159,27535.661042
1533.158102,612.876398,7698.141797,20503.704593
1533.158420,12640.575717,13619.789333,15618.345376
1533.158739,17083.929605,18135.045579,4811.338623
1533.159058,18156.463303,21614.013506,-15914.427753
1533.159377,18309.682402,19911.539840,-10288.862594
1533.159695,10342.289223,13545.768739,-15026.180623
1533.160014,2528.115143,4885.359217,-8660.409521
1533.160333,-3983.696590,-1036.288319,4589.276840
1533.160651,-9576.193725,-6809.894666,16062.468941
1533.160970,-13483.280765,-10658.965565,15988.448347
1533.161289,-15628.348159,-13693.809927,18579.169144
1533.161607,-16011.395908,-18949.272115,23908.651927
1533.161926,-20531.359346,-19319.375086,31236.690752
1533.162244,-13253.452115,-8142.265362,39304.935520
1533.162563,-5056.230287,9918.759623,23094.425390
1533.162882,6052.154434,11695.253884,16728.654289
1533.163200,12180.918418,12139.377449,7179.997637
1533.163519,17160.539155,16580.613101,-6735.874072
1533.163838,18079.853753,18283.086767,-14730.098246
1533.164156,17850.025103,16728.654289,-15248.242405
1533.164475,11414.822920,8882.471304,-17542.880825
1533.164794,1838.629195,3775.050304,-8660.409521
1533.165112,-6818.249932,-4441.235652,11547.212695
1533.165431,-8886.707777,-13397.727550,15544.324782
1533.165749,-10801.946522,-7328.038826,14730.098246
1533.166068,-11874.480219,-14804.118840,22724.322419
1533.166387,-15551.738609,-25018.960840,26869.475695
1533.166705,-15628.348159,-16950.716072,31162.670158
1533.167024,-9116.536426,-0.000000,30792.567187
1533.167343,-612.876398,5329.482782,24796.899057
1533.167661,13023.623466,17468.860231,15396.283594
1533.167980,14862.252661,20577.725188,-3997.112087
1533.168299,19612.044749,19837.519246,-5699.585753
1533.168617,22523.207641,18061.024985,-16950.716072
1533.168936,17850.025103,15766.386565,-20947.828159
1533.169254,8963.317327,2294.638420,-7402.059420
1533.169573,-2604.724693,-3701.029710,2960.823768
1533.169892,-6205.373534,-17172.777854,11251.130318
1533.170210,-10801.946522,-7179.997637,16210.510130
1533.170529,-9193.145976,-11843.295072,20799.786970
1533.170848,-13023.623466,-25907.207970,21243.910535
1533.171166,-12410.747068,-20873.807564,24648.857869
1533.171485,-6511.811733,-2886.803174,34123.493926
1533.171804,-3064.381992,7846.182985,24056.693115
1533.172122,9116.536426,11473.192101,15840.407159
1533.172441,16624.272307,14582.057057,9252.574275
1533.172759,14709.033562,16062.468941,1110.308913
1533.173078,17083.929605,19985.560434,-20133.601622
1533.173397,20531.359346,20725.766376,-26055.249158
1533.173715,13100.233016,7179.997637,-6883.915261
1533.174034,1915.238745,-0.000000,-4441.235652
1533.174353,-6818.249932,-12065.356855,2220.617826
1533.174671,-12257.527968,-12361.439231,16136.489536
1533.174990,-13100.233016,-16802.674883,23316.487173
1533.175309,-17237.148705,-19245.354492,15988.448347
1533.175627,-19305.606550,-30496.484810,24722.878463
1533.175946,-16624.272307,-20133.601622,36418.132346
1533.176264,-9116.536426,2442.679609,28349.887579
1533.176583,76.609550,10066.800811,22354.219448
1533.176902,11721.261119,21836.075289,7624.121203
1533.177220,16088.005458,18135.045579,1998.556043
1533.177539,17620.196454,28645.969955,-7772.162391
1533.177858,15321.909960,21317.931130,-15026.180623
1533.178176,14938.862211,10955.047942,-9696.697840
1533.178495,4136.915689,-4589.276840,-8586.388927
1533.178814,-5515.887586,-4737.318029,814.226536
1533.179132,-7737.564530,-19985.560434,21391.951724
1533.179451,-15015.471761,-16284.530724,19023.292709
1533.179769,-9652.803275,-16580.613101,20429.683999
1533.180088,-11644.651570,-23686.590144,23982.672521
1533.180407,-17696.806004,-22576.281231,26055.249158
1533.180725,-13559.890315,-5107.421000,23686.590144
1533.181044,-2681.334243,2368.659014,27313.599260
1533.181363,7048.078582,14508.036463,20281.642811
1533.181681,15934.786358,20873.807564,-1702.473667
1533.182000,17160.539155,21762.054695,-592.164754
1533.182319,21374.064394,26055.249158,-11325.150913
1533.182637,16088.005458,22650.301825,-20725.766376
1533.182956,13636.499864,7328.038826,-3775.050304
1533.183274,-1225.752797,148.041188,444.123565
1533.183593,-7124.688131,-14582.057057,9770.718434
1533.183912,-13253.452115,-10732.986159,19393.395680
1533.184230,-8963.317327,-11843.295072,24574.837274
1533.184549,-15245.300410,-14878.139434,16580.613101
1533.184868,-13330.061665,-19689.478057,25092.981434
1533.185186,-12257.527968,-10214.842000,32198.958477
1533.185505,-6128.763984,12435.459826,25463.084405
1533.185824,3140.991542,15100.201217,18653.189738
1533.186142,13176.842566,21984.116477,9696.697840
1533.186461,15628.348159,16950.716072,4071.132681
1533.186780,19382.216099,18727.210333,-7105.977043
1533.187098,18386.291952,20503.704593,-19319.375086
1533.187417,16394.443657,14656.077652,-10436.903782
1533.187735,6894.859482,2368.659014,-5107.421000
1533.188054,-3370.820191,-3701.029710,-1628.453072
1533.188373,-7660.954980,-15692.365970,14211.954086
1533.188691,-15168.690860,-15840.407159,22576.281231
1533.189010,-13636.499864,-14063.912898,17172.777854
1533.189329,-17696.806004,-27165.558071,17024.736666
1533.189647,-20148.311597,-28349.887579,29312.155303
1533.189966,-14709.033562,-7179.997637,29016.072926
1533.190285,-5745.716235,6883.915261,25537.104999
1533.190603,5132.839837,11103.089130,17542.880825
1533.190922,13789.718964,23760.610738,1110.308913
1533.191240,18845.949251,21762.054695,-2886.803174
1533.191559,18845.949251,23538.548956,-12805.562797
1533.191878,17850.025103,17394.839637,-19171.333898
1533.192196,13789.718964,5181.441594,-6069.688724
1533.192515,-612.876398,-888.247130,-296.082377
1533.192834,-7354.516781,-15618.345376,2368.659014
1533.193152,-8273.831378,-20355.663405,17987.004391
1533.193471,-11261.603821,-12213.398043,19837.519246
1533.193790,-10648.727422,-23612.569550,20503.704593
1533.194108,-15628.348159,-26795.455100,21836.075289
1533.194427,-14632.424012,-16950.716072,28423.908173
1533.194745,-5975.544884,-1184.329507,27387.619854
1533.195064,-1838.629195,9844.739029,18949.272115
1533.195383,10955.165621,20799.786970,7846.182985
1533.195701,15475.129060,12953.603985,5107.421000
1533.196020,18922.558801,19911.539840,-10510.924376
1533.196339,21986.940793,20799.786970,-18283.086767
1533.196657,18156.463303,13619.789333,-12509.480420
1533.196976,6128.763984,-1776.494261,-11103.089130
1533.197295,-2604.724693,-19689.478057,4071.132681
1533.197613,-7507.735880,-12953.603985,20873.807564
1533.197932,-14096.157163,-8734.430116,15174.221811
1533.198250,-8886.707777,-14137.933492,14878.139434
1533.198569,-12487.356617,-22946.384202,20799.786970
1533.198888,-12640.575717,-20281.642811,33679.370361
1533.199206,-11644.651570,-1850.514855,26647.413912
1533.199525,-919.314598,7476.080014,20429.683999
1533.199844,6894.859482,13693.809927,14508.036463
1533.200162,13483.280765,23242.466579,4219.173869
1533.200481,15781.567259,11991.336260,-1850.514855
1533.200800,18769.339701,19837.519246,-9770.718434
1533.201118,16777.491406,17764.942608,-18431.127956
1533.201437,12410.747068,6883.915261,-12953.603985
1533.201755,-995.924147,-1110.308913,-2886.803174
1533.202074,-4213.525239,-16358.551318,13545.768739
1533.202393,-12104.308868,-11103.089130,12583.501014
1533.202711,-9729.412825,-12361.439231,23094.425390
1533.203030,-10801.946522,-18949.272115,17320.819043
1533.203349,-14402.595362,-25092.981434,25685.146187
1533.203667,-10342.289223,-11029.068536,30866.587781
1533.203986,-4903.011187,2368.659014,28571.949361
1533.204305,2451.505594,8956.491898,22354.219448
1533.204623,13253.452115,23834.631332,8734.430116
1533.204942,16088.005458,19245.354492,-1924.535449
1533.205260,16624.272307,20133.601622,-8216.285956
1533.205579,17390.367805,22798.343014,-14804.118840
1533.205898,15015.471761,10510.924376,-8142.265362
1533.206216,3830.477490,-2072.576638,-4071.132681
1533.206535,-5898.935335,-8956.491898,8216.285956
1533.206854,-11568.042020,-13989.892304,15396.283594
1533.207172,-14709.033562,-16580.613101,22280.198854
1533.207491,-11797.870669,-16580.613101,23094.425390
1533.207810,-16624.272307,-24500.816680,24130.713709
1533.208128,-17390.367805,-19837.519246,27239.578666
1533.208447,-9346.365076,3923.091493,29238.134709
1533.208765,-612.876398,11621.233289,20281.642811
1533.209084,9882.631924,18209.066173,7698.141797
1533.209403,16241.224558,15174.221811,5551.544565
1533.209721,15015.471761,16950.716072,-4515.256246
1533.210040,16777.491406,19985.560434,-11473.192101
1533.210359,14709.033562,15766.386565,-18653.189738
1533.210677,7814.174080,7476.080014,-7772.162391
1533.210996,-2604.724693,-0.000000,3034.844362
1533.211315,-9269.755526,-16506.592507,12879.583391
1533.211633,-12563.966167,-14063.912898,16580.613101
1533.211952,-10725.336972,-8956.491898,16876.695478
1533.212270,-12334.137518,-21836.075289,19541.436869
1533.212589,-15398.519510,-25167.002028,23020.404796
1533.212908,-13559.890315,-7476.080014,27535.661042
1533.213226,-5745.716235,1702.473667,26055.249158
1533.213545,4979.620737,10732.986159,21391.951724
1533.213864,16394.443657,17468.860231,4663.297435
1533.214182,15168.690860,17024.736666,2664.741391
1533.214501,21374.064394,19097.313304,-7031.956449
1533.214820,20607.968896,20281.642811,-22428.240043
1533.215138,19535.435199,13397.727550,-14878.139434
1533.215457,2987.772442,-6587.832884,1332.370696
1533.215775,-3830.477490,-10066.800811,2886.803174
1533.216094,-7124.688131,-12287.418637,10436.903782
1533.216413,-9959.241474,-9326.594869,19541.436869
1533.216731,-8810.098227,-16876.695478,18209.066173
1533.217050,-10955.165621,-27905.764013,24944.940245
1533.217369,-13713.109414,-22946.384202,24870.919651
1533.217687,-9959.241474,-3034.844362,23686.590144
1533.218006,-1991.848295,1480.411884,26351.331535
1533.218325,8273.831378,8956.491898,15766.386565
1533.218643,14709.033562,18061.024985,1998.556043
1533.218962,19918.482948,12879.583391,-5033.400406
1533.219280,17466.977354,22798.343014,-15766.386565
1533.219599,21220.845295,20429.683999,-20947.828159
1533.219918,7431.126331,2812.782580,-3997.112087
1533.220236,-306.438199,-7698.141797,1184.329507
1533.220555,-6435.202183,-16950.716072,10510.924376
1533.220874,-11491.432470,-7920.203579,15174.221811
1533.221192,-13023.623466,-17394.839637,21391.951724
1533.221511,-16088.005458,-21317.931130,16580.613101
1533.221830,-16624.272307,-26795.455100,27683.702231
1533.222148,-12487.356617,-13693.809927,28127.825796
1533.222467,-7814.174080,3849.070898,24796.899057
1533.222785,2068.457845,13175.665768,19541.436869
1533.223104,10342.289223,22650.301825,2072.576638
1533.223423,14172.766713,14730.098246,6661.853478
1533.223741,17160.539155,18505.148550,-10066.800811
1533.224060,12947.013916,21762.054695,-20873.807564
1533.224379,17850.025103,15544.324782,-10214.842000
1533.224697,1532.190996,-3923.091493,-6735.874072
1533.225016,-5286.058936,-9326.594869,592.164754
1533.225335,-9499.584175,-15100.201217,20503.704593
1533.225653,-14172.766713,-11991.336260,21539.992912
1533.225972,-11184.994271,-15914.427753,15988.448347
1533.226290,-14325.985813,-22650.301825,21317.931130
1533.226609,-16547.662757,-21614.013506,33531.329173
1533.226928,-10189.070123,-1110.308913,26795.455100
1533.227246,-919.314598,4145.153275,22058.137072
1533.227565,8273.831378,18949.272115,16580.613101
1533.227884,17160.539155,18209.066173,370.102971
1533.228202,18309.682402,19689.478057,-5107.421000
1533.228521,21757.112143,20577.725188,-9474.636058
1533.228840,17466.977354,19245.354492,-19763.498651
1533.229158,12180.918418,5107.421000,-4885.359217
1533.229477,-766.095498,-518.144159,2220.617826
1533.229795,-4366.744339,-13545.768739,9252.574275
1533.230114,-9039.926876,-10510.924376,18357.107362
1533.230433,-9806.022374,-10881.027347,24648.857869
1533.230751,-11568.042020,-25463.084405,20873.807564
1533.231070,-14555.814462,-28127.825796,27757.722825
1533.231389,-10572.117872,-12731.542202,24204.734303
1533.231707,-5056.230287,4441.235652,28868.031738
1533.232026,3294.210641,13101.645173,21243.910535
1533.232345,13559.890315,22206.178260,3404.947333
1533.232663,16700.881856,20281.642811,6069.688724
1533.232982,20684.578446,22058.137072,-9992.780217
1533.233300,18003.244203,21614.013506,-21391.951724
1533.233619,19075.777900,15026.180623,-9104.533087
1533.233938,2451.505594,-3330.926739,-2368.659014
1533.234256,-5745.716235,-15988.448347,5847.626942
1533.234575,-10955.165621,-17172.777854,20207.622217
1533.234894,-16624.272307,-15248.242405,19319.375086
1533.235212,-12027.699319,-21688.034101,20281.642811
1533.235531,-17160.539155,-22576.281231,22132.157666
1533.235850,-14862.252661,-20651.745782,29016.072926
1533.236168,-12410.747068,3182.885551,25611.125593
1533.236487,-1225.752797,6735.874072,22058.137072
1533.236805,5286.058936,15988.448347,13397.727550
1533.237124,12640.575717,21539.992912,0.000000
1533.237443,17466.977354,16432.571912,-3108.864956
1533.237761,18692.730151,23316.487173,-14137.933492
1533.238080,17926.634653,21243.910535,-23686.590144
1533.238399,10572.117872,1110.308913,-888.247130
1533.238717,-2681.334243,-5921.647536,1628.453072
1533.239036,-5898.935335,-16284.530724,9326.594869
1533.239355,-13406.671215,-13175.665768,13471.748144
1533.239673,-11491.432470,-14359.995275,22132.157666
1533.239992,-11414.822920,-23612.569550,20503.704593
1533.240310,-17926.634653,-21465.972318,22872.363608
1533.240629,-14632.424012,-13027.624579,21095.869347
1533.240948,-5745.716235,2738.761985,30422.464216
1533.241266,1455.581446,12509.480420,19985.560434
1533.241585,11491.432470,24204.734303,3849.070898
1533.241904,15704.957709,19319.375086,3256.906145
1533.242222,19075.777900,21836.075289,-10732.986159
1533.242541,16394.443657,20799.786970,-19689.478057
1533.242860,16854.100956,11843.295072,-3627.009116
1533.243178,3294.210641,-7328.038826,-4737.318029
1533.243497,-6818.249932,-11917.315666,-3923.091493
1533.243815,-8120.612279,-14952.160028,21021.848753
1533.244134,-11568.042020,-10955.047942,23760.610738
1533.244453,-7507.735880,-10658.965565,16654.633695
1533.244771,-9116.536426,-21391.951724,18505.148550
1533.245090,-11338.213370,-17764.942608,30866.587781
1533.245409,-5822.325785,1110.308913,26055.249158
1533.245727,919.314598,7105.977043,18653.189738
1533.246046,12410.747068,16654.633695,11473.192101
1533.246365,15475.129060,16358.551318,4145.153275
1533.246683,18922.558801,16358.551318,-5033.400406
1533.247002,16930.710506,21762.054695,-15396.283594
1533.247320,19535.435199,14878.139434,-15100.201217
1533.247639,8273.831378,5033.400406,-6661.853478
1533.247958,-1072.533697,-6439.791695,444.123565
1533.248276,-5745.716235,-14952.160028,12213.398043
1533.248595,-13483.280765,-8956.491898,18283.086767
1533.248914,-12487.356617,-15470.304188,22132.157666
1533.249232,-17696.806004,-19023.292709,16580.613101
1533.249551,-16164.615008,-23686.590144,26055.249158
1533.249870,-12410.747068,-3849.070898,27979.784608
1533.250188,-6665.030833,6217.729913,28719.990550
1533.250507,4443.353888,18135.045579,21243.910535
1533.250825,14249.376263,22502.260637,4737.318029
1533.251144,15245.300410,15248.242405,2072.576638
1533.251463,15015.471761,18579.169144,-7698.141797
1533.251781,14938.862211,17987.004391,-17690.922014
1533.252100,11644.651570,7328.038826,-4737.318029
1533.252419,766.095498,-3330.926739,-370.102971
1533.252737,-5669.106685,-4145.153275,3182.885551
1533.253056,-10342.289223,-14211.954086,17172.777854
1533.253375,-12487.356617,-16284.530724,23982.672521
1533.253693,-12947.013916,-15396.283594,18949.272115
1533.254012,-14402.595362,-22798.343014,25167.002028
1533.254330,-18079.853753,-22576.281231,25685.146187
1533.254649,-9882.631924,1702.473667,24796.899057
1533.254968,-2451.505594,5181.441594,23168.445985
1533.255286,5822.325785,13101.645173,14878.139434
1533.255605,18616.120601,18949.272115,-222.061783
1533.255924,18233.072852,22872.363608,-7624.121203
1533.256242,19535.435199,23760.610738,-9400.615463
1533.256561,17696.806004,15914.427753,-10214.842000
1533.256880,9269.755526,5329.482782,-8956.491898
1533.257198,-4213.525239,-3256.906145,1110.308913
1533.257517,-7124.688131,-20133.601622,14656.077652
1533.257835,-12870.404366,-10955.047942,13767.830521
1533.258154,-8427.050478,-10288.862594,19467.416275
1533.258473,-12563.966167,-15914.427753,15840.407159
1533.258791,-16011.395908,-19615.457463,24648.857869
1533.259110,-12870.404366,-8734.430116,27091.537477
1533.259429,-3524.039291,4293.194464,27905.764013
1533.259747,4366.744339,13915.871710,18505.148550
1533.260066,16241.224558,20799.786970,2368.659014
1533.260385,15168.690860,16062.468941,2146.597232
1533.260703,22523.207641,16580.613101,-6439.791695
1533.261022,19612.044749,20503.704593,-22872.363608
1533.261341,18156.463303,12805.562797,-13027.624579
1533.261659,3677.258390,-2294.638420,-2072.576638
1533.261978,-2298.286494,-9400.615463,-222.061783
1533.262297,-6435.202183,-11473.192101,13101.645173
1533.262615,-12640.575717,-10658.965565,21465.972318
1533.262934,-12257.527968,-15840.407159,17912.983796
1533.263253,-17007.320056,-28868.031738,21021.848753
1533.263572,-17313.758255,-22206.178260,29682.258274
1533.263890,-12257.527968,1998.556043,28275.866984
1533.264209,-4519.963438,2072.576638,23316.487173
1533.264528,7354.516781,16802.674883,11547.212695
1533.264847,14555.814462,23686.590144,962.267725
1533.265165,14019.547613,17987.004391,-5255.462188
1533.265484,16777.491406,18653.189738,-10510.924376
1533.265803,13713.109414,16876.695478,-11991.336260
1533.266121,9882.631924,1998.556043,-6735.874072
1533.266440,-4903.011187,-8808.450710,-1628.453072
1533.266759,-8044.002729,-16580.613101,14211.954086
1533.267078,-15628.348159,-13249.686362,14359.995275
1533.267396,-11644.651570,-17468.860231,20577.725188
1533.267715,-13483.280765,-24426.796086,23020.404796
1533.268034,-14709.033562,-21021.848753,24944.940245
1533.268353,-14785.643111,-11769.274478,18949.272115
1533.268671,-3677.258390,6217.729913,26795.455100
1533.268990,2221.676944,11843.295072,23094.425390
1533.269309,13713.109414,21317.931130,3849.070898
1533.269627,16700.881856,12139.377449,8734.430116
1533.269946,22063.550342,20873.807564,-8364.327145
1533.270265,18999.168350,22058.137072,-22872.363608
1533.270584,18539.511052,8660.409521,-3701.029710
1533.270902,766.095498,-6587.832884,-7550.100608
1533.271221,-2681.334243,-15322.262999,9326.594869
1533.271540,-9882.631924,-12583.501014,18875.251521
1533.271859,-12257.527968,-6735.874072,20873.807564
1533.272177,-8503.660028,-16654.633695,15692.365970
1533.272496,-16547.662757,-22576.281231,20059.581028
1533.272815,-12870.404366,-15322.262999,27757.722825
1533.273133,-9806.022374,3478.967927,29460.196492
1533.273452,-1378.971896,6439.791695,22206.178260
1533.273771,11644.651570,22132.157666,9622.677246
1533.274090,18462.901502,20873.807564,4367.215058
1533.274408,17160.539155,14211.954086,-1480.411884
1533.274727,19765.263848,18283.086767,-11325.150913
1533.275046,18003.244203,14878.139434,-15470.304188
1533.275365,10801.946522,6143.709319,-7031.956449
1533.275683,-2298.286494,1184.329507,-2442.679609
1533.276002,-3983.696590,-13545.768739,12213.398043
1533.276321,-10572.117872,-9474.636058,16062.468941
1533.276639,-8733.488677,-9474.636058,21910.095883
1533.276958,-14402.595362,-22946.384202,18579.169144
1533.277277,-16088.005458,-28794.011144,27831.743419
1533.277596,-13789.718964,-6439.791695,24426.796086
1533.277914,-6128.763984,1850.514855,28942.052332
1533.278233,2068.457845,9104.533087,20947.828159
1533.278552,15398.519510,18727.210333,3478.967927
1533.278871,15628.348159,19837.519246,0.000000
1533.279189,17543.586904,20429.683999,-9178.553681
1533.279508,16854.100956,18135.045579,-17987.004391
1533.279827,14172.766713,7328.038826,-9696.697840
1533.280145,0.000000,-5033.400406,-5107.421000
1533.280464,-7354.516781,-12139.377449,2886.803174
1533.280783,-12410.747068,-12583.501014,16358.551318
1533.281102,-15781.567259,-11917.315666,19467.416275
1533.281420,-15475.129060,-14730.098246,19911.539840
1533.281739,-17620.196454,-21910.095883,22872.363608
1533.282058,-18079.853753,-21762.054695,33605.349767
1533.282377,-12410.747068,2368.659014,24574.837274
1533.282695,-2451.505594,7624.121203,26055.249158
1533.283014,7277.907231,17172.777854,13027.624579
1533.283333,13636.499864,17172.777854,3330.926739
1533.283651,17850.025103,15840.407159,-1036.288319
1533.283970,19152.387450,23242.466579,-16506.592507
1533.284289,19458.825649,21762.054695,-19541.436869
1533.284608,11797.870669,3775.050304,-3330.926739
1533.284926,-2298.286494,-3701.029710,-3701.029710
1533.285245,-7431.126331,-17394.839637,5329.482782
1533.285564,-11874.480219,-15100.201217,17838.963202
1533.285882,-11414.822920,-12879.583391,16950.716072
1533.286201,-14632.424012,-25092.981434,21317.931130
1533.286520,-17390.367805,-25907.207970,28423.908173
1533.286839,-14402.595362,-12435.459826,24870.919651
1533.287157,-3907.087040,4515.256246,31828.855506
1533.287476,4136.915689,9400.615463,22428.240043
1533.287795,15551.738609,18949.272115,8290.306550
1533.288114,17620.196454,18579.169144,3330.926739
1533.288432,22216.769442,20133.601622,-8068.244768
1533.288751,21757.112143,17764.942608,-22798.343014
1533.289070,20531.359346,15692.365970,-19467.416275
1533.289388,5745.716235,-2664.741391,1480.411884
1533.289707,-1915.238745,-5699.585753,-1036.288319
1533.290026,-5822.325785,-14434.015869,10066.800811
1533.290345,-8963.317327,-9844.739029,25241.022622
1533.290663,-9806.022374,-12583.501014,21836.075289
1533.290982,-14555.814462,-29682.258274,23168.445985
1533.291301,-12334.137518,-22946.384202,29682.258274
1533.291620,-10112.460574,-4367.215058,32346.999665
1533.291938,-3140.991542,-0.000000,23686.590144
1533.292257,8963.317327,10658.965565,12731.542202
1533.292576,19612.044749,22354.219448,3997.112087
1533.292894,18309.682402,20207.622217,-1110.308913
1533.293213,18999.168350,21021.848753,-15174.221811
1533.293532,19382.216099,13619.789333,-19023.292709
1533.293851,11261.603821,6513.812290,-4589.276840
1533.294169,-1378.971896,-1702.473667,-5477.523971
1533.294488,-7660.954980,-15248.242405,7846.182985
1533.294807,-14479.204912,-11547.212695,16876.695478
1533.295126,-11721.261119,-16136.489536,26721.434506
1533.295444,-18616.120601,-19763.498651,19171.333898
1533.295763,-19841.873398,-27905.764013,30200.402434
1533.296082,-15704.957709,-14285.974681,28719.990550
1533.296400,-7124.688131,7476.080014,27239.578666
1533.296719,0.000000,9326.594869,22650.301825
1533.297038,10189.070123,21465.972318,5847.626942
1533.297357,13176.842566,17838.963202,5329.482782
1533.297675,14785.643111,22058.137072,-14952.160028
1533.297994,15321.909960,19689.478057,-17320.819043
1533.298313,17007.320056,13693.809927,-7994.224174
1533.298632,1915.238745,3627.009116,-10955.047942
1533.298950,-6128.763984,-5181.441594,-1702.473667
1533.299269,-10265.679673,-18949.272115,23390.507767
1533.299588,-15321.909960,-12657.521608,22354.219448
1533.299906,-13253.452115,-20207.622217,17246.798449
1533.300225,-16930.710506,-22280.198854,23464.528361
1533.300544,-16241.224558,-21910.095883,30644.525999
1533.300863,-10189.070123,-1628.453072,17838.963202
1533.301181,2374.896044,7031.956449,23982.672521
1533.301500,12640.575717,21391.951724,16062.468941
1533.301819,16930.710506,22354.219448,6143.709319
1533.302138,19918.482948,17320.819043,0.000000
1533.302456,22906.255390,25092.981434,-14730.098246
1533.302775,26123.856482,24796.899057,-19541.436869
1533.303094,11338.213370,6217.729913,-2146.597232
1533.303412,919.314598,-3923.091493,-1258.350101
1533.303731,-5056.230287,-15396.283594,3701.029710
1533.304050,-6971.469032,-8808.450710,16950.716072
1533.304369,-9116.536426,-13693.809927,21169.889941
1533.304687,-11491.432470,-26647.413912,24648.857869
1533.305006,-15704.957709,-25759.166782,22206.178260
1533.305325,-12870.404366,-11769.274478,28868.031738
1533.305644,-4749.792088,3627.009116,29608.237680
1533.305962,4213.525239,12139.377449,19837.519246
1533.306281,15245.300410,24352.775492,4737.318029
1533.306600,15628.348159,18949.272115,3108.864956
1533.306918,20837.797546,18875.251521,-11399.171507
1533.307237,19765.263848,21688.034101,-23390.507767
1533.307556,19612.044749,12805.562797,-8586.388927
1533.307875,4290.134789,-3775.050304,-6809.894666
1533.308193,-6281.983084,-10362.883188,-4737.318029
1533.308512,-8503.660028,-15766.386565,25092.981434
1533.308831,-17313.758255,-14285.974681,20873.807564
1533.309150,-13559.890315,-21021.848753,21984.116477
1533.309468,-18999.168350,-25833.187376,25537.104999
1533.309787,-16317.834107,-23094.425390,31162.670158
1533.310106,-13559.890315,-1998.556043,28571.949361
1533.310424,-1991.848295,2738.761985,23908.651927
1533.310743,9346.365076,20651.745782,11473.192101
1533.311062,13713.109414,20651.745782,1258.350101
1533.311381,15781.567259,18579.169144,-5699.585753
1533.311699,17620.196454,21762.054695,-14582.057057
1533.312018,15168.690860,13693.809927,-18431.127956
1533.312337,9116.536426,-740.205942,-9104.533087
1533.312656,-3600.648841,-3552.988522,-7254.018232
1533.312974,-10342.289223,-11399.171507,15766.386565
1533.313293,-15321.909960,-16506.592507,20947.828159
1533.313612,-11338.213370,-14952.160028,19393.395680
1533.313930,-14709.033562,-25167.002028,23168.445985
1533.314249,-19612.044749,-26425.352129,26795.455100
1533.314568,-15015.471761,-13545.768739,24944.940245
1533.314887,-3370.820191,1184.329507,28497.928767
1533.315205,4749.792088,14730.098246,16950.716072
1533.315524,13483.280765,21169.889941,518.144159
1533.315843,18003.244203,20207.622217,3997.112087
1533.316162,21297.454844,27091.537477,-11325.150913
1533.316480,19841.873398,21465.972318,-22650.301825
1533.316799,18386.291952,15618.345376,-17912.983796
1533.317118,4596.572988,6957.935855,2294.638420
1533.317436,-3140.991542,-5255.462188,2812.782580
1533.317755,-6358.592633,-14508.036463,11843.295072
1533.318074,-10648.727422,-12509.480420,26869.475695
1533.318393,-11108.384721,-22206.178260,23464.528361
1533.318711,-13942.938064,-28127.825796,18875.251521
1533.319030,-11184.994271,-18357.107362,24870.919651
1533.319349,-7354.516781,-2738.761985,30940.608376
1533.319668,3064.381992,11251.130318,24870.919651
1533.319986,12487.356617,23538.548956,7994.224174
1533.320305,17160.539155,20577.725188,2664.741391
1533.320624,19075.777900,16580.613101,-2812.782580
1533.320942,20301.530697,26203.290347,-17320.819043
1533.321261,18845.949251,16950.716072,-25981.228564
1533.321580,9806.022374,5033.400406,1406.391290
1533.321899,-2221.676944,-3775.050304,-3701.029710
1533.322217,-8733.488677,-16580.613101,13841.851115
1533.322536,-15321.909960,-20429.683999,21317.931130
1533.322855,-15704.957709,-20873.807564,24796.899057
1533.323174,-18769.339701,-26129.269753,24944.940245
1533.323492,-17160.539155,-24278.754898,27239.578666
1533.323811,-16700.881856,-8882.471304,31014.628970
1533.324130,-4749.792088,2812.782580,30200.402434
1533.324448,4903.011187,18209.066173,17172.777854
1533.324767,11951.089769,23908.651927,4145.153275
1533.325086,17620.196454,14878.139434,-444.123565
1533.325405,17850.025103,27831.743419,-13471.748144
1533.325723,15475.129060,18431.127956,-19541.436869
1533.326042,17160.539155,9844.739029,-8586.388927
1533.326361,2911.162892,-518.144159,-1332.370696
1533.326680,-9269.755526,-8808.450710,-444.123565
1533.326998,-10035.851024,-23168.445985,20799.786970
1533.327317,-12870.404366,-16728.654289,25241.022622
1533.327636,-12487.356617,-22946.384202,23538.548956
1533.327954,-16317.834107,-23242.466579,24352.775492
1533.328273,-16011.395908,-23908.651927,30644.525999
1533.328592,-8503.660028,370.102971,23464.528361
1533.328911,-1072.533697,6883.915261,26129.269753
1533.329229,8197.221829,17468.860231,15396.283594
1533.329548,15781.567259,22872.363608,-1628.453072
1533.329867,19458.825649,25685.146187,-8882.471304
1533.330186,20301.530697,24648.857869,-18061.024985
1533.330504,17620.196454,15322.262999,-16432.571912
1533.330823,11874.480219,2960.823768,-3478.967927
1533.331142,-5286.058936,-8808.450710,-4219.173869
1533.331460,-8886.707777,-19763.498651,17468.860231
1533.331779,-11721.261119,-12435.459826,23242.466579
1533.332098,-7737.564530,-15174.221811,24944.940245
1533.332417,-10342.289223,-21614.013506,20281.642811
1533.332735,-10035.851024,-16358.551318,31162.670158
1533.333054,-8120.612279,-6883.915261,26277.310941
1533.333373,-2451.505594,8364.327145,19023.292709
1533.333692,9806.022374,17172.777854,20947.828159
1533.334010,13406.671215,22428.240043,2886.803174
1533.334329,18233.072852,18283.086767,-1406.391290
1533.334648,19152.387450,23834.631332,-17246.798449
1533.334966,21067.626195,20725.766376,-21688.034101
1533.335285,14019.547613,10066.800811,-7920.203579
1533.335604,2834.553343,7031.956449,-4589.276840
1533.335923,-5822.325785,-12435.459826,666.185348
1533.336241,-9422.974625,-14211.954086,22724.322419
1533.336560,-15321.909960,-16654.633695,29978.340651
1533.336879,-16547.662757,-23686.590144,20503.704593
1533.337198,-18999.168350,-25833.187376,20503.704593
1533.337516,-17083.929605,-20503.704593,28127.825796
1533.337835,-9806.022374,4441.235652,26943.496289
1533.338154,1225.752797,8364.327145,21539.992912
1533.338472,11491.432470,26351.331535,7402.059420
1533.338791,14249.376263,19023.292709,518.144159
1533.339110,15704.957709,26129.269753,-14211.954086
1533.339429,17466.977354,20799.786970,-15692.365970
1533.339747,15092.081311,14359.995275,-6069.688724
1533.340066,7048.078582,-3478.967927,-5699.585753
1533.340385,-8197.221829,-4589.276840,-5255.462188
1533.340704,-10265.679673,-18135.045579,23982.672521
1533.341022,-15245.300410,-18727.210333,29090.093521
1533.341341,-11721.261119,-18801.230927,24130.713709
1533.341660,-14479.204912,-24796.899057,21317.931130
1533.341978,-15628.348159,-25981.228564,30496.484810
1533.342297,-12563.966167,-7624.121203,17838.963202
1533.342616,76.609550,7772.162391,22946.384202
1533.342935,6435.202183,17394.839637,14952.160028
1533.343253,12257.527968,21391.951724,1554.432478
1533.343572,16777.491406,19467.416275,-6365.771101
1533.343891,18003.244203,26869.475695,-12361.439231
1533.344210,15858.176809,19541.436869,-16950.716072
1533.344528,14249.376263,9474.636058,-3849.070898
1533.344847,-1378.971896,-1184.329507,-6143.709319
1533.345166,-6281.983084,-18135.045579,12805.562797
1533.345484,-12947.013916,-18801.230927,26129.269753
1533.345803,-10342.289223,-21243.910535,23020.404796
1533.346122,-12027.699319,-24426.796086,19837.519246
1533.346441,-12870.404366,-19319.375086,22428.240043
1533.346759,-10725.336972,-9474.636058,25685.146187
1533.347078,-1685.410096,9844.739029,24944.940245
1533.347397,6665.030833,14730.098246,20947.828159
1533.347716,14479.204912,24870.919651,6587.832884
1533.348034,14479.204912,18653.189738,0.000000
1533.348353,20224.921147,22724.322419,-16062.468941
1533.348672,18386.291952,18431.127956,-21762.054695
1533.348990,16700.881856,11547.212695,-8808.450710
1533.349309,4213.525239,-1628.453072,-2072.576638
1533.349628,-4673.182538,-6439.791695,-7254.018232
1533.349947,-9193.145976,-15766.386565,21762.054695
1533.350265,-13406.671215,-14359.995275,33679.370361
1533.350584,-12180.918418,-19023.292709,22058.137072
1533.350903,-14096.157163,-24130.713709,18061.024985
1533.351222,-14862.252661,-23390.507767,27017.516883
1533.351540,-6435.202183,2442.679609,28571.949361
1533.351859,1225.752797,8734.430116,22946.384202
1533.352178,10878.556072,21021.848753,5625.565159
1533.352496,14632.424012,22058.137072,-1776.494261
1533.352815,14938.862211,27905.764013,-9918.759623
1533.353134,15858.176809,20059.581028,-18135.045579
1533.353453,15168.690860,12731.542202,-14285.974681
1533.353771,5056.230287,2072.576638,-6217.729913
1533.354090,-9193.145976,-8586.388927,-3256.906145
1533.354409,-11184.994271,-20355.663405,21465.972318
1533.354728,-16164.615008,-18061.024985,25241.022622
1533.355046,-15704.957709,-19171.333898,25981.228564
1533.355365,-17620.196454,-22206.178260,22576.281231
1533.355684,-15934.786358,-19615.457463,27091.537477
1533.356002,-14096.157163,-8438.347739,25759.166782
1533.356321,-383.047749,6365.771101,25018.960840
1533.356640,5898.935335,19097.313304,12583.501014
1533.356959,12180.918418,20207.622217,148.041188
1533.357277,15321.909960,18505.148550,-6069.688724
1533.357596,17390.367805,25611.125593,-8068.244768
1533.357915,15858.176809,16136.489536,-14582.057057
1533.358234,13330.061665,10807.006753,-8290.306550
1533.358552,383.047749,1332.370696,-4737.318029
1533.358871,-7814.174080,-14878.139434,10955.047942
1533.359190,-13330.061665,-25167.002028,21539.992912
1533.359508,-12334.137518,-17098.757260,26869.475695
1533.359827,-12563.966167,-24056.693115,22724.322419
1533.360143,-16317.834107,-20133.601622,21614.013506
1533.360462,-11338.213370,-11769.274478,22946.384202
1533.360781,0.000000,6957.935855,31088.649564
1533.361100,2681.334243,17172.777854,16876.695478
1533.361419,14325.985813,17616.901420,3849.070898
1533.361738,13866.328514,19319.375086,-2442.679609
1533.362056,21527.283494,20947.828159,-11177.109724
1533.362375,20991.016645,20133.601622,-21021.848753
1533.362694,17313.758255,11843.295072,-15322.262999
1533.363013,7048.078582,1850.514855,-6513.812290
1533.363332,-3830.477490,-7254.018232,-3256.906145
1533.363651,-5362.668486,-16580.613101,20799.786970
1533.363970,-13176.842566,-18949.272115,29608.237680
1533.364288,-9729.412825,-21317.931130,27757.722825
1533.364607,-15092.081311,-23982.672521,19541.436869
1533.364926,-12487.356617,-17098.757260,19911.539840
1533.365245,-7124.688131,-222.061783,36862.255912
1533.365564,3217.601092,6217.729913,21169.889941
1533.365883,12947.013916,23390.507767,2294.638420
1533.366202,15934.786358,18357.107362,5181.441594
1533.366520,17007.320056,19097.313304,-6069.688724
1533.366839,17696.806004,22280.198854,-20059.581028
1533.367158,16394.443657,12879.583391,-18135.045579
1533.367477,6818.249932,-1258.350101,-5329.482782
1533.367796,-6128.763984,-13323.706956,592.164754
1533.368115,-12334.137518,-16950.716072,14434.015869
1533.368434,-12563.966167,-20725.766376,26647.413912
1533.368752,-11261.603821,-19393.395680,29608.237680
1533.369071,-15704.957709,-21021.848753,17098.757260
1533.369390,-13253.452115,-12435.459826,21984.116477
1533.369709,-11568.042020,-7105.977043,31384.731941
1533.370028,-383.047749,4071.132681,25092.981434
1533.370347,4903.011187,17764.942608,4959.379811
1533.370666,14019.547613,18949.272115,444.123565
1533.370984,13559.890315,18579.169144,-10436.903782
1533.371303,14862.252661,24648.857869,-12731.542202
1533.371622,14709.033562,15840.407159,-14656.077652
1533.371941,7354.516781,6217.729913,-11695.253884
1533.372260,-6052.154434,-1998.556043,-222.061783
1533.372579,-10648.727422,-15322.262999,14878.139434
1533.372898,-16394.443657,-20059.581028,21095.869347
1533.373216,-14172.766713,-20503.704593,25759.166782
1533.373535,-15321.909960,-24130.713709,28423.908173
1533.373854,-14862.252661,-21021.848753,21836.075289
1533.374173,-13789.718964,-6217.729913,21539.992912
1533.374492,153.219100,7920.203579,28942.052332
1533.374811,6511.811733,15618.345376,12287.418637
1533.375130,15934.786358,21910.095883,3182.885551
1533.375448,13100.233016,17616.901420,-3478.967927
1533.375767,21680.502593,21910.095883,-7105.977043
1533.376086,20224.921147,20577.725188,-22724.322419
1533.376405,17160.539155,12879.583391,-8364.327145
1533.376724,4826.401637,444.123565,-2738.761985
1533.377043,-6281.983084,-10214.842000,4293.194464
1533.377362,-9269.755526,-21021.848753,21465.972318
1533.377680,-9806.022374,-15618.345376,32569.061448
1533.377999,-10035.851024,-20355.663405,23464.528361
1533.378318,-11184.994271,-24796.899057,19689.478057
1533.378637,-7814.174080,-7846.182985,23908.651927
1533.378956,-4979.620737,-370.102971,30274.423028
1533.379275,4596.572988,8216.285956,22872.363608
1533.379594,15321.909960,19985.560434,4885.359217
1533.379912,16011.395908,23686.590144,888.247130
1533.380231,19075.777900,20577.725188,-12213.398043
1533.380550,17237.148705,21243.910535,-17690.922014
1533.380869,17466.977354,5995.668130,-5329.482782
1533.381188,5132.839837,2664.741391,-9770.718434
1533.381507,-6894.859482,-11251.130318,-222.061783
1533.381826,-10495.508323,-19541.436869,23464.528361
1533.382144,-13176.842566,-18801.230927,28645.969955
1533.382463,-14479.204912,-18061.024985,24426.796086
1533.382782,-17007.320056,-23908.651927,23982.672521
1533.383101,-14862.252661,-14285.974681,22354.219448
1533.383420,-11414.822920,-222.061783,27239.578666
1533.383739,76.609550,3478.967927,23168.445985
1533.384058,7431.126331,21836.075289,8142.265362
1533.384376,14172.766713,18801.230927,592.164754
1533.384695,11874.480219,19985.560434,-11695.253884
1533.385014,13023.623466,20429.683999,-10066.800811
1533.385333,14709.033562,15174.221811,-16210.510130
1533.385652,6358.592633,962.267725,-13471.748144
1533.385971,-5669.106685,-6143.709319,4959.379811
1533.386290,-11184.994271,-17394.839637,16580.613101
1533.386608,-14555.814462,-19985.560434,22724.322419
1533.386927,-11797.870669,-17246.798449,25167.002028
1533.387246,-13023.623466,-24574.837274,27017.516883
1533.387565,-15245.300410,-19467.416275,20281.642811
1533.387884,-11261.603821,-4737.318029,20429.683999
1533.388203,-383.047749,5995.668130,25611.125593
1533.388521,6052.154434,17246.798449,11695.253884
1533.388840,14172.766713,21095.869347,2664.741391
1533.389159,14785.643111,21317.931130,-1702.473667
1533.389478,19918.482948,22798.343014,-8438.347739
1533.389797,17390.367805,19911.539840,-22354.219448
1533.390116,12027.699319,6957.935855,-11695.253884
1533.390435,2528.115143,-296.082377,2294.638420
1533.390753,-5439.278036,-9918.759623,8142.265362
1533.391072,-12257.527968,-16432.571912,17172.777854
1533.391391,-8273.831378,-17764.942608,31162.670158
1533.391710,-10955.165621,-18949.272115,24278.754898
1533.392029,-9806.022374,-14656.077652,13397.727550
1533.392348,-9193.145976,-7624.121203,26055.249158
1533.392667,-383.047749,6069.688724,26351.331535
1533.392985,7814.174080,15248.242405,16876.695478
1533.393304,13176.842566,19985.560434,8586.388927
1533.393623,14325.985813,13693.809927,-370.102971
1533.393942,18692.730151,17098.757260,-8882.471304
1533.394261,18462.901502,19393.395680,-19541.436869
1533.394580,13636.499864,9178.553681,-18135.045579
1533.394899,4060.306139,1628.453072,-4367.215058
1533.395217,-5056.230287,-5625.565159,8290.306550
1533.395536,-9269.755526,-14730.098246,14137.933492
1533.395855,-13559.890315,-19615.457463,25092.981434
1533.396174,-14096.157163,-18949.272115,27239.578666
1533.396493,-18539.511052,-21910.095883,18135.045579
1533.396812,-15245.300410,-15914.427753,26055.249158
1533.397131,-7431.126331,4367.215058,30570.505405
1533.397449,3217.601092,13175.665768,18283.086767
1533.397768,11108.384721,18431.127956,6143.709319
1533.398087,13789.718964,15692.365970,0.000000
1533.398406,17926.634653,20577.725188,-9548.656652
1533.398725,17160.539155,19689.478057,-12657.521608
1533.399044,11951.089769,6883.915261,-13027.624579
1533.399363,6128.763984,222.061783,-9030.512492
1533.399681,-6818.249932,-4737.318029,-592.164754
1533.400000,-12180.918418,-14730.098246,15174.221811
1533.400319,-10035.851024,-20133.601622,24648.857869
1533.400638,-12257.527968,-12731.542202,21317.931130
1533.400957,-12410.747068,-22280.198854,19541.436869
1533.401276,-17313.758255,-19689.478057,21688.034101
1533.401595,-9116.536426,-4663.297435,31606.793723
1533.401913,-5056.230287,3108.864956,22502.260637
1533.402232,6894.859482,13767.830521,10955.047942
1533.402551,9269.755526,14508.036463,3182.885551
1533.402870,13330.061665,18283.086767,-11843.295072
1533.403189,16088.005458,22132.157666,-7698.141797
1533.403508,16317.834107,14804.118840,-14285.974681
1533.403827,7048.078582,5995.668130,-15100.201217
1533.404145,-2451.505594,-3923.091493,2220.617826
1533.404464,-9806.022374,-18949.272115,18579.169144
1533.404783,-12410.747068,-18727.210333,18357.107362
1533.405102,-13713.109414,-13767.830521,23538.548956
1533.405421,-11951.089769,-16950.716072,24574.837274
1533.405740,-10648.727422,-11103.089130,30422.464216
1533.406059,-4673.182538,-1184.329507,30940.608376
1533.406377,3830.477490,10955.047942,23316.487173
1533.406696,11261.603821,16876.695478,15544.324782
1533.407015,15168.690860,16802.674883,4071.132681
1533.407334,15934.786358,12139.377449,-3034.844362
1533.407653,21067.626195,17468.860231,-9252.574275
1533.407972,21144.235745,10066.800811,-21688.034101
1533.408291,12717.185267,8956.491898,-16654.633695
1533.408609,3064.381992,2886.803174,-4071.132681
1533.408928,-2528.115143,-6883.915261,8068.244768
1533.409247,-8273.831378,-12731.542202,17542.880825
1533.409566,-8503.660028,-13249.686362,28349.887579
1533.409885,-14479.204912,-19689.478057,22428.240043
1533.410204,-16088.005458,-17690.922014,20133.601622
1533.410523,-12487.356617,-14878.139434,30052.361245
1533.410841,-3370.820191,1924.535449,25759.166782
1533.411160,6741.640382,15692.365970,11029.068536
1533.411479,13023.623466,15840.407159,8142.265362
1533.411798,12870.404366,16136.489536,-5033.400406
1533.412117,16317.834107,18949.272115,-8660.409521
1533.412436,16777.491406,13915.871710,-8660.409521
1533.412755,8197.221829,8290.306550,-16728.654289
1533.413073,1838.629195,5329.482782,-7698.141797
1533.413392,-10418.898773,-10214.842000,6143.709319
1533.413711,-10418.898773,-16136.489536,23538.548956
1533.414030,-14019.547613,-18579.169144,23390.507767
1533.414349,-12947.013916,-14434.015869,22872.363608
1533.414668,-14249.376263,-21762.054695,23464.528361
1533.414987,-15168.690860,-16062.468941,29386.175897
1533.415305,-10035.851024,-3404.947333,27535.661042
1533.415624,-612.876398,9770.718434,22872.363608
1533.415943,9422.974625,15470.304188,10658.965565
1533.416262,11721.261119,11843.295072,-1258.350101
1533.416581,14402.595362,20355.663405,-15396.283594
1533.416900,18462.901502,19245.354492,-10140.821405
1533.417219,12717.185267,9622.677246,-13249.686362
1533.417537,5669.106685,7476.080014,-14804.118840
1533.417856,-4979.620737,-2146.597232,1628.453072
1533.418175,-10112.460574,-13619.789333,18949.272115
1533.418494,-12334.137518,-17394.839637,24574.837274
1533.418813,-12257.527968,-16580.613101,24204.734303
1533.419132,-14862.252661,-17838.963202,22132.157666
1533.419451,-11797.870669,-17394.839637,30052.361245
1533.419769,-6128.763984,2812.782580,27461.640448
1533.420088,2068.457845,11473.192101,25167.002028
1533.420407,11874.480219,15100.201217,14730.098246
1533.420726,15015.471761,15100.201217,2886.803174
1533.421045,16930.710506,15026.180623,-5255.462188
1533.421364,22523.207641,16950.716072,-9770.718434
1533.421683,19535.435199,13767.830521,-25018.960840
1533.422001,13176.842566,9844.739029,-17764.942608
1533.422320,1608.800546,-1110.308913,-1480.411884
1533.422639,-8120.612279,-12731.542202,15914.427753
1533.422958,-8656.879127,-17616.901420,19097.313304
1533.423277,-10189.070123,-10140.821405,25833.187376
1533.423596,-12257.527968,-21021.848753,22576.281231
1533.423915,-15934.786358,-19393.395680,28127.825796
1533.424233,-8350.440928,-6439.791695,31014.628970
1533.424552,-3907.087040,4959.379811,26055.249158
1533.424871,9652.803275,11547.212695,19393.395680
1533.425190,16164.615008,18283.086767,5773.606348
1533.425509,15628.348159,19837.519246,-7846.182985
1533.425828,17696.806004,16728.654289,-10584.944971
1533.426147,16164.615008,11399.171507,-15618.345376
1533.426465,10112.460574,8216.285956,-17542.880825
1533.426784,1685.410096,2738.761985,-6809.894666
1533.427103,-10878.556072,-8438.347739,7105.977043
1533.427422,-10495.508323,-18949.272115,21762.054695
1533.427741,-13789.718964,-13915.871710,22354.219448
1533.428060,-14632.424012,-17320.819043,23612.569550
1533.428379,-17926.634653,-25759.166782,25092.981434
1533.428697,-13942.938064,-12139.377449,28497.928767
1533.429016,-9576.193725,5625.565159,26351.331535
1533.429335,-306.438199,9548.656652,21095.869347
1533.429654,12257.527968,14878.139434,12065.356855
1533.429973,12410.747068,20873.807564,-6217.729913
1533.430292,13636.499864,20577.725188,-15174.221811
1533.430610,16930.710506,16210.510130,-10881.027347
1533.430929,10035.851024,11399.171507,-17394.839637
1533.431248,3524.039291,5921.647536,-12805.562797
1533.431567,-7124.688131,-4145.153275,8216.285956
1533.431886,-11491.432470,-17838.963202,16950.716072
1533.432205,-12257.527968,-18727.210333,25537.104999
1533.432524,-12257.527968,-14878.139434,23612.569550
1533.432842,-13713.109414,-19615.457463,19245.354492
1533.433161,-13636.499864,-18875.251521,29164.114115
1533.433480,-5132.839837,3404.947333,26869.475695
1533.433799,919.314598,13175.665768,21688.034101
1533.434118,12717.185267,16432.571912,14730.098246
1533.434437,14862.252661,14211.954086,2590.720797
1533.434756,19612.044749,20207.622217,-6143.709319
1533.435074,21144.235745,19911.539840,-14952.160028
1533.435393,17160.539155,13249.686362,-24204.734303
1533.435712,10342.289223,9400.615463,-16210.510130
1533.436031,-2145.067394,-3330.926739,962.267725
1533.436350,-8120.612279,-15248.242405,14952.160028
1533.436669,-9806.022374,-15618.345376,20947.828159
1533.436988,-10265.679673,-14211.954086,25167.002028
1533.437306,-13100.233016,-22058.137072,19763.498651
1533.437625,-15168.690860,-16876.695478,22058.137072
1533.437944,-8733.488677,-6143.709319,35974.008781
1533.438263,-2451.505594,10732.986159,28127.825796
1533.438582,8656.879127,10658.965565,14137.933492
1533.438901,14785.643111,20207.622217,8142.265362
1533.439220,16088.005458,22724.322419,-6069.688724
1533.439538,18309.682402,18357.107362,-13249.686362
1533.439857,17160.539155,13397.727550,-18801.230927
1533.440176,10648.727422,7031.956449,-16358.551318
1533.440495,383.047749,2886.803174,-4515.256246
1533.440814,-12410.747068,-11843.295072,7105.977043
1533.441133,-11721.261119,-21243.910535,25611.125593
1533.441452,-13406.671215,-14285.974681,23686.590144
1533.441770,-13176.842566,-20429.683999,22354.219448
1533.442089,-16394.443657,-24130.713709,21169.889941
1533.442408,-13330.061665,-10362.883188,31976.896694
1533.442727,-7660.954980,4367.215058,28127.825796
1533.443046,3447.429741,12435.459826,18505.148550
1533.443365,14709.033562,18209.066173,9622.677246
1533.443684,13713.109414,20133.601622,-5773.606348
1533.444002,16471.053207,19985.560434,-11251.130318
1533.444321,19228.997000,17616.901420,-14804.118840
1533.444640,11491.432470,9178.553681,-16506.592507
1533.444959,4290.134789,2886.803174,-5477.523971
1533.445278,-8044.002729,-5699.585753,5773.606348
1533.445597,-11491.432470,-18875.251521,15322.262999
1533.445916,-13559.890315,-17172.777854,25907.207970
1533.446234,-11874.480219,-14285.974681,27165.558071
1533.446553,-14479.204912,-22132.157666,21614.013506
1533.446872,-18156.463303,-22132.157666,24278.754898
1533.447191,-10648.727422,1702.473667,30496.484810
1533.447510,-3524.039291,6735.874072,22280.198854
1533.447829,9346.365076,18801.230927,7772.162391
1533.448148,15628.348159,15100.201217,1924.535449
1533.448466,16394.443657,24574.837274,-6957.935855
1533.448785,19612.044749,22946.384202,-11843.295072
1533.449104,17850.025103,16506.592507,-18505.148550
1533.449423,10342.289223,3552.988522,-10881.027347
1533.449742,-2145.067394,-2516.700203,1702.473667
1533.450061,-8656.879127,-13101.645173,12731.542202
1533.450380,-12334.137518,-22280.198854,21317.931130
1533.450698,-9269.755526,-16506.592507,23760.610738
1533.451017,-10572.117872,-19763.498651,22280.198854
1533.451336,-12027.699319,-17024.736666,20873.807564
1533.451655,-7967.393179,-4959.379811,29978.340651
1533.451974,0.000000,9844.739029,24204.734303
1533.452293,10265.679673,16580.613101,11917.315666
1533.452612,16624.272307,15618.345376,7031.956449
1533.452930,16394.443657,21021.848753,-592.164754
1533.453249,18003.244203,15840.407159,-11843.295072
1533.453568,17160.539155,17912.983796,-22428.240043
1533.453887,15475.129060,7994.224174,-9400.615463
1533.454206,842.705048,666.185348,-2516.700203
1533.454525,-6128.763984,-13619.789333,6365.771101
1533.454844,-13866.328514,-19097.313304,24944.940245
1533.455162,-14479.204912,-20281.642811,28868.031738
1533.455481,-18233.072852,-23094.425390,19615.457463
1533.455800,-17237.148705,-22946.384202,22872.363608
1533.456119,-12487.356617,-11843.295072,31754.834912
1533.456438,-5975.544884,6661.853478,28127.825796
1533.456757,1532.190996,12953.603985,18209.066173
1533.457076,12104.308868,23020.404796,7698.141797
1533.457394,13866.328514,17987.004391,592.164754
1533.457713,16547.662757,21984.116477,-9918.759623
1533.458032,18539.511052,18949.272115,-17246.798449
1533.458351,12104.308868,11325.150913,-16432.571912
1533.458670,4979.620737,-1036.288319,-1406.391290
1533.458989,-8733.488677,-5477.523971,888.247130
1533.459308,-11184.994271,-18727.210333,17172.777854
1533.459626,-11261.603821,-17690.922014,28275.866984
1533.459945,-9959.241474,-18061.024985,20947.828159
1533.460264,-14479.204912,-23760.610738,21317.931130
1533.460583,-16317.834107,-19023.292709,21614.013506
1533.460902,-8120.612279,814.226536,32346.999665
1533.461221,-842.705048,9992.780217,19467.416275
1533.461540,5975.544884,16210.510130,8660.409521
1533.461858,14479.204912,16802.674883,2886.803174
1533.462177,17850.025103,26869.475695,-9178.553681
1533.462496,18999.168350,25092.981434,-17542.880825
1533.462815,15934.786358,18949.272115,-20355.663405
1533.463134,8120.612279,8068.244768,-11251.130318
1533.463453,-4136.915689,-592.164754,4589.276840
1533.463772,-10572.117872,-18135.045579,13915.871710
1533.464090,-13406.671215,-22502.260637,21984.116477
1533.464409,-11797.870669,-16876.695478,28719.990550
1533.464728,-12257.527968,-20503.704593,22946.384202
1533.465047,-12257.527968,-16432.571912,23242.466579
1533.465366,-6818.249932,-0.000000,32865.143825
1533.465685,2834.553343,12731.542202,23094.425390
1533.466004,10418.898773,17616.901420,7105.977043
1533.466323,15015.471761,17616.901420,3701.029710
1533.466641,17007.320056,14582.057057,-2072.576638
1533.466960,20684.578446,20651.745782,-13841.851115
1533.467279,18386.291952,19985.560434,-25907.207970
1533.467598,12410.747068,2442.679609,-6809.894666
1533.467917,-1302.362347,-370.102971,-2368.659014
1533.468236,-4519.963438,-13693.809927,5921.647536
1533.468555,-10495.508323,-18135.045579,23168.445985
1533.468874,-11338.213370,-17912.983796,29978.340651
1533.469192,-14862.252661,-21465.972318,20873.807564
1533.469511,-15551.738609,-18579.169144,18135.045579
1533.469830,-10342.289223,-7698.141797,31532.773129
1533.470149,-2451.505594,4441.235652,30866.587781
1533.470468,5898.935335,9622.677246,10288.862594
1533.470787,14709.033562,23464.528361,518.144159
1533.471106,12717.185267,18949.272115,-4737.318029
1533.471425,15858.176809,23168.445985,-10658.965565
1533.471743,14709.033562,17246.798449,-17616.901420
1533.472062,9499.584175,8290.306550,-9326.594869
1533.472381,-689.485948,-962.267725,-3775.050304
1533.472700,-10955.165621,-5107.421000,0.000000
1533.473019,-11721.261119,-19689.478057,21021.848753
1533.473338,-11338.213370,-21391.951724,30718.546593
1533.473657,-14632.424012,-18801.230927,20799.786970
1533.473976,-16547.662757,-27757.722825,21614.013506
1533.474294,-12410.747068,-13397.727550,27313.599260
1533.474613,-7201.297681,3108.864956,28275.866984
1533.474932,1838.629195,7402.059420,20503.704593
1533.475251,10112.460574,19467.416275,2664.741391
1533.475570,14402.595362,19097.313304,2072.576638
1533.475889,17850.025103,20799.786970,-10955.047942
1533.476208,18462.901502,23390.507767,-20725.766376
1533.476527,17543.586904,12879.583391,-14211.954086
1533.476845,6435.202183,1628.453072,-3552.988522
1533.477164,-7124.688131,-6069.688724,1406.391290
1533.477483,-11184.994271,-24648.857869,21317.931130
1533.477802,-13636.499864,-23686.590144,28497.928767
1533.478121,-11108.384721,-19541.436869,24722.878463
1533.478440,-13330.061665,-19763.498651,18801.230927
1533.478759,-12717.185267,-17172.777854,26055.249158
1533.479077,-7660.954980,962.267725,30422.464216
1533.479396,766.095498,9992.780217,22946.384202
1533.479715,8197.221829,21762.054695,10436.903782
1533.480034,15092.081311,19985.560434,2516.700203
1533.480353,14402.595362,24278.754898,-10807.006753
1533.480672,19995.092498,26795.455100,-13619.789333
1533.480991,17160.539155,13693.809927,-18875.251521
1533.481310,10725.336972,5551.544565,-6587.832884
1533.481628,-766.095498,666.185348,-1850.514855
1533.481947,-6052.154434,-11399.171507,7031.956449
1533.482266,-11568.042020,-21243.910535,23242.466579
1533.482585,-10418.898773,-16950.716072,29312.155303
1533.482904,-10725.336972,-20873.807564,25315.043216
1533.483223,-13713.109414,-18061.024985,22132.157666
1533.483542,-7431.126331,-2368.659014,28127.825796
1533.483861,612.876398,9474.636058,23538.548956
1533.484179,8273.831378,16358.551318,9030.512492
1533.484498,14019.547613,19541.436869,3552.988522
1533.484817,13713.109414,19763.498651,-2960.823768
1533.485136,16471.053207,21614.013506,-9918.759623
1533.485455,13713.109414,16580.613101,-15470.304188
1533.485774,11184.994271,8068.244768,-7179.997637
1533.486093,-2757.943793,-6069.688724,296.082377
1533.486412,-8044.002729,-13915.871710,11029.068536
1533.486730,-13330.061665,-23538.548956,22280.198854
1533.487049,-16088.005458,-20429.683999,25389.063811
1533.487368,-15934.786358,-20429.683999,22132.157666
1533.487687,-15245.300410,-21021.848753,24056.693115
1533.488006,-11261.603821,-9400.615463,26943.496289
1533.488325,-2604.724693,6661.853478,29016.072926
1533.488644,3217.601092,15248.242405,20355.663405
1533.488963,11031.775171,19023.292709,2072.576638
1533.489281,13330.061665,16580.613101,592.164754
1533.489600,17390.367805,24500.816680,-9474.636058
1533.489919,16854.100956,21317.931130,-21836.075289
1533.490238,14325.985813,12805.562797,-10807.006753
1533.490557,4290.134789,1998.556043,-3256.906145
1533.490876,-6665.030833,-3330.926739,-740.205942
1533.491195,-9193.145976,-24056.693115,20651.745782
1533.491513,-9499.584175,-19171.333898,28053.805202
1533.491832,-13023.623466,-19911.539840,20133.601622
1533.492151,-14785.643111,-23168.445985,19541.436869
1533.492470,-12563.966167,-14211.954086,23760.610738
1533.492789,-3677.258390,2960.823768,31532.773129
1533.493108,3447.429741,12213.398043,21021.848753
1533.493427,12563.966167,20281.642811,4219.173869
1533.493746,16088.005458,19615.457463,-592.164754
1533.494064,18309.682402,26055.249158,-8512.368333
1533.494383,17696.806004,19097.313304,-15396.283594
1533.494702,15628.348159,15544.324782,-13767.830521
1533.495021,6205.373534,8068.244768,-5847.626942
1533.495340,-7354.516781,-1850.514855,-4959.379811
1533.495659,-9269.755526,-21762.054695,18653.189738
1533.495978,-10265.679673,-21317.931130,29904.320057
1533.496297,-13100.233016,-21095.869347,25389.063811
1533.496615,-13942.938064,-27535.661042,24204.734303
1533.496934,-14172.766713,-19985.560434,26647.413912
1533.497253,-9346.365076,-444.123565,27387.619854
1533.497572,-383.047749,9770.718434,25092.981434
1533.497891,7660.954980,16358.551318,8216.285956
1533.498210,16088.005458,20651.745782,1776.494261
1533.498529,14555.814462,22502.260637,-11917.315666
1533.498848,18462.901502,23982.672521,-12213.398043
1533.499166,19995.092498,15618.345376,-12213.398043
1533.499485,9346.365076,4885.359217,-11547.212695
1533.499804,-2451.505594,-4737.318029,-5551.544565
1533.500123,-7737.564530,-20873.807564,21317.931130
1533.500442,-10878.556072,-23982.672521,27387.619854
1533.500761,-11031.775171,-15766.386565,21169.889941
1533.501080,-10725.336972,-17616.901420,19837.519246
1533.501399,-9806.022374,-14285.974681,24500.816680
1533.501717,-5898.935335,1554.432478,27535.661042
1533.502036,229.828649,4145.153275,22650.301825
1533.502355,7277.907231,16432.571912,11843.295072
1533.502674,13942.938064,17690.922014,2368.659014
1533.502993,10725.336972,18801.230927,-8660.409521
1533.503312,15092.081311,21317.931130,-8660.409521
1533.503631,11108.384721,16284.530724,-17172.777854
1533.503949,7431.126331,6513.812290,-10955.047942
1533.504268,-2834.553343,370.102971,444.123565
1533.504587,-8810.098227,-12361.439231,10955.047942
1533.504906,-14172.766713,-19985.560434,21762.054695
1533.505225,-16471.053207,-19245.354492,27165.558071
1533.505544,-14709.033562,-22798.343014,29386.175897
1533.505863,-15704.957709,-24278.754898,26573.393318
1533.506182,-11031.775171,-8438.347739,27017.516883
1533.506500,-995.924147,5107.421000,30274.423028
1533.506819,6281.983084,15840.407159,12805.562797
1533.507138,15398.519510,18875.251521,2368.659014
1533.507457,17313.758255,20651.745782,3108.864956
1533.507776,22676.426741,22206.178260,-7031.956449
1533.508095,23519.131789,24204.734303,-23686.590144
1533.508414,15168.690860,9918.759623,-20725.766376
1533.508733,2834.553343,-0.000000,2072.576638
1533.509051,-4366.744339,-9030.512492,3552.988522
1533.509370,-8810.098227,-17838.963202,13915.871710
1533.509689,-10112.460574,-17987.004391,28349.887579
1533.510008,-11568.042020,-22576.281231,25537.104999
1533.510327,-15015.471761,-24796.899057,25611.125593
1533.510646,-14555.814462,-17764.942608,21614.013506
1533.510965,-8733.488677,-814.226536,30644.525999
1533.511284,229.828649,7550.100608,21169.889941
1533.511602,9729.412825,23094.425390,4441.235652
1533.511921,14172.766713,23760.610738,5477.523971
1533.512240,15245.300410,27313.599260,-7031.956449
1533.512559,18692.730151,24204.734303,-17246.798449
1533.512878,15704.957709,21836.075289,-16654.633695
1533.513197,8733.488677,2960.823768,-1036.288319
1533.513516,-6281.983084,-3775.050304,-1998.556043
1533.513835,-12717.185267,-21614.013506,15322.262999
1533.514153,-14019.547613,-23464.528361,24574.837274
1533.514472,-14938.862211,-23908.651927,23760.610738
1533.514791,-14709.033562,-21836.075289,24056.693115
1533.515110,-15628.348159,-13693.809927,23612.569550
1533.515429,-12870.404366,-6217.729913,23464.528361
1533.515748,842.705048,5699.585753,25907.207970
1533.516067,4749.792088,19097.313304,13471.748144
1533.516385,12104.308868,19985.560434,-4737.318029
1533.516704,14402.595362,17542.880825,-3552.988522
1533.517023,15245.300410,22058.137072,-11103.089130
1533.517342,13483.280765,17246.798449,-17394.839637
1533.517661,10801.946522,7476.080014,-6439.791695
1533.517980,-306.438199,3701.029710,592.164754
1533.518299,-7814.174080,-12583.501014,4145.153275
1533.518618,-9959.241474,-17172.777854,26869.475695
1533.518936,-11568.042020,-19023.292709,26055.249158
1533.519255,-13483.280765,-19171.333898,16580.613101
1533.519574,-10418.898773,-23760.610738,25907.207970
1533.519893,-11108.384721,-9178.553681,26795.455100
1533.520212,-3447.429741,3034.844362,27091.537477
1533.520531,4136.915689,16802.674883,17320.819043
1533.520850,13636.499864,21984.116477,5255.462188
1533.521169,17773.415554,18135.045579,3330.926739
1533.521487,19765.263848,27387.619854,-13471.748144
1533.521806,20761.187996,19393.395680,-20207.622217
1533.522125,15781.567259,10881.027347,-14285.974681
1533.522444,3907.087040,1554.432478,3849.070898
1533.522763,-4596.572988,-8882.471304,1628.453072
1533.523082,-6665.030833,-19467.416275,15544.324782
1533.523401,-10955.165621,-20725.766376,30348.443622
1533.523720,-12257.527968,-21836.075289,22206.178260
1533.524038,-14938.862211,-22502.260637,16062.468941
1533.524357,-13483.280765,-22650.301825,27609.681637
1533.524676,-6588.421283,2738.761985,26869.475695
1533.524995,1455.581446,9326.594869,16802.674883
1533.525314,10572.117872,17172.777854,11029.068536
1533.525633,14249.376263,20799.786970,2442.679609
1533.525952,15398.519510,22724.322419,-11917.315666
1533.526271,18692.730151,22058.137072,-15914.427753
1533.526589,14096.157163,20281.642811,-21762.054695
1533.526908,7048.078582,5921.647536,-5625.565159
1533.527227,-6665.030833,-4515.256246,-1258.350101
1533.527546,-9652.803275,-23390.507767,18061.024985
1533.527865,-13789.718964,-25537.104999,24722.878463
1533.528184,-18003.244203,-19467.416275,20207.622217
1533.528503,-17160.539155,-28571.949361,24574.837274
1533.528821,-17390.367805,-24944.940245,28423.908173
1533.529140,-15015.471761,-6439.791695,22502.260637
1533.529459,-2451.505594,9622.677246,29386.175897
1533.529778,4673.182538,15914.427753,12879.583391
1533.530097,13023.623466,27609.681637,3034.844362
1533.530416,18233.072852,21317.931130,-7105.977043
1533.530735,20761.187996,23538.548956,-12657.521608
1533.531054,16930.710506,21391.951724,-24500.816680
1533.531372,13023.623466,4959.379811,-4885.359217
1533.531691,1149.143247,-1184.329507,2368.659014
1533.532010,-9652.803275,-13397.727550,296.082377
1533.532329,-9116.536426,-21391.951724,24796.899057
1533.532648,-12717.185267,-15322.262999,24352.775492
1533.532967,-10955.165621,-18505.148550,20133.601622
1533.533286,-14172.766713,-27165.558071,26055.249158
1533.533605,-10955.165621,-8068.244768,23686.590144
1533.533923,-1455.581446,4811.338623,31902.876100
1533.534242,5515.887586,12583.501014,22354.219448
1533.534561,11644.651570,18949.272115,6143.709319
1533.534880,15704.957709,19837.519246,2146.597232
1533.535199,20224.921147,23020.404796,-9622.677246
1533.535518,17620.196454,24056.693115,-22206.178260
1533.535837,16777.491406,16950.716072,-13841.851115
1533.536156,5132.839837,1184.329507,-1406.391290
1533.536474,-7354.516781,-8660.409521,-2664.741391
1533.536793,-8580.269578,-19911.539840,20355.663405
1533.537112,-11951.089769,-20577.725188,31014.628970
1533.537431,-13559.890315,-23612.569550,20503.704593
1533.537750,-16011.395908,-29904.320057,25537.104999
1533.538069,-13023.623466,-17542.880825,29608.237680
1533.538388,-6205.373534,3775.050304,28053.805202
1533.538707,4673.182538,9918.759623,21614.013506
1533.539025,8120.612279,20725.766376,6587.832884
1533.539344,14709.033562,18875.251521,3627.009116
1533.539663,18003.244203,24870.919651,-12731.542202
1533.539982,20224.921147,30200.402434,-19911.539840
1533.540301,14019.547613,17246.798449,-19171.333898
1533.540620,7737.564530,1110.308913,-1850.514855
1533.540939,-5132.839837,-10807.006753,-1480.411884
1533.541258,-7354.516781,-23094.425390,19763.498651
1533.541576,-18156.463303,-23538.548956,25981.228564
1533.541895,-13559.890315,-24648.857869,25463.084405
1533.542214,-15092.081311,-26055.249158,24796.899057
1533.542533,-15628.348159,-17838.963202,27757.722825
1533.542852,-8810.098227,-7031.956449,31902.876100
1533.543171,2374.896044,10732.986159,26351.331535
1533.543490,6665.030833,19097.313304,6883.915261
1533.543808,16088.005458,17172.777854,8512.368333
1533.544127,17237.148705,21317.931130,-7105.977043
1533.544446,21144.235745,26129.269753,-13767.830521
1533.544765,18079.853753,20725.766376,-25981.228564
1533.545084,9193.145976,6217.729913,-5773.606348
1533.545403,-1532.190996,-4441.235652,-2516.700203
1533.545722,-9806.022374,-17246.798449,8882.471304
1533.546041,-13330.061665,-23982.672521,27313.599260
1533.546359,-15858.176809,-17616.901420,23316.487173
1533.546678,-17237.148705,-26203.290347,22058.137072
1533.546997,-17237.148705,-26277.310941,26869.475695
1533.547316,-14938.862211,-11473.192101,25315.043216
1533.547635,-3677.258390,5773.606348,32717.102636
1533.547954,4290.134789,13989.892304,13545.768739
1533.548273,13942.938064,24352.775492,2146.597232
1533.548592,15628.348159,22724.322419,-3108.864956
1533.548910,20071.702048,23316.487173,-13619.789333
1533.549229,18079.853753,23982.672521,-22132.157666
1533.549548,15704.957709,17764.942608,-11473.192101
1533.549867,5439.278036,1184.329507,1554.432478
1533.550186,-7967.393179,-14804.118840,3701.029710
1533.550505,-5132.839837,-22280.198854,25389.063811
1533.550824,-9039.926876,-22946.384202,29386.175897
1533.551143,-6665.030833,-26129.269753,21391.951724
1533.551461,-7814.174080,-23908.651927,24944.940245
1533.551780,-3907.087040,-11399.171507,28497.928767
1533.552099,2451.505594,4515.256246,28053.805202
1533.552418,9116.536426,12953.603985,15914.427753
1533.552737,17160.539155,18653.189738,11695.253884
1533.553056,20301.530697,17098.757260,-3849.070898
1533.553375,23825.569988,18949.272115,-20133.601622
1533.553694,25051.322785,21243.910535,-25537.104999
1533.554012,10265.679673,11251.130318,-11473.192101
1533.554331,9652.803275,-7624.121203,-2072.576638
1533.554650,-5132.839837,-24204.734303,1776.494261
1533.554969,-4903.011187,-22576.281231,35603.905810
1533.555288,-11184.994271,-29904.320057,33013.185013
1533.555607,-15704.957709,-29608.237680,21984.116477
1533.555926,-9806.022374,-31384.731941,26943.496289
1533.556244,-3140.991542,-11473.192101,41747.615129
1533.556563,1225.752797,6439.791695,21762.054695
1533.556882,10801.946522,14730.098246,3330.926739
1533.557201,13559.890315,20355.663405,6587.832884
1533.557520,12870.404366,14878.139434,-1628.453072
1533.557839,16164.615008,15840.407159,-17320.819043
1533.558158,14479.204912,20059.581028,-23242.466579
1533.558477,7124.688131,7402.059420,-17912.983796
1533.558795,-2221.676944,-10658.965565,-814.226536
1533.559114,-9806.022374,-25611.125593,15544.324782
1533.559433,-12104.308868,-31828.855506,34715.658680
1533.559752,-13483.280765,-27609.681637,30496.484810
1533.560071,-15475.129060,-28719.990550,25092.981434
1533.560390,-8120.612279,-17764.942608,26721.434506
1533.560709,-3753.867940,2886.803174,33161.226202
1533.561028,8197.221829,15692.365970,14211.954086
1533.561346,14938.862211,25537.104999,3330.926739
1533.561665,15475.129060,23538.548956,5847.626942
1533.561984,17926.634653,15322.262999,-13545.768739
1533.562303,22140.159892,29016.072926,-19911.539840
1533.562622,13483.280765,18505.148550,-19097.313304
1533.562941,3064.381992,-6587.832884,-12139.377449
1533.563259,-4060.306139,-19541.436869,3997.112087
1533.563578,-7584.345430,-21688.034101,21984.116477
1533.563897,-9422.974625,-26795.455100,33679.370361
1533.564216,-11797.870669,-19763.498651,22280.198854
1533.564535,-5898.935335,-18875.251521,27683.702231
1533.564854,-7507.735880,-10881.027347,31384.731941
1533.565172,-536.266849,8364.327145,22502.260637
1533.565491,10878.556072,12139.377449,7550.100608
1533.565810,12410.747068,14952.160028,3552.988522
1533.566129,13559.890315,24056.693115,-2294.638420
1533.566448,16777.491406,15396.283594,-1924.535449
1533.566767,8503.660028,15322.262999,-21391.951724
1533.567086,6894.859482,7105.977043,-18949.272115
1533.567404,689.485948,-10658.965565,8660.409521
1533.567723,-9959.241474,-20873.807564,10881.027347
1533.568042,-7277.907231,-20947.828159,24648.857869
1533.568361,-9576.193725,-10510.924376,27535.661042
1533.568680,-3753.867940,-7624.121203,31976.896694
1533.568999,-3370.820191,-6809.894666,23242.466579
1533.569317,3983.696590,8660.409521,28423.908173
1533.569636,6128.763984,3775.050304,14434.015869
1533.569955,9882.631924,10658.965565,7254.018232
1533.570274,13559.890315,5699.585753,1036.288319
1533.570593,15245.300410,12435.459826,-7105.977043
1533.570912,13636.499864,9104.533087,-11621.233289
1533.571230,8120.612279,-0.000000,-9992.780217
1533.571549,4979.620737,-8438.347739,1406.391290
1533.571868,-306.438199,-12435.459826,6883.915261
1533.572187,-3524.039291,-11473.192101,16210.510130
1533.572506,-2834.553343,-7476.080014,24870.919651
1533.572825,-2374.896044,-3034.844362,22946.384202
1533.573144,-2834.553343,-2960.823768,19467.416275
1533.573462,842.705048,-2072.576638,24352.775492
1533.573781,1685.410096,-444.123565,17690.922014
1533.574100,1685.410096,1332.370696,10584.944971
1533.574419,4519.963438,1702.473667,9104.533087
1533.574738,4903.011187,-0.000000,6365.771101
1533.575057,7201.297681,1702.473667,1628.453072
1533.575375,5362.668486,-592.164754,-1628.453072
1533.575694,4749.792088,-6439.791695,-370.102971
1533.576013,3600.648841,-7698.141797,4293.194464
1533.576332,5286.058936,-5625.565159,7698.141797
1533.576651,3064.381992,-3478.967927,11843.295072
1533.576970,2911.162892,-3256.906145,12879.583391
1533.577288,383.047749,-1554.432478,14878.139434
1533.577607,-3140.991542,-2220.617826,15840.407159
1533.577926,-3983.696590,-5255.462188,15692.365970
1533.578245,-4749.792088,-3404.947333,12139.377449
1533.578564,-3217.601092,-0.000000,9030.512492
1533.578883,-1532.190996,-0.000000,7550.100608
1533.579201,1532.190996,-1628.453072,9400.615463
1533.579520,3447.429741,-1702.473667,5329.482782
1533.579839,5822.325785,-2738.761985,4219.173869
1533.580158,8427.050478,-4293.194464,4293.194464
1533.580477,9729.412825,-3330.926739,2886.803174
1533.580796,9652.803275,-1184.329507,4663.297435
1533.581115,8810.098227,-518.144159,6809.894666
1533.581433,7584.345430,-370.102971,9178.553681
1533.581752,5439.278036,1554.432478,9326.594869
1533.582071,1532.190996,222.061783,7105.977043
1533.582390,-1072.533697,-2368.659014,10584.944971
1533.582709,-3217.601092,-4219.173869,9252.574275
1533.583028,-3600.648841,-5773.606348,9178.553681
1533.583346,-2298.286494,-5773.606348,10584.944971
1533.583665,153.219100,-6587.832884,11177.109724
1533.583984,2374.896044,-4811.338623,10658.965565
1533.584303,3830.477490,-3997.112087,8808.450710
1533.584622,4673.182538,-3182.885551,9474.636058
1533.584941,5515.887586,-740.205942,9400.615463
1533.585259,5975.544884,592.164754,6513.812290
1533.585578,5822.325785,592.164754,7179.997637
1533.585897,5439.278036,148.041188,8142.265362
1533.586216,4519.963438,-0.000000,4959.379811
1533.586535,2834.553343,-814.226536,3775.050304
1533.586854,1991.848295,-2294.638420,6217.729913
1533.587173,-383.047749,-4145.153275,6883.915261
1533.587491,-1685.410096,-5033.400406,10510.924376
1533.587810,-1149.143247,-4737.318029,14211.954086
1533.588129,-1302.362347,-3701.029710,16876.695478
1533.588448,-766.095498,-2738.761985,16284.530724
1533.588767,766.095498,-444.123565,15100.201217
1533.589086,3447.429741,1258.350101,12287.418637
1533.589404,5056.230287,666.185348,8882.471304
1533.589723,6665.030833,-962.267725,6735.874072
1533.590042,7048.078582,-962.267725,5403.503377
1533.590361,7507.735880,-1776.494261,2960.823768
1533.590680,5362.668486,-592.164754,2664.741391
1533.590999,3753.867940,-148.041188,5033.400406
1533.591317,1762.019645,-592.164754,8512.368333
1533.591636,1149.143247,518.144159,10362.883188
1533.591955,1378.971896,370.102971,13841.851115
1533.592274,1608.800546,-148.041188,15914.427753
1533.592593,2068.457845,-1258.350101,16728.654289
1533.592912,1991.848295,-3404.947333,16062.468941
1533.593231,2068.457845,-5477.523971,14137.933492
1533.593549,2068.457845,-6957.935855,12287.418637
1533.593868,2834.553343,-5181.441594,9104.533087
1533.594187,3524.039291,-2442.679609,6439.791695
1533.594506,4596.572988,1110.308913,3849.070898
1533.594825,4749.792088,3404.947333,2516.700203
1533.595144,3830.477490,4367.215058,3552.988522
1533.595462,2451.505594,3330.926739,5921.647536
1533.595781,1915.238745,1110.308913,8882.471304
1533.596100,1302.362347,-1184.329507,12361.439231
1533.596419,1378.971896,-3997.112087,14656.077652
1533.596738,1302.362347,-6957.935855,15840.407159
1533.597057,2068.457845,-7846.182985,15914.427753
1533.597375,2451.505594,-6735.874072,13545.768739
1533.597694,2834.553343,-4145.153275,10955.047942
1533.598013,3064.381992,-444.123565,7624.121203
1533.598332,3753.867940,3330.926739,5181.441594
1533.598651,3677.258390,5329.482782,2590.720797
1533.598970,3294.210641,5329.482782,2368.659014
1533.599288,3830.477490,2960.823768,3404.947333
1533.599607,2757.943793,814.226536,5403.503377
1533.599926,2681.334243,-2220.617826,8142.265362
1533.600245,2834.553343,-5181.441594,10732.986159
1533.600564,2451.505594,-7105.977043,13101.645173
1533.600883,2604.724693,-7920.203579,14211.954086
1533.601202,2298.286494,-6809.894666,14582.057057
1533.601520,2911.162892,-3997.112087,12287.418637
1533.601839,2604.724693,-666.185348,9178.553681
1533.602158,2604.724693,1554.432478,7105.977043
1533.602477,1915.238745,2294.638420,6069.688724
1533.602796,1149.143247,1628.453072,4515.256246
1533.603115,1149.143247,-74.020594,5107.421000
1533.603433,1302.362347,-1480.411884,6661.853478
1533.603752,1532.190996,-3775.050304,7994.224174
1533.604071,1915.238745,-5329.482782,9326.594869
1533.604390,1915.238745,-6143.709319,11325.150913
1533.604709,1455.581446,-6809.894666,13545.768739
1533.605028,2068.457845,-5551.544565,13619.789333
1533.605346,2298.286494,-4219.173869,12657.521608
1533.605665,1838.629195,-1998.556043,11029.068536
1533.605984,1149.143247,-888.247130,9400.615463
1533.606303,842.705048,-888.247130,7772.162391
1533.606622,229.828649,-1036.288319,6439.791695
1533.606941,229.828649,-814.226536,5699.585753
1533.607260,1072.533697,-1184.329507,6143.709319
1533.607578,1608.800546,-1258.350101,7328.038826
1533.607897,2298.286494,-1406.391290,8660.409521
1533.608216,2911.162892,-2220.617826,9844.739029
1533.608535,3370.820191,-2812.782580,11325.150913
1533.608854,4060.306139,-2442.679609,12361.439231
1533.609173,4290.134789,-1850.514855,11843.295072
1533.609491,4826.401637,-592.164754,10510.924376
1533.609810,4673.182538,-222.061783,8438.347739
1533.610129,4443.353888,296.082377,6513.812290
1533.610448,3983.696590,592.164754,5033.400406
1533.610767,2987.772442,592.164754,4441.235652
1533.611086,1915.238745,592.164754,5255.462188
1533.611404,766.095498,666.185348,6957.935855
1533.611723,-459.657299,740.205942,8364.327145
1533.612042,-1302.362347,-0.000000,10658.965565
1533.612361,-1455.581446,-888.247130,12213.398043
1533.612680,-919.314598,-1628.453072,14137.933492
1533.612999,0.000000,-1924.535449,13767.830521
1533.613318,1302.362347,-1480.411884,12805.562797
1533.613636,2451.505594,-592.164754,10955.047942
1533.613955,2911.162892,-444.123565,9326.594869
1533.614274,3140.991542,-0.000000,7105.977043
1533.614593,2834.553343,1036.288319,5329.482782
1533.614912,2451.505594,1776.494261,4737.318029
1533.615231,1685.410096,2220.617826,5773.606348
1533.615549,995.924147,1924.535449,7328.038826
1533.615868,536.266849,444.123565,9622.677246
1533.616187,383.047749,-1258.350101,12213.398043
1533.616506,-229.828649,-3034.844362,14434.015869
1533.616825,0.000000,-4219.173869,15544.324782
1533.617144,459.657299,-4737.318029,15618.345376
1533.617462,1608.800546,-3182.885551,13841.851115
1533.617781,3064.381992,-1628.453072,11325.150913
1533.618100,4136.915689,-0.000000,8290.306550
1533.618419,5056.230287,1258.350101,5995.668130
1533.618738,5592.497135,2368.659014,3775.050304
1533.619057,5132.839837,1702.473667,3849.070898
1533.619376,4290.134789,296.082377,6217.729913
1533.619694,3140.991542,-962.267725,7698.141797
1533.620013,1915.238745,-3256.906145,10288.862594
1533.620332,1762.019645,-4811.338623,13397.727550
1533.620651,1149.143247,-4737.318029,14656.077652
1533.620970,1455.581446,-4663.297435,14804.118840
1533.621289,1991.848295,-4071.132681,14137.933492
1533.621607,2834.553343,-3182.885551,13471.748144
1533.621926,2911.162892,-2516.700203,11843.295072
1533.622245,2834.553343,-2146.597232,9104.533087
1533.622564,3140.991542,-1850.514855,7328.038826
1533.622883,4060.306139,-1258.350101,5255.462188
1533.623202,5286.058936,-1258.350101,4219.173869
1533.623520,7048.078582,-888.247130,4737.318029
1533.623839,7660.954980,-888.247130,5329.482782
1533.624158,7890.783629,-1332.370696,6143.709319
1533.624477,7660.954980,-2294.638420,7550.100608
1533.624796,6971.469032,-3034.844362,9400.615463
1533.625115,5439.278036,-3923.091493,9622.677246
1533.625433,4136.915689,-3627.009116,10140.821405
1533.625752,3447.429741,-3701.029710,10214.842000
1533.626071,2681.334243,-2960.823768,8882.471304
1533.626390,2911.162892,-2812.782580,8068.244768
1533.626709,2374.896044,-2220.617826,7698.141797
1533.627028,1915.238745,-2294.638420,6735.874072
1533.627347,2604.724693,-1850.514855,6957.935855
1533.627665,2987.772442,-1850.514855,7105.977043
1533.627984,3677.258390,-2812.782580,7772.162391
1533.628303,4519.963438,-3404.947333,8660.409521
1533.628622,5132.839837,-4219.173869,9622.677246
1533.628941,5439.278036,-4071.132681,9696.697840
1533.629260,5745.716235,-3997.112087,9474.636058
1533.629578,5209.449386,-3775.050304,9548.656652
1533.629897,4519.963438,-3256.906145,8808.450710
1533.630216,3983.696590,-2886.803174,8660.409521
1533.630535,3294.210641,-2590.720797,8660.409521
1533.630854,3064.381992,-2368.659014,8808.450710
1533.631173,2068.457845,-1998.556043,9104.533087
1533.631491,1225.752797,-2146.597232,9770.718434
1533.631810,612.876398,-3404.947333,11103.089130
1533.632129,383.047749,-4441.235652,12287.418637
1533.632448,612.876398,-5329.482782,12879.583391
1533.632767,842.705048,-5181.441594,12731.542202
1533.633086,995.924147,-4515.256246,12731.542202
1533.633405,1532.190996,-3034.844362,11695.253884
1533.633723,1072.533697,-2294.638420,10510.924376
1533.634042,612.876398,-1332.370696,10510.924376
1533.634361,383.047749,-296.082377,9474.636058
1533.634680,689.485948,592.164754,8438.347739
1533.634999,612.876398,1850.514855,7846.182985
1533.635318,1149.143247,1184.329507,8808.450710
1533.635636,536.266849,1036.288319,8808.450710
1533.635955,459.657299,-444.123565,9992.780217
1533.636274,229.828649,-1702.473667,11029.068536
1533.636593,919.314598,-1554.432478,11103.089130
1533.636912,1378.971896,-1924.535449,10807.006753
1533.637231,1225.752797,-592.164754,10288.862594
1533.637549,1378.971896,740.205942,9696.697840
1533.637868,1302.362347,1776.494261,8142.265362
1533.638187,2068.457845,2960.823768,7920.203579
1533.638506,2298.286494,2812.782580,7105.977043
1533.638825,2451.505594,2738.761985,7179.997637
1533.639144,2451.505594,2664.741391,7105.977043
1533.639463,2451.505594,2368.659014,7698.141797
1533.639781,3064.381992,1480.411884,8290.306550
1533.640100,3600.648841,814.226536,9326.594869
1533.640419,3830.477490,-0.000000,9992.780217
1533.640738,3907.087040,222.061783,10510.924376
1533.641057,4673.182538,-148.041188,10881.027347
1533.641376,4979.620737,-222.061783,10881.027347
1533.641694,4979.620737,-222.061783,10288.862594
1533.642013,5898.935335,-740.205942,9844.739029
1533.642332,5515.887586,-740.205942,9104.533087
1533.642651,5898.935335,-962.267725,8290.306550
1533.642970,6435.202183,-1110.308913,7698.141797
1533.643289,5745.716235,-1332.370696,7328.038826
1533.643607,5362.668486,-1628.453072,7698.141797
1533.643926,4826.401637,-1406.391290,7846.182985
1533.644245,3983.696590,-1924.535449,9104.533087
1533.644564,3524.039291,-3404.947333,10510.924376
1533.644883,2145.067394,-4515.256246,12139.377449
1533.645202,1455.581446,-4885.359217,12509.480420
1533.645520,612.876398,-5107.421000,11843.295072
1533.645839,153.219100,-5329.482782,11769.274478
1533.646158,0.000000,-5329.482782,11177.109724
1533.646477,76.609550,-4219.173869,9992.780217
1533.646796,459.657299,-2664.741391,8364.327145
1533.647115,153.219100,-1702.473667,7105.977043
1533.647434,-306.438199,-1850.514855,7179.997637
1533.647752,-459.657299,-1998.556043,8438.347739
1533.648071,-459.657299,-2072.576638,9178.553681
1533.648390,-1225.752797,-2590.720797,9178.553681
1533.648709,-995.924147,-3627.009116,10510.924376
1533.649028,153.219100,-4441.235652,12287.418637
1533.649347,1455.581446,-3775.050304,11547.212695
1533.649665,2987.772442,-3627.009116,9770.718434
1533.649984,4596.572988,-3775.050304,9474.636058
1533.650303,6128.763984,-3552.988522,8438.347739
1533.650622,6205.373534,-2442.679609,6587.832884
1533.650941,6281.983084,-1258.350101,4737.318029
1533.651260,6128.763984,-666.185348,4515.256246
1533.651578,4903.011187,-1036.288319,4219.173869
1533.651897,3140.991542,-888.247130,4737.318029
1533.652216,1915.238745,-2220.617826,6439.791695
1533.652535,459.657299,-3256.906145,8512.368333
1533.652854,-1149.143247,-4811.338623,11029.068536
1533.653173,-2145.067394,-5477.523971,11473.192101
1533.653492,-1685.410096,-6513.812290,14137.933492
1533.653810,-2145.067394,-5995.668130,14137.933492
1533.654129,0.000000,-5033.400406,14656.077652
1533.654448,1225.752797,-3404.947333,12287.418637
1533.654767,3907.087040,-0.000000,10140.821405
1533.655086,5898.935335,370.102971,8364.327145
1533.655405,7048.078582,2294.638420,5847.626942
1533.655723,7431.126331,2516.700203,4367.215058
1533.656042,7354.516781,2664.741391,3182.885551
1533.656361,7124.688131,2146.597232,3478.967927
1533.656680,5592.497135,296.082377,3849.070898
1533.656999,4903.011187,-1406.391290,6587.832884
1533.657318,3064.381992,-2886.803174,9104.533087
1533.657636,1302.362347,-3701.029710,10288.862594
1533.657955,459.657299,-4071.132681,13027.624579
1533.658274,0.000000,-3108.864956,15100.201217
1533.658593,0.000000,-1850.514855,14730.098246
1533.658912,1455.581446,-666.185348,14211.954086
1533.659231,2911.162892,1184.329507,13101.645173
1533.659550,5056.230287,3478.967927,9696.697840
1533.659868,6588.421283,4737.318029,6513.812290
1533.660187,7660.954980,4441.235652,4737.318029
1533.660506,8580.269578,3775.050304,3404.947333
1533.660825,7967.393179,2220.617826,2072.576638
1533.661144,6971.469032,-222.061783,5181.441594
1533.661463,5132.839837,-1036.288319,6365.771101
1533.661781,2451.505594,-1998.556043,9474.636058
1533.662100,306.438199,-3775.050304,11843.295072
1533.662419,-1608.800546,-5995.668130,15914.427753
1533.662738,-3064.381992,-5995.668130,17764.942608
1533.663057,-3140.991542,-5403.503377,17987.004391
1533.663375,-2451.505594,-3182.885551,17098.757260
1533.663694,-229.828649,-1850.514855,14434.015869
1533.664013,1072.533697,518.144159,11399.171507
1533.664331,2987.772442,1184.329507,7920.203579
1533.664650,2987.772442,-370.102971,6587.832884
1533.664969,4443.353888,-740.205942,4959.379811
1533.665287,2834.553343,-740.205942,3775.050304
1533.665606,2911.162892,-1258.350101,4219.173869
1533.665925,1838.629195,-3108.864956,7402.059420
1533.666243,0.000000,-6291.750507,10362.883188
1533.666562,-1608.800546,-6957.935855,14137.933492
1533.666881,-2757.943793,-5773.606348,15544.324782
1533.667199,-2068.457845,-3627.009116,15174.221811
1533.667518,-1072.533697,-1924.535449,15174.221811
1533.667837,536.266849,-962.267725,14656.077652
1533.668155,2374.896044,148.041188,10807.006753
1533.668474,4213.525239,-0.000000,8216.285956
1533.668793,5286.058936,148.041188,5181.441594
1533.669111,6894.859482,-444.123565,3182.885551
1533.669430,7354.516781,-888.247130,1998.556043
1533.669749,6358.592633,-1554.432478,962.267725
1533.670067,5209.449386,-4145.153275,2738.761985
1533.670386,3830.477490,-4441.235652,5255.462188
1533.670705,2528.115143,-4885.359217,8956.491898
1533.671023,459.657299,-4589.276840,11177.109724
1533.671342,76.609550,-3404.947333,13027.624579
1533.671661,-612.876398,-3478.967927,14656.077652
1533.671979,76.609550,-2368.659014,15026.180623
1533.672298,1838.629195,-962.267725,13545.768739
1533.672617,4979.620737,296.082377,11103.089130
1533.672935,8044.002729,1406.391290,7920.203579
1533.673254,9806.022374,888.247130,3849.070898
1533.673573,9959.241474,-74.020594,148.041188
1533.673891,9499.584175,-2072.576638,0.000000
1533.674210,7890.783629,-4367.215058,1998.556043
1533.674529,6052.154434,-4293.194464,2368.659014
1533.674847,3524.039291,-3775.050304,5181.441594
1533.675166,612.876398,-4885.359217,8438.347739
1533.675485,-2068.457845,-4145.153275,13027.624579
1533.675803,-3064.381992,-5033.400406,17246.798449
1533.676122,-3677.258390,-4367.215058,17024.736666
1533.676441,-2451.505594,-2664.741391,18727.210333
1533.676759,-995.924147,-1258.350101,16210.510130
1533.677078,1608.800546,-148.041188,11399.171507
1533.677397,3830.477490,-666.185348,8586.388927
1533.677715,5822.325785,-0.000000,4737.318029
1533.678034,4979.620737,1258.350101,-962.267725
1533.678353,4749.792088,1850.514855,-2516.700203
1533.678671,2987.772442,2960.823768,-740.205942
1533.678990,0.000000,1480.411884,3627.009116
1533.679309,-3294.210641,-0.000000,5625.565159
1533.679627,-6511.811733,-888.247130,10362.883188
1533.679946,-7890.783629,-2368.659014,16210.510130
1533.680265,-9576.193725,-2738.761985,17764.942608
1533.680583,-8580.269578,-4441.235652,18653.189738
1533.680902,-7814.174080,-2886.803174,21095.869347
1533.681221,-5898.935335,-444.123565,18653.189738
1533.681539,-2757.943793,3404.947333,11917.315666
1533.681858,1149.143247,5551.544565,9252.574275
1533.682177,2681.334243,6957.935855,4219.173869
1533.682495,4290.134789,8660.409521,-1554.432478
1533.682814,4060.306139,9178.553681,-3627.009116
1533.683133,3600.648841,6143.709319,-1332.370696
1533.683451,1838.629195,3701.029710,3182.885551
1533.683770,-1762.019645,-296.082377,6513.812290
1533.684089,-3524.039291,-5033.400406,13397.727550
1533.684407,-6281.983084,-7328.038826,19097.313304
1533.684726,-6588.421283,-4885.359217,20503.704593
1533.685045,-5056.230287,-3552.988522,23538.548956
1533.685363,-2528.115143,666.185348,22428.240043
1533.685682,1302.362347,3478.967927,15840.407159
1533.686001,5132.839837,7105.977043,10214.842000
1533.686319,7737.564530,7624.121203,5625.565159
1533.686638,9806.022374,8142.265362,666.185348
1533.686957,9499.584175,7698.141797,-3849.070898
1533.687275,9576.193725,6513.812290,-2664.741391
1533.687594,6588.421283,1110.308913,1036.288319
1533.687913,2604.724693,-1332.370696,2738.761985
1533.688231,-459.657299,-3478.967927,9696.697840
1533.688550,-2911.162892,-5403.503377,17320.819043
1533.688869,-4213.525239,-3034.844362,19393.395680
1533.689187,-2987.772442,-444.123565,22058.137072
1533.689506,-1455.581446,-814.226536,21836.075289
1533.689825,1072.533697,1628.453072,19097.313304
1533.690143,3907.087040,2294.638420,13767.830521
1533.690462,6511.811733,5329.482782,9178.553681
1533.690781,8963.317327,5995.668130,740.205942
1533.691099,9193.145976,6365.771101,-5403.503377
1533.691418,7354.516781,3701.029710,-5329.482782
1533.691737,4366.744339,-666.185348,-1702.473667
1533.692055,766.095498,-3701.029710,1776.494261
1533.692374,-2987.772442,-3478.967927,6735.874072
1533.692693,-4903.011187,-5847.626942,13841.851115
1533.693011,-7124.688131,-6291.750507,18579.169144
1533.693330,-6741.640382,-7624.121203,21836.075289
1533.693649,-6052.154434,-5847.626942,22206.178260
1533.693967,-3524.039291,-2960.823768,22428.240043
1533.694286,76.609550,3701.029710,16136.489536
1533.694605,3447.429741,4663.297435,10362.883188
1533.694923,6665.030833,4663.297435,5107.421000
1533.695242,6588.421283,6217.729913,-1406.391290
1533.695561,6128.763984,4737.318029,-6217.729913
1533.695879,4290.134789,3404.947333,-5921.647536
1533.696198,1225.752797,1332.370696,-3034.844362
1533.696517,-2911.162892,-2220.617826,518.144159
1533.696835,-6971.469032,-5107.421000,7550.100608
1533.697154,-8656.879127,-10881.027347,16950.716072
1533.697473,-10648.727422,-11695.253884,19319.375086
1533.697791,-11338.213370,-11103.089130,18357.107362
1533.698110,-10035.851024,-9400.615463,23094.425390
1533.698429,-7737.564530,-5773.606348,24130.713709
1533.698747,-3370.820191,2516.700203,16062.468941
1533.699066,2145.067394,7550.100608,9326.594869
1533.699385,5745.716235,9178.553681,5625.565159
1533.699703,7660.954980,9178.553681,-2886.803174
1533.700022,9269.755526,9030.512492,-8290.306550
1533.700341,8580.269578,7698.141797,-7179.997637
1533.700659,6665.030833,962.267725,-962.267725
1533.700978,2834.553343,-1702.473667,888.247130
1533.701297,-689.485948,-5995.668130,7550.100608
1533.701615,-5209.449386,-12287.418637,16506.592507
1533.701934,-6358.592633,-7846.182985,21836.075289
1533.702253,-5439.278036,-7402.059420,23908.651927
1533.702571,-4519.963438,-1184.329507,24130.713709
1533.702890,-229.828649,1998.556043,22206.178260
1533.703209,2604.724693,6883.915261,12953.603985
1533.703527,8656.879127,11843.295072,8956.491898
1533.703846,12793.794817,8438.347739,1554.432478
1533.704165,13789.718964,9178.553681,-5329.482782
1533.704483,15934.786358,7179.997637,-7920.203579
1533.704802,12410.747068,4219.173869,-8068.244768
1533.705121,9039.926876,-0.000000,-1406.391290
1533.705439,2528.115143,-2072.576638,3404.947333
1533.705758,-3064.381992,-4367.215058,11843.295072
1533.706077,-7048.078582,-7920.203579,21539.992912
1533.706395,-9959.241474,-6957.935855,25315.043216
1533.706714,-7354.516781,-5329.482782,25092.981434
1533.707033,-5898.935335,888.247130,26055.249158
1533.707351,-2604.724693,1184.329507,23686.590144
1533.707670,612.876398,7698.141797,16728.654289
1533.707989,6281.983084,10807.006753,8438.347739
1533.708307,9193.145976,10584.944971,4441.235652
1533.708626,9116.536426,9474.636058,-3478.967927
1533.708945,8197.221829,9030.512492,-9400.615463
1533.709263,6588.421283,5329.482782,-5181.441594
1533.709582,2451.505594,2442.679609,0.000000
1533.709901,-1455.581446,1258.350101,1776.494261
1533.710219,-5898.935335,-4737.318029,12657.521608
1533.710538,-10342.289223,-11029.068536,22576.281231
1533.710857,-12947.013916,-12065.356855,24574.837274
1533.711175,-14325.985813,-7328.038826,21021.848753
1533.711494,-11644.651570,-4367.215058,29090.093521
1533.711813,-8427.050478,592.164754,26277.310941
1533.712131,-2298.286494,11547.212695,13693.809927
1533.712450,3370.820191,14508.036463,7254.018232
1533.712769,5975.544884,12953.603985,2812.782580
1533.713087,7124.688131,13767.830521,-6587.832884
1533.713406,5056.230287,9992.780217,-9474.636058
1533.713725,4749.792088,3108.864956,1554.432478
1533.714043,-536.266849,444.123565,-370.102971
1533.714362,-4366.744339,-2960.823768,1776.494261
1533.714681,-6281.983084,-11103.089130,17246.798449
1533.714999,-9499.584175,-14656.077652,23390.507767
1533.715318,-9346.365076,-7994.224174,21762.054695
1533.715637,-6128.763984,-4885.359217,23316.487173
1533.715955,-4213.525239,-518.144159,27979.784608
1533.716274,-1149.143247,4737.318029,18357.107362
1533.716593,4979.620737,11251.130318,10362.883188
1533.716911,10955.165621,5995.668130,5625.565159
1533.717230,12563.966167,6587.832884,-3775.050304
1533.717549,12947.013916,7994.224174,-11103.089130
1533.717867,12180.918418,6587.832884,-10881.027347
1533.718186,10418.898773,2442.679609,-5107.421000
1533.718505,5898.935335,-1998.556043,-5329.482782
1533.718823,-2068.457845,-5699.585753,3552.988522
1533.719142,-6971.469032,-11399.171507,20429.683999
1533.719461,-9576.193725,-10807.006753,23464.528361
1533.719779,-9499.584175,-9770.718434,22798.343014
1533.720098,-6511.811733,-8512.368333,27535.661042
1533.720417,-3217.601092,-2590.720797,30792.567187
1533.720735,-306.438199,3849.070898,15544.324782
1533.721054,8733.488677,11473.192101,9178.553681
1533.721373,12334.137518,9992.780217,3997.112087
1533.721691,14555.814462,9548.656652,-5551.544565
1533.722010,14172.766713,12953.603985,-14730.098246
1533.722329,14325.985813,8512.368333,-12583.501014
1533.722647,9959.241474,962.267725,-9844.739029
1533.722966,2145.067394,-1258.350101,-8808.450710
1533.723285,-3370.820191,-8290.306550,5403.503377
1533.723603,-9882.631924,-14656.077652,20059.581028
1533.723922,-13406.671215,-16506.592507,23834.631332
1533.724241,-15168.690860,-13323.706956,21465.972318
1533.724559,-14325.985813,-12509.480420,26869.475695
1533.724878,-8580.269578,-4145.153275,33827.411549
1533.725197,-3907.087040,8290.306550,16432.571912
1533.725515,3370.820191,16876.695478,8068.244768
1533.725834,7048.078582,8956.491898,6143.709319
1533.726153,10112.460574,11769.274478,-3775.050304
1533.726471,9039.926876,12953.603985,-15100.201217
1533.726790,7660.954980,2812.782580,-6957.935855
1533.727109,2987.772442,1850.514855,-2442.679609
1533.727427,-2451.505594,-592.164754,-7550.100608
1533.727746,-4903.011187,-4885.359217,6587.832884
1533.728065,-12410.747068,-14508.036463,19467.416275
1533.728383,-13483.280765,-13989.892304,24574.837274
1533.728702,-15704.957709,-13175.665768,20207.622217
1533.729021,-13636.499864,-10658.965565,34345.555709
1533.729339,-10189.070123,-1776.494261,32939.164419
1533.729658,-6128.763984,12805.562797,12805.562797
1533.729977,4903.011187,15618.345376,15618.345376
1533.730295,8120.612279,12731.542202,6587.832884
1533.730614,12257.527968,15396.283594,-5625.565159
1533.730933,15015.471761,14952.160028,-14359.995275
1533.731251,15168.690860,10510.924376,-5995.668130
1533.731570,12104.308868,5847.626942,-5995.668130
1533.731889,3217.601092,518.144159,-10066.800811
1533.732207,-995.924147,-7179.997637,8142.265362
1533.732526,-9959.241474,-13027.624579,22354.219448
1533.732845,-12257.527968,-11251.130318,24500.816680
1533.733163,-9346.365076,-7994.224174,26943.496289
1533.733482,-7737.564530,-1554.432478,29608.237680
1533.733801,-3753.867940,3923.091493,30718.546593
1533.734119,0.000000,10732.986159,18727.210333
1533.734438,7431.126331,13175.665768,13619.789333
1533.734757,14172.766713,12657.521608,8808.450710
1533.735075,16854.100956,13693.809927,-8290.306550
1533.735394,17543.586904,11695.253884,-15248.242405
1533.735713,17926.634653,10732.986159,-14508.036463
1533.736031,12487.356617,5255.462188,-9696.697840
1533.736350,3217.601092,-2368.659014,-4293.194464
1533.736669,-2451.505594,-5329.482782,7624.121203
1533.736987,-9499.584175,-12657.521608,23686.590144
1533.737306,-14096.157163,-15174.221811,27535.661042
1533.737625,-16700.881856,-14878.139434,23168.445985
1533.737943,-15168.690860,-10881.027347,29608.237680
1533.738262,-9269.755526,-6513.812290,40045.141462
1533.738581,-3753.867940,7994.224174,19245.354492
1533.738899,7431.126331,17246.798449,10584.944971
1533.739218,12793.794817,16580.613101,7624.121203
1533.739537,14555.814462,15396.283594,-4959.379811
1533.739855,14096.157163,11991.336260,-11843.295072
1533.740174,14785.643111,8808.450710,-10510.924376
1533.740493,7890.783629,-1702.473667,-8586.388927
1533.740811,0.000000,-2516.700203,-10732.986159
1533.741130,-4673.182538,-13027.624579,8068.244768
1533.741449,-10801.946522,-16210.510130,20503.704593
1533.741767,-15934.786358,-20429.683999,22798.343014
1533.742086,-15551.738609,-14211.954086,20207.622217
1533.742405,-16394.443657,-15692.365970,26869.475695
1533.742723,-13636.499864,-10510.924376,39156.894332
1533.743042,-7354.516781,8438.347739,18653.189738
1533.743361,0.000000,13397.727550,10584.944971
1533.743679,8810.098227,12435.459826,10584.944971
1533.743998,11031.775171,12805.562797,-4737.318029
1533.744317,15015.471761,13175.665768,-13989.892304
1533.744635,14555.814462,9770.718434,-8364.327145
1533.744954,10648.727422,962.267725,-7994.224174
1533.745273,2834.553343,-2516.700203,-14285.974681
1533.745591,-2604.724693,-11769.274478,7920.203579
1533.745910,-10112.460574,-17987.004391,19245.354492
1533.746229,-13253.452115,-18727.210333,23612.569550
1533.746547,-10572.117872,-12139.377449,21910.095883
