#time,accel_x,accel_y,accel_z
1904.313491,3447.429741,2590.720797,13989.892304
1904.313808,2987.772442,1776.494261,13249.686362
1904.314126,2298.286494,1702.473667,13397.727550
1904.314443,1685.410096,1480.411884,13989.892304
1904.314760,612.876398,1924.535449,14211.954086
1904.315078,-459.657299,2442.679609,14359.995275
1904.315395,-766.095498,2664.741391,13619.789333
1904.315712,-1302.362347,3182.885551,14063.912898
1904.316030,-842.705048,2072.576638,13619.789333
1904.316347,-536.266849,1332.370696,12361.439231
1904.316664,0.000000,-0.000000,11177.109724
1904.316981,536.266849,-370.102971,10510.924376
1904.317299,689.485948,-1258.350101,10510.924376
1904.317616,76.609550,-1110.308913,9474.636058
1904.317933,-689.485948,-740.205942,9770.718434
1904.318251,-1532.190996,-74.020594,9474.636058
1904.318568,-2834.553343,-74.020594,9622.677246
1904.318885,-3600.648841,222.061783,9326.594869
1904.319203,-3677.258390,296.082377,9474.636058
1904.319520,-3140.991542,-666.185348,9326.594869
1904.319837,-2987.772442,-1110.308913,8512.368333
1904.320155,-2221.676944,-1776.494261,8882.471304
1904.320472,-689.485948,-1184.329507,7476.080014
1904.320789,-76.609550,-962.267725,6883.915261
1904.321107,306.438199,-1036.288319,6809.894666
1904.321424,0.000000,-296.082377,6661.853478
1904.321741,-153.219100,-0.000000,6217.729913
1904.322058,-229.828649,296.082377,6069.688724
1904.322376,-383.047749,-0.000000,5551.544565
1904.322693,153.219100,-148.041188,5107.421000
1904.323010,536.266849,-740.205942,4885.359217
1904.323328,1149.143247,-2368.659014,5033.400406
1904.323645,1455.581446,-2960.823768,5625.565159
1904.323962,1608.800546,-2812.782580,5181.441594
1904.324280,919.314598,-2886.803174,5403.503377
1904.324597,76.609550,-3034.844362,5847.626942
1904.324914,-1149.143247,-3256.906145,6809.894666
1904.325232,-2145.067394,-2516.700203,7179.997637
1904.325549,-2987.772442,-2146.597232,7402.059420
1904.325866,-3447.429741,-1554.432478,7772.162391
1904.326183,-3677.258390,-1258.350101,7920.203579
1904.326501,-4213.525239,-1554.432478,8142.265362
1904.326818,-4213.525239,-1554.432478,8660.409521
1904.327135,-4060.306139,-1184.329507,9030.512492
1904.327453,-4060.306139,-444.123565,8956.491898
1904.327770,-3983.696590,740.205942,8586.388927
1904.328087,-3294.210641,1998.556043,8956.491898
1904.328405,-3370.820191,2960.823768,8734.430116
1904.328722,-3600.648841,3923.091493,8808.450710
1904.329039,-3677.258390,4515.256246,8734.430116
1904.329357,-3677.258390,4737.318029,8808.450710
1904.329674,-3983.696590,5255.462188,8734.430116
1904.329991,-3677.258390,5107.421000,8956.491898
1904.330309,-3370.820191,5477.523971,8660.409521
1904.330626,-2221.676944,6143.709319,8512.368333
1904.330943,-1685.410096,6809.894666,8660.409521
1904.331260,-1225.752797,6883.915261,8512.368333
1904.331578,-766.095498,6809.894666,9030.512492
1904.331895,-1225.752797,6883.915261,9326.594869
1904.332212,-1302.362347,6439.791695,9696.697840
1904.332530,-995.924147,7031.956449,10807.006753
1904.332847,-383.047749,7105.977043,11029.068536
1904.333164,842.705048,7254.018232,11399.171507
1904.333482,2528.115143,7254.018232,11695.253884
1904.333799,2374.896044,7772.162391,9918.759623
1904.334116,3447.429741,6143.709319,9918.759623
1904.334434,2374.896044,5921.647536,10362.883188
1904.334751,3524.039291,6735.874072,10288.862594
1904.335068,2604.724693,6217.729913,7920.203579
1904.335386,1608.800546,6365.771101,7476.080014
1904.335703,-689.485948,6365.771101,9030.512492
1904.336020,-3677.258390,4737.318029,10362.883188
1904.336337,-6818.249932,3182.885551,12287.418637
1904.336655,-10265.679673,1554.432478,13915.871710
1904.336972,-11721.261119,1702.473667,15026.180623
1904.337289,-12180.918418,1702.473667,15988.448347
1904.337607,-10572.117872,1480.411884,17320.819043
1904.337924,-9576.193725,3108.864956,15988.448347
1904.338241,-8273.831378,4589.276840,13915.871710
1904.338559,-6435.202183,5773.606348,13397.727550
1904.338876,-4979.620737,6143.709319,13471.748144
1904.339193,-4136.915689,5699.585753,13175.665768
1904.339511,-3064.381992,6661.853478,11769.274478
1904.339828,-1838.629195,7179.997637,11029.068536
1904.340145,689.485948,8216.285956,9326.594869
1904.340463,3370.820191,7179.997637,9474.636058
1904.340780,3677.258390,6365.771101,7846.182985
1904.341097,4596.572988,4885.359217,7846.182985
1904.341414,4826.401637,4367.215058,6513.812290
1904.341732,4749.792088,2590.720797,6957.935855
1904.342049,4673.182538,1406.391290,7698.141797
1904.342366,3677.258390,1480.411884,7846.182985
1904.342684,2681.334243,2072.576638,8142.265362
1904.343001,2221.676944,1998.556043,9030.512492
1904.343318,1378.971896,1702.473667,9178.553681
1904.343636,612.876398,1332.370696,9474.636058
1904.343953,612.876398,888.247130,9918.759623
1904.344270,1455.581446,148.041188,9400.615463
1904.344588,2145.067394,-0.000000,9474.636058
1904.344905,3524.039291,-666.185348,9178.553681
1904.345223,3524.039291,-1924.535449,9770.718434
1904.345540,3370.820191,-3701.029710,10955.047942
1904.345858,1838.629195,-4071.132681,11029.068536
1904.346175,1378.971896,-4219.173869,10658.965565
1904.346493,1685.410096,-3108.864956,10140.821405
1904.346810,2221.676944,-2664.741391,9178.553681
1904.347128,3064.381992,-2738.761985,7402.059420
1904.347445,3447.429741,-3108.864956,6513.812290
1904.347763,2757.943793,-4441.235652,5921.647536
1904.348081,1762.019645,-7031.956449,7105.977043
1904.348398,459.657299,-9400.615463,8956.491898
1904.348716,-229.828649,-10066.800811,9696.697840
1904.349033,-536.266849,-9030.512492,9844.739029
1904.349351,-459.657299,-7402.059420,9770.718434
1904.349668,766.095498,-5403.503377,9252.574275
1904.349986,1378.971896,-3404.947333,8586.388927
1904.350303,1608.800546,-2738.761985,7994.224174
1904.350621,612.876398,-3034.844362,7920.203579
1904.350938,153.219100,-3701.029710,8438.347739
1904.351256,306.438199,-3923.091493,8734.430116
1904.351573,842.705048,-3256.906145,9104.533087
1904.351891,2068.457845,-2072.576638,8586.388927
1904.352208,3140.991542,-296.082377,7031.956449
1904.352526,4366.744339,1406.391290,5625.565159
1904.352843,5209.449386,1850.514855,5033.400406
1904.353161,4673.182538,1406.391290,4367.215058
1904.353478,3447.429741,148.041188,3849.070898
1904.353796,2145.067394,222.061783,3701.029710
1904.354113,1225.752797,-0.000000,4737.318029
1904.354431,383.047749,-0.000000,6291.750507
1904.354748,229.828649,518.144159,7402.059420
1904.355066,-229.828649,1554.432478,8808.450710
1904.355383,-306.438199,2516.700203,8882.471304
1904.355701,-306.438199,3034.844362,9474.636058
1904.356018,-766.095498,3108.864956,9474.636058
1904.356336,-459.657299,3627.009116,8882.471304
1904.356653,-842.705048,3256.906145,8956.491898
1904.356971,-689.485948,3108.864956,9030.512492
1904.357288,-536.266849,3330.926739,9474.636058
1904.357606,-383.047749,3404.947333,9696.697840
1904.357923,-612.876398,3923.091493,10436.903782
1904.358241,-1915.238745,3997.112087,10584.944971
1904.358558,-2834.553343,3627.009116,11029.068536
1904.358876,-3447.429741,2960.823768,11399.171507
1904.359193,-3447.429741,2664.741391,11769.274478
1904.359511,-2604.724693,2146.597232,11695.253884
1904.359828,-2145.067394,1628.453072,11399.171507
1904.360146,-1838.629195,1258.350101,11695.253884
1904.360463,-1991.848295,1332.370696,12287.418637
1904.360781,-1915.238745,1924.535449,12287.418637
1904.361098,-2374.896044,3627.009116,12435.459826
1904.361416,-2604.724693,4589.276840,12879.583391
1904.361733,-1991.848295,5403.503377,12435.459826
1904.362051,-919.314598,5551.544565,11695.253884
1904.362368,383.047749,5477.523971,11177.109724
1904.362686,1608.800546,5329.482782,10732.986159
1904.363003,1838.629195,4293.194464,10436.903782
1904.363321,2298.286494,3478.967927,10732.986159
1904.363638,2451.505594,3256.906145,10881.027347
1904.363956,1685.410096,3478.967927,11695.253884
1904.364273,1378.971896,3997.112087,11695.253884
1904.364591,1378.971896,4293.194464,11325.150913
1904.364908,1302.362347,4293.194464,11325.150913
1904.365226,1225.752797,3997.112087,11177.109724
1904.365543,1072.533697,2664.741391,10584.944971
1904.365861,1532.190996,1332.370696,10658.965565
1904.366178,1072.533697,222.061783,10732.986159
1904.366496,1149.143247,148.041188,10436.903782
1904.366813,1072.533697,-0.000000,10510.924376
1904.367131,1455.581446,222.061783,10214.842000
1904.367448,1991.848295,222.061783,10362.883188
1904.367766,1838.629195,296.082377,10140.821405
1904.368083,1455.581446,-222.061783,9992.780217
1904.368401,1532.190996,-1258.350101,9770.718434
1904.368718,1455.581446,-2072.576638,9400.615463
1904.369036,1302.362347,-2886.803174,8882.471304
1904.369353,612.876398,-3627.009116,8956.491898
1904.369671,459.657299,-4441.235652,9400.615463
1904.369988,383.047749,-4441.235652,9326.594869
1904.370306,689.485948,-4219.173869,9548.656652
1904.370623,536.266849,-4219.173869,9474.636058
1904.370941,306.438199,-3997.112087,9252.574275
1904.371258,306.438199,-4071.132681,8438.347739
1904.371576,459.657299,-4737.318029,8586.388927
1904.371893,459.657299,-4737.318029,8512.368333
1904.372211,1149.143247,-4367.215058,7920.203579
1904.372528,1838.629195,-3552.988522,7402.059420
1904.372846,2068.457845,-2738.761985,7920.203579
1904.373163,2298.286494,-2220.617826,7476.080014
1904.373481,2298.286494,-1628.453072,6809.894666
1904.373798,2298.286494,-1480.411884,6661.853478
1904.374116,2451.505594,-1406.391290,6809.894666
1904.374433,2681.334243,-1554.432478,6365.771101
1904.374751,2604.724693,-1628.453072,6069.688724
1904.375068,2528.115143,-1776.494261,5773.606348
1904.375386,2451.505594,-1554.432478,5921.647536
1904.375703,2298.286494,-1184.329507,6513.812290
1904.376021,2221.676944,-740.205942,7105.977043
1904.376338,1838.629195,-888.247130,7105.977043
1904.376656,1991.848295,-1110.308913,7476.080014
1904.376973,2298.286494,-1258.350101,7772.162391
1904.377291,1991.848295,-1628.453072,7846.182985
1904.377608,2451.505594,-1776.494261,7550.100608
1904.377926,2451.505594,-1258.350101,7994.224174
1904.378243,2221.676944,-1406.391290,7920.203579
1904.378561,1762.019645,-1036.288319,8290.306550
1904.378878,1225.752797,-518.144159,8660.409521
1904.379196,612.876398,-222.061783,8882.471304
1904.379513,0.000000,-74.020594,9252.574275
1904.379831,-689.485948,-148.041188,9474.636058
1904.380148,-1072.533697,-74.020594,10214.842000
1904.380466,-1072.533697,-888.247130,11029.068536
1904.380783,-1378.971896,-1110.308913,10955.047942
1904.381101,-995.924147,-1332.370696,11621.233289
1904.381418,-766.095498,-370.102971,11843.295072
1904.381736,-612.876398,-148.041188,11547.212695
1904.382053,-689.485948,962.267725,11547.212695
1904.382371,-766.095498,1406.391290,11917.315666
1904.382689,-536.266849,1702.473667,11547.212695
1904.383006,0.000000,1924.535449,11769.274478
1904.383324,536.266849,2368.659014,11251.130318
1904.383641,229.828649,2590.720797,10732.986159
1904.383959,995.924147,2442.679609,10510.924376
1904.384276,1225.752797,2516.700203,10436.903782
1904.384594,995.924147,2220.617826,10584.944971
1904.384911,1455.581446,2738.761985,11029.068536
1904.385229,1455.581446,2664.741391,10807.006753
1904.385546,1072.533697,2886.803174,10436.903782
1904.385864,1149.143247,2664.741391,10066.800811
1904.386181,842.705048,2886.803174,10214.842000
1904.386499,612.876398,2294.638420,9992.780217
1904.386816,459.657299,2368.659014,9918.759623
1904.387134,229.828649,1702.473667,10214.842000
1904.387451,689.485948,1776.494261,10288.862594
1904.387769,0.000000,2146.597232,9918.759623
1904.388086,842.705048,1702.473667,10584.944971
1904.388404,0.000000,1702.473667,9474.636058
1904.388721,229.828649,1184.329507,9992.780217
1904.389039,306.438199,814.226536,9770.718434
1904.389356,229.828649,814.226536,10066.800811
1904.389674,689.485948,-0.000000,9622.677246
1904.389991,689.485948,-518.144159,9474.636058
1904.390309,612.876398,-370.102971,9992.780217
1904.390626,842.705048,-296.082377,9992.780217
1904.390944,536.266849,-666.185348,9400.615463
1904.391261,995.924147,-888.247130,9326.594869
1904.391579,842.705048,-1184.329507,9992.780217
1904.391896,689.485948,-1036.288319,9696.697840
1904.392214,919.314598,-1850.514855,9844.739029
1904.392531,229.828649,-2220.617826,9918.759623
1904.392849,1072.533697,-2220.617826,9548.656652
1904.393166,995.924147,-2516.700203,9400.615463
1904.393484,1225.752797,-2220.617826,9400.615463
1904.393801,1532.190996,-2368.659014,9474.636058
1904.394119,1608.800546,-2146.597232,8956.491898
1904.394436,2145.067394,-2146.597232,8882.471304
1904.394754,2221.676944,-2146.597232,8438.347739
1904.395071,2374.896044,-2146.597232,8290.306550
1904.395389,2834.553343,-2368.659014,8068.244768
1904.395706,3064.381992,-1850.514855,7328.038826
1904.396024,2987.772442,-1406.391290,7105.977043
1904.396341,3140.991542,-1332.370696,6735.874072
1904.396659,3064.381992,-1110.308913,6735.874072
1904.396976,2451.505594,-1332.370696,7328.038826
1904.397294,2068.457845,-1406.391290,7402.059420
1904.397611,1762.019645,-1480.411884,7846.182985
1904.397929,1838.629195,-1480.411884,8142.265362
1904.398246,1762.019645,-1110.308913,7994.224174
1904.398564,1838.629195,-1406.391290,7846.182985
1904.398881,2068.457845,-1110.308913,7846.182985
1904.399199,1838.629195,-740.205942,7772.162391
1904.399516,1762.019645,-370.102971,7550.100608
1904.399834,2145.067394,222.061783,7624.121203
1904.400151,2221.676944,518.144159,7920.203579
1904.400469,1225.752797,518.144159,8068.244768
1904.400786,1149.143247,222.061783,8290.306550
1904.401104,1072.533697,-74.020594,8660.409521
1904.401421,919.314598,-666.185348,9178.553681
1904.401739,919.314598,-814.226536,9622.677246
1904.402056,1149.143247,-1332.370696,9696.697840
1904.402374,995.924147,-1184.329507,9622.677246
1904.402691,1225.752797,-740.205942,9548.656652
1904.403009,1302.362347,-444.123565,9918.759623
1904.403326,919.314598,-444.123565,9918.759623
1904.403644,842.705048,-444.123565,10066.800811
1904.403961,766.095498,-666.185348,10658.965565
1904.404279,153.219100,-518.144159,11251.130318
1904.404596,306.438199,-444.123565,11695.253884
1904.404914,0.000000,-222.061783,11547.212695
1904.405231,153.219100,370.102971,11251.130318
1904.405549,306.438199,666.185348,11029.068536
1904.405866,536.266849,888.247130,10658.965565
1904.406184,689.485948,888.247130,10881.027347
1904.406501,766.095498,814.226536,10436.903782
1904.406819,153.219100,1036.288319,10288.862594
1904.407136,689.485948,1258.350101,10436.903782
1904.407454,612.876398,1776.494261,10140.821405
1904.407771,612.876398,1998.556043,9992.780217
1904.408089,229.828649,2368.659014,9696.697840
1904.408406,0.000000,2812.782580,9918.759623
1904.408724,153.219100,2516.700203,9770.718434
1904.409041,0.000000,2590.720797,10214.842000
1904.409359,-229.828649,2664.741391,10288.862594
1904.409676,-612.876398,2294.638420,10214.842000
1904.409994,-689.485948,2220.617826,10066.800811
1904.410311,-689.485948,2146.597232,10066.800811
1904.410629,-459.657299,1998.556043,9992.780217
1904.410946,0.000000,2294.638420,9844.739029
1904.411264,-153.219100,2294.638420,9696.697840
1904.411581,0.000000,2072.576638,9252.574275
1904.411899,-306.438199,1554.432478,9178.553681
1904.412216,-459.657299,1406.391290,9030.512492
1904.412534,-306.438199,814.226536,8956.491898
1904.412851,-229.828649,1110.308913,9104.533087
1904.413169,-459.657299,518.144159,9252.574275
1904.413486,-383.047749,444.123565,9030.512492
1904.413804,-459.657299,296.082377,9326.594869
1904.414121,-612.876398,222.061783,9548.656652
1904.414439,-766.095498,148.041188,9252.574275
1904.414756,-612.876398,-0.000000,9622.677246
1904.415074,-229.828649,-0.000000,9844.739029
1904.415391,229.828649,-148.041188,9696.697840
1904.415709,459.657299,-0.000000,9622.677246
1904.416026,766.095498,-74.020594,9474.636058
1904.416344,1149.143247,-0.000000,9030.512492
1904.416661,1762.019645,222.061783,8586.388927
1904.416979,1762.019645,518.144159,8216.285956
1904.417297,1685.410096,518.144159,8290.306550
1904.417614,1762.019645,740.205942,8734.430116
1904.417932,1225.752797,370.102971,8586.388927
1904.418249,689.485948,148.041188,8734.430116
1904.418567,842.705048,222.061783,9104.533087
1904.418884,459.657299,-74.020594,8586.388927
1904.419202,229.828649,-518.144159,8660.409521
1904.419519,689.485948,-592.164754,8808.450710
1904.419837,842.705048,-222.061783,8956.491898
1904.420154,1072.533697,-74.020594,8734.430116
1904.420472,1225.752797,-0.000000,8438.347739
1904.420789,1455.581446,-0.000000,8216.285956
1904.421107,1378.971896,-74.020594,8512.368333
1904.421424,1302.362347,-148.041188,8438.347739
1904.421742,1302.362347,-0.000000,8660.409521
1904.422059,1225.752797,-222.061783,8512.368333
1904.422377,1532.190996,-296.082377,8882.471304
1904.422694,1455.581446,-296.082377,8956.491898
1904.423012,995.924147,-814.226536,9030.512492
1904.423329,919.314598,-814.226536,9474.636058
1904.423647,842.705048,-370.102971,9474.636058
1904.423964,766.095498,-0.000000,9622.677246
1904.424282,842.705048,-74.020594,9844.739029
1904.424599,766.095498,-0.000000,9992.780217
1904.424917,612.876398,-0.000000,9696.697840
1904.425234,536.266849,444.123565,9992.780217
1904.425552,1072.533697,592.164754,10214.842000
1904.425869,919.314598,740.205942,10510.924376
1904.426187,1455.581446,888.247130,10066.800811
1904.426504,1762.019645,1036.288319,10140.821405
1904.426822,1608.800546,814.226536,10214.842000
1904.427139,1915.238745,962.267725,10140.821405
1904.427457,1915.238745,1110.308913,9992.780217
1904.427774,1762.019645,1184.329507,10140.821405
1904.428092,1838.629195,1628.453072,9696.697840
1904.428409,1915.238745,1850.514855,9918.759623
1904.428727,1915.238745,1776.494261,9770.718434
1904.429044,1378.971896,1850.514855,9474.636058
1904.429362,1302.362347,1554.432478,9400.615463
1904.429679,995.924147,1554.432478,9548.656652
1904.429997,919.314598,1258.350101,9770.718434
1904.430314,689.485948,1036.288319,9992.780217
1904.430632,383.047749,740.205942,9918.759623
1904.430949,0.000000,1110.308913,9918.759623
1904.431267,-766.095498,1332.370696,9844.739029
1904.431584,-689.485948,1332.370696,10066.800811
1904.431902,-1072.533697,1258.350101,10436.903782
1904.432219,-1225.752797,1480.411884,10436.903782
1904.432537,-1149.143247,1184.329507,10214.842000
1904.432854,-1302.362347,1332.370696,10066.800811
1904.433172,-995.924147,1036.288319,9696.697840
1904.433489,-995.924147,666.185348,9696.697840
1904.433807,-229.828649,592.164754,9622.677246
1904.434124,-612.876398,1258.350101,9030.512492
1904.434442,-383.047749,1332.370696,9104.533087
1904.434759,153.219100,1332.370696,8734.430116
1904.435077,0.000000,1184.329507,8956.491898
1904.435394,612.876398,740.205942,9252.574275
1904.435712,229.828649,518.144159,8808.450710
1904.436029,306.438199,518.144159,9326.594869
1904.436347,383.047749,222.061783,9400.615463
1904.436664,766.095498,444.123565,9104.533087
1904.436982,1455.581446,666.185348,9104.533087
1904.437299,1225.752797,666.185348,8512.368333
1904.437617,842.705048,814.226536,8882.471304
1904.437934,612.876398,740.205942,8364.327145
1904.438252,995.924147,-0.000000,8734.430116
1904.438569,612.876398,296.082377,8660.409521
1904.438887,306.438199,222.061783,8660.409521
1904.439204,76.609550,444.123565,8512.368333
1904.439522,153.219100,-0.000000,8512.368333
1904.439839,0.000000,-0.000000,8438.347739
1904.440157,0.000000,-444.123565,8512.368333
1904.440474,229.828649,-814.226536,8734.430116
1904.440792,0.000000,-666.185348,8808.450710
1904.441109,76.609550,-518.144159,8956.491898
1904.441427,459.657299,-592.164754,8882.471304
1904.441744,306.438199,-296.082377,9030.512492
1904.442062,459.657299,-740.205942,8882.471304
1904.442379,612.876398,-518.144159,8882.471304
1904.442697,536.266849,-592.164754,9178.553681
1904.443014,842.705048,-296.082377,9104.533087
1904.443332,995.924147,-222.061783,8882.471304
1904.443649,1225.752797,-148.041188,8882.471304
1904.443967,919.314598,-0.000000,9252.574275
1904.444284,766.095498,-0.000000,9326.594869
1904.444602,1302.362347,-740.205942,9474.636058
1904.444919,766.095498,-592.164754,9770.718434
1904.445237,842.705048,-518.144159,9992.780217
1904.445554,919.314598,-444.123565,10288.862594
1904.445872,1149.143247,-740.205942,10066.800811
1904.446189,1302.362347,-370.102971,9696.697840
1904.446507,919.314598,-296.082377,9770.718434
1904.446825,919.314598,-148.041188,9548.656652
1904.447142,766.095498,-148.041188,9474.636058
1904.447460,1302.362347,-814.226536,9918.759623
1904.447777,459.657299,-666.185348,10436.903782
1904.448095,612.876398,-444.123565,10066.800811
1904.448412,842.705048,-222.061783,10510.924376
1904.448730,766.095498,-222.061783,10584.944971
1904.449047,1149.143247,222.061783,10362.883188
1904.449365,1149.143247,518.144159,9992.780217
1904.449682,1378.971896,592.164754,9844.739029
1904.450000,1455.581446,666.185348,9918.759623
1904.450317,1225.752797,740.205942,9474.636058
1904.450635,1072.533697,1110.308913,9696.697840
1904.450952,1072.533697,1554.432478,9474.636058
1904.451270,995.924147,1184.329507,9400.615463
1904.451587,919.314598,1036.288319,10066.800811
1904.451905,842.705048,814.226536,10066.800811
1904.452222,459.657299,962.267725,9992.780217
1904.452540,306.438199,962.267725,9622.677246
1904.452858,229.828649,1258.350101,9696.697840
1904.453175,0.000000,962.267725,10214.842000
1904.453493,0.000000,592.164754,10288.862594
1904.453810,76.609550,518.144159,10362.883188
1904.454128,0.000000,592.164754,10362.883188
1904.454445,0.000000,666.185348,10140.821405
1904.454763,229.828649,592.164754,10214.842000
1904.455080,153.219100,370.102971,10214.842000
1904.455398,-153.219100,592.164754,9474.636058
1904.455715,383.047749,962.267725,9622.677246
1904.456033,536.266849,666.185348,9548.656652
1904.456350,995.924147,444.123565,9474.636058
1904.456668,1149.143247,-0.000000,9400.615463
1904.456985,612.876398,148.041188,9548.656652
1904.457303,1072.533697,222.061783,9622.677246
1904.457620,995.924147,-0.000000,9474.636058
1904.457938,1149.143247,296.082377,9770.718434
1904.458255,1072.533697,518.144159,9400.615463
1904.458573,1302.362347,518.144159,9030.512492
1904.458891,1532.190996,296.082377,8808.450710
1904.459208,1532.190996,814.226536,8734.430116
1904.459526,1608.800546,592.164754,8142.265362
1904.459843,1762.019645,666.185348,7994.224174
1904.460161,1608.800546,740.205942,8512.368333
1904.460478,1685.410096,444.123565,8290.306550
1904.460796,995.924147,-0.000000,8512.368333
1904.461113,689.485948,-74.020594,8734.430116
1904.461431,689.485948,-0.000000,8808.450710
1904.461748,383.047749,-222.061783,8882.471304
1904.462066,306.438199,148.041188,8956.491898
1904.462383,153.219100,-0.000000,8734.430116
1904.462701,153.219100,-0.000000,8808.450710
1904.463018,229.828649,-148.041188,8512.368333
1904.463336,383.047749,-74.020594,8512.368333
1904.463653,0.000000,-518.144159,8586.388927
1904.463971,0.000000,-814.226536,8660.409521
1904.464288,-459.657299,-1184.329507,9474.636058
1904.464606,-383.047749,-1184.329507,9474.636058
1904.464924,-459.657299,-962.267725,9474.636058
1904.465241,-229.828649,-962.267725,9474.636058
1904.465559,229.828649,-1110.308913,9400.615463
1904.465876,153.219100,-888.247130,9252.574275
1904.466194,766.095498,-666.185348,9474.636058
1904.466511,1225.752797,-1110.308913,9474.636058
1904.466829,1762.019645,-1332.370696,9474.636058
1904.467146,2604.724693,-1554.432478,9622.677246
1904.467464,1838.629195,-1406.391290,9548.656652
1904.467781,2068.457845,-1036.288319,9622.677246
1904.468099,2145.067394,-444.123565,9252.574275
1904.468416,2221.676944,-592.164754,9622.677246
1904.468734,2221.676944,-814.226536,9918.759623
1904.469051,1991.848295,-814.226536,9622.677246
1904.469369,2145.067394,-888.247130,9918.759623
1904.469686,2145.067394,-1036.288319,9844.739029
1904.470004,2451.505594,-1554.432478,9844.739029
1904.470321,2374.896044,-1258.350101,9844.739029
1904.470639,2451.505594,-962.267725,9844.739029
1904.470957,2298.286494,-814.226536,9770.718434
1904.471274,2451.505594,-518.144159,9474.636058
1904.471592,2604.724693,-0.000000,8882.471304
1904.471909,2298.286494,-0.000000,8586.388927
1904.472227,1915.238745,-370.102971,8586.388927
1904.472544,1532.190996,-740.205942,9030.512492
1904.472862,1225.752797,-1110.308913,9474.636058
1904.473179,1225.752797,-888.247130,9326.594869
1904.473497,766.095498,-592.164754,9178.553681
1904.473814,536.266849,-370.102971,9178.553681
1904.474132,0.000000,-444.123565,9474.636058
1904.474449,0.000000,-518.144159,9474.636058
1904.474767,-153.219100,-370.102971,9918.759623
1904.475084,-306.438199,-666.185348,9696.697840
1904.475402,-229.828649,-518.144159,9548.656652
1904.475719,0.000000,-518.144159,9992.780217
1904.476037,229.828649,-148.041188,9474.636058
1904.476354,229.828649,-222.061783,8956.491898
1904.476672,229.828649,222.061783,8586.388927
1904.476990,995.924147,370.102971,8734.430116
1904.477307,1225.752797,814.226536,8808.450710
1904.477625,919.314598,222.061783,8808.450710
1904.477942,842.705048,592.164754,9104.533087
1904.478260,919.314598,740.205942,9400.615463
1904.478577,689.485948,592.164754,9474.636058
1904.478895,689.485948,740.205942,9844.739029
1904.479212,1378.971896,888.247130,10140.821405
1904.479530,1762.019645,1406.391290,9992.780217
1904.479847,1915.238745,1480.411884,9548.656652
1904.480165,2068.457845,1110.308913,9178.553681
1904.480482,1991.848295,1184.329507,8882.471304
1904.480800,2068.457845,1036.288319,8882.471304
1904.481117,1685.410096,888.247130,9030.512492
1904.481435,1455.581446,814.226536,9252.574275
1904.481752,919.314598,592.164754,9622.677246
1904.482070,536.266849,814.226536,9622.677246
1904.482387,153.219100,444.123565,9696.697840
1904.482705,-383.047749,888.247130,9844.739029
1904.483022,-919.314598,444.123565,10362.883188
1904.483340,-766.095498,962.267725,10140.821405
1904.483658,-306.438199,962.267725,10140.821405
1904.483975,0.000000,1332.370696,10214.842000
1904.484293,0.000000,1184.329507,9992.780217
1904.484610,383.047749,1184.329507,10140.821405
1904.484928,76.609550,1554.432478,9326.594869
1904.485245,76.609550,1776.494261,9844.739029
1904.485563,306.438199,2072.576638,9474.636058
1904.485880,689.485948,1554.432478,9696.697840
1904.486198,995.924147,1480.411884,9252.574275
1904.486515,842.705048,1554.432478,9474.636058
1904.486833,1072.533697,1184.329507,9252.574275
1904.487150,1378.971896,592.164754,9548.656652
1904.487468,1302.362347,518.144159,9992.780217
1904.487785,1378.971896,444.123565,10214.842000
1904.488103,1455.581446,814.226536,9696.697840
1904.488420,2068.457845,962.267725,9696.697840
1904.488738,1991.848295,1110.308913,9770.718434
1904.489055,2298.286494,1184.329507,9474.636058
1904.489373,1838.629195,666.185348,9030.512492
1904.489691,1915.238745,222.061783,9252.574275
1904.490008,2068.457845,-0.000000,9474.636058
1904.490326,1762.019645,-0.000000,9104.533087
1904.490643,1991.848295,222.061783,9252.574275
1904.490961,1685.410096,-148.041188,9400.615463
1904.491278,1685.410096,-296.082377,9400.615463
1904.491596,919.314598,-370.102971,9474.636058
1904.491913,842.705048,-962.267725,9918.759623
1904.492231,689.485948,-1184.329507,9992.780217
1904.492548,459.657299,-962.267725,9548.656652
1904.492866,306.438199,-1036.288319,9622.677246
1904.493183,76.609550,-888.247130,9548.656652
1904.493501,383.047749,-1110.308913,9252.574275
1904.493818,229.828649,-814.226536,9178.553681
1904.494136,306.438199,-1036.288319,9104.533087
1904.494453,76.609550,-1110.308913,9474.636058
1904.494771,536.266849,-814.226536,9400.615463
1904.495088,76.609550,-814.226536,8512.368333
1904.495406,0.000000,-1258.350101,8956.491898
1904.495724,0.000000,-888.247130,8808.450710
1904.496041,229.828649,-1184.329507,9326.594869
1904.496359,153.219100,-1332.370696,9474.636058
1904.496676,306.438199,-888.247130,9400.615463
1904.496994,383.047749,-518.144159,9104.533087
1904.497311,689.485948,-222.061783,9030.512492
1904.497629,306.438199,-592.164754,8660.409521
1904.497946,766.095498,-222.061783,8586.388927
1904.498264,536.266849,-444.123565,8364.327145
1904.498581,689.485948,-370.102971,8216.285956
1904.498899,1455.581446,-740.205942,8586.388927
1904.499216,842.705048,-518.144159,8512.368333
1904.499534,842.705048,-592.164754,8586.388927
1904.499851,459.657299,-296.082377,8586.388927
1904.500169,842.705048,-296.082377,9030.512492
1904.500486,1302.362347,-518.144159,9178.553681
1904.500804,995.924147,-0.000000,9104.533087
1904.501121,1455.581446,148.041188,9252.574275
1904.501439,1225.752797,222.061783,9326.594869
1904.501757,995.924147,740.205942,8734.430116
1904.502074,1685.410096,962.267725,8660.409521
1904.502392,1455.581446,1554.432478,8512.368333
1904.502709,1225.752797,1850.514855,8808.450710
1904.503027,1302.362347,1702.473667,8956.491898
1904.503344,919.314598,1702.473667,8882.471304
1904.503662,383.047749,1184.329507,9400.615463
1904.503979,-229.828649,1332.370696,9548.656652
1904.504297,-459.657299,1332.370696,9474.636058
1904.504614,-459.657299,814.226536,9622.677246
1904.504932,229.828649,740.205942,9992.780217
1904.505249,-536.266849,1184.329507,10510.924376
1904.505567,0.000000,1702.473667,10066.800811
1904.505884,-383.047749,1702.473667,9992.780217
1904.506202,-153.219100,1998.556043,9770.718434
1904.506519,-153.219100,2146.597232,10066.800811
1904.506837,0.000000,2072.576638,10288.862594
1904.507154,0.000000,1998.556043,10066.800811
1904.507472,76.609550,2072.576638,9992.780217
1904.507790,0.000000,2072.576638,10436.903782
1904.508107,-153.219100,1702.473667,9770.718434
1904.508425,153.219100,1776.494261,10140.821405
1904.508742,-76.609550,1702.473667,9918.759623
1904.509060,229.828649,1628.453072,10140.821405
1904.509377,153.219100,1554.432478,10288.862594
1904.509695,459.657299,1480.411884,10436.903782
1904.510012,612.876398,1628.453072,10584.944971
1904.510330,689.485948,1850.514855,10288.862594
1904.510647,689.485948,1850.514855,10214.842000
1904.510965,919.314598,1776.494261,9918.759623
1904.511282,995.924147,1998.556043,9992.780217
1904.511600,1608.800546,2220.617826,9622.677246
1904.511917,1608.800546,1776.494261,9696.697840
1904.512235,1608.800546,1554.432478,9622.677246
1904.512552,1685.410096,962.267725,9400.615463
1904.512870,1225.752797,1110.308913,9918.759623
1904.513187,1149.143247,1036.288319,9918.759623
1904.513505,995.924147,592.164754,9992.780217
1904.513823,689.485948,296.082377,10140.821405
1904.514140,229.828649,592.164754,10140.821405
1904.514458,383.047749,370.102971,9992.780217
1904.514775,0.000000,-0.000000,9918.759623
1904.515093,153.219100,-74.020594,9548.656652
1904.515410,0.000000,-0.000000,9696.697840
1904.515728,229.828649,-296.082377,9622.677246
1904.516045,229.828649,-518.144159,9696.697840
1904.516363,306.438199,-444.123565,9474.636058
1904.516680,459.657299,-444.123565,9326.594869
1904.516998,536.266849,-592.164754,8956.491898
1904.517315,919.314598,-888.247130,9326.594869
1904.517633,842.705048,-962.267725,9104.533087
1904.517950,689.485948,-1110.308913,8808.450710
1904.518268,1149.143247,-814.226536,8882.471304
1904.518585,995.924147,-962.267725,8586.388927
1904.518903,1455.581446,-962.267725,8734.430116
1904.519220,995.924147,-814.226536,8290.306550
1904.519538,995.924147,-814.226536,8438.347739
1904.519856,919.314598,-1110.308913,8438.347739
1904.520173,459.657299,-1258.350101,8512.368333
1904.520491,612.876398,-740.205942,9030.512492
1904.520808,689.485948,-888.247130,8290.306550
1904.521126,612.876398,-962.267725,8290.306550
1904.521443,612.876398,-888.247130,8512.368333
1904.521761,612.876398,-592.164754,8660.409521
1904.522078,306.438199,-222.061783,8142.265362
1904.522396,1072.533697,-222.061783,8660.409521
1904.522713,842.705048,-0.000000,8290.306550
1904.523031,995.924147,-0.000000,8216.285956
1904.523348,766.095498,370.102971,8290.306550
1904.523666,459.657299,222.061783,8290.306550
1904.523983,383.047749,-0.000000,8808.450710
1904.524301,306.438199,-0.000000,8882.471304
1904.524618,459.657299,-0.000000,9030.512492
1904.524936,306.438199,-0.000000,8660.409521
1904.525253,459.657299,222.061783,9104.533087
1904.525571,459.657299,-0.000000,8956.491898
1904.525889,459.657299,-0.000000,9104.533087
1904.526206,153.219100,-0.000000,9474.636058
1904.526524,919.314598,-74.020594,9918.759623
1904.526841,1149.143247,-222.061783,9622.677246
1904.527159,842.705048,-444.123565,9992.780217
1904.527476,1072.533697,-222.061783,10066.800811
1904.527794,689.485948,-74.020594,10288.862594
1904.528111,766.095498,444.123565,9770.718434
1904.528429,919.314598,296.082377,9474.636058
1904.528746,995.924147,592.164754,9918.759623
1904.529064,995.924147,444.123565,10214.842000
1904.529381,612.876398,-74.020594,10214.842000
1904.529699,229.828649,74.020594,10436.903782
1904.530016,612.876398,296.082377,10584.944971
1904.530334,995.924147,-0.000000,10807.006753
1904.530651,1149.143247,222.061783,10732.986159
1904.530969,689.485948,666.185348,10807.006753
1904.531286,1838.629195,666.185348,10214.842000
1904.531604,2145.067394,962.267725,9844.739029
1904.531922,2068.457845,1332.370696,9400.615463
1904.532239,2374.896044,1332.370696,9400.615463
1904.532557,1685.410096,888.247130,9252.574275
1904.532874,1532.190996,814.226536,9474.636058
1904.533192,1302.362347,666.185348,9548.656652
1904.533509,842.705048,666.185348,9696.697840
1904.533827,612.876398,888.247130,9548.656652
1904.534144,0.000000,518.144159,9474.636058
1904.534462,-383.047749,666.185348,9770.718434
1904.534779,-383.047749,518.144159,9770.718434
1904.535097,-689.485948,814.226536,9844.739029
1904.535414,-306.438199,518.144159,9770.718434
1904.535732,-612.876398,888.247130,9770.718434
1904.536049,-612.876398,962.267725,9844.739029
1904.536367,-612.876398,1036.288319,9400.615463
1904.536684,-766.095498,1110.308913,9104.533087
1904.537002,-306.438199,1258.350101,9030.512492
1904.537319,0.000000,1184.329507,8882.471304
1904.537637,306.438199,888.247130,8882.471304
1904.537955,0.000000,592.164754,8956.491898
1904.538272,0.000000,-0.000000,9178.553681
1904.538590,0.000000,222.061783,9104.533087
1904.538907,229.828649,222.061783,9474.636058
1904.539225,689.485948,-74.020594,9400.615463
1904.539542,459.657299,-148.041188,9474.636058
1904.539860,995.924147,-0.000000,9252.574275
1904.540177,766.095498,222.061783,8956.491898
1904.540495,1608.800546,-0.000000,8734.430116
1904.540812,1685.410096,-0.000000,8882.471304
1904.541130,1532.190996,-0.000000,8882.471304
1904.541447,1991.848295,-148.041188,9178.553681
1904.541765,1915.238745,-74.020594,9030.512492
1904.542082,1608.800546,-296.082377,8956.491898
1904.542400,1302.362347,-74.020594,8956.491898
1904.542717,1378.971896,-444.123565,9252.574275
1904.543035,995.924147,-962.267725,9252.574275
1904.543352,612.876398,-962.267725,9548.656652
1904.543670,536.266849,-962.267725,9770.718434
1904.543988,229.828649,-814.226536,9918.759623
1904.544305,766.095498,-518.144159,9474.636058
1904.544623,612.876398,-370.102971,9400.615463
1904.544940,689.485948,-444.123565,9178.553681
1904.545258,1072.533697,-370.102971,9178.553681
1904.545575,612.876398,-370.102971,9030.512492
1904.545893,919.314598,-592.164754,9104.533087
1904.546210,766.095498,-888.247130,9548.656652
1904.546528,689.485948,-370.102971,9326.594869
1904.546845,689.485948,-666.185348,9474.636058
1904.547163,536.266849,-740.205942,9474.636058
1904.547480,1225.752797,-814.226536,10214.842000
1904.547798,995.924147,-222.061783,9992.780217
1904.548115,1532.190996,-0.000000,9622.677246
1904.548432,1762.019645,-0.000000,9474.636058
1904.548750,1991.848295,370.102971,9400.615463
1904.549067,2068.457845,-0.000000,8808.450710
1904.549385,1685.410096,222.061783,8734.430116
1904.549702,1762.019645,222.061783,9030.512492
1904.550020,1455.581446,-74.020594,9030.512492
1904.550337,1378.971896,-592.164754,9474.636058
1904.550654,1149.143247,-518.144159,9992.780217
1904.550972,459.657299,-814.226536,9770.718434
1904.551289,76.609550,-222.061783,9622.677246
1904.551607,76.609550,-148.041188,9622.677246
1904.551924,0.000000,-370.102971,10066.800811
1904.552242,306.438199,-296.082377,10658.965565
1904.552559,0.000000,-148.041188,10288.862594
1904.552876,995.924147,444.123565,9918.759623
1904.553194,1378.971896,222.061783,9770.718434
1904.553511,1378.971896,370.102971,9622.677246
1904.553829,1455.581446,444.123565,9474.636058
1904.554146,1762.019645,740.205942,9400.615463
1904.554464,1915.238745,666.185348,8956.491898
1904.554781,2221.676944,666.185348,8734.430116
1904.555098,2374.896044,444.123565,8142.265362
1904.555416,1915.238745,592.164754,8734.430116
1904.555733,1532.190996,222.061783,8882.471304
1904.556051,1608.800546,-0.000000,9178.553681
1904.556368,1455.581446,148.041188,9326.594869
1904.556686,612.876398,-74.020594,9474.636058
1904.557003,1225.752797,148.041188,9400.615463
1904.557320,1225.752797,-0.000000,9474.636058
1904.557638,1149.143247,222.061783,9474.636058
1904.557955,995.924147,148.041188,9178.553681
1904.558273,842.705048,148.041188,9400.615463
1904.558590,995.924147,-0.000000,9252.574275
1904.558908,1072.533697,-0.000000,9178.553681
1904.559225,1302.362347,-0.000000,8882.471304
1904.559542,1455.581446,-0.000000,8956.491898
1904.559860,1072.533697,-148.041188,8956.491898
1904.560177,1072.533697,-296.082377,8882.471304
1904.560495,995.924147,-222.061783,9252.574275
1904.560812,536.266849,-740.205942,9918.759623
1904.561130,536.266849,-592.164754,9474.636058
1904.561447,689.485948,-888.247130,9474.636058
1904.561764,383.047749,-518.144159,9548.656652
1904.562082,0.000000,-0.000000,9326.594869
1904.562399,76.609550,222.061783,8882.471304
1904.562717,306.438199,-0.000000,9104.533087
1904.563034,76.609550,148.041188,9252.574275
1904.563352,-76.609550,148.041188,9252.574275
1904.563669,-229.828649,-0.000000,9252.574275
1904.563986,0.000000,148.041188,9326.594869
1904.564304,0.000000,-296.082377,9474.636058
1904.564621,-153.219100,-148.041188,9844.739029
1904.564939,-153.219100,-0.000000,10066.800811
1904.565256,0.000000,222.061783,9844.739029
1904.565574,459.657299,888.247130,9548.656652
1904.565891,612.876398,1184.329507,9474.636058
1904.566208,919.314598,1258.350101,9178.553681
1904.566526,919.314598,1036.288319,8734.430116
1904.566843,1072.533697,740.205942,8956.491898
1904.567161,1072.533697,962.267725,9326.594869
1904.567478,1149.143247,740.205942,9326.594869
1904.567795,1378.971896,888.247130,9104.533087
1904.568113,689.485948,740.205942,9030.512492
1904.568430,1302.362347,740.205942,9548.656652
1904.568748,1072.533697,1036.288319,9400.615463
1904.569065,1072.533697,740.205942,9770.718434
1904.569383,1302.362347,814.226536,9918.759623
1904.569700,1302.362347,592.164754,9770.718434
1904.570017,1532.190996,814.226536,9918.759623
1904.570335,1991.848295,370.102971,10066.800811
1904.570652,1455.581446,888.247130,9622.677246
1904.570970,1455.581446,888.247130,9474.636058
1904.571287,1838.629195,1184.329507,9844.739029
1904.571605,1915.238745,814.226536,9918.759623
1904.571922,1685.410096,444.123565,9992.780217
1904.572239,1608.800546,296.082377,9918.759623
1904.572557,1608.800546,148.041188,9696.697840
1904.572874,1455.581446,370.102971,9622.677246
1904.573192,1685.410096,296.082377,9844.739029
1904.573509,1378.971896,222.061783,9770.718434
1904.573827,995.924147,-0.000000,9844.739029
1904.574144,995.924147,-0.000000,9918.759623
1904.574461,459.657299,-222.061783,9918.759623
1904.574779,536.266849,-444.123565,9548.656652
1904.575096,76.609550,-222.061783,9474.636058
1904.575414,0.000000,-148.041188,9770.718434
1904.575731,-229.828649,-296.082377,10288.862594
1904.576049,-153.219100,296.082377,10214.842000
1904.576366,229.828649,148.041188,9770.718434
1904.576683,-153.219100,370.102971,9400.615463
1904.577001,0.000000,444.123565,9548.656652
1904.577318,-229.828649,370.102971,9474.636058
1904.577636,689.485948,-148.041188,9548.656652
1904.577953,0.000000,-222.061783,9474.636058
1904.578271,229.828649,-444.123565,10066.800811
1904.578588,229.828649,370.102971,9474.636058
1904.578905,306.438199,148.041188,9104.533087
1904.579223,689.485948,296.082377,8660.409521
1904.579540,306.438199,592.164754,8364.327145
1904.579858,919.314598,888.247130,8364.327145
1904.580175,842.705048,296.082377,7994.224174
1904.580493,766.095498,370.102971,8734.430116
1904.580810,766.095498,-0.000000,9104.533087
1904.581127,536.266849,222.061783,8956.491898
1904.581445,-153.219100,-444.123565,9030.512492
1904.581762,306.438199,-370.102971,9548.656652
1904.582080,459.657299,222.061783,9178.553681
1904.582397,612.876398,592.164754,9252.574275
1904.582715,766.095498,592.164754,8734.430116
1904.583032,1225.752797,296.082377,9104.533087
1904.583349,1378.971896,-0.000000,8586.388927
1904.583667,995.924147,148.041188,8586.388927
1904.583984,919.314598,-74.020594,8512.368333
1904.584302,536.266849,148.041188,8142.265362
1904.584619,842.705048,370.102971,8512.368333
1904.584937,306.438199,-0.000000,9326.594869
1904.585254,0.000000,-518.144159,9030.512492
1904.585571,-459.657299,-1036.288319,9474.636058
1904.585889,-459.657299,-592.164754,9918.759623
1904.586206,-536.266849,-592.164754,9992.780217
1904.586524,-689.485948,-814.226536,10362.883188
1904.586841,-153.219100,-296.082377,10510.924376
1904.587158,383.047749,-0.000000,10066.800811
1904.587476,306.438199,444.123565,9844.739029
1904.587793,1072.533697,1036.288319,9252.574275
1904.588111,1225.752797,1332.370696,9178.553681
1904.588428,1685.410096,1702.473667,9030.512492
1904.588746,2221.676944,1184.329507,8956.491898
1904.589063,1838.629195,1184.329507,9178.553681
1904.589380,1685.410096,1184.329507,8956.491898
1904.589698,1225.752797,1110.308913,9104.533087
1904.590015,1149.143247,1110.308913,9474.636058
1904.590333,919.314598,1406.391290,9548.656652
1904.590650,842.705048,1184.329507,9622.677246
1904.590968,766.095498,1184.329507,10140.821405
1904.591285,612.876398,888.247130,9992.780217
1904.591602,842.705048,1110.308913,10140.821405
1904.591920,459.657299,814.226536,10214.842000
1904.592237,612.876398,1184.329507,9918.759623
1904.592555,459.657299,1332.370696,9696.697840
1904.592872,995.924147,1480.411884,9696.697840
1904.593190,1225.752797,1406.391290,9474.636058
1904.593507,1149.143247,1258.350101,9030.512492
1904.593824,1072.533697,1184.329507,9252.574275
1904.594142,919.314598,888.247130,9400.615463
1904.594459,612.876398,592.164754,9252.574275
1904.594777,229.828649,370.102971,9992.780217
1904.595094,-153.219100,370.102971,10066.800811
1904.595412,-459.657299,296.082377,10066.800811
1904.595729,-306.438199,-0.000000,10140.821405
1904.596046,-306.438199,370.102971,10288.862594
1904.596364,-306.438199,370.102971,10362.883188
1904.596681,-536.266849,-0.000000,10066.800811
1904.596999,-383.047749,444.123565,9696.697840
1904.597316,153.219100,666.185348,10066.800811
1904.597634,383.047749,888.247130,9844.739029
1904.597951,995.924147,592.164754,9770.718434
1904.598268,995.924147,222.061783,9474.636058
1904.598586,766.095498,-74.020594,9992.780217
1904.598903,1149.143247,-296.082377,9770.718434
1904.599221,1378.971896,-296.082377,9696.697840
1904.599538,1685.410096,222.061783,10140.821405
1904.599856,1302.362347,222.061783,9178.553681
1904.600173,1532.190996,592.164754,9252.574275
1904.600490,1608.800546,740.205942,8586.388927
1904.600808,1685.410096,444.123565,8586.388927
1904.601125,1302.362347,370.102971,8364.327145
1904.601443,1149.143247,-0.000000,8734.430116
1904.601760,919.314598,-518.144159,9178.553681
1904.602078,689.485948,-740.205942,9326.594869
1904.602395,306.438199,-962.267725,9030.512492
1904.602712,306.438199,-740.205942,8956.491898
1904.603030,0.000000,-1036.288319,9696.697840
1904.603347,306.438199,-814.226536,10066.800811
1904.603665,383.047749,-666.185348,9548.656652
1904.603982,459.657299,-592.164754,9474.636058
1904.604300,689.485948,-0.000000,9178.553681
1904.604617,919.314598,-148.041188,8660.409521
1904.604934,1072.533697,-0.000000,8364.327145
1904.605252,766.095498,296.082377,8216.285956
1904.605569,842.705048,296.082377,8068.244768
1904.605887,459.657299,-74.020594,8512.368333
1904.606204,229.828649,-296.082377,8734.430116
1904.606522,229.828649,-740.205942,8956.491898
1904.606839,0.000000,-666.185348,8808.450710
1904.607156,0.000000,-1184.329507,9030.512492
1904.607474,-76.609550,-962.267725,8956.491898
1904.607791,0.000000,-592.164754,9474.636058
1904.608109,0.000000,-148.041188,9326.594869
1904.608426,153.219100,-222.061783,9400.615463
1904.608743,306.438199,-148.041188,9622.677246
1904.609061,383.047749,74.020594,9326.594869
1904.609378,536.266849,370.102971,9178.553681
1904.609696,536.266849,444.123565,9104.533087
1904.610013,1072.533697,740.205942,9400.615463
1904.610331,1225.752797,666.185348,9326.594869
1904.610648,1149.143247,888.247130,9030.512492
1904.610965,995.924147,962.267725,8882.471304
1904.611283,1149.143247,592.164754,9326.594869
1904.611600,1225.752797,592.164754,9326.594869
1904.611918,1072.533697,222.061783,9622.677246
1904.612235,1149.143247,-0.000000,9696.697840
1904.612553,766.095498,-74.020594,10140.821405
1904.612870,1378.971896,-518.144159,10288.862594
1904.613187,842.705048,296.082377,9918.759623
1904.613505,995.924147,1184.329507,9844.739029
1904.613822,842.705048,1406.391290,9474.636058
1904.614140,766.095498,1332.370696,9400.615463
1904.614457,612.876398,1110.308913,9622.677246
1904.614775,689.485948,814.226536,9844.739029
1904.615092,306.438199,444.123565,10066.800811
1904.615409,0.000000,-0.000000,10214.842000
1904.615727,-153.219100,-296.082377,10584.944971
1904.616044,-536.266849,-148.041188,11029.068536
1904.616362,-536.266849,-148.041188,10807.006753
1904.616679,76.609550,444.123565,10584.944971
1904.616997,459.657299,444.123565,10584.944971
1904.617314,766.095498,666.185348,10066.800811
1904.617631,1072.533697,592.164754,9696.697840
1904.617949,1072.533697,222.061783,9622.677246
1904.618266,842.705048,518.144159,9474.636058
1904.618584,1072.533697,518.144159,9400.615463
1904.618901,1149.143247,518.144159,9548.656652
1904.619219,1302.362347,666.185348,9548.656652
1904.619536,1532.190996,962.267725,9326.594869
1904.619853,1302.362347,370.102971,9326.594869
1904.620171,1455.581446,-0.000000,9326.594869
1904.620488,1225.752797,-148.041188,9474.636058
1904.620806,1455.581446,-0.000000,9400.615463
1904.621123,1302.362347,-0.000000,9326.594869
1904.621441,1225.752797,222.061783,9252.574275
1904.621758,1685.410096,370.102971,9474.636058
1904.622075,1608.800546,-0.000000,9400.615463
1904.622393,1838.629195,-74.020594,9400.615463
1904.622710,2145.067394,-296.082377,9104.533087
1904.623028,1838.629195,-0.000000,9178.553681
1904.623345,1838.629195,-370.102971,9326.594869
1904.623663,1991.848295,-888.247130,9400.615463
1904.623980,1532.190996,-518.144159,9030.512492
1904.624297,1455.581446,-666.185348,8882.471304
1904.624615,1838.629195,-592.164754,9178.553681
1904.624932,1455.581446,-518.144159,9326.594869
1904.625250,1991.848295,-592.164754,9104.533087
1904.625567,1685.410096,-814.226536,9326.594869
1904.625885,1532.190996,-814.226536,9178.553681
1904.626202,1532.190996,-1036.288319,9104.533087
1904.626519,1225.752797,-888.247130,8734.430116
1904.626837,919.314598,-1628.453072,8512.368333
1904.627154,842.705048,-888.247130,9104.533087
1904.627472,842.705048,-1036.288319,9400.615463
1904.627789,459.657299,-1036.288319,9178.553681
1904.628106,536.266849,-962.267725,9178.553681
1904.628424,229.828649,-888.247130,9104.533087
1904.628741,0.000000,-1258.350101,9252.574275
1904.629059,0.000000,-962.267725,8956.491898
1904.629376,229.828649,-592.164754,9178.553681
1904.629694,76.609550,-444.123565,9030.512492
1904.630011,0.000000,-296.082377,8660.409521
1904.630328,153.219100,-0.000000,8512.368333
1904.630646,0.000000,-0.000000,8438.347739
1904.630963,0.000000,-0.000000,8364.327145
1904.631281,0.000000,592.164754,8142.265362
1904.631598,0.000000,444.123565,8660.409521
1904.631916,-383.047749,814.226536,9030.512492
1904.632233,-919.314598,222.061783,8660.409521
1904.632550,-612.876398,148.041188,9252.574275
1904.632868,-689.485948,-74.020594,9696.697840
1904.633185,-459.657299,148.041188,9918.759623
1904.633503,-383.047749,-0.000000,10288.862594
1904.633820,76.609550,518.144159,10066.800811
1904.634138,459.657299,1036.288319,9770.718434
1904.634455,995.924147,1036.288319,9770.718434
1904.634772,1838.629195,1184.329507,8660.409521
1904.635090,1685.410096,1628.453072,8660.409521
1904.635407,2068.457845,1702.473667,8586.388927
1904.635725,2298.286494,1332.370696,8586.388927
1904.636042,2145.067394,592.164754,8956.491898
1904.636360,1991.848295,518.144159,9326.594869
1904.636677,1608.800546,666.185348,9548.656652
1904.636994,1072.533697,592.164754,9918.759623
1904.637312,919.314598,592.164754,9918.759623
1904.637629,919.314598,518.144159,10584.944971
1904.637947,689.485948,518.144159,10732.986159
1904.638264,919.314598,518.144159,10732.986159
1904.638582,612.876398,888.247130,10658.965565
1904.638899,919.314598,1184.329507,10584.944971
1904.639216,536.266849,1332.370696,10658.965565
1904.639534,689.485948,1480.411884,10288.862594
1904.639851,306.438199,1702.473667,10214.842000
1904.640169,612.876398,1480.411884,10510.924376
1904.640486,766.095498,1628.453072,10066.800811
1904.640804,766.095498,1332.370696,9918.759623
1904.641121,919.314598,1258.350101,9992.780217
1904.641438,612.876398,666.185348,9474.636058
1904.641756,0.000000,370.102971,9992.780217
1904.642073,383.047749,-148.041188,10214.842000
1904.642391,383.047749,-74.020594,10362.883188
1904.642708,689.485948,148.041188,10362.883188
1904.643026,689.485948,296.082377,10140.821405
1904.643343,612.876398,222.061783,9622.677246
1904.643660,1149.143247,-0.000000,9474.636058
1904.643978,1302.362347,296.082377,9178.553681
1904.644295,1532.190996,-0.000000,9326.594869
1904.644613,1455.581446,148.041188,8956.491898
1904.644930,1455.581446,-0.000000,8734.430116
1904.645248,1302.362347,-0.000000,8882.471304
1904.645565,1455.581446,-0.000000,9252.574275
1904.645882,1072.533697,-0.000000,8734.430116
1904.646200,1072.533697,-74.020594,9252.574275
1904.646517,1072.533697,-0.000000,9030.512492
1904.646835,1378.971896,-444.123565,9252.574275
1904.647152,1302.362347,-222.061783,8882.471304
1904.647470,995.924147,-296.082377,9030.512492
1904.647787,919.314598,-666.185348,9030.512492
1904.648104,1302.362347,-0.000000,8808.450710
1904.648422,842.705048,-0.000000,8660.409521
1904.648739,1072.533697,-74.020594,8660.409521
1904.649057,766.095498,-0.000000,8808.450710
1904.649374,612.876398,-444.123565,8882.471304
1904.649692,612.876398,-444.123565,8660.409521
1904.650009,383.047749,-592.164754,9030.512492
1904.650327,689.485948,-666.185348,9030.512492
1904.650644,459.657299,-370.102971,9104.533087
1904.650962,766.095498,-0.000000,9474.636058
1904.651279,842.705048,-0.000000,8882.471304
1904.651597,919.314598,444.123565,8438.347739
1904.651914,1072.533697,592.164754,8438.347739
1904.652232,1149.143247,888.247130,8068.244768
1904.652549,1455.581446,222.061783,8216.285956
1904.652867,1225.752797,-0.000000,8586.388927
1904.653184,919.314598,-0.000000,8660.409521
1904.653502,766.095498,-0.000000,8290.306550
1904.653819,1302.362347,296.082377,8660.409521
1904.654137,383.047749,444.123565,9474.636058
1904.654454,76.609550,-148.041188,9252.574275
1904.654772,0.000000,-296.082377,9696.697840
1904.655089,76.609550,-370.102971,10066.800811
1904.655407,153.219100,222.061783,10214.842000
1904.655724,689.485948,444.123565,9992.780217
1904.656042,766.095498,444.123565,9918.759623
1904.656359,536.266849,296.082377,9918.759623
1904.656677,1149.143247,518.144159,9992.780217
1904.656994,1378.971896,888.247130,9474.636058
1904.657312,1608.800546,592.164754,10288.862594
1904.657629,1685.410096,888.247130,9844.739029
1904.657947,1225.752797,666.185348,9770.718434
1904.658264,1532.190996,370.102971,9696.697840
1904.658582,1302.362347,-0.000000,10214.842000
1904.658899,1608.800546,-0.000000,10658.965565
1904.659217,1225.752797,-0.000000,10214.842000
1904.659534,1455.581446,-0.000000,10584.944971
1904.659852,1225.752797,-74.020594,10732.986159
1904.660169,1762.019645,-592.164754,10658.965565
1904.660487,1915.238745,444.123565,9992.780217
1904.660804,1225.752797,444.123565,9622.677246
1904.661122,1455.581446,814.226536,10066.800811
1904.661439,1149.143247,444.123565,9918.759623
1904.661757,689.485948,296.082377,10288.862594
1904.662074,229.828649,666.185348,10436.903782
1904.662392,229.828649,370.102971,10214.842000
1904.662709,153.219100,444.123565,10066.800811
1904.663027,0.000000,296.082377,9992.780217
1904.663344,229.828649,148.041188,10066.800811
1904.663662,-536.266849,296.082377,9844.739029
1904.663979,-536.266849,222.061783,9844.739029
1904.664297,0.000000,370.102971,9622.677246
1904.664614,0.000000,740.205942,9474.636058
1904.664932,76.609550,740.205942,9178.553681
1904.665249,76.609550,1110.308913,9104.533087
1904.665567,153.219100,814.226536,8882.471304
1904.665884,306.438199,814.226536,8734.430116
1904.666202,459.657299,888.247130,8586.388927
1904.666519,842.705048,740.205942,8808.450710
1904.666837,306.438199,444.123565,8438.347739
1904.667154,919.314598,-0.000000,8660.409521
1904.667472,383.047749,-296.082377,8808.450710
1904.667789,536.266849,-148.041188,8808.450710
1904.668107,536.266849,370.102971,8956.491898
1904.668424,612.876398,518.144159,8882.471304
1904.668742,842.705048,592.164754,8660.409521
1904.669059,919.314598,666.185348,8660.409521
1904.669377,536.266849,592.164754,8438.347739
1904.669694,536.266849,518.144159,8216.285956
1904.670012,229.828649,370.102971,8586.388927
1904.670329,536.266849,370.102971,8290.306550
1904.670647,229.828649,-148.041188,8956.491898
1904.670964,229.828649,-222.061783,8808.450710
1904.671282,0.000000,-370.102971,9104.533087
1904.671599,-153.219100,-0.000000,9252.574275
1904.671917,0.000000,444.123565,9400.615463
1904.672234,229.828649,370.102971,9474.636058
1904.672552,153.219100,592.164754,9474.636058
1904.672869,459.657299,518.144159,9104.533087
1904.673187,383.047749,740.205942,9178.553681
1904.673504,612.876398,888.247130,9252.574275
1904.673822,995.924147,1110.308913,8808.450710
1904.674139,689.485948,592.164754,9252.574275
1904.674457,766.095498,444.123565,9178.553681
1904.674774,306.438199,222.061783,9326.594869
1904.675092,153.219100,370.102971,9622.677246
1904.675409,0.000000,222.061783,9696.697840
1904.675727,-153.219100,222.061783,9992.780217
1904.676044,0.000000,222.061783,10214.842000
1904.676362,0.000000,-0.000000,10510.924376
1904.676679,0.000000,-0.000000,10436.903782
1904.676997,383.047749,296.082377,10510.924376
1904.677314,689.485948,592.164754,10362.883188
1904.677632,1149.143247,1036.288319,10140.821405
1904.677949,1225.752797,740.205942,9548.656652
1904.678267,1455.581446,962.267725,9770.718434
1904.678584,1532.190996,740.205942,9844.739029
1904.678902,1915.238745,592.164754,9844.739029
1904.679219,2221.676944,518.144159,10066.800811
1904.679537,1378.971896,740.205942,10066.800811
1904.679854,1532.190996,-0.000000,9918.759623
1904.680172,995.924147,-0.000000,10066.800811
1904.680489,995.924147,-74.020594,10881.027347
1904.680807,766.095498,-0.000000,10658.965565
1904.681124,1072.533697,296.082377,10807.006753
1904.681442,995.924147,666.185348,10584.944971
1904.681759,1225.752797,814.226536,10288.862594
1904.682077,919.314598,740.205942,9622.677246
1904.682394,1302.362347,962.267725,9548.656652
1904.682712,1149.143247,814.226536,9918.759623
1904.683029,1149.143247,518.144159,9548.656652
1904.683347,1225.752797,592.164754,9474.636058
1904.683664,919.314598,370.102971,9474.636058
1904.683982,766.095498,296.082377,9252.574275
1904.684299,919.314598,518.144159,9252.574275
1904.684617,766.095498,-0.000000,9326.594869
1904.684934,995.924147,-0.000000,9104.533087
1904.685252,766.095498,-0.000000,9252.574275
1904.685569,766.095498,-74.020594,9104.533087
1904.685887,919.314598,370.102971,8734.430116
1904.686204,536.266849,-0.000000,8734.430116
1904.686522,383.047749,-0.000000,8586.388927
1904.686839,153.219100,-0.000000,8660.409521
1904.687157,229.828649,-518.144159,9104.533087
1904.687474,229.828649,-740.205942,9178.553681
1904.687792,0.000000,-1036.288319,9178.553681
1904.688109,229.828649,-740.205942,9474.636058
1904.688427,0.000000,-666.185348,8956.491898
1904.688744,-229.828649,-666.185348,9104.533087
1904.689062,76.609550,-296.082377,9178.553681
1904.689379,0.000000,-444.123565,8808.450710
1904.689697,766.095498,-444.123565,9030.512492
1904.690014,229.828649,-370.102971,9030.512492
1904.690332,536.266849,-296.082377,8956.491898
1904.690649,306.438199,-0.000000,8660.409521
1904.690967,842.705048,-222.061783,8956.491898
1904.691284,1225.752797,-222.061783,8808.450710
1904.691602,1378.971896,-0.000000,8512.368333
1904.691919,1608.800546,-0.000000,8438.347739
1904.692237,1608.800546,-148.041188,8586.388927
1904.692554,1378.971896,-222.061783,8660.409521
1904.692872,1455.581446,-444.123565,8882.471304
1904.693189,1302.362347,-370.102971,9104.533087
1904.693507,1302.362347,-148.041188,9178.553681
1904.693824,1838.629195,-0.000000,9326.594869
1904.694142,1302.362347,-0.000000,9326.594869
1904.694459,1915.238745,-0.000000,9030.512492
1904.694777,2221.676944,-0.000000,8882.471304
1904.695094,1838.629195,148.041188,8808.450710
1904.695412,1762.019645,296.082377,8660.409521
1904.695729,1838.629195,-74.020594,9178.553681
1904.696047,1532.190996,-74.020594,9178.553681
1904.696364,766.095498,-0.000000,9252.574275
1904.696682,383.047749,-518.144159,9622.677246
1904.696999,-383.047749,-444.123565,9844.739029
1904.697317,0.000000,-814.226536,10140.821405
1904.697634,-383.047749,-592.164754,10362.883188
1904.697952,-689.485948,-444.123565,10658.965565
1904.698269,-1072.533697,-296.082377,10732.986159
1904.698587,-612.876398,-370.102971,10658.965565
1904.698904,-383.047749,-0.000000,10214.842000
1904.699222,-153.219100,370.102971,10140.821405
1904.699539,0.000000,666.185348,10066.800811
1904.699857,153.219100,814.226536,9770.718434
1904.700174,689.485948,444.123565,9844.739029
1904.700492,842.705048,740.205942,9992.780217
1904.700809,1149.143247,1184.329507,9622.677246
1904.701127,1149.143247,1184.329507,9252.574275
1904.701444,1455.581446,1036.288319,9178.553681
1904.701762,2145.067394,666.185348,9696.697840
1904.702079,1991.848295,888.247130,9622.677246
1904.702397,2145.067394,814.226536,9770.718434
1904.702714,1915.238745,814.226536,9474.636058
1904.703032,2451.505594,740.205942,10140.821405
1904.703349,2068.457845,1110.308913,9474.636058
1904.703667,1455.581446,1110.308913,9252.574275
1904.703984,1608.800546,1184.329507,9326.594869
1904.704302,1149.143247,1110.308913,9548.656652
1904.704619,1149.143247,740.205942,9770.718434
1904.704937,919.314598,814.226536,9548.656652
1904.705254,612.876398,666.185348,9548.656652
1904.705572,919.314598,592.164754,9844.739029
1904.705889,459.657299,592.164754,9400.615463
1904.706207,689.485948,-0.000000,9622.677246
1904.706524,536.266849,592.164754,9548.656652
1904.706842,76.609550,296.082377,9548.656652
1904.707159,-153.219100,444.123565,9474.636058
1904.707477,229.828649,518.144159,9326.594869
1904.707794,-459.657299,592.164754,9548.656652
1904.708112,-766.095498,370.102971,9474.636058
1904.708429,-1225.752797,592.164754,9252.574275
1904.708747,-1302.362347,148.041188,9844.739029
1904.709064,-919.314598,-74.020594,9918.759623
1904.709382,-689.485948,-148.041188,9992.780217
1904.709699,-766.095498,-370.102971,10066.800811
1904.710017,-689.485948,-148.041188,10066.800811
1904.710334,0.000000,-370.102971,9696.697840
1904.710652,383.047749,-0.000000,9326.594869
1904.710969,1072.533697,222.061783,9326.594869
1904.711287,1072.533697,518.144159,9252.574275
1904.711604,1915.238745,740.205942,9030.512492
1904.711922,1991.848295,518.144159,8364.327145
1904.712239,2221.676944,666.185348,8142.265362
1904.712557,1991.848295,592.164754,8142.265362
1904.712874,1685.410096,518.144159,8290.306550
1904.713192,1685.410096,-296.082377,8586.388927
1904.713509,1378.971896,-592.164754,9030.512492
1904.713827,1608.800546,-740.205942,9400.615463
1904.714144,1302.362347,-222.061783,9178.553681
1904.714462,689.485948,-592.164754,9474.636058
1904.714779,766.095498,-296.082377,9474.636058
1904.715097,919.314598,-74.020594,9696.697840
1904.715414,995.924147,-0.000000,9178.553681
1904.715732,1608.800546,-0.000000,9474.636058
1904.716049,1378.971896,148.041188,9030.512492
1904.716367,1685.410096,370.102971,9104.533087
1904.716684,1838.629195,370.102971,8956.491898
1904.717002,1455.581446,296.082377,8882.471304
1904.717319,1149.143247,-74.020594,9326.594869
1904.717637,919.314598,-0.000000,9030.512492
1904.717954,306.438199,-74.020594,9178.553681
1904.718272,-306.438199,-666.185348,9326.594869
1904.718589,0.000000,-1036.288319,9770.718434
1904.718907,-153.219100,-1184.329507,9992.780217
1904.719224,-229.828649,-740.205942,10140.821405
1904.719542,76.609550,-666.185348,10066.800811
1904.719859,153.219100,-592.164754,9992.780217
1904.720177,842.705048,-0.000000,10066.800811
1904.720494,842.705048,370.102971,9548.656652
1904.720812,1225.752797,296.082377,9326.594869
1904.721129,1608.800546,148.041188,9326.594869
1904.721447,1378.971896,296.082377,9326.594869
1904.721764,2145.067394,518.144159,9548.656652
1904.722082,1838.629195,370.102971,9474.636058
1904.722399,1838.629195,148.041188,9622.677246
1904.722717,2145.067394,148.041188,9400.615463
1904.723034,1608.800546,296.082377,9252.574275
1904.723352,1762.019645,666.185348,9178.553681
1904.723669,1838.629195,518.144159,9326.594869
1904.723987,1762.019645,814.226536,9622.677246
1904.724304,2374.896044,740.205942,9844.739029
1904.724622,2451.505594,592.164754,9400.615463
1904.724939,1991.848295,296.082377,9400.615463
1904.725257,1762.019645,296.082377,9474.636058
1904.725574,1378.971896,518.144159,9326.594869
1904.725892,1225.752797,518.144159,9326.594869
1904.726209,919.314598,370.102971,9622.677246
1904.726527,229.828649,-0.000000,9548.656652
1904.726844,229.828649,-0.000000,9844.739029
1904.727162,-229.828649,-444.123565,10066.800811
1904.727479,-229.828649,-592.164754,10214.842000
1904.727797,0.000000,-296.082377,10214.842000
1904.728114,-229.828649,-0.000000,9918.759623
1904.728432,0.000000,296.082377,9696.697840
1904.728749,459.657299,370.102971,9474.636058
1904.729067,383.047749,666.185348,8956.491898
1904.729384,459.657299,592.164754,8734.430116
1904.729702,766.095498,296.082377,8660.409521
1904.730019,995.924147,-148.041188,9252.574275
1904.730337,383.047749,-296.082377,8882.471304
1904.730654,383.047749,-592.164754,9326.594869
1904.730972,306.438199,-0.000000,9326.594869
1904.731289,459.657299,-0.000000,9252.574275
1904.731607,459.657299,-0.000000,9178.553681
1904.731924,153.219100,444.123565,9548.656652
1904.732242,459.657299,296.082377,9696.697840
1904.732559,842.705048,296.082377,9474.636058
1904.732877,1378.971896,592.164754,9326.594869
1904.733194,1838.629195,962.267725,9474.636058
1904.733512,1685.410096,1036.288319,8808.450710
1904.733829,2374.896044,1628.453072,7846.182985
1904.734147,2298.286494,1406.391290,8216.285956
1904.734464,2145.067394,1258.350101,8290.306550
1904.734782,2374.896044,1036.288319,8512.368333
1904.735099,1762.019645,518.144159,8216.285956
1904.735417,1302.362347,296.082377,8734.430116
1904.735734,842.705048,-0.000000,9104.533087
1904.736052,306.438199,148.041188,9104.533087
1904.736369,689.485948,148.041188,9400.615463
1904.736687,-383.047749,-0.000000,9918.759623
1904.737004,-766.095498,370.102971,9696.697840
1904.737322,-919.314598,296.082377,9918.759623
1904.737639,-1149.143247,-0.000000,9844.739029
1904.737957,-995.924147,296.082377,10436.903782
1904.738274,-1225.752797,-0.000000,9844.739029
1904.738592,-1225.752797,296.082377,9548.656652
1904.738909,-842.705048,222.061783,9844.739029
1904.739227,0.000000,-0.000000,10066.800811
1904.739544,-383.047749,296.082377,10362.883188
1904.739862,-306.438199,370.102971,10066.800811
1904.740179,0.000000,370.102971,9622.677246
1904.740497,0.000000,518.144159,9918.759623
1904.740814,689.485948,592.164754,9992.780217
1904.741132,459.657299,592.164754,9992.780217
1904.741449,766.095498,962.267725,9918.759623
1904.741767,842.705048,888.247130,9622.677246
1904.742084,1378.971896,1110.308913,9622.677246
1904.742402,1455.581446,1036.288319,9400.615463
1904.742719,1302.362347,592.164754,9474.636058
1904.743037,1378.971896,666.185348,9992.780217
1904.743354,1915.238745,740.205942,9548.656652
1904.743672,1838.629195,740.205942,9474.636058
1904.743989,2451.505594,888.247130,9696.697840
1904.744307,1991.848295,592.164754,9400.615463
1904.744624,1915.238745,518.144159,9770.718434
1904.744942,1762.019645,740.205942,9474.636058
1904.745259,2298.286494,666.185348,9548.656652
1904.745577,2221.676944,666.185348,9400.615463
1904.745894,1838.629195,592.164754,9326.594869
1904.746212,1532.190996,666.185348,9104.533087
1904.746529,842.705048,148.041188,8734.430116
1904.746847,689.485948,222.061783,8882.471304
1904.747164,229.828649,-0.000000,9252.574275
1904.747482,0.000000,-0.000000,9474.636058
1904.747799,-229.828649,-666.185348,9474.636058
1904.748117,-689.485948,-1258.350101,9844.739029
1904.748434,-1072.533697,-1036.288319,9918.759623
1904.748751,-1072.533697,-1406.391290,10214.842000
1904.749069,-689.485948,-888.247130,10140.821405
1904.749386,-689.485948,-740.205942,10362.883188
1904.749704,-383.047749,-0.000000,9770.718434
1904.750021,153.219100,444.123565,9844.739029
1904.750339,612.876398,592.164754,9400.615463
1904.750656,689.485948,740.205942,8882.471304
1904.750973,1302.362347,1036.288319,8882.471304
1904.751291,1762.019645,666.185348,8882.471304
1904.751608,1608.800546,740.205942,8956.491898
1904.751926,1915.238745,444.123565,8512.368333
1904.752243,1762.019645,370.102971,8438.347739
1904.752561,1532.190996,222.061783,8586.388927
1904.752878,1608.800546,148.041188,8586.388927
1904.753195,1225.752797,-0.000000,8956.491898
1904.753513,995.924147,-222.061783,9178.553681
1904.753830,995.924147,148.041188,9104.533087
1904.754148,995.924147,-0.000000,9030.512492
1904.754465,919.314598,222.061783,9178.553681
1904.754783,689.485948,296.082377,8882.471304
1904.755100,612.876398,444.123565,8734.430116
1904.755417,0.000000,444.123565,8956.491898
1904.755735,153.219100,-0.000000,9030.512492
1904.756052,0.000000,296.082377,8956.491898
1904.756370,-229.828649,518.144159,9104.533087
1904.756687,-383.047749,444.123565,8956.491898
1904.757005,-459.657299,222.061783,8882.471304
1904.757322,-612.876398,370.102971,8882.471304
1904.757639,-612.876398,222.061783,9326.594869
1904.757957,-842.705048,296.082377,9474.636058
1904.758274,-612.876398,444.123565,9622.677246
1904.758592,-536.266849,592.164754,9918.759623
1904.758909,-383.047749,-0.000000,9770.718434
1904.759227,-459.657299,444.123565,9622.677246
1904.759544,0.000000,666.185348,9622.677246
1904.759861,76.609550,518.144159,9770.718434
1904.760179,0.000000,370.102971,10066.800811
1904.760496,459.657299,518.144159,10658.965565
1904.760814,1072.533697,814.226536,10510.924376
1904.761131,842.705048,962.267725,9992.780217
1904.761449,1838.629195,962.267725,10214.842000
1904.761766,1915.238745,1110.308913,10584.944971
1904.762083,2298.286494,962.267725,9844.739029
1904.762401,3064.381992,888.247130,9918.759623
1904.762718,2834.553343,1110.308913,9992.780217
1904.763036,2987.772442,740.205942,9622.677246
1904.763353,3447.429741,296.082377,9400.615463
1904.763671,2681.334243,-0.000000,9474.636058
1904.763988,2451.505594,-0.000000,9548.656652
1904.764305,1685.410096,-0.000000,9622.677246
1904.764623,1455.581446,-0.000000,9696.697840
1904.764940,1838.629195,-0.000000,9992.780217
1904.765258,842.705048,-0.000000,10362.883188
1904.765575,689.485948,-444.123565,9844.739029
1904.765893,229.828649,-444.123565,9844.739029
1904.766210,459.657299,-148.041188,9770.718434
1904.766527,383.047749,-296.082377,10066.800811
1904.766845,229.828649,518.144159,9770.718434
1904.767162,383.047749,518.144159,9696.697840
1904.767480,383.047749,740.205942,9178.553681
1904.767797,689.485948,518.144159,8956.491898
1904.768115,1302.362347,-0.000000,8734.430116
1904.768432,153.219100,-0.000000,8512.368333
1904.768749,76.609550,-0.000000,8882.471304
1904.769067,76.609550,-0.000000,9030.512492
1904.769384,0.000000,148.041188,9030.512492
1904.769702,0.000000,-296.082377,9326.594869
1904.770019,0.000000,-222.061783,9326.594869
1904.770337,-459.657299,-444.123565,9474.636058
1904.770654,-229.828649,-444.123565,9548.656652
1904.770971,306.438199,-592.164754,9548.656652
1904.771289,229.828649,-518.144159,9474.636058
1904.771606,1072.533697,-0.000000,9178.553681
1904.771924,766.095498,74.020594,8660.409521
1904.772241,1378.971896,222.061783,8364.327145
1904.772558,1302.362347,-0.000000,8290.306550
1904.772876,1378.971896,-296.082377,8660.409521
1904.773193,1225.752797,-0.000000,8586.388927
1904.773511,1302.362347,-222.061783,9030.512492
1904.773828,842.705048,-222.061783,9252.574275
1904.774146,842.705048,-370.102971,9400.615463
1904.774463,766.095498,-444.123565,9622.677246
1904.774780,1225.752797,-370.102971,9474.636058
1904.775098,995.924147,-666.185348,9474.636058
1904.775415,1149.143247,-296.082377,9548.656652
1904.775733,1302.362347,-222.061783,8956.491898
1904.776050,1302.362347,-0.000000,9104.533087
1904.776368,1302.362347,222.061783,8882.471304
1904.776685,1455.581446,222.061783,8734.430116
1904.777002,1455.581446,222.061783,8882.471304
1904.777320,995.924147,148.041188,9030.512492
1904.777637,919.314598,-0.000000,8882.471304
1904.777955,229.828649,-370.102971,9178.553681
1904.778272,0.000000,-74.020594,9474.636058
1904.778590,-536.266849,-296.082377,9696.697840
1904.778907,-995.924147,-74.020594,10288.862594
1904.779224,-536.266849,-0.000000,10436.903782
1904.779542,-459.657299,-0.000000,10584.944971
1904.779859,-612.876398,-148.041188,10214.842000
1904.780177,0.000000,518.144159,10214.842000
1904.780494,153.219100,518.144159,10066.800811
1904.780812,383.047749,962.267725,9474.636058
1904.781129,842.705048,666.185348,9104.533087
1904.781446,1225.752797,1036.288319,9104.533087
1904.781764,1532.190996,1184.329507,9252.574275
1904.782081,1532.190996,962.267725,9326.594869
1904.782399,1378.971896,740.205942,9400.615463
1904.782716,1455.581446,666.185348,9474.636058
1904.783034,1378.971896,888.247130,9474.636058
1904.783351,1378.971896,666.185348,9548.656652
1904.783668,1455.581446,592.164754,9844.739029
1904.783986,1838.629195,814.226536,9696.697840
1904.784303,1838.629195,1110.308913,9696.697840
1904.784621,1991.848295,1480.411884,9474.636058
1904.784938,2145.067394,1184.329507,9178.553681
1904.785256,1915.238745,1628.453072,9178.553681
1904.785573,1838.629195,1480.411884,9326.594869
1904.785890,1685.410096,1110.308913,9326.594869
1904.786208,1378.971896,1036.288319,9400.615463
1904.786525,1532.190996,666.185348,9622.677246
1904.786843,1225.752797,222.061783,9696.697840
1904.787160,766.095498,-0.000000,9918.759623
1904.787478,536.266849,-370.102971,9844.739029
1904.787795,612.876398,-296.082377,9918.759623
1904.788112,0.000000,-74.020594,10140.821405
1904.788430,306.438199,-0.000000,9992.780217
1904.788747,536.266849,518.144159,9400.615463
1904.789065,459.657299,74.020594,9400.615463
1904.789382,459.657299,-0.000000,9474.636058
1904.789700,383.047749,-148.041188,9474.636058
1904.790017,306.438199,-370.102971,9326.594869
1904.790334,612.876398,-666.185348,9474.636058
1904.790652,612.876398,-888.247130,9770.718434
1904.790969,229.828649,-888.247130,9770.718434
1904.791287,76.609550,-666.185348,9622.677246
1904.791604,383.047749,-518.144159,9622.677246
1904.791922,229.828649,-296.082377,9474.636058
1904.792239,536.266849,-0.000000,9252.574275
1904.792556,689.485948,148.041188,9474.636058
1904.792874,689.485948,74.020594,9548.656652
1904.793191,1302.362347,148.041188,9326.594869
1904.793509,1378.971896,518.144159,9104.533087
1904.793826,1838.629195,370.102971,8586.388927
1904.794144,1455.581446,296.082377,8734.430116
1904.794461,1378.971896,-0.000000,8438.347739
1904.794778,1302.362347,-74.020594,8882.471304
1904.795096,1302.362347,-0.000000,8586.388927
1904.795413,1302.362347,-74.020594,8734.430116
1904.795731,1072.533697,-222.061783,8512.368333
1904.796048,766.095498,-370.102971,9178.553681
1904.796366,383.047749,-296.082377,9252.574275
1904.796683,459.657299,-222.061783,9474.636058
1904.797000,383.047749,-0.000000,9326.594869
1904.797318,766.095498,888.247130,9400.615463
1904.797635,766.095498,1036.288319,9252.574275
1904.797953,459.657299,740.205942,8882.471304
1904.798270,689.485948,740.205942,8956.491898
1904.798588,383.047749,666.185348,8882.471304
1904.798905,306.438199,518.144159,9030.512492
1904.799222,153.219100,-0.000000,9474.636058
1904.799540,76.609550,-666.185348,9770.718434
1904.799857,-306.438199,-814.226536,9548.656652
1904.800175,76.609550,-1110.308913,10362.883188
1904.800492,-153.219100,-666.185348,9844.739029
1904.800810,153.219100,-148.041188,9548.656652
1904.801127,76.609550,370.102971,10140.821405
1904.801444,612.876398,444.123565,9992.780217
1904.801762,766.095498,370.102971,9548.656652
1904.802079,612.876398,666.185348,9474.636058
1904.802397,1149.143247,740.205942,9770.718434
1904.802714,1455.581446,888.247130,9474.636058
1904.803032,1838.629195,592.164754,9622.677246
1904.803349,1378.971896,444.123565,9696.697840
1904.803666,1532.190996,740.205942,9696.697840
1904.803984,2068.457845,1110.308913,9400.615463
1904.804301,2374.896044,814.226536,9400.615463
1904.804619,2298.286494,666.185348,9474.636058
1904.804936,2068.457845,518.144159,9474.636058
1904.805254,1915.238745,592.164754,9474.636058
1904.805571,2068.457845,518.144159,9474.636058
1904.805888,1762.019645,518.144159,9548.656652
1904.806206,1685.410096,296.082377,9326.594869
1904.806523,766.095498,518.144159,9400.615463
1904.806841,842.705048,370.102971,9474.636058
1904.807158,612.876398,370.102971,9474.636058
1904.807476,229.828649,-0.000000,9474.636058
1904.807793,0.000000,-0.000000,9622.677246
1904.808110,0.000000,-0.000000,9548.656652
1904.808428,-306.438199,-0.000000,9474.636058
1904.808745,-229.828649,-0.000000,9844.739029
1904.809063,-306.438199,-222.061783,9992.780217
1904.809380,0.000000,-74.020594,9696.697840
1904.809698,0.000000,370.102971,9770.718434
1904.810015,-306.438199,296.082377,9696.697840
1904.810332,0.000000,592.164754,9474.636058
1904.810650,-459.657299,962.267725,9178.553681
1904.810967,306.438199,740.205942,9030.512492
1904.811285,153.219100,592.164754,8882.471304
1904.811602,306.438199,740.205942,9326.594869
1904.811920,229.828649,518.144159,9252.574275
1904.812237,689.485948,296.082377,9252.574275
1904.812554,383.047749,-0.000000,9474.636058
1904.812872,842.705048,296.082377,9696.697840
1904.813189,1302.362347,-0.000000,9474.636058
1904.813507,1532.190996,-0.000000,9252.574275
1904.813824,2604.724693,444.123565,9474.636058
1904.814142,2298.286494,740.205942,9104.533087
1904.814459,2374.896044,814.226536,8586.388927
1904.814776,2374.896044,962.267725,8512.368333
1904.815094,2374.896044,888.247130,8142.265362
1904.815411,2068.457845,814.226536,8364.327145
1904.815729,1762.019645,444.123565,8586.388927
1904.816046,1072.533697,-74.020594,8808.450710
1904.816364,383.047749,-296.082377,9178.553681
1904.816681,0.000000,-370.102971,9400.615463
1904.816998,-306.438199,-370.102971,9474.636058
1904.817316,-536.266849,-370.102971,9622.677246
1904.817633,-766.095498,-592.164754,9770.718434
1904.817951,-459.657299,-444.123565,9844.739029
1904.818268,-612.876398,-74.020594,9844.739029
1904.818586,-229.828649,-0.000000,9622.677246
1904.818903,-306.438199,-0.000000,9400.615463
1904.819220,-229.828649,666.185348,9474.636058
1904.819538,0.000000,518.144159,9326.594869
1904.819855,383.047749,1036.288319,9104.533087
1904.820173,383.047749,592.164754,9474.636058
1904.820490,536.266849,222.061783,9474.636058
1904.820807,536.266849,370.102971,9622.677246
1904.821125,1072.533697,444.123565,9622.677246
1904.821442,1072.533697,666.185348,9844.739029
1904.821760,1072.533697,666.185348,9474.636058
1904.822077,1378.971896,740.205942,9474.636058
1904.822395,1762.019645,666.185348,9918.759623
1904.822712,1838.629195,592.164754,9622.677246
1904.823029,1915.238745,444.123565,9326.594869
1904.823347,2221.676944,592.164754,9400.615463
1904.823664,1991.848295,296.082377,9178.553681
1904.823982,2068.457845,-0.000000,9474.636058
1904.824299,1608.800546,-222.061783,9696.697840
1904.824617,1378.971896,-148.041188,9770.718434
1904.824934,1532.190996,-0.000000,9474.636058
1904.825251,1149.143247,-74.020594,9548.656652
1904.825569,1072.533697,-0.000000,9992.780217
1904.825886,1072.533697,296.082377,9696.697840
1904.826204,383.047749,296.082377,9770.718434
1904.826521,612.876398,592.164754,9770.718434
1904.826839,612.876398,888.247130,9326.594869
1904.827156,536.266849,740.205942,9770.718434
1904.827473,459.657299,814.226536,9474.636058
1904.827791,383.047749,518.144159,9178.553681
1904.828108,153.219100,222.061783,9400.615463
1904.828426,0.000000,-0.000000,9326.594869
1904.828743,0.000000,-0.000000,9474.636058
1904.829061,-459.657299,-148.041188,9474.636058
1904.829378,-612.876398,-74.020594,9622.677246
1904.829695,-766.095498,-518.144159,9992.780217
1904.830013,-919.314598,-592.164754,10140.821405
1904.830330,-459.657299,-148.041188,10436.903782
1904.830648,-229.828649,-0.000000,9992.780217
1904.830965,0.000000,518.144159,10066.800811
1904.831283,689.485948,370.102971,9622.677246
1904.831600,1532.190996,666.185348,9474.636058
1904.831917,1532.190996,518.144159,8660.409521
1904.832235,2298.286494,592.164754,8438.347739
1904.832552,1991.848295,296.082377,8364.327145
1904.832870,2145.067394,222.061783,8364.327145
1904.833187,1991.848295,-370.102971,8808.450710
1904.833505,1532.190996,-370.102971,9104.533087
1904.833822,1378.971896,-592.164754,9326.594869
1904.834139,1072.533697,-666.185348,9474.636058
1904.834457,689.485948,-740.205942,9474.636058
1904.834774,612.876398,-518.144159,9622.677246
1904.835092,766.095498,-518.144159,9548.656652
1904.835409,536.266849,-222.061783,9548.656652
1904.835727,612.876398,-74.020594,9474.636058
1904.836044,612.876398,518.144159,9400.615463
1904.836361,919.314598,888.247130,9030.512492
1904.836679,1225.752797,1036.288319,8438.347739
1904.836996,1225.752797,1036.288319,8512.368333
1904.837314,1149.143247,888.247130,8660.409521
1904.837631,1225.752797,666.185348,8438.347739
1904.837949,766.095498,592.164754,8808.450710
1904.838266,536.266849,148.041188,8808.450710
1904.838583,459.657299,666.185348,8808.450710
1904.838901,0.000000,370.102971,9252.574275
1904.839218,-459.657299,148.041188,9548.656652
1904.839536,-842.705048,-0.000000,9548.656652
1904.839853,-766.095498,222.061783,9844.739029
1904.840171,-1072.533697,-0.000000,9770.718434
1904.840488,-766.095498,-0.000000,10214.842000
1904.840805,-995.924147,-222.061783,9770.718434
1904.841123,-383.047749,-0.000000,10214.842000
1904.841440,-536.266849,74.020594,9844.739029
1904.841758,0.000000,444.123565,9622.677246
1904.842075,0.000000,-0.000000,9474.636058
1904.842393,-306.438199,296.082377,9400.615463
1904.842710,459.657299,592.164754,9326.594869
1904.843027,766.095498,370.102971,9548.656652
1904.843345,919.314598,518.144159,9622.677246
1904.843662,995.924147,740.205942,9770.718434
1904.843980,1455.581446,740.205942,9770.718434
1904.844297,1532.190996,962.267725,9918.759623
1904.844615,1915.238745,1110.308913,9474.636058
1904.844932,1455.581446,962.267725,9474.636058
1904.845249,1608.800546,814.226536,9252.574275
1904.845567,1838.629195,962.267725,9400.615463
1904.845884,1762.019645,740.205942,9474.636058
1904.846202,1378.971896,444.123565,9696.697840
1904.846519,1302.362347,370.102971,9622.677246
1904.846837,842.705048,370.102971,9992.780217
1904.847154,612.876398,222.061783,10140.821405
1904.847471,612.876398,296.082377,9844.739029
1904.847789,536.266849,1110.308913,10066.800811
1904.848106,229.828649,888.247130,10066.800811
1904.848424,306.438199,814.226536,9918.759623
1904.848741,306.438199,814.226536,10066.800811
1904.849059,536.266849,592.164754,9770.718434
1904.849376,0.000000,518.144159,9474.636058
1904.849694,0.000000,-0.000000,9548.656652
1904.850011,306.438199,-0.000000,9992.780217
1904.850329,0.000000,-0.000000,10214.842000
1904.850646,0.000000,74.020594,9844.739029
1904.850964,153.219100,222.061783,9548.656652
1904.851281,76.609550,-74.020594,9844.739029
1904.851598,612.876398,-296.082377,10140.821405
1904.851916,612.876398,-740.205942,9992.780217
1904.852233,842.705048,-666.185348,9992.780217
1904.852551,1455.581446,-148.041188,9992.780217
1904.852868,1685.410096,222.061783,9548.656652
1904.853186,1991.848295,518.144159,9030.512492
1904.853503,2528.115143,666.185348,8290.306550
1904.853821,2528.115143,666.185348,7920.203579
1904.854138,2528.115143,740.205942,8068.244768
1904.854456,2987.772442,444.123565,8438.347739
1904.854773,2451.505594,-222.061783,8142.265362
1904.855091,2451.505594,-74.020594,8808.450710
1904.855408,2145.067394,-148.041188,8882.471304
1904.855726,1532.190996,-296.082377,8808.450710
1904.856043,1762.019645,-666.185348,9178.553681
1904.856361,1302.362347,-0.000000,9326.594869
1904.856678,1302.362347,-222.061783,9178.553681
1904.856996,1149.143247,-518.144159,9622.677246
1904.857313,919.314598,-222.061783,9400.615463
1904.857631,842.705048,-740.205942,9178.553681
1904.857948,536.266849,-444.123565,8882.471304
1904.858266,76.609550,-222.061783,8512.368333
1904.858583,76.609550,-370.102971,8734.430116
1904.858901,0.000000,-296.082377,8882.471304
1904.859218,0.000000,-518.144159,8882.471304
1904.859536,-383.047749,-592.164754,9178.553681
1904.859853,-766.095498,-1110.308913,9030.512492
1904.860171,-919.314598,-1184.329507,9326.594869
1904.860488,-459.657299,-962.267725,9474.636058
1904.860806,-919.314598,-888.247130,9918.759623
1904.861123,-842.705048,-962.267725,9844.739029
1904.861441,-612.876398,-74.020594,9474.636058
1904.861758,-153.219100,-0.000000,9548.656652
1904.862076,76.609550,444.123565,9252.574275
1904.862393,383.047749,518.144159,9178.553681
1904.862711,612.876398,814.226536,9104.533087
1904.863028,766.095498,740.205942,9474.636058
1904.863345,842.705048,962.267725,9326.594869
1904.863663,1072.533697,888.247130,9178.553681
1904.863980,1225.752797,1036.288319,9400.615463
1904.864298,1072.533697,1110.308913,9474.636058
1904.864615,1302.362347,1258.350101,9252.574275
1904.864933,1378.971896,1110.308913,9326.594869
1904.865250,1378.971896,1036.288319,9474.636058
1904.865568,1838.629195,1036.288319,9474.636058
1904.865885,1991.848295,1184.329507,9400.615463
1904.866203,1762.019645,1184.329507,9326.594869
1904.866520,2221.676944,1110.308913,9400.615463
1904.866838,1455.581446,888.247130,9400.615463
1904.867155,1532.190996,1110.308913,9474.636058
1904.867473,1072.533697,962.267725,9696.697840
1904.867790,919.314598,888.247130,9918.759623
1904.868108,766.095498,296.082377,9696.697840
1904.868425,459.657299,222.061783,9992.780217
1904.868743,536.266849,148.041188,10436.903782
1904.869060,536.266849,-0.000000,10510.924376
1904.869378,459.657299,-0.000000,10658.965565
1904.869695,842.705048,296.082377,11325.150913
1904.870013,766.095498,592.164754,10584.944971
1904.870330,919.314598,666.185348,9918.759623
1904.870648,1072.533697,1184.329507,9696.697840
1904.870965,995.924147,962.267725,9474.636058
1904.871283,919.314598,666.185348,9622.677246
1904.871600,919.314598,370.102971,9770.718434
1904.871918,919.314598,-0.000000,9918.759623
1904.872235,689.485948,-0.000000,9770.718434
1904.872553,536.266849,-0.000000,9918.759623
1904.872870,153.219100,-222.061783,9918.759623
1904.873188,0.000000,-148.041188,9918.759623
1904.873505,383.047749,-74.020594,10140.821405
1904.873823,536.266849,-0.000000,10288.862594
1904.874140,1302.362347,-0.000000,10066.800811
1904.874457,1302.362347,370.102971,9844.739029
1904.874775,1302.362347,148.041188,9400.615463
1904.875092,1378.971896,444.123565,8882.471304
1904.875410,1608.800546,222.061783,8808.450710
1904.875727,1455.581446,148.041188,8290.306550
1904.876045,1915.238745,-74.020594,8586.388927
1904.876362,1762.019645,-518.144159,8882.471304
1904.876680,1149.143247,-444.123565,8956.491898
1904.876997,1072.533697,-666.185348,9178.553681
1904.877315,1149.143247,-370.102971,8956.491898
1904.877632,919.314598,-296.082377,8882.471304
1904.877950,766.095498,-296.082377,8882.471304
1904.878267,842.705048,-148.041188,8660.409521
1904.878585,995.924147,-370.102971,8586.388927
1904.878902,1149.143247,-74.020594,8808.450710
1904.879220,842.705048,-0.000000,8660.409521
1904.879537,612.876398,-74.020594,8290.306550
1904.879855,306.438199,-222.061783,8364.327145
1904.880172,153.219100,-296.082377,8660.409521
1904.880490,76.609550,-222.061783,8882.471304
1904.880807,0.000000,-370.102971,9030.512492
1904.881125,153.219100,-222.061783,8956.491898
1904.881442,-306.438199,-666.185348,9252.574275
1904.881760,0.000000,-888.247130,9474.636058
1904.882077,-689.485948,-592.164754,9030.512492
1904.882395,153.219100,-0.000000,9252.574275
1904.882712,842.705048,518.144159,9326.594869
1904.883030,766.095498,814.226536,9030.512492
1904.883347,1532.190996,888.247130,8734.430116
1904.883665,842.705048,740.205942,8808.450710
1904.883982,689.485948,518.144159,8438.347739
1904.884300,919.314598,666.185348,8808.450710
1904.884617,1072.533697,666.185348,8734.430116
1904.884935,1225.752797,518.144159,8956.491898
1904.885252,919.314598,222.061783,9326.594869
1904.885569,612.876398,-0.000000,9474.636058
1904.885887,306.438199,-0.000000,9844.739029
1904.886204,306.438199,-0.000000,9918.759623
1904.886522,-76.609550,-0.000000,10066.800811
1904.886839,383.047749,444.123565,10510.924376
1904.887157,689.485948,518.144159,10362.883188
1904.887474,995.924147,666.185348,9992.780217
1904.887792,1532.190996,1110.308913,9696.697840
1904.888109,1302.362347,1258.350101,9844.739029
1904.888427,1532.190996,1036.288319,9474.636058
1904.888744,1838.629195,1258.350101,9252.574275
1904.889062,1532.190996,814.226536,9474.636058
1904.889379,1762.019645,888.247130,9696.697840
1904.889697,1455.581446,1184.329507,9548.656652
1904.890014,1225.752797,1110.308913,9770.718434
1904.890332,1149.143247,296.082377,9992.780217
1904.890649,1149.143247,148.041188,10658.965565
1904.890967,536.266849,-74.020594,10658.965565
1904.891284,306.438199,148.041188,11029.068536
1904.891602,689.485948,296.082377,10436.903782
1904.891919,383.047749,518.144159,10510.924376
1904.892237,383.047749,666.185348,10362.883188
1904.892554,612.876398,-0.000000,10140.821405
1904.892872,612.876398,148.041188,10214.842000
1904.893189,919.314598,-0.000000,10214.842000
1904.893507,1149.143247,148.041188,10066.800811
1904.893824,1378.971896,-0.000000,9992.780217
1904.894142,1302.362347,-0.000000,9548.656652
1904.894459,1378.971896,-222.061783,9474.636058
1904.894777,1225.752797,-0.000000,9474.636058
1904.895094,1608.800546,-222.061783,9474.636058
1904.895412,1608.800546,-0.000000,8808.450710
1904.895729,1455.581446,296.082377,9104.533087
1904.896047,1302.362347,444.123565,9178.553681
1904.896364,919.314598,-0.000000,8734.430116
1904.896681,995.924147,-0.000000,8660.409521
1904.896999,919.314598,-74.020594,8956.491898
1904.897316,459.657299,-0.000000,9178.553681
1904.897634,536.266849,-74.020594,9178.553681
1904.897951,306.438199,-148.041188,8808.450710
1904.898269,153.219100,-518.144159,9326.594869
1904.898586,459.657299,-518.144159,9326.594869
1904.898904,612.876398,-74.020594,9030.512492
1904.899221,459.657299,-222.061783,8808.450710
1904.899539,689.485948,-0.000000,8586.388927
1904.899856,1225.752797,-0.000000,8734.430116
1904.900174,766.095498,148.041188,8660.409521
1904.900491,1149.143247,148.041188,7920.203579
1904.900809,766.095498,296.082377,7772.162391
1904.901126,536.266849,-0.000000,7920.203579
1904.901444,459.657299,-296.082377,8364.327145
1904.901761,0.000000,-740.205942,8660.409521
1904.902079,-306.438199,-1036.288319,9178.553681
1904.902396,-383.047749,-740.205942,9178.553681
1904.902714,-383.047749,-666.185348,9030.512492
1904.903031,-229.828649,-740.205942,9326.594869
1904.903349,-612.876398,-296.082377,9696.697840
1904.903666,0.000000,-0.000000,9770.718434
1904.903984,0.000000,592.164754,9474.636058
1904.904301,536.266849,888.247130,9474.636058
1904.904619,995.924147,1258.350101,9400.615463
1904.904936,919.314598,1258.350101,8956.491898
1904.905254,919.314598,1184.329507,8808.450710
1904.905571,1455.581446,1184.329507,8956.491898
1904.905889,1378.971896,740.205942,8734.430116
1904.906206,1378.971896,666.185348,9474.636058
1904.906524,842.705048,592.164754,9326.594869
1904.906841,536.266849,296.082377,9474.636058
1904.907159,229.828649,148.041188,9622.677246
1904.907476,0.000000,222.061783,10066.800811
1904.907793,0.000000,-148.041188,10436.903782
1904.908111,229.828649,296.082377,10732.986159
1904.908428,766.095498,592.164754,10658.965565
1904.908746,842.705048,888.247130,10362.883188
1904.909063,919.314598,888.247130,9918.759623
1904.909381,919.314598,1184.329507,9770.718434
1904.909698,995.924147,1184.329507,9622.677246
1904.910016,1455.581446,1110.308913,9548.656652
1904.910333,1302.362347,962.267725,9844.739029
1904.910651,1378.971896,1110.308913,9844.739029
1904.910968,1149.143247,1184.329507,9844.739029
1904.911286,1072.533697,814.226536,9474.636058
1904.911603,536.266849,-0.000000,9992.780217
1904.911921,383.047749,-0.000000,9918.759623
1904.912238,383.047749,-0.000000,10066.800811
1904.912556,153.219100,148.041188,10510.924376
1904.912873,0.000000,518.144159,10584.944971
1904.913191,153.219100,740.205942,10362.883188
1904.913508,0.000000,740.205942,10214.842000
1904.913826,536.266849,518.144159,10214.842000
1904.914143,0.000000,666.185348,10066.800811
1904.914461,306.438199,740.205942,9918.759623
1904.914778,536.266849,814.226536,10214.842000
1904.915096,536.266849,1036.288319,9770.718434
1904.915413,766.095498,666.185348,9622.677246
1904.915731,536.266849,518.144159,9474.636058
1904.916048,689.485948,666.185348,9474.636058
1904.916366,919.314598,592.164754,9326.594869
1904.916683,1149.143247,518.144159,9326.594869
1904.917001,1225.752797,962.267725,9474.636058
1904.917318,995.924147,666.185348,9252.574275
1904.917636,1149.143247,592.164754,8882.471304
1904.917953,995.924147,222.061783,8586.388927
1904.918271,1072.533697,-0.000000,8586.388927
1904.918588,1149.143247,-0.000000,8512.368333
1904.918906,919.314598,-370.102971,8734.430116
1904.919223,766.095498,-592.164754,8808.450710
1904.919540,459.657299,-814.226536,8882.471304
1904.919858,612.876398,-814.226536,8882.471304
1904.920175,536.266849,-888.247130,8956.491898
1904.920493,153.219100,-1036.288319,9178.553681
1904.920810,229.828649,-666.185348,9252.574275
1904.921128,0.000000,-666.185348,9178.553681
1904.921445,1072.533697,-592.164754,9178.553681
1904.921763,995.924147,-666.185348,9178.553681
1904.922080,1225.752797,-444.123565,8660.409521
1904.922398,1378.971896,-518.144159,8660.409521
1904.922715,1455.581446,-740.205942,8512.368333
1904.923033,1302.362347,-888.247130,8808.450710
1904.923350,1378.971896,-666.185348,8734.430116
1904.923668,1378.971896,-296.082377,8734.430116
1904.923985,1072.533697,-148.041188,8808.450710
1904.924303,1072.533697,-518.144159,8734.430116
1904.924620,766.095498,-370.102971,9178.553681
1904.924938,766.095498,-444.123565,9400.615463
1904.925255,1072.533697,-370.102971,9474.636058
1904.925573,1072.533697,-444.123565,9474.636058
1904.925890,919.314598,-296.082377,9474.636058
1904.926208,995.924147,-74.020594,8956.491898
1904.926525,1149.143247,-0.000000,8882.471304
1904.926843,612.876398,296.082377,8808.450710
1904.927160,1608.800546,148.041188,8882.471304
1904.927478,766.095498,222.061783,9030.512492
1904.927795,689.485948,222.061783,9252.574275
1904.928113,459.657299,222.061783,9252.574275
1904.928430,76.609550,148.041188,9770.718434
1904.928748,-383.047749,-0.000000,10214.842000
1904.929065,306.438199,-0.000000,9548.656652
1904.929383,229.828649,222.061783,9770.718434
1904.929700,383.047749,-0.000000,10140.821405
1904.930018,536.266849,518.144159,9918.759623
1904.930335,612.876398,962.267725,9844.739029
1904.930652,919.314598,1554.432478,9400.615463
1904.930970,1455.581446,1850.514855,9326.594869
1904.931287,995.924147,1776.494261,9178.553681
1904.931605,919.314598,1406.391290,9548.656652
1904.931922,612.876398,1036.288319,9474.636058
1904.932240,842.705048,1258.350101,9696.697840
1904.932557,536.266849,1110.308913,9844.739029
1904.932875,306.438199,888.247130,9992.780217
1904.933192,229.828649,518.144159,10140.821405
1904.933510,76.609550,518.144159,10658.965565
1904.933827,459.657299,592.164754,10584.944971
1904.934145,459.657299,1406.391290,10584.944971
1904.934462,919.314598,1406.391290,10140.821405
1904.934780,306.438199,1406.391290,10066.800811
1904.935097,229.828649,1332.370696,9992.780217
1904.935415,229.828649,962.267725,9918.759623
1904.935732,459.657299,962.267725,9548.656652
1904.936050,383.047749,814.226536,9918.759623
1904.936367,229.828649,444.123565,9696.697840
1904.936685,536.266849,370.102971,9918.759623
1904.937002,153.219100,444.123565,9622.677246
1904.937320,229.828649,592.164754,9844.739029
1904.937637,383.047749,666.185348,9770.718434
1904.937955,842.705048,444.123565,9844.739029
1904.938272,612.876398,518.144159,9844.739029
1904.938590,459.657299,518.144159,10066.800811
1904.938907,995.924147,592.164754,9770.718434
1904.939225,1225.752797,518.144159,9400.615463
1904.939542,1072.533697,370.102971,9326.594869
1904.939860,842.705048,148.041188,8734.430116
1904.940177,1072.533697,222.061783,8808.450710
1904.940495,1149.143247,296.082377,9104.533087
1904.940812,919.314598,222.061783,8734.430116
1904.941130,995.924147,-74.020594,8882.471304
1904.941447,612.876398,-222.061783,9178.553681
1904.941764,612.876398,-296.082377,9326.594869
1904.942082,689.485948,-666.185348,9474.636058
1904.942399,1149.143247,-370.102971,9770.718434
1904.942717,1072.533697,-444.123565,9252.574275
1904.943034,1225.752797,-74.020594,9252.574275
1904.943352,1608.800546,-296.082377,9178.553681
1904.943669,1608.800546,-74.020594,8660.409521
1904.943987,1608.800546,-296.082377,8586.388927
1904.944304,1608.800546,-962.267725,8882.471304
1904.944622,1378.971896,-666.185348,8882.471304
1904.944939,1685.410096,-888.247130,8808.450710
1904.945257,1532.190996,-1036.288319,8956.491898
1904.945574,919.314598,-1332.370696,8956.491898
1904.945892,1225.752797,-962.267725,9252.574275
1904.946209,995.924147,-1332.370696,9326.594869
1904.946527,1302.362347,-888.247130,9252.574275
1904.946844,1149.143247,-814.226536,9326.594869
1904.947162,1378.971896,-222.061783,8734.430116
1904.947479,2068.457845,-296.082377,8882.471304
1904.947797,1455.581446,-74.020594,8734.430116
1904.948114,1225.752797,-296.082377,8438.347739
1904.948432,1149.143247,-444.123565,8808.450710
1904.948749,995.924147,-518.144159,9252.574275
1904.949066,689.485948,-962.267725,9030.512492
1904.949384,383.047749,-666.185348,9696.697840
1904.949701,536.266849,-740.205942,9474.636058
1904.950019,229.828649,-814.226536,9548.656652
1904.950336,383.047749,-888.247130,9770.718434
1904.950654,689.485948,-666.185348,9770.718434
1904.950971,689.485948,-592.164754,9696.697840
1904.951289,766.095498,-444.123565,9696.697840
1904.951606,1378.971896,148.041188,9474.636058
1904.951923,1838.629195,740.205942,9104.533087
1904.952241,1762.019645,518.144159,8512.368333
1904.952558,1685.410096,740.205942,8364.327145
1904.952876,1685.410096,592.164754,8956.491898
1904.953193,1991.848295,-0.000000,9400.615463
1904.953511,1302.362347,-0.000000,9770.718434
1904.953828,919.314598,-0.000000,9992.780217
1904.954146,766.095498,370.102971,9474.636058
1904.954463,229.828649,296.082377,9548.656652
1904.954780,76.609550,518.144159,9992.780217
1904.955098,0.000000,444.123565,10214.842000
1904.955415,0.000000,592.164754,10066.800811
1904.955733,-153.219100,666.185348,10362.883188
1904.956050,229.828649,1110.308913,10436.903782
1904.956368,76.609550,888.247130,9622.677246
1904.956685,383.047749,740.205942,9622.677246
1904.957003,383.047749,1184.329507,9474.636058
1904.957320,766.095498,1258.350101,9400.615463
1904.957637,612.876398,1406.391290,9474.636058
1904.957955,766.095498,1850.514855,9474.636058
1904.958272,459.657299,1776.494261,9326.594869
1904.958590,689.485948,1924.535449,9104.533087
1904.958907,766.095498,1702.473667,9030.512492
1904.959225,612.876398,1850.514855,9326.594869
1904.959542,536.266849,1554.432478,9252.574275
1904.959860,612.876398,1480.411884,9252.574275
1904.960177,536.266849,1184.329507,9474.636058
1904.960495,689.485948,1184.329507,9252.574275
1904.960812,76.609550,1036.288319,8882.471304
1904.961129,153.219100,1036.288319,9104.533087
1904.961447,0.000000,1258.350101,9030.512492
1904.961764,-229.828649,592.164754,9474.636058
1904.962082,-229.828649,666.185348,9622.677246
1904.962399,-459.657299,740.205942,9548.656652
1904.962717,-459.657299,518.144159,9400.615463
1904.963034,-383.047749,518.144159,9844.739029
1904.963352,0.000000,444.123565,9548.656652
1904.963669,229.828649,518.144159,9622.677246
1904.963986,612.876398,370.102971,9548.656652
1904.964304,1302.362347,222.061783,9918.759623
1904.964621,1685.410096,592.164754,9400.615463
1904.964939,1685.410096,814.226536,8734.430116
1904.965256,1762.019645,592.164754,8586.388927
1904.965574,1532.190996,444.123565,8660.409521
1904.965891,1455.581446,296.082377,8734.430116
1904.966209,1225.752797,-74.020594,9178.553681
1904.966526,766.095498,-666.185348,9622.677246
1904.966843,612.876398,-1258.350101,10436.903782
1904.967161,306.438199,-1332.370696,10510.924376
1904.967478,689.485948,-814.226536,10362.883188
1904.967796,612.876398,-740.205942,10510.924376
1904.968113,1072.533697,-222.061783,10066.800811
1904.968431,1302.362347,-0.000000,9696.697840
1904.968748,1455.581446,-148.041188,9622.677246
1904.969066,1455.581446,-296.082377,9622.677246
1904.969383,1532.190996,-444.123565,9400.615463
1904.969700,1532.190996,-592.164754,9252.574275
1904.970018,1302.362347,-666.185348,9252.574275
1904.970335,1225.752797,-814.226536,9474.636058
1904.970653,1378.971896,-814.226536,9400.615463
1904.970970,1149.143247,-518.144159,9252.574275
1904.971288,1072.533697,-1184.329507,9252.574275
1904.971605,1225.752797,-1258.350101,9474.636058
1904.971923,919.314598,-1110.308913,9326.594869
1904.972240,689.485948,-1036.288319,9770.718434
1904.972557,689.485948,-518.144159,9696.697840
1904.972875,1149.143247,-518.144159,9770.718434
1904.973192,1072.533697,-0.000000,9400.615463
1904.973510,1302.362347,-0.000000,8882.471304
1904.973827,1455.581446,592.164754,8512.368333
1904.974145,1532.190996,518.144159,8586.388927
1904.974462,1838.629195,666.185348,8512.368333
1904.974780,2145.067394,592.164754,8512.368333
1904.975097,1455.581446,592.164754,8660.409521
1904.975414,1378.971896,592.164754,8364.327145
1904.975732,919.314598,296.082377,8512.368333
1904.976049,919.314598,-148.041188,8660.409521
1904.976367,306.438199,222.061783,9252.574275
1904.976684,153.219100,296.082377,9104.533087
1904.977002,306.438199,888.247130,9178.553681
1904.977319,153.219100,592.164754,9030.512492
1904.977637,76.609550,444.123565,9030.512492
1904.977954,-229.828649,296.082377,8882.471304
1904.978272,-459.657299,296.082377,8586.388927
1904.978589,-459.657299,-74.020594,9178.553681
1904.978906,-612.876398,-0.000000,9548.656652
1904.979224,-612.876398,370.102971,9844.739029
1904.979541,-842.705048,444.123565,9474.636058
1904.979859,-1072.533697,518.144159,9474.636058
1904.980176,-995.924147,888.247130,9548.656652
1904.980494,-383.047749,1110.308913,9474.636058
1904.980811,-1378.971896,962.267725,9548.656652
1904.981129,-612.876398,1110.308913,9992.780217
1904.981446,0.000000,1258.350101,9844.739029
1904.981763,383.047749,1258.350101,9770.718434
1904.982081,1225.752797,1332.370696,9030.512492
1904.982398,612.876398,1480.411884,9400.615463
1904.982716,766.095498,1184.329507,9474.636058
1904.983033,766.095498,1184.329507,9474.636058
1904.983351,1225.752797,1036.288319,9548.656652
1904.983668,1072.533697,1110.308913,9696.697840
1904.983986,919.314598,814.226536,9992.780217
1904.984303,1455.581446,888.247130,9844.739029
1904.984620,1532.190996,666.185348,10214.842000
1904.984938,1762.019645,370.102971,10140.821405
1904.985255,1685.410096,518.144159,10214.842000
1904.985573,1991.848295,740.205942,10436.903782
1904.985890,2221.676944,740.205942,10436.903782
1904.986208,2451.505594,814.226536,9844.739029
1904.986525,2298.286494,740.205942,9622.677246
1904.986843,2604.724693,814.226536,9548.656652
1904.987160,2374.896044,148.041188,9622.677246
1904.987477,2145.067394,-0.000000,9474.636058
1904.987795,1838.629195,-148.041188,9992.780217
1904.988112,1225.752797,-518.144159,10066.800811
1904.988430,842.705048,-666.185348,10214.842000
1904.988747,536.266849,-814.226536,10288.862594
1904.989065,383.047749,-888.247130,10288.862594
1904.989382,229.828649,-740.205942,10066.800811
1904.989700,76.609550,-518.144159,10214.842000
1904.990017,689.485948,-592.164754,10288.862594
1904.990334,229.828649,-444.123565,9622.677246
1904.990652,766.095498,-148.041188,9474.636058
1904.990969,612.876398,-148.041188,9252.574275
1904.991287,919.314598,-0.000000,8882.471304
1904.991604,612.876398,-74.020594,9178.553681
1904.991922,766.095498,-74.020594,9104.533087
1904.992239,689.485948,-0.000000,8956.491898
1904.992557,612.876398,-74.020594,8586.388927
1904.992874,612.876398,-0.000000,8586.388927
1904.993192,1072.533697,-222.061783,8660.409521
1904.993509,536.266849,-296.082377,8808.450710
1904.993826,612.876398,-0.000000,8586.388927
1904.994144,766.095498,-0.000000,8808.450710
1904.994461,1149.143247,-0.000000,8660.409521
1904.994779,842.705048,296.082377,8364.327145
1904.995096,842.705048,370.102971,8364.327145
1904.995414,536.266849,518.144159,7772.162391
1904.995731,459.657299,-222.061783,8512.368333
1904.996049,612.876398,-0.000000,8438.347739
1904.996366,766.095498,-0.000000,8734.430116
1904.996683,383.047749,-0.000000,8956.491898
1904.997001,153.219100,-370.102971,8512.368333
1904.997318,0.000000,-296.082377,9030.512492
1904.997636,-383.047749,-666.185348,9104.533087
1904.997953,0.000000,-296.082377,9326.594869
1904.998271,0.000000,-222.061783,9474.636058
1904.998588,0.000000,-148.041188,9548.656652
1904.998906,153.219100,296.082377,9326.594869
1904.999223,459.657299,370.102971,9104.533087
1904.999540,229.828649,592.164754,8660.409521
1904.999858,536.266849,592.164754,8734.430116
1905.000175,306.438199,1110.308913,8956.491898
1905.000493,306.438199,444.123565,9770.718434
1905.000810,153.219100,370.102971,9622.677246
1905.001128,0.000000,444.123565,9844.739029
1905.001445,0.000000,444.123565,9918.759623
1905.001763,0.000000,518.144159,10140.821405
1905.002080,153.219100,296.082377,10140.821405
1905.002397,76.609550,370.102971,10510.924376
1905.002715,459.657299,222.061783,10436.903782
1905.003032,536.266849,814.226536,10658.965565
1905.003350,1685.410096,962.267725,10510.924376
1905.003667,1225.752797,1110.308913,9770.718434
1905.003985,1378.971896,1406.391290,9548.656652
1905.004302,1302.362347,1036.288319,9622.677246
1905.004620,1455.581446,740.205942,9844.739029
1905.004937,1302.362347,740.205942,9770.718434
1905.005254,1532.190996,740.205942,9844.739029
1905.005572,1532.190996,814.226536,9992.780217
1905.005889,1302.362347,296.082377,9844.739029
1905.006207,1378.971896,-0.000000,10066.800811
1905.006524,1685.410096,518.144159,10584.944971
1905.006842,995.924147,222.061783,10288.862594
1905.007159,1302.362347,814.226536,9992.780217
1905.007477,1302.362347,1036.288319,9918.759623
1905.007794,689.485948,962.267725,9474.636058
1905.008111,842.705048,962.267725,9178.553681
1905.008429,919.314598,962.267725,9400.615463
1905.008746,1072.533697,888.247130,9622.677246
1905.009064,995.924147,592.164754,9622.677246
1905.009381,612.876398,592.164754,9918.759623
1905.009699,842.705048,370.102971,9548.656652
1905.010016,306.438199,-222.061783,9474.636058
1905.010334,536.266849,-0.000000,9474.636058
1905.010651,766.095498,296.082377,9252.574275
1905.010969,689.485948,296.082377,9104.533087
1905.011286,919.314598,592.164754,9252.574275
1905.011603,766.095498,518.144159,9252.574275
1905.011921,842.705048,592.164754,8882.471304
1905.012238,612.876398,740.205942,8438.347739
1905.012556,612.876398,592.164754,8216.285956
1905.012873,0.000000,592.164754,8660.409521
1905.013191,153.219100,148.041188,8882.471304
1905.013508,76.609550,-444.123565,9252.574275
1905.013826,0.000000,-666.185348,9326.594869
1905.014143,-536.266849,-1110.308913,9326.594869
1905.014460,-689.485948,-1110.308913,9622.677246
1905.014778,-459.657299,-888.247130,9474.636058
1905.015095,-536.266849,-370.102971,9696.697840
1905.015413,-383.047749,-370.102971,9696.697840
1905.015730,306.438199,-222.061783,9178.553681
1905.016048,383.047749,-0.000000,8956.491898
1905.016365,1455.581446,-0.000000,8734.430116
1905.016683,1455.581446,-74.020594,8438.347739
1905.017000,1838.629195,-74.020594,9030.512492
1905.017317,1762.019645,-0.000000,8734.430116
1905.017635,1915.238745,-296.082377,8956.491898
1905.017952,1838.629195,-0.000000,9252.574275
1905.018270,1532.190996,-74.020594,9178.553681
1905.018587,1378.971896,-74.020594,9252.574275
1905.018905,1072.533697,-296.082377,9178.553681
1905.019222,1302.362347,-222.061783,9770.718434
1905.019540,1302.362347,-148.041188,9548.656652
1905.019857,1225.752797,-0.000000,9548.656652
1905.020174,1378.971896,-0.000000,9474.636058
1905.020492,1532.190996,-0.000000,9474.636058
1905.020809,1378.971896,370.102971,9326.594869
1905.021127,1302.362347,-0.000000,9252.574275
1905.021444,842.705048,-296.082377,9622.677246
1905.021762,995.924147,-148.041188,9622.677246
1905.022079,919.314598,-0.000000,9474.636058
1905.022397,536.266849,444.123565,9400.615463
1905.022714,612.876398,222.061783,9326.594869
1905.023031,919.314598,222.061783,9474.636058
1905.023349,766.095498,-0.000000,9474.636058
1905.023666,766.095498,-0.000000,9400.615463
1905.023984,842.705048,296.082377,9548.656652
1905.024301,995.924147,296.082377,9696.697840
1905.024619,1072.533697,592.164754,9622.677246
1905.024936,766.095498,888.247130,9474.636058
1905.025254,842.705048,740.205942,9326.594869
1905.025571,536.266849,444.123565,9770.718434
1905.025889,919.314598,296.082377,9918.759623
1905.026206,689.485948,-0.000000,10214.842000
1905.026523,689.485948,370.102971,9770.718434
1905.026841,766.095498,444.123565,9844.739029
1905.027158,842.705048,296.082377,9548.656652
1905.027476,1302.362347,296.082377,9918.759623
1905.027793,995.924147,444.123565,10140.821405
1905.028111,1225.752797,666.185348,9992.780217
1905.028428,1225.752797,888.247130,9548.656652
1905.028746,1378.971896,814.226536,9474.636058
1905.029063,2145.067394,962.267725,9622.677246
1905.029380,1455.581446,814.226536,9178.553681
1905.029698,766.095498,592.164754,8808.450710
1905.030015,459.657299,222.061783,9178.553681
1905.030333,536.266849,-0.000000,9992.780217
1905.030650,76.609550,-296.082377,10066.800811
1905.030968,-229.828649,-444.123565,9844.739029
1905.031285,-612.876398,-518.144159,10140.821405
1905.031603,-459.657299,-148.041188,9992.780217
1905.031920,-612.876398,-296.082377,9992.780217
1905.032237,-229.828649,-222.061783,9918.759623
1905.032555,0.000000,148.041188,9844.739029
1905.032872,76.609550,296.082377,9474.636058
1905.033190,536.266849,666.185348,9104.533087
1905.033507,995.924147,740.205942,8808.450710
1905.033825,919.314598,888.247130,8364.327145
1905.034142,1149.143247,814.226536,8216.285956
1905.034460,1072.533697,814.226536,8216.285956
1905.034777,995.924147,592.164754,8512.368333
1905.035094,766.095498,370.102971,8364.327145
1905.035412,995.924147,370.102971,8734.430116
1905.035729,1225.752797,148.041188,9104.533087
1905.036047,383.047749,222.061783,8956.491898
1905.036364,995.924147,148.041188,9548.656652
1905.036682,842.705048,962.267725,9178.553681
1905.036999,1455.581446,666.185348,9178.553681
1905.037317,1762.019645,666.185348,9030.512492
1905.037634,1302.362347,1110.308913,8660.409521
1905.037951,1532.190996,814.226536,8290.306550
1905.038269,1302.362347,592.164754,8438.347739
1905.038586,1685.410096,518.144159,8882.471304
1905.038904,1149.143247,-0.000000,9104.533087
1905.039221,919.314598,-0.000000,9252.574275
1905.039539,76.609550,-444.123565,9622.677246
1905.039856,383.047749,-222.061783,9844.739029
1905.040174,459.657299,-296.082377,9548.656652
1905.040491,153.219100,-518.144159,9696.697840
1905.040809,-153.219100,-518.144159,9918.759623
1905.041126,0.000000,-740.205942,10288.862594
1905.041443,0.000000,-296.082377,9992.780217
1905.041761,306.438199,296.082377,10066.800811
1905.042078,383.047749,-0.000000,9992.780217
1905.042396,383.047749,-0.000000,9696.697840
1905.042713,842.705048,-148.041188,9918.759623
1905.043031,689.485948,-296.082377,10066.800811
1905.043348,536.266849,-222.061783,9844.739029
1905.043666,1072.533697,-0.000000,9844.739029
1905.043983,842.705048,296.082377,9918.759623
1905.044300,842.705048,296.082377,9770.718434
1905.044618,1225.752797,296.082377,9474.636058
1905.044935,1072.533697,444.123565,9548.656652
1905.045253,1838.629195,222.061783,9622.677246
1905.045570,1532.190996,444.123565,9474.636058
1905.045888,1838.629195,296.082377,9474.636058
1905.046205,1762.019645,222.061783,9326.594869
1905.046523,1762.019645,296.082377,8956.491898
1905.046840,1378.971896,-0.000000,9104.533087
1905.047157,1532.190996,-0.000000,9178.553681
1905.047475,1149.143247,-0.000000,9474.636058
1905.047792,1072.533697,-0.000000,9770.718434
1905.048110,842.705048,74.020594,9992.780217
1905.048427,383.047749,-0.000000,9918.759623
1905.048745,689.485948,-0.000000,9622.677246
1905.049062,229.828649,148.041188,10066.800811
1905.049379,306.438199,222.061783,10066.800811
1905.049697,536.266849,222.061783,9844.739029
1905.050014,766.095498,222.061783,9844.739029
1905.050332,1608.800546,518.144159,9622.677246
1905.050649,1532.190996,518.144159,9252.574275
1905.050967,1378.971896,296.082377,8808.450710
1905.051284,1685.410096,814.226536,8512.368333
1905.051601,1608.800546,666.185348,8586.388927
1905.051919,1685.410096,-0.000000,9104.533087
1905.052236,766.095498,370.102971,8956.491898
1905.052554,612.876398,444.123565,9252.574275
1905.052871,306.438199,222.061783,9400.615463
1905.053189,306.438199,148.041188,9474.636058
1905.053506,153.219100,-0.000000,9474.636058
1905.053824,229.828649,296.082377,9474.636058
1905.054141,612.876398,-0.000000,9770.718434
1905.054459,612.876398,444.123565,9252.574275
1905.054776,995.924147,296.082377,9030.512492
1905.055094,766.095498,592.164754,8882.471304
1905.055411,842.705048,592.164754,8734.430116
1905.055729,842.705048,296.082377,8882.471304
1905.056046,766.095498,222.061783,8882.471304
1905.056363,536.266849,-0.000000,9104.533087
1905.056681,536.266849,148.041188,8956.491898
1905.056998,306.438199,-222.061783,9178.553681
1905.057316,0.000000,-592.164754,9474.636058
1905.057633,-153.219100,-666.185348,9474.636058
1905.057951,153.219100,-1036.288319,9770.718434
1905.058268,-153.219100,-370.102971,9696.697840
1905.058586,0.000000,-148.041188,9844.739029
1905.058903,0.000000,-74.020594,9770.718434
1905.059221,0.000000,-0.000000,9696.697840
1905.059538,76.609550,296.082377,9474.636058
1905.059856,229.828649,-0.000000,9474.636058
1905.060173,536.266849,-0.000000,9326.594869
1905.060491,766.095498,-0.000000,9252.574275
1905.060808,842.705048,-0.000000,9400.615463
1905.061126,766.095498,-0.000000,9252.574275
1905.061443,1072.533697,-0.000000,9474.636058
1905.061760,1072.533697,-0.000000,9474.636058
1905.062078,1072.533697,-0.000000,9696.697840
1905.062395,1378.971896,-0.000000,9918.759623
1905.062713,919.314598,148.041188,9474.636058
1905.063030,919.314598,518.144159,9696.697840
1905.063348,1072.533697,888.247130,9178.553681
1905.063665,1072.533697,666.185348,8660.409521
1905.063983,842.705048,444.123565,8734.430116
1905.064300,842.705048,148.041188,9030.512492
1905.064618,612.876398,370.102971,9400.615463
1905.064935,919.314598,222.061783,9400.615463
1905.065253,689.485948,444.123565,9326.594869
1905.065570,459.657299,444.123565,9696.697840
1905.065888,536.266849,222.061783,9622.677246
1905.066205,536.266849,296.082377,9548.656652
1905.066522,766.095498,296.082377,9918.759623
1905.066840,1225.752797,666.185348,9548.656652
1905.067157,1149.143247,1110.308913,9622.677246
1905.067475,919.314598,962.267725,9252.574275
1905.067792,1072.533697,888.247130,9178.553681
1905.068110,1225.752797,814.226536,9030.512492
1905.068427,1302.362347,740.205942,9104.533087
1905.068745,1149.143247,296.082377,9548.656652
1905.069062,1072.533697,-0.000000,9622.677246
1905.069380,842.705048,-0.000000,9918.759623
1905.069697,536.266849,-370.102971,10066.800811
1905.070015,459.657299,-444.123565,10362.883188
1905.070332,766.095498,74.020594,10436.903782
1905.070650,1225.752797,-0.000000,10140.821405
1905.070967,1149.143247,370.102971,9992.780217
1905.071285,1378.971896,370.102971,9992.780217
1905.071602,1608.800546,592.164754,9474.636058
1905.071919,1685.410096,666.185348,9178.553681
1905.072237,1532.190996,518.144159,9178.553681
1905.072554,1378.971896,222.061783,9104.533087
1905.072872,1149.143247,-74.020594,9252.574275
1905.073189,689.485948,-370.102971,9178.553681
1905.073507,612.876398,-74.020594,9474.636058
1905.073824,306.438199,-296.082377,9622.677246
1905.074142,-306.438199,-666.185348,9548.656652
1905.074459,-536.266849,-666.185348,10214.842000
1905.074777,-536.266849,-740.205942,10140.821405
1905.075094,-612.876398,-740.205942,10066.800811
1905.075412,-612.876398,-370.102971,9918.759623
1905.075729,0.000000,-0.000000,9622.677246
1905.076047,612.876398,518.144159,9474.636058
1905.076364,536.266849,740.205942,8512.368333
1905.076682,919.314598,1110.308913,8142.265362
1905.076999,995.924147,592.164754,8290.306550
1905.077316,1149.143247,592.164754,8364.327145
1905.077634,995.924147,370.102971,8512.368333
1905.077951,919.314598,370.102971,8586.388927
1905.078269,766.095498,444.123565,8734.430116
1905.078586,689.485948,518.144159,8660.409521
1905.078904,689.485948,222.061783,9030.512492
1905.079221,459.657299,-0.000000,9252.574275
1905.079539,689.485948,-0.000000,9474.636058
1905.079856,995.924147,518.144159,9622.677246
1905.080174,1302.362347,296.082377,9622.677246
1905.080491,1149.143247,222.061783,9474.636058
1905.080809,1225.752797,296.082377,9474.636058
1905.081126,1455.581446,518.144159,8882.471304
1905.081444,1378.971896,444.123565,9030.512492
1905.081761,1532.190996,518.144159,9030.512492
1905.082078,1378.971896,518.144159,9030.512492
1905.082396,1302.362347,888.247130,9622.677246
1905.082713,1302.362347,370.102971,8882.471304
1905.083031,842.705048,-296.082377,9104.533087
1905.083348,459.657299,-296.082377,9326.594869
1905.083666,153.219100,-74.020594,9474.636058
1905.083983,-153.219100,-296.082377,9844.739029
1905.084301,-383.047749,-370.102971,9696.697840
1905.084618,-383.047749,-0.000000,9992.780217
1905.084936,-459.657299,-0.000000,9696.697840
1905.085253,-383.047749,-0.000000,9548.656652
1905.085571,153.219100,-0.000000,9474.636058
1905.085888,0.000000,-0.000000,9622.677246
1905.086206,0.000000,-0.000000,9622.677246
1905.086523,153.219100,370.102971,9548.656652
1905.086841,612.876398,740.205942,9400.615463
1905.087158,612.876398,1184.329507,9252.574275
1905.087475,612.876398,1258.350101,9474.636058
1905.087793,919.314598,1184.329507,9400.615463
1905.088110,1302.362347,1036.288319,9400.615463
1905.088428,1072.533697,666.185348,9622.677246
1905.088745,1378.971896,518.144159,9474.636058
1905.089063,1532.190996,296.082377,9696.697840
1905.089380,1149.143247,518.144159,9178.553681
1905.089698,1302.362347,222.061783,9474.636058
1905.090015,919.314598,-0.000000,9474.636058
1905.090333,1302.362347,296.082377,9992.780217
1905.090650,1225.752797,518.144159,9474.636058
1905.090968,1149.143247,296.082377,9844.739029
1905.091285,1608.800546,-0.000000,10214.842000
1905.091603,1225.752797,74.020594,10140.821405
1905.091920,1608.800546,-0.000000,9770.718434
1905.092238,995.924147,-0.000000,9548.656652
1905.092555,1302.362347,444.123565,9770.718434
1905.092872,1149.143247,222.061783,9844.739029
1905.093190,1149.143247,296.082377,9622.677246
1905.093507,1149.143247,296.082377,9400.615463
1905.093825,689.485948,222.061783,9326.594869
1905.094142,766.095498,148.041188,9326.594869
1905.094460,76.609550,-222.061783,9474.636058
1905.094777,0.000000,-370.102971,10066.800811
1905.095095,0.000000,-444.123565,9992.780217
1905.095412,-612.876398,-148.041188,9622.677246
1905.095730,-153.219100,-0.000000,9474.636058
1905.096047,0.000000,-370.102971,9844.739029
1905.096365,153.219100,-74.020594,9548.656652
1905.096682,459.657299,296.082377,9548.656652
1905.097000,842.705048,444.123565,9400.615463
1905.097317,995.924147,518.144159,8956.491898
1905.097634,1302.362347,592.164754,8364.327145
1905.097952,1532.190996,814.226536,8364.327145
1905.098269,1532.190996,1036.288319,8290.306550
1905.098587,1608.800546,592.164754,8216.285956
1905.098904,1608.800546,370.102971,8290.306550
1905.099222,1302.362347,-0.000000,8882.471304
1905.099539,1072.533697,-0.000000,9400.615463
1905.099857,689.485948,-296.082377,9252.574275
1905.100174,536.266849,-296.082377,9548.656652
1905.100492,229.828649,-0.000000,9622.677246
1905.100809,459.657299,-0.000000,9622.677246
1905.101127,612.876398,518.144159,9474.636058
1905.101444,459.657299,518.144159,9474.636058
1905.101762,1149.143247,370.102971,9548.656652
1905.102079,842.705048,222.061783,9326.594869
1905.102397,1072.533697,296.082377,9548.656652
1905.102714,919.314598,148.041188,9326.594869
1905.103031,919.314598,296.082377,9400.615463
1905.103349,1225.752797,148.041188,9104.533087
1905.103666,919.314598,296.082377,9474.636058
1905.103984,995.924147,296.082377,9252.574275
1905.104301,689.485948,222.061783,9400.615463
1905.104619,842.705048,-0.000000,9474.636058
1905.104936,689.485948,-592.164754,9548.656652
1905.105254,383.047749,-296.082377,10140.821405
1905.105571,842.705048,-222.061783,10066.800811
1905.105889,536.266849,-222.061783,9992.780217
1905.106206,766.095498,-0.000000,9770.718434
1905.106524,383.047749,-0.000000,9696.697840
1905.106841,612.876398,666.185348,9326.594869
1905.107159,689.485948,666.185348,9400.615463
1905.107476,919.314598,518.144159,9474.636058
1905.107793,919.314598,666.185348,9252.574275
1905.108111,1072.533697,888.247130,9622.677246
1905.108428,995.924147,666.185348,9178.553681
1905.108746,842.705048,444.123565,9474.636058
1905.109063,1072.533697,296.082377,9548.656652
1905.109381,1302.362347,296.082377,9622.677246
1905.109698,1455.581446,814.226536,9474.636058
1905.110016,1532.190996,814.226536,9104.533087
1905.110333,1685.410096,1036.288319,9030.512492
1905.110651,1225.752797,962.267725,8808.450710
1905.110968,1762.019645,518.144159,8586.388927
1905.111286,1378.971896,370.102971,8808.450710
1905.111603,1302.362347,444.123565,9474.636058
1905.111921,919.314598,148.041188,9474.636058
1905.112238,919.314598,-0.000000,9548.656652
1905.112556,919.314598,-0.000000,9474.636058
1905.112873,689.485948,370.102971,9326.594869
1905.113190,919.314598,148.041188,9252.574275
1905.113508,842.705048,518.144159,9474.636058
1905.113825,919.314598,518.144159,9252.574275
1905.114143,1149.143247,444.123565,9252.574275
1905.114460,919.314598,740.205942,9178.553681
1905.114778,766.095498,518.144159,8956.491898
1905.115095,0.000000,222.061783,8882.471304
1905.115413,-459.657299,-74.020594,8882.471304
1905.115730,-766.095498,-0.000000,9252.574275
1905.116048,-2145.067394,-0.000000,8512.368333
1905.116365,-1302.362347,-1332.370696,10436.903782
1905.116683,-2604.724693,-962.267725,10288.862594
1905.117000,-2834.553343,-1332.370696,11325.150913
1905.117318,-2911.162892,-1554.432478,10362.883188
1905.117635,-2221.676944,-444.123565,11399.171507
1905.117953,-2068.457845,-814.226536,11695.253884
1905.118270,-1608.800546,-814.226536,10881.027347
1905.118587,-995.924147,1406.391290,9844.739029
1905.118905,153.219100,1554.432478,9844.739029
1905.119222,2145.067394,888.247130,9844.739029
1905.119540,1685.410096,888.247130,8882.471304
1905.119857,2451.505594,592.164754,9252.574275
1905.120175,3064.381992,592.164754,8512.368333
1905.120492,3830.477490,370.102971,8660.409521
1905.120810,4060.306139,74.020594,9178.553681
1905.121127,3907.087040,592.164754,8660.409521
1905.121445,3524.039291,74.020594,8956.491898
1905.121762,4213.525239,-740.205942,9696.697840
1905.122080,4213.525239,-370.102971,9622.677246
1905.122397,3907.087040,740.205942,8734.430116
1905.122715,3753.867940,592.164754,9474.636058
1905.123032,4136.915689,-148.041188,9326.594869
1905.123349,3753.867940,-666.185348,9104.533087
1905.123667,3294.210641,518.144159,9104.533087
1905.123984,3140.991542,592.164754,8734.430116
1905.124302,2451.505594,518.144159,8216.285956
1905.124619,2374.896044,-296.082377,9104.533087
1905.124937,1149.143247,-444.123565,9622.677246
