#time,accel_x,accel_y,accel_z
1576.657881,2451.505594,-1406.391290,9104.533087
1576.658198,2604.724693,222.061783,8882.471304
1576.658515,2451.505594,1480.411884,8586.388927
1576.658833,2451.505594,2220.617826,8216.285956
1576.659150,2911.162892,2294.638420,7772.162391
1576.659467,2374.896044,1924.535449,7920.203579
1576.659785,2068.457845,2146.597232,8512.368333
1576.660102,1685.410096,1258.350101,8660.409521
1576.660419,766.095498,592.164754,9104.533087
1576.660736,153.219100,-74.020594,9844.739029
1576.661054,-383.047749,148.041188,9696.697840
1576.661371,-612.876398,222.061783,9770.718434
1576.661688,-1149.143247,666.185348,9548.656652
1576.662006,-1302.362347,962.267725,9400.615463
1576.662323,-1915.238745,444.123565,9474.636058
1576.662640,-2221.676944,-0.000000,9918.759623
1576.662958,-2604.724693,-592.164754,10732.986159
1576.663275,-2987.772442,-1184.329507,11325.150913
1576.663592,-2987.772442,-1332.370696,11917.315666
1576.663909,-3524.039291,-962.267725,12435.459826
1576.664227,-3600.648841,-296.082377,12805.562797
1576.664544,-3294.210641,222.061783,12213.398043
1576.664861,-2757.943793,1036.288319,11991.336260
1576.665179,-2298.286494,1332.370696,11103.089130
1576.665496,-1838.629195,1332.370696,10881.027347
1576.665813,-1608.800546,1480.411884,10140.821405
1576.666131,-842.705048,1628.453072,9696.697840
1576.666448,-612.876398,814.226536,9548.656652
1576.666765,-689.485948,-74.020594,10214.842000
1576.667082,-1072.533697,-296.082377,9918.759623
1576.667400,-1378.971896,-444.123565,9770.718434
1576.667717,-1532.190996,-666.185348,9770.718434
1576.668034,-1762.019645,-1480.411884,9474.636058
1576.668352,-2451.505594,-1850.514855,9400.615463
1576.668669,-2374.896044,-1776.494261,9030.512492
1576.668986,-2834.553343,-1998.556043,9400.615463
1576.669304,-2604.724693,-2072.576638,9474.636058
1576.669621,-3064.381992,-2146.597232,9622.677246
1576.669938,-2681.334243,-2294.638420,9992.780217
1576.670255,-2834.553343,-2220.617826,9918.759623
1576.670573,-2451.505594,-1776.494261,10288.862594
1576.670890,-1685.410096,-1628.453072,9474.636058
1576.671207,-1225.752797,-1332.370696,8660.409521
1576.671525,0.000000,-1036.288319,8808.450710
1576.671842,383.047749,-1850.514855,8142.265362
1576.672159,995.924147,-2886.803174,7920.203579
1576.672476,459.657299,-3997.112087,7846.182985
1576.672794,459.657299,-4367.215058,8364.327145
1576.673111,0.000000,-5477.523971,9178.553681
1576.673428,-229.828649,-5847.626942,10140.821405
1576.673746,-766.095498,-6069.688724,10584.944971
1576.674063,-842.705048,-5847.626942,10288.862594
1576.674380,-919.314598,-4737.318029,10214.842000
1576.674698,-1455.581446,-4219.173869,9844.739029
1576.675015,-1532.190996,-3997.112087,9400.615463
1576.675332,-1991.848295,-4219.173869,9252.574275
1576.675649,-1455.581446,-4589.276840,10362.883188
1576.675967,-1608.800546,-4737.318029,10732.986159
1576.676284,-612.876398,-4885.359217,11251.130318
1576.676601,153.219100,-4663.297435,12139.377449
1576.676919,1072.533697,-4293.194464,12213.398043
1576.677236,1302.362347,-3182.885551,11177.109724
1576.677553,2145.067394,-2294.638420,10214.842000
1576.677871,1608.800546,-592.164754,7402.059420
1576.678188,1685.410096,-0.000000,5773.606348
1576.678505,1225.752797,444.123565,4219.173869
1576.678822,76.609550,-1850.514855,5773.606348
1576.679140,-1378.971896,-4367.215058,7550.100608
1576.679457,-3217.601092,-6661.853478,9326.594869
1576.679774,-5745.716235,-7624.121203,10140.821405
1576.680092,-7354.516781,-7846.182985,11621.233289
1576.680409,-8886.707777,-6365.771101,11029.068536
1576.680726,-9422.974625,-5329.482782,10510.924376
1576.681044,-9269.755526,-4145.153275,9844.739029
1576.681361,-9346.365076,-3108.864956,9548.656652
1576.681678,-8810.098227,-3404.947333,9918.759623
1576.681995,-8886.707777,-3478.967927,9844.739029
1576.682313,-8810.098227,-4515.256246,10362.883188
1576.682630,-8733.488677,-5329.482782,11251.130318
1576.682947,-8273.831378,-4737.318029,11843.295072
1576.683265,-7048.078582,-3775.050304,10362.883188
1576.683582,-4903.011187,-2886.803174,9474.636058
1576.683899,-2987.772442,-2368.659014,9548.656652
1576.684217,-1532.190996,-1258.350101,8586.388927
1576.684534,-306.438199,-1036.288319,6883.915261
1576.684851,0.000000,-1258.350101,6809.894666
1576.685168,-536.266849,-2590.720797,7772.162391
1576.685486,-459.657299,-2812.782580,7772.162391
1576.685803,-536.266849,-3775.050304,8808.450710
1576.686120,-919.314598,-4589.276840,10362.883188
1576.686438,76.609550,-4663.297435,11325.150913
1576.686755,919.314598,-3627.009116,11177.109724
1576.687072,2451.505594,-2368.659014,10807.006753
1576.687389,3294.210641,-1258.350101,10510.924376
1576.687707,3983.696590,-222.061783,9696.697840
1576.688024,3524.039291,888.247130,8216.285956
1576.688341,3217.601092,1702.473667,7031.956449
1576.688659,2681.334243,1480.411884,7179.997637
1576.688976,2145.067394,-148.041188,8364.327145
1576.689292,1838.629195,-1258.350101,9548.656652
1576.689609,1608.800546,-2220.617826,11695.253884
1576.689927,1685.410096,-3108.864956,13767.830521
1576.690244,1991.848295,-2960.823768,14359.995275
1576.690562,3064.381992,-370.102971,13101.645173
1576.690879,3907.087040,2294.638420,9030.512492
1576.691197,4673.182538,5255.462188,5255.462188
1576.691514,4826.401637,6069.688724,2960.823768
1576.691832,3983.696590,5329.482782,2294.638420
1576.692149,2451.505594,2590.720797,3404.947333
1576.692467,306.438199,-2146.597232,7550.100608
1576.692784,-1991.848295,-5107.421000,10732.986159
1576.693102,-3907.087040,-6735.874072,13619.789333
1576.693419,-4519.963438,-6069.688724,14878.139434
1576.693736,-4213.525239,-3182.885551,13249.686362
1576.694054,-3064.381992,-296.082377,11917.315666
1576.694371,-2451.505594,3404.947333,9474.636058
1576.694689,-1685.410096,5921.647536,7328.038826
1576.695006,-1685.410096,5255.462188,7402.059420
1576.695324,-2145.067394,3330.926739,8512.368333
1576.695641,-2374.896044,1332.370696,9474.636058
1576.695959,-3524.039291,-148.041188,10436.903782
1576.696276,-2757.943793,-2220.617826,12583.501014
1576.696594,-1685.410096,-1924.535449,12583.501014
1576.696911,0.000000,-1184.329507,11991.336260
1576.697229,1532.190996,296.082377,10436.903782
1576.697546,2528.115143,1480.411884,8364.327145
1576.697864,3600.648841,2220.617826,6809.894666
1576.698181,2681.334243,1332.370696,5403.503377
1576.698498,1685.410096,444.123565,6365.771101
1576.698816,-153.219100,-370.102971,8808.450710
1576.699133,-1378.971896,-2368.659014,11621.233289
1576.699451,-2528.115143,-3552.988522,13101.645173
1576.699768,-2604.724693,-2368.659014,14063.912898
1576.700086,-1685.410096,-1332.370696,13989.892304
1576.700403,0.000000,74.020594,12657.521608
1576.700721,2145.067394,1332.370696,10658.965565
1576.701038,3294.210641,2442.679609,7920.203579
1576.701356,4366.744339,2220.617826,7105.977043
1576.701673,4443.353888,740.205942,8734.430116
1576.701991,4213.525239,-370.102971,9400.615463
1576.702308,3140.991542,-592.164754,9474.636058
1576.702626,1149.143247,-740.205942,9992.780217
1576.702943,995.924147,-296.082377,10436.903782
1576.703261,842.705048,370.102971,10066.800811
1576.703578,612.876398,444.123565,9400.615463
1576.703895,459.657299,1332.370696,7550.100608
1576.704213,536.266849,296.082377,7846.182985
1576.704530,612.876398,-1110.308913,8364.327145
1576.704848,689.485948,-1924.535449,8586.388927
1576.705165,0.000000,-3108.864956,9474.636058
1576.705483,-1762.019645,-3701.029710,10807.006753
1576.705800,-2298.286494,-3923.091493,12361.439231
1576.706118,-3064.381992,-3256.906145,12583.501014
1576.706435,-2528.115143,-2294.638420,12435.459826
1576.706753,-1608.800546,-740.205942,10881.027347
1576.707070,-1225.752797,962.267725,8660.409521
1576.707388,1149.143247,1110.308913,7402.059420
1576.707705,3064.381992,592.164754,8142.265362
1576.708023,2451.505594,-1110.308913,7105.977043
1576.708340,1838.629195,-1480.411884,7550.100608
1576.708657,919.314598,-2072.576638,7920.203579
1576.708975,306.438199,-2294.638420,8512.368333
1576.709292,-229.828649,-2516.700203,9474.636058
1576.709610,-1378.971896,-1850.514855,8882.471304
1576.709927,-766.095498,-592.164754,8734.430116
1576.710245,-995.924147,-740.205942,8364.327145
1576.710562,919.314598,-1480.411884,9844.739029
1576.710880,919.314598,-1406.391290,9252.574275
1576.711197,1072.533697,-518.144159,7846.182985
1576.711515,1838.629195,-222.061783,8216.285956
1576.711832,1915.238745,814.226536,8882.471304
1576.712150,2681.334243,1924.535449,8438.347739
1576.712467,2451.505594,2886.803174,7698.141797
1576.712785,1762.019645,3256.906145,7550.100608
1576.713102,1838.629195,1998.556043,8438.347739
1576.713419,1838.629195,-0.000000,8956.491898
1576.713737,1455.581446,-444.123565,8586.388927
1576.714054,2145.067394,-518.144159,8512.368333
1576.714372,2145.067394,-222.061783,7550.100608
1576.714689,2681.334243,-1036.288319,7772.162391
1576.715007,2374.896044,-370.102971,7698.141797
1576.715324,2221.676944,962.267725,7105.977043
1576.715642,995.924147,1702.473667,6513.812290
1576.715959,229.828649,1184.329507,7772.162391
1576.716277,-612.876398,592.164754,8882.471304
1576.716594,-1302.362347,-222.061783,10362.883188
1576.716912,-1838.629195,-814.226536,11399.171507
1576.717229,-1838.629195,-222.061783,11103.089130
1576.717547,-536.266849,148.041188,11029.068536
1576.717864,153.219100,518.144159,11103.089130
1576.718181,766.095498,2146.597232,10584.944971
1576.718499,1149.143247,2590.720797,8956.491898
1576.718816,919.314598,2960.823768,8438.347739
1576.719134,1532.190996,2220.617826,9326.594869
1576.719451,306.438199,2072.576638,10214.842000
1576.719769,459.657299,1554.432478,10066.800811
1576.720086,0.000000,888.247130,9844.739029
1576.720404,-383.047749,1702.473667,10658.965565
1576.720721,229.828649,1036.288319,10584.944971
1576.721039,76.609550,1184.329507,10066.800811
1576.721356,536.266849,1480.411884,9844.739029
1576.721674,153.219100,1184.329507,9400.615463
1576.721991,153.219100,518.144159,10214.842000
1576.722309,306.438199,148.041188,11399.171507
1576.722626,0.000000,-666.185348,12065.356855
1576.722943,0.000000,-0.000000,12805.562797
1576.723261,-612.876398,814.226536,12657.521608
1576.723578,0.000000,1998.556043,12139.377449
1576.723896,1685.410096,2146.597232,12065.356855
1576.724213,2068.457845,3330.926739,10288.862594
1576.724531,2604.724693,3404.947333,8586.388927
1576.724848,3294.210641,2442.679609,8290.306550
1576.725166,4136.915689,962.267725,8956.491898
1576.725483,4596.572988,-370.102971,9474.636058
1576.725801,3830.477490,-296.082377,9326.594869
1576.726118,2221.676944,-1036.288319,9696.697840
1576.726436,1455.581446,-444.123565,10362.883188
1576.726753,1225.752797,-0.000000,10658.965565
1576.727071,689.485948,370.102971,10436.903782
1576.727388,0.000000,1258.350101,9474.636058
1576.727706,-153.219100,1258.350101,9252.574275
1576.728023,306.438199,148.041188,9696.697840
1576.728340,459.657299,-1258.350101,10658.965565
1576.728658,766.095498,-888.247130,10732.986159
1576.728975,842.705048,-296.082377,10066.800811
1576.729293,1149.143247,518.144159,9622.677246
1576.729610,2068.457845,1258.350101,9770.718434
1576.729928,2757.943793,2072.576638,8882.471304
1576.730245,2757.943793,2886.803174,6957.935855
1576.730563,3064.381992,3182.885551,6069.688724
1576.730880,3294.210641,2516.700203,6143.709319
1576.731198,4136.915689,1776.494261,6513.812290
1576.731515,3677.258390,1110.308913,6661.853478
1576.731833,2604.724693,444.123565,6883.915261
1576.732150,2145.067394,740.205942,7254.018232
1576.732468,1455.581446,740.205942,7846.182985
1576.732785,995.924147,888.247130,8438.347739
1576.733102,-306.438199,1406.391290,8586.388927
1576.733420,-842.705048,1850.514855,8438.347739
1576.733737,-1302.362347,1702.473667,8068.244768
1576.734055,-766.095498,592.164754,9178.553681
1576.734372,-459.657299,-0.000000,9918.759623
1576.734690,-229.828649,-0.000000,9844.739029
1576.735007,0.000000,518.144159,8956.491898
1576.735325,229.828649,888.247130,9252.574275
1576.735642,1532.190996,1628.453072,9178.553681
1576.735960,1915.238745,2442.679609,7920.203579
1576.736277,1991.848295,2738.761985,7402.059420
1576.736595,1455.581446,1998.556043,7698.141797
1576.736912,1455.581446,888.247130,8734.430116
1576.737230,1608.800546,-74.020594,9400.615463
1576.737547,766.095498,-148.041188,9844.739029
1576.737864,229.828649,-0.000000,9622.677246
1576.738182,-153.219100,222.061783,9548.656652
1576.738499,-229.828649,444.123565,10066.800811
1576.738817,-536.266849,518.144159,10658.965565
1576.739134,-612.876398,1036.288319,9622.677246
1576.739452,-1378.971896,1036.288319,10066.800811
1576.739769,-1455.581446,370.102971,11473.192101
1576.740087,-1762.019645,-296.082377,11917.315666
1576.740404,-2145.067394,-370.102971,12213.398043
1576.740722,-1762.019645,-0.000000,12213.398043
1576.741039,-1532.190996,888.247130,11991.336260
1576.741357,-306.438199,1110.308913,11695.253884
1576.741674,612.876398,1850.514855,10732.986159
1576.741992,1455.581446,2220.617826,9548.656652
1576.742309,1915.238745,2664.741391,8290.306550
1576.742626,2681.334243,1628.453072,8364.327145
1576.742944,2911.162892,814.226536,8956.491898
1576.743261,2987.772442,-222.061783,9252.574275
1576.743579,2987.772442,-0.000000,9104.533087
1576.743896,2757.943793,-0.000000,8956.491898
1576.744214,2834.553343,592.164754,9030.512492
1576.744531,2451.505594,666.185348,8660.409521
1576.744849,2221.676944,1036.288319,8142.265362
1576.745166,1532.190996,888.247130,8068.244768
1576.745484,1149.143247,444.123565,9104.533087
1576.745801,1225.752797,-0.000000,10288.862594
1576.746119,612.876398,-370.102971,10881.027347
1576.746436,536.266849,-222.061783,11399.171507
1576.746754,612.876398,148.041188,11251.130318
1576.747071,1149.143247,814.226536,11029.068536
1576.747388,1915.238745,1332.370696,10732.986159
1576.747706,2451.505594,2220.617826,9474.636058
1576.748023,2757.943793,2294.638420,7624.121203
1576.748341,2911.162892,2442.679609,7105.977043
1576.748658,3370.820191,1110.308913,7328.038826
1576.748976,3524.039291,-222.061783,7402.059420
1576.749293,3447.429741,-666.185348,7476.080014
1576.749611,2221.676944,-1406.391290,7920.203579
1576.749928,1302.362347,-1628.453072,8512.368333
1576.750246,919.314598,-2220.617826,9696.697840
1576.750563,0.000000,-1924.535449,9474.636058
1576.750881,-1072.533697,-1036.288319,9178.553681
1576.751198,-1378.971896,-1110.308913,9030.512492
1576.751516,-1608.800546,-1110.308913,9400.615463
1576.751833,-1302.362347,-1776.494261,10362.883188
1576.752151,-1378.971896,-1850.514855,10510.924376
1576.752468,-1378.971896,-1110.308913,10214.842000
1576.752785,-919.314598,-296.082377,9918.759623
1576.753103,-153.219100,962.267725,9178.553681
1576.753420,536.266849,1554.432478,8882.471304
1576.753738,1149.143247,2368.659014,7624.121203
1576.754055,1225.752797,2368.659014,6365.771101
1576.754373,1302.362347,1480.411884,7105.977043
1576.754690,1685.410096,518.144159,7550.100608
1576.755008,1532.190996,-222.061783,8068.244768
1576.755325,919.314598,-444.123565,8068.244768
1576.755643,612.876398,-740.205942,8586.388927
1576.755960,229.828649,-148.041188,9030.512492
1576.756278,306.438199,222.061783,9474.636058
1576.756595,153.219100,962.267725,9400.615463
1576.756913,76.609550,1554.432478,8956.491898
1576.757230,306.438199,1184.329507,9474.636058
1576.757547,229.828649,592.164754,10288.862594
1576.757865,842.705048,74.020594,11251.130318
1576.758182,1149.143247,148.041188,10881.027347
1576.758500,1685.410096,1110.308913,10584.944971
1576.758817,2681.334243,1628.453072,10584.944971
1576.759135,2757.943793,1628.453072,10584.944971
1576.759452,2681.334243,2146.597232,9770.718434
1576.759770,2757.943793,2590.720797,8882.471304
1576.760087,2298.286494,1924.535449,8586.388927
1576.760405,1762.019645,148.041188,9326.594869
1576.760722,1302.362347,-592.164754,10288.862594
1576.761040,766.095498,-1332.370696,10584.944971
1576.761357,-689.485948,-1628.453072,11029.068536
1576.761675,-995.924147,-1332.370696,11251.130318
1576.761992,-1149.143247,-1184.329507,11621.233289
1576.762309,-1302.362347,-592.164754,11473.192101
1576.762627,-1532.190996,-0.000000,11103.089130
1576.762944,-1378.971896,296.082377,10288.862594
1576.763262,-536.266849,148.041188,10807.006753
1576.763579,-76.609550,-888.247130,11547.212695
1576.763897,-459.657299,-888.247130,11769.274478
1576.764214,76.609550,-370.102971,11399.171507
1576.764532,0.000000,370.102971,10732.986159
1576.764849,612.876398,-0.000000,11103.089130
1576.765167,1225.752797,740.205942,10140.821405
1576.765484,1608.800546,1184.329507,8882.471304
1576.765802,1455.581446,1184.329507,7550.100608
1576.766119,1378.971896,740.205942,7698.141797
1576.766437,1532.190996,-1036.288319,8660.409521
1576.766754,1149.143247,-1628.453072,8660.409521
1576.767071,383.047749,-1628.453072,8586.388927
1576.767389,-229.828649,-1850.514855,8882.471304
1576.767706,-306.438199,-1480.411884,9326.594869
1576.768024,0.000000,-1332.370696,9326.594869
1576.768341,0.000000,-1036.288319,9474.636058
1576.768659,-383.047749,-222.061783,8660.409521
1576.768976,0.000000,-0.000000,8216.285956
1576.769294,76.609550,-666.185348,9178.553681
1576.769611,229.828649,-1776.494261,9844.739029
1576.769929,766.095498,-1924.535449,9992.780217
1576.770246,383.047749,-1258.350101,9474.636058
1576.770564,766.095498,-74.020594,9400.615463
1576.770881,995.924147,-222.061783,9696.697840
1576.771199,1838.629195,74.020594,8956.491898
1576.771516,1915.238745,518.144159,7550.100608
1576.771833,2068.457845,-0.000000,6957.935855
1576.772151,2145.067394,-962.267725,7179.997637
1576.772468,2374.896044,-1998.556043,7550.100608
1576.772786,2068.457845,-2146.597232,7328.038826
1576.773103,1225.752797,-2294.638420,7624.121203
1576.773421,842.705048,-1850.514855,7698.141797
1576.773738,1225.752797,-2072.576638,7772.162391
1576.774056,306.438199,-962.267725,8216.285956
1576.774373,-383.047749,-370.102971,8068.244768
1576.774691,-766.095498,-148.041188,7846.182985
1576.775008,-1072.533697,-518.144159,8364.327145
1576.775326,-1072.533697,-1110.308913,9622.677246
1576.775643,-1225.752797,-1258.350101,10362.883188
1576.775961,-1149.143247,-962.267725,9622.677246
1576.776278,-1225.752797,-444.123565,9918.759623
1576.776596,-995.924147,-518.144159,10288.862594
1576.776913,-383.047749,-148.041188,10362.883188
1576.777230,-153.219100,74.020594,9548.656652
1576.777548,-153.219100,592.164754,8512.368333
1576.777865,0.000000,518.144159,8438.347739
1576.778183,919.314598,296.082377,8956.491898
1576.778500,1072.533697,-592.164754,9400.615463
1576.778818,612.876398,-814.226536,9326.594869
1576.779135,842.705048,-666.185348,9622.677246
1576.779453,536.266849,-592.164754,9548.656652
1576.779770,1225.752797,-444.123565,9918.759623
1576.780088,919.314598,148.041188,9622.677246
1576.780405,1072.533697,962.267725,9252.574275
1576.780723,229.828649,962.267725,9178.553681
1576.781040,229.828649,-0.000000,10362.883188
1576.781358,229.828649,-518.144159,11621.233289
1576.781675,229.828649,-518.144159,11769.274478
1576.781992,229.828649,-148.041188,11621.233289
1576.782310,383.047749,296.082377,11991.336260
1576.782627,919.314598,370.102971,12213.398043
1576.782945,1378.971896,518.144159,11843.295072
1576.783262,2068.457845,1184.329507,10362.883188
1576.783580,1915.238745,1628.453072,9548.656652
1576.783897,2298.286494,1184.329507,9622.677246
1576.784215,2834.553343,370.102971,10214.842000
1576.784532,2681.334243,-74.020594,10362.883188
1576.784850,2221.676944,-296.082377,9770.718434
1576.785167,1915.238745,-0.000000,9844.739029
1576.785485,2145.067394,296.082377,10066.800811
1576.785802,2298.286494,444.123565,9844.739029
1576.786120,2374.896044,1110.308913,9326.594869
1576.786437,1532.190996,1258.350101,8734.430116
1576.786754,1378.971896,888.247130,8586.388927
1576.787072,1455.581446,-0.000000,9400.615463
1576.787389,1608.800546,-814.226536,10362.883188
1576.787707,0.000000,-592.164754,10510.924376
1576.788024,-612.876398,-222.061783,10214.842000
1576.788342,-459.657299,296.082377,10362.883188
1576.788659,0.000000,814.226536,10066.800811
1576.788977,919.314598,1480.411884,9474.636058
1576.789294,536.266849,2220.617826,7994.224174
1576.789612,0.000000,1702.473667,7476.080014
1576.789929,689.485948,666.185348,7698.141797
1576.790247,766.095498,-0.000000,8512.368333
1576.790564,459.657299,-370.102971,8882.471304
1576.790881,-153.219100,-148.041188,8216.285956
1576.791199,-612.876398,-296.082377,8290.306550
1576.791516,-459.657299,-0.000000,8808.450710
1576.791833,-612.876398,296.082377,8660.409521
1576.792151,-995.924147,666.185348,7920.203579
1576.792468,-1378.971896,370.102971,7624.121203
1576.792785,-1225.752797,-148.041188,8586.388927
1576.793102,-842.705048,-1110.308913,8882.471304
1576.793420,-766.095498,-1924.535449,9918.759623
1576.793737,-1225.752797,-1702.473667,9770.718434
1576.794054,-995.924147,-1258.350101,10066.800811
1576.794372,-459.657299,-222.061783,10066.800811
1576.794689,76.609550,-0.000000,9918.759623
1576.795006,383.047749,666.185348,8734.430116
1576.795323,689.485948,1036.288319,7476.080014
1576.795641,1072.533697,962.267725,7772.162391
1576.795958,1838.629195,-0.000000,8586.388927
1576.796275,1991.848295,-666.185348,8660.409521
1576.796593,1762.019645,-740.205942,8290.306550
1576.796910,1225.752797,-814.226536,8882.471304
1576.797227,1378.971896,-518.144159,9474.636058
1576.797544,1225.752797,-370.102971,9474.636058
1576.797862,612.876398,-0.000000,8956.491898
1576.798179,306.438199,1036.288319,8734.430116
1576.798496,0.000000,370.102971,9104.533087
1576.798814,536.266849,-296.082377,10066.800811
1576.799131,306.438199,-1110.308913,11177.109724
1576.799448,612.876398,-1406.391290,11843.295072
1576.799766,153.219100,-518.144159,11103.089130
1576.800083,995.924147,-0.000000,11029.068536
1576.800400,1838.629195,814.226536,11103.089130
1576.800717,2528.115143,1850.514855,10140.821405
1576.801035,2834.553343,2220.617826,8512.368333
1576.801352,2757.943793,2294.638420,7772.162391
1576.801669,3294.210641,1406.391290,8512.368333
1576.801987,3524.039291,888.247130,8882.471304
1576.802304,2528.115143,370.102971,9474.636058
1576.802621,1915.238745,-0.000000,9178.553681
1576.802938,1302.362347,296.082377,9474.636058
1576.803256,1072.533697,-0.000000,10288.862594
1576.803573,919.314598,740.205942,10288.862594
1576.803890,306.438199,1628.453072,9474.636058
1576.804208,-229.828649,1702.473667,9474.636058
1576.804525,-459.657299,888.247130,9992.780217
1576.804842,-842.705048,222.061783,11399.171507
1576.805159,-995.924147,-444.123565,11769.274478
1576.805477,-1378.971896,-0.000000,11621.233289
1576.805794,-1302.362347,518.144159,11177.109724
1576.806111,0.000000,888.247130,11103.089130
1576.806429,306.438199,1480.411884,10584.944971
1576.806746,1455.581446,2220.617826,9548.656652
1576.807063,1762.019645,2738.761985,7772.162391
1576.807381,2298.286494,2368.659014,7698.141797
1576.807698,3140.991542,1406.391290,7698.141797
1576.808015,2757.943793,518.144159,7994.224174
1576.808332,2298.286494,-148.041188,8586.388927
1576.808650,919.314598,-296.082377,8882.471304
1576.808967,306.438199,-518.144159,9548.656652
1576.809284,306.438199,-518.144159,9770.718434
1576.809602,76.609550,370.102971,9696.697840
1576.809919,-306.438199,666.185348,9252.574275
1576.810236,-459.657299,1036.288319,8734.430116
1576.810553,-306.438199,518.144159,9400.615463
1576.810871,229.828649,-222.061783,10584.944971
1576.811188,306.438199,148.041188,10510.924376
1576.811505,383.047749,370.102971,10066.800811
1576.811823,689.485948,1184.329507,9918.759623
1576.812140,842.705048,1480.411884,9844.739029
1576.812457,1532.190996,2146.597232,9548.656652
1576.812774,1838.629195,2664.741391,7920.203579
1576.813092,2374.896044,2664.741391,7476.080014
1576.813409,2374.896044,1480.411884,7920.203579
1576.813726,2528.115143,-0.000000,8364.327145
1576.814044,2298.286494,-1036.288319,8734.430116
1576.814361,1685.410096,-1554.432478,9030.512492
1576.814678,1378.971896,-1332.370696,9104.533087
1576.814995,1378.971896,-444.123565,9474.636058
1576.815313,1072.533697,-0.000000,9326.594869
1576.815630,689.485948,962.267725,8956.491898
1576.815947,612.876398,1258.350101,8586.388927
1576.816265,766.095498,1332.370696,8290.306550
1576.816582,1149.143247,888.247130,8808.450710
1576.816899,1302.362347,592.164754,9326.594869
1576.817217,1225.752797,888.247130,9252.574275
1576.817534,995.924147,1628.453072,9104.533087
1576.817851,1149.143247,1776.494261,9474.636058
1576.818168,1608.800546,1776.494261,9918.759623
1576.818486,1608.800546,2146.597232,8882.471304
1576.818803,1225.752797,2442.679609,8438.347739
1576.819120,1378.971896,1480.411884,8438.347739
1576.819438,1225.752797,740.205942,9178.553681
1576.819755,1302.362347,-0.000000,9474.636058
1576.820072,1072.533697,-74.020594,8882.471304
1576.820389,383.047749,-592.164754,9178.553681
1576.820707,459.657299,-444.123565,9326.594869
1576.821024,612.876398,-444.123565,9474.636058
1576.821341,766.095498,296.082377,9326.594869
1576.821659,153.219100,1110.308913,8882.471304
1576.821976,536.266849,1110.308913,8586.388927
1576.822293,76.609550,666.185348,9548.656652
1576.822610,383.047749,148.041188,10436.903782
1576.822928,153.219100,-74.020594,10658.965565
1576.823245,0.000000,-148.041188,10807.006753
1576.823562,76.609550,-0.000000,11399.171507
1576.823880,0.000000,666.185348,11473.192101
1576.824197,459.657299,1184.329507,10955.047942
1576.824514,306.438199,2220.617826,9918.759623
1576.824832,306.438199,1924.535449,9474.636058
1576.825149,229.828649,814.226536,9548.656652
1576.825466,689.485948,-0.000000,9992.780217
1576.825783,306.438199,-592.164754,10214.842000
1576.826101,229.828649,-740.205942,10362.883188
1576.826418,306.438199,-518.144159,10510.924376
1576.826735,919.314598,-370.102971,10140.821405
1576.827053,842.705048,222.061783,9992.780217
1576.827370,612.876398,1036.288319,8808.450710
1576.827687,1225.752797,1406.391290,8290.306550
1576.828004,1149.143247,1258.350101,8438.347739
1576.828322,1378.971896,-0.000000,9252.574275
1576.828639,689.485948,-740.205942,9992.780217
1576.828956,919.314598,-1110.308913,10510.924376
1576.829274,612.876398,-444.123565,9696.697840
1576.829591,995.924147,222.061783,9474.636058
1576.829908,1838.629195,518.144159,10140.821405
1576.830225,1762.019645,1554.432478,8882.471304
1576.830543,2221.676944,1776.494261,8290.306550
1576.830860,2298.286494,1258.350101,7698.141797
1576.831177,2604.724693,444.123565,8438.347739
1576.831495,2528.115143,-148.041188,8660.409521
1576.831812,2298.286494,-0.000000,8216.285956
1576.832129,1838.629195,-0.000000,8068.244768
1576.832447,1762.019645,-296.082377,8956.491898
1576.832764,1378.971896,148.041188,8956.491898
1576.833081,1608.800546,-0.000000,8956.491898
1576.833398,1149.143247,518.144159,8216.285956
1576.833716,612.876398,370.102971,8142.265362
1576.834033,919.314598,-518.144159,8586.388927
1576.834350,689.485948,-888.247130,9252.574275
1576.834668,689.485948,-1776.494261,9696.697840
1576.834985,0.000000,-1258.350101,9844.739029
1576.835302,229.828649,-888.247130,10362.883188
1576.835619,306.438199,-370.102971,10362.883188
1576.835937,919.314598,148.041188,9770.718434
1576.836254,995.924147,962.267725,9030.512492
1576.836571,919.314598,1110.308913,8068.244768
1576.836889,919.314598,814.226536,8364.327145
1576.837206,1302.362347,-74.020594,8734.430116
1576.837523,1378.971896,-296.082377,8956.491898
1576.837840,766.095498,-370.102971,9104.533087
1576.838158,612.876398,-148.041188,9252.574275
1576.838475,766.095498,148.041188,9400.615463
1576.838792,76.609550,-0.000000,9548.656652
1576.839110,-306.438199,592.164754,9622.677246
1576.839427,-1072.533697,962.267725,9178.553681
1576.839744,-1072.533697,666.185348,9400.615463
1576.840061,-842.705048,-148.041188,10140.821405
1576.840379,-1378.971896,-1258.350101,11325.150913
1576.840696,-1991.848295,-1036.288319,10807.006753
1576.841013,-1608.800546,-666.185348,10807.006753
1576.841331,-919.314598,-0.000000,10881.027347
1576.841648,-689.485948,222.061783,11547.212695
1576.841965,306.438199,888.247130,10584.944971
1576.842283,612.876398,1850.514855,9252.574275
1576.842600,1225.752797,1628.453072,8586.388927
1576.842917,1838.629195,888.247130,8956.491898
1576.843234,1838.629195,-814.226536,9474.636058
1576.843552,2374.896044,-518.144159,9252.574275
1576.843869,2068.457845,-370.102971,8956.491898
1576.844186,2221.676944,-296.082377,9400.615463
1576.844504,2145.067394,-74.020594,9548.656652
1576.844821,2145.067394,370.102971,9104.533087
1576.845138,1762.019645,962.267725,8808.450710
1576.845455,1378.971896,888.247130,8882.471304
1576.845773,1149.143247,444.123565,9696.697840
1576.846090,1072.533697,-518.144159,10584.944971
1576.846407,1378.971896,-1258.350101,11103.089130
1576.846725,612.876398,-888.247130,11177.109724
1576.847042,229.828649,-666.185348,11547.212695
1576.847359,919.314598,148.041188,11029.068536
1576.847676,2068.457845,814.226536,11177.109724
1576.847994,1991.848295,1332.370696,9770.718434
1576.848311,2221.676944,2072.576638,8660.409521
1576.848628,2528.115143,1406.391290,7994.224174
1576.848946,2987.772442,592.164754,8290.306550
1576.849263,2987.772442,-0.000000,8586.388927
1576.849580,2528.115143,-0.000000,7846.182985
1576.849898,1915.238745,370.102971,7698.141797
1576.850215,1685.410096,-0.000000,8068.244768
1576.850532,1149.143247,-370.102971,8512.368333
1576.850849,0.000000,-518.144159,8512.368333
1576.851167,-689.485948,-0.000000,8142.265362
1576.851484,-1302.362347,-370.102971,8438.347739
1576.851801,-1762.019645,-1036.288319,9400.615463
1576.852119,-1915.238745,-1850.514855,10140.821405
1576.852436,-1608.800546,-1702.473667,10584.944971
1576.852753,-2298.286494,-740.205942,10214.842000
1576.853070,-2528.115143,-370.102971,9622.677246
1576.853388,-1608.800546,296.082377,10066.800811
1576.853705,-1149.143247,814.226536,9696.697840
1576.854022,-919.314598,1184.329507,8586.388927
1576.854340,-536.266849,1110.308913,8068.244768
1576.854657,-306.438199,592.164754,7920.203579
1576.854974,306.438199,-888.247130,8808.450710
1576.855291,306.438199,-1184.329507,8734.430116
1576.855609,0.000000,-1554.432478,8956.491898
1576.855926,-536.266849,-1258.350101,8660.409521
1576.856243,-459.657299,-1258.350101,9696.697840
1576.856561,-76.609550,-888.247130,9400.615463
1576.856878,-842.705048,-814.226536,9474.636058
1576.857195,-919.314598,-592.164754,8956.491898
1576.857512,-1225.752797,-1332.370696,9474.636058
1576.857830,-612.876398,-1924.535449,10362.883188
1576.858147,-459.657299,-2368.659014,11029.068536
1576.858464,-536.266849,-1554.432478,11103.089130
1576.858782,0.000000,-74.020594,10436.903782
1576.859099,536.266849,-74.020594,10658.965565
1576.859416,1915.238745,222.061783,10362.883188
1576.859734,2528.115143,666.185348,9844.739029
1576.860051,3064.381992,1702.473667,8512.368333
1576.860368,2987.772442,1184.329507,8142.265362
1576.860685,3294.210641,518.144159,8586.388927
1576.861003,3524.039291,-222.061783,8956.491898
1576.861320,3064.381992,-296.082377,9252.574275
1576.861637,2298.286494,-518.144159,9178.553681
1576.861955,2145.067394,-592.164754,8956.491898
1576.862272,1685.410096,-740.205942,9326.594869
1576.862589,1608.800546,-74.020594,9474.636058
1576.862906,1149.143247,296.082377,8734.430116
1576.863224,919.314598,296.082377,8586.388927
1576.863541,1072.533697,-148.041188,8956.491898
1576.863858,919.314598,-666.185348,9992.780217
1576.864176,766.095498,-296.082377,10066.800811
1576.864493,1072.533697,222.061783,9770.718434
1576.864810,919.314598,814.226536,9918.759623
1576.865127,1378.971896,1480.411884,10288.862594
1576.865445,1302.362347,2072.576638,9548.656652
1576.865762,2221.676944,1998.556043,8734.430116
1576.866079,1915.238745,2294.638420,7846.182985
1576.866397,1378.971896,1702.473667,8142.265362
1576.866714,1532.190996,666.185348,8808.450710
1576.867031,1072.533697,-222.061783,9252.574275
1576.867349,383.047749,-74.020594,9474.636058
1576.867666,-383.047749,-74.020594,9770.718434
1576.867983,-536.266849,-222.061783,10214.842000
1576.868300,-919.314598,-222.061783,10066.800811
1576.868618,-1072.533697,-74.020594,9696.697840
1576.868935,-1532.190996,740.205942,9400.615463
1576.869252,-1378.971896,740.205942,9030.512492
1576.869570,-1455.581446,-74.020594,9696.697840
1576.869887,-1608.800546,-518.144159,10881.027347
1576.870204,-1378.971896,-444.123565,10881.027347
1576.870521,-1302.362347,-0.000000,10214.842000
1576.870839,-689.485948,666.185348,10584.944971
1576.871156,-536.266849,888.247130,10288.862594
1576.871473,-153.219100,1850.514855,9326.594869
1576.871791,689.485948,1554.432478,8290.306550
1576.872108,153.219100,1110.308913,9178.553681
1576.872425,689.485948,-222.061783,9178.553681
1576.872742,766.095498,-148.041188,9474.636058
1576.873060,919.314598,-370.102971,9252.574275
1576.873377,689.485948,444.123565,9178.553681
1576.873694,383.047749,148.041188,8882.471304
1576.874012,459.657299,296.082377,9622.677246
1576.874329,612.876398,666.185348,9178.553681
1576.874646,995.924147,740.205942,8808.450710
1576.874964,229.828649,1036.288319,8216.285956
1576.875281,689.485948,-0.000000,9030.512492
1576.875598,76.609550,-518.144159,10066.800811
1576.875915,536.266849,-1628.453072,11325.150913
1576.876233,536.266849,-814.226536,10955.047942
1576.876550,1302.362347,-148.041188,10881.027347
1576.876867,1762.019645,444.123565,10436.903782
1576.877185,2681.334243,222.061783,10732.986159
1576.877502,3370.820191,518.144159,9548.656652
1576.877819,3447.429741,1110.308913,8364.327145
1576.878136,3983.696590,740.205942,7846.182985
1576.878454,3907.087040,518.144159,8216.285956
1576.878771,4673.182538,-148.041188,8438.347739
1576.879088,3830.477490,-962.267725,8586.388927
1576.879406,2757.943793,-1406.391290,9030.512492
1576.879723,2374.896044,-1406.391290,9400.615463
1576.880040,2528.115143,-888.247130,9400.615463
1576.880357,2528.115143,-0.000000,8956.491898
1576.880675,1378.971896,518.144159,7698.141797
1576.880992,689.485948,-0.000000,8586.388927
1576.881309,459.657299,-888.247130,9770.718434
1576.881627,0.000000,-1554.432478,10881.027347
1576.881944,-306.438199,-518.144159,10732.986159
1576.882261,-612.876398,148.041188,10658.965565
1576.882578,-459.657299,962.267725,10584.944971
1576.882896,76.609550,814.226536,10140.821405
1576.883213,76.609550,1110.308913,9548.656652
1576.883530,153.219100,1924.535449,8068.244768
1576.883848,766.095498,740.205942,8290.306550
1576.884165,306.438199,518.144159,8364.327145
1576.884482,536.266849,-74.020594,8216.285956
1576.884800,0.000000,-0.000000,7846.182985
1576.885117,-612.876398,-148.041188,8216.285956
1576.885434,-1225.752797,370.102971,7994.224174
1576.885751,-766.095498,518.144159,8216.285956
1576.886069,-1072.533697,518.144159,9030.512492
1576.886386,-1532.190996,962.267725,8956.491898
1576.886703,-1762.019645,1110.308913,8216.285956
1576.887021,-1608.800546,592.164754,9252.574275
1576.887338,-1378.971896,-370.102971,10288.862594
1576.887655,-1455.581446,-518.144159,10658.965565
1576.887972,-1532.190996,-592.164754,11251.130318
1576.888290,-995.924147,740.205942,11547.212695
1576.888607,306.438199,1258.350101,11621.233289
1576.888924,459.657299,2368.659014,10510.924376
1576.889242,1302.362347,2442.679609,9770.718434
1576.889559,1838.629195,3108.864956,8364.327145
1576.889876,2298.286494,3182.885551,8142.265362
1576.890193,3600.648841,666.185348,9104.533087
1576.890511,3600.648841,444.123565,8512.368333
1576.890828,3447.429741,-592.164754,9326.594869
1576.891145,3294.210641,-518.144159,9252.574275
1576.891463,3294.210641,-444.123565,9474.636058
1576.891780,2834.553343,1258.350101,9252.574275
1576.892097,2221.676944,1554.432478,8586.388927
1576.892414,1532.190996,2294.638420,8660.409521
1576.892732,1149.143247,740.205942,9474.636058
1576.893049,536.266849,518.144159,10807.006753
1576.893366,0.000000,-444.123565,11177.109724
1576.893684,-766.095498,-222.061783,11769.274478
1576.894001,459.657299,222.061783,12213.398043
1576.894318,689.485948,962.267725,12361.439231
1576.894635,995.924147,2072.576638,10955.047942
1576.894953,766.095498,2072.576638,10658.965565
1576.895270,1149.143247,3404.947333,8808.450710
1576.895587,1991.848295,2442.679609,8734.430116
1576.895904,2145.067394,2590.720797,8364.327145
1576.896222,1838.629195,1184.329507,8882.471304
1576.896539,919.314598,814.226536,8438.347739
1576.896856,919.314598,-666.185348,8808.450710
1576.897173,76.609550,-518.144159,9770.718434
1576.897491,536.266849,-1406.391290,10288.862594
1576.897808,-766.095498,-370.102971,9104.533087
1576.898125,-306.438199,-74.020594,8586.388927
1576.898442,-459.657299,222.061783,8882.471304
1576.898760,306.438199,370.102971,9030.512492
1576.899077,-842.705048,-666.185348,9918.759623
1576.899394,-1608.800546,-666.185348,9474.636058
1576.899711,-995.924147,-962.267725,11473.192101
1576.900029,-919.314598,222.061783,10955.047942
1576.900346,153.219100,222.061783,10955.047942
1576.900663,0.000000,888.247130,9844.739029
1576.900981,842.705048,518.144159,9918.759623
1576.901298,2681.334243,1258.350101,9252.574275
1576.901615,3064.381992,1332.370696,7476.080014
1576.901932,4519.963438,1258.350101,7846.182985
1576.902250,3524.039291,740.205942,7254.018232
1576.902567,2987.772442,666.185348,7031.956449
1576.902884,2604.724693,-370.102971,7772.162391
1576.903201,1838.629195,-222.061783,8734.430116
1576.903519,1608.800546,-666.185348,9474.636058
1576.903836,1991.848295,-0.000000,8512.368333
1576.904153,1378.971896,-148.041188,8068.244768
1576.904470,1225.752797,-444.123565,8216.285956
1576.904788,1149.143247,-888.247130,9326.594869
1576.905105,1838.629195,-1628.453072,9474.636058
1576.905422,1378.971896,-518.144159,9696.697840
1576.905739,766.095498,740.205942,9474.636058
1576.906057,536.266849,222.061783,10436.903782
1576.906374,459.657299,740.205942,10658.965565
1576.906691,1455.581446,1036.288319,9918.759623
1576.907008,1072.533697,1850.514855,8364.327145
1576.907326,919.314598,2146.597232,8142.265362
1576.907643,1608.800546,1924.535449,7920.203579
1576.907960,2528.115143,666.185348,7772.162391
1576.908277,2528.115143,-592.164754,8142.265362
1576.908595,1072.533697,-666.185348,8290.306550
1576.908912,229.828649,-518.144159,8660.409521
1576.909229,459.657299,-518.144159,9474.636058
1576.909547,0.000000,148.041188,9326.594869
1576.909864,-842.705048,666.185348,9548.656652
1576.910181,-1685.410096,1480.411884,8882.471304
1576.910498,-1838.629195,740.205942,9252.574275
1576.910816,-842.705048,-370.102971,10214.842000
1576.911133,-229.828649,-1332.370696,11843.295072
1576.911450,-842.705048,-814.226536,11251.130318
1576.911767,-689.485948,-666.185348,11103.089130
1576.912085,-459.657299,-518.144159,11251.130318
1576.912402,306.438199,-0.000000,11399.171507
1576.912719,842.705048,518.144159,10362.883188
1576.913036,612.876398,1702.473667,8956.491898
1576.913354,459.657299,1184.329507,8660.409521
1576.913671,689.485948,666.185348,9104.533087
1576.913988,1532.190996,-666.185348,9992.780217
1576.914305,1685.410096,-1110.308913,9474.636058
1576.914623,1455.581446,-1554.432478,9474.636058
1576.914940,995.924147,-1110.308913,9104.533087
1576.915257,1149.143247,-1036.288319,9696.697840
1576.915574,1685.410096,-888.247130,10362.883188
1576.915892,842.705048,222.061783,9474.636058
1576.916209,995.924147,1036.288319,9474.636058
1576.916526,536.266849,1332.370696,9326.594869
1576.916844,459.657299,370.102971,10066.800811
1576.917161,536.266849,-74.020594,10362.883188
1576.917478,536.266849,222.061783,10732.986159
1576.917795,459.657299,296.082377,10362.883188
1576.918113,1072.533697,814.226536,10510.924376
1576.918430,1608.800546,1184.329507,10066.800811
1576.918747,2604.724693,1924.535449,9178.553681
1576.919064,2145.067394,1998.556043,7846.182985
1576.919382,2145.067394,1110.308913,7698.141797
1576.919699,1685.410096,370.102971,8068.244768
1576.920016,1685.410096,-222.061783,8882.471304
1576.920333,1762.019645,-74.020594,8882.471304
1576.920651,995.924147,-148.041188,8290.306550
1576.920968,383.047749,-0.000000,8216.285956
1576.921285,612.876398,-370.102971,8734.430116
1576.921602,383.047749,-592.164754,9104.533087
1576.921920,766.095498,-148.041188,8734.430116
1576.922237,306.438199,370.102971,8290.306550
1576.922554,-306.438199,148.041188,8734.430116
1576.922871,-306.438199,-370.102971,10140.821405
1576.923189,-612.876398,-962.267725,10658.965565
1576.923506,-842.705048,-148.041188,10658.965565
1576.923823,-383.047749,814.226536,10140.821405
1576.924140,76.609550,1480.411884,10140.821405
1576.924458,306.438199,1480.411884,9474.636058
1576.924775,612.876398,1110.308913,8808.450710
1576.925092,383.047749,740.205942,8734.430116
1576.925410,1149.143247,370.102971,9030.512492
1576.925727,1532.190996,-222.061783,9178.553681
1576.926044,1608.800546,-814.226536,9326.594869
1576.926361,995.924147,-888.247130,9400.615463
1576.926679,536.266849,-740.205942,9696.697840
1576.926996,612.876398,-370.102971,9400.615463
1576.927313,689.485948,-74.020594,9178.553681
1576.927630,229.828649,296.082377,8586.388927
1576.927948,-306.438199,444.123565,8586.388927
1576.928265,-153.219100,-0.000000,9326.594869
1576.928582,0.000000,-666.185348,9770.718434
1576.928899,-383.047749,-1184.329507,10732.986159
1576.929217,-383.047749,-592.164754,10807.006753
1576.929534,-229.828649,-0.000000,10658.965565
1576.929851,612.876398,518.144159,11029.068536
1576.930168,459.657299,1036.288319,10881.027347
1576.930486,995.924147,1554.432478,9992.780217
1576.930803,1149.143247,1776.494261,9326.594869
1576.931120,1302.362347,1258.350101,8808.450710
1576.931437,1608.800546,148.041188,9252.574275
1576.931755,1762.019645,-370.102971,9844.739029
1576.932072,1762.019645,-814.226536,9548.656652
1576.932389,1455.581446,-222.061783,9104.533087
1576.932707,1378.971896,-74.020594,9252.574275
1576.933024,1455.581446,-0.000000,9844.739029
1576.933341,1225.752797,814.226536,8586.388927
1576.933658,1302.362347,888.247130,7920.203579
1576.933976,383.047749,370.102971,8734.430116
1576.934293,306.438199,-222.061783,9696.697840
1576.934610,383.047749,-962.267725,10066.800811
1576.934927,536.266849,-1332.370696,10584.944971
1576.935245,383.047749,-814.226536,10510.924376
1576.935562,459.657299,-74.020594,10584.944971
1576.935879,995.924147,666.185348,10658.965565
1576.936196,1685.410096,1110.308913,9992.780217
1576.936514,1762.019645,1776.494261,8882.471304
1576.936831,1838.629195,2146.597232,8364.327145
1576.937148,1915.238745,1258.350101,8290.306550
1576.937465,1838.629195,222.061783,8586.388927
1576.937783,1532.190996,-666.185348,9178.553681
1576.938100,1532.190996,-1036.288319,9400.615463
1576.938417,919.314598,-592.164754,9770.718434
1576.938734,383.047749,-370.102971,9326.594869
1576.939052,383.047749,-222.061783,9474.636058
1576.939369,229.828649,-148.041188,9030.512492
1576.939686,-153.219100,148.041188,8586.388927
1576.940003,-842.705048,-518.144159,8882.471304
1576.940321,-306.438199,-1332.370696,9992.780217
1576.940638,-536.266849,-1554.432478,10658.965565
1576.940955,-766.095498,-1184.329507,10214.842000
1576.941273,-612.876398,-444.123565,10510.924376
1576.941590,-459.657299,-666.185348,10732.986159
1576.941907,306.438199,-0.000000,10362.883188
1576.942224,1072.533697,1258.350101,8882.471304
1576.942542,1378.971896,1406.391290,7772.162391
1576.942859,1149.143247,740.205942,7550.100608
1576.943176,1915.238745,518.144159,8216.285956
1576.943493,1838.629195,-74.020594,8586.388927
1576.943811,1532.190996,-444.123565,8586.388927
1576.944128,536.266849,-222.061783,8586.388927
1576.944445,536.266849,-0.000000,9474.636058
1576.944762,306.438199,-222.061783,9548.656652
1576.945080,153.219100,444.123565,9326.594869
1576.945397,-153.219100,444.123565,8956.491898
1576.945714,-383.047749,444.123565,8882.471304
1576.946031,0.000000,-148.041188,9030.512492
1576.946349,0.000000,-740.205942,10140.821405
1576.946666,0.000000,-1258.350101,11029.068536
1576.946983,0.000000,-962.267725,10955.047942
1576.947300,229.828649,-222.061783,10658.965565
1576.947618,995.924147,-0.000000,10732.986159
1576.947935,1838.629195,666.185348,10140.821405
1576.948252,2451.505594,1480.411884,8660.409521
1576.948570,2528.115143,2072.576638,7105.977043
1576.948887,3064.381992,1554.432478,7179.997637
1576.949204,3294.210641,296.082377,7624.121203
1576.949521,3140.991542,-296.082377,8512.368333
1576.949839,2528.115143,-296.082377,8438.347739
1576.950156,1378.971896,-370.102971,8512.368333
1576.950473,612.876398,-444.123565,9992.780217
1576.950790,229.828649,-0.000000,9992.780217
1576.951108,-306.438199,444.123565,10140.821405
1576.951425,-842.705048,1332.370696,9400.615463
1576.951742,-1149.143247,740.205942,9770.718434
1576.952059,-1378.971896,-74.020594,11251.130318
1576.952377,-612.876398,-296.082377,11473.192101
1576.952694,-1072.533697,-222.061783,10955.047942
1576.953011,-1072.533697,296.082377,10584.944971
1576.953328,-689.485948,814.226536,10881.027347
1576.953646,306.438199,1184.329507,10955.047942
1576.953963,1302.362347,1998.556043,9844.739029
1576.954280,1149.143247,1702.473667,8660.409521
1576.954597,1302.362347,1406.391290,7920.203579
1576.954915,1685.410096,666.185348,8364.327145
1576.955232,1991.848295,-444.123565,8734.430116
1576.955549,1762.019645,-888.247130,8660.409521
1576.955866,1149.143247,-814.226536,8734.430116
1576.956184,612.876398,-740.205942,9104.533087
1576.956501,153.219100,-814.226536,10066.800811
1576.956818,76.609550,-148.041188,10436.903782
1576.957136,-459.657299,444.123565,9622.677246
1576.957453,-1149.143247,444.123565,9400.615463
1576.957770,-689.485948,-74.020594,10140.821405
1576.958087,-612.876398,-592.164754,11029.068536
1576.958405,-306.438199,-592.164754,11103.089130
1576.958722,-229.828649,-296.082377,10732.986159
1576.959039,153.219100,666.185348,10436.903782
1576.959356,842.705048,962.267725,10066.800811
1576.959674,1455.581446,1480.411884,9844.739029
1576.959991,1608.800546,1850.514855,8882.471304
1576.960308,1838.629195,1998.556043,7846.182985
1576.960625,1608.800546,1628.453072,7698.141797
1576.960943,2451.505594,444.123565,8364.327145
1576.961260,2528.115143,-222.061783,8660.409521
1576.961577,2298.286494,-962.267725,8956.491898
1576.961894,1455.581446,-1184.329507,8734.430116
1576.962212,1149.143247,-1036.288319,9474.636058
1576.962529,1532.190996,-74.020594,9474.636058
1576.962846,1225.752797,740.205942,9104.533087
1576.963163,1608.800546,1480.411884,8586.388927
1576.963481,995.924147,1480.411884,8734.430116
1576.963798,1225.752797,370.102971,9548.656652
1576.964115,1762.019645,-148.041188,10807.006753
1576.964432,2145.067394,-0.000000,10140.821405
1576.964750,1915.238745,888.247130,9252.574275
1576.965067,1762.019645,1184.329507,8956.491898
1576.965384,2374.896044,1258.350101,9252.574275
1576.965702,2604.724693,1924.535449,8734.430116
1576.966019,2221.676944,2146.597232,7402.059420
1576.966336,1455.581446,1850.514855,7179.997637
1576.966653,919.314598,222.061783,8290.306550
1576.966971,459.657299,-1110.308913,9400.615463
1576.967288,0.000000,-1258.350101,9770.718434
1576.967605,-1532.190996,-1258.350101,9918.759623
1576.967922,-1455.581446,-740.205942,10584.944971
1576.968240,-1302.362347,-74.020594,9992.780217
1576.968557,-689.485948,-74.020594,10362.883188
1576.968874,-689.485948,740.205942,9474.636058
1576.969191,-766.095498,1036.288319,8808.450710
1576.969509,-612.876398,814.226536,8882.471304
1576.969826,-383.047749,296.082377,10066.800811
1576.970143,-306.438199,-370.102971,10362.883188
1576.970460,-306.438199,148.041188,10066.800811
1576.970778,-229.828649,296.082377,10584.944971
1576.971095,383.047749,1184.329507,10288.862594
1576.971412,919.314598,1332.370696,9548.656652
1576.971729,919.314598,1702.473667,9104.533087
1576.972047,1225.752797,1924.535449,8216.285956
1576.972364,1072.533697,1702.473667,7772.162391
1576.972681,1455.581446,518.144159,8882.471304
1576.972999,1455.581446,-148.041188,10214.842000
1576.973316,766.095498,-962.267725,10140.821405
1576.973633,0.000000,-296.082377,10140.821405
1576.973950,0.000000,-0.000000,10362.883188
1576.974268,383.047749,222.061783,10881.027347
1576.974585,1225.752797,592.164754,10362.883188
1576.974902,842.705048,1110.308913,9104.533087
1576.975219,1149.143247,1184.329507,9030.512492
1576.975537,1608.800546,740.205942,9326.594869
1576.975854,2068.457845,-370.102971,9992.780217
1576.976171,1838.629195,-444.123565,9992.780217
1576.976488,1608.800546,222.061783,10362.883188
1576.976806,1532.190996,592.164754,9696.697840
1576.977123,2374.896044,666.185348,10510.924376
1576.977440,2451.505594,1258.350101,9918.759623
1576.977757,2451.505594,1480.411884,8290.306550
1576.978075,2681.334243,1184.329507,7920.203579
1576.978392,2604.724693,592.164754,8216.285956
1576.978709,2604.724693,148.041188,8364.327145
1576.979026,2604.724693,-148.041188,8660.409521
1576.979344,1685.410096,-74.020594,9400.615463
1576.979661,995.924147,-370.102971,9474.636058
1576.979978,689.485948,-0.000000,9622.677246
1576.980295,536.266849,518.144159,9770.718434
1576.980613,229.828649,592.164754,9474.636058
1576.980930,-229.828649,1110.308913,8956.491898
1576.981247,-306.438199,666.185348,8808.450710
1576.981565,0.000000,-222.061783,9548.656652
1576.981882,76.609550,-592.164754,9844.739029
1576.982199,229.828649,-1110.308913,10214.842000
1576.982516,0.000000,-814.226536,9770.718434
1576.982834,383.047749,-444.123565,10140.821405
1576.983151,0.000000,-296.082377,9992.780217
1576.983468,689.485948,518.144159,9178.553681
1576.983785,1072.533697,1036.288319,8068.244768
1576.984103,842.705048,888.247130,7550.100608
1576.984420,1608.800546,-296.082377,8512.368333
1576.984737,1455.581446,-666.185348,8512.368333
1576.985054,1685.410096,-1110.308913,9030.512492
1576.985372,1072.533697,-740.205942,8586.388927
1576.985689,306.438199,-296.082377,8956.491898
1576.986006,459.657299,-222.061783,9474.636058
1576.986323,306.438199,444.123565,9474.636058
1576.986641,383.047749,814.226536,9104.533087
1576.986958,0.000000,814.226536,9030.512492
1576.987275,0.000000,370.102971,9400.615463
1576.987592,153.219100,-518.144159,10214.842000
1576.987910,0.000000,-814.226536,10362.883188
1576.988227,0.000000,-740.205942,10140.821405
1576.988544,0.000000,-370.102971,10362.883188
1576.988862,306.438199,-0.000000,10288.862594
1576.989179,766.095498,740.205942,10140.821405
1576.989496,1072.533697,1184.329507,8956.491898
1576.989813,842.705048,1184.329507,8142.265362
1576.990131,1149.143247,444.123565,8660.409521
1576.990448,1225.752797,-148.041188,8882.471304
1576.990765,1685.410096,-444.123565,9104.533087
1576.991082,1302.362347,-592.164754,8808.450710
1576.991400,1302.362347,-370.102971,9474.636058
1576.991717,1378.971896,-148.041188,9400.615463
1576.992034,995.924147,666.185348,9252.574275
1576.992351,1149.143247,888.247130,8808.450710
1576.992669,766.095498,1406.391290,8734.430116
1576.992986,383.047749,1406.391290,8216.285956
1576.993303,76.609550,148.041188,9474.636058
1576.993620,-229.828649,-518.144159,10807.006753
1576.993938,-689.485948,-1110.308913,11103.089130
1576.994255,-536.266849,-518.144159,11251.130318
1576.994572,-612.876398,222.061783,11251.130318
1576.994890,0.000000,888.247130,11547.212695
1576.995207,459.657299,1480.411884,10140.821405
1576.995524,842.705048,1776.494261,9178.553681
1576.995841,1072.533697,1850.514855,8882.471304
1576.996159,1762.019645,1406.391290,9030.512492
1576.996476,2221.676944,592.164754,9400.615463
1576.996793,2298.286494,-0.000000,9400.615463
1576.997110,1915.238745,-222.061783,9622.677246
1576.997428,1532.190996,-0.000000,9474.636058
1576.997745,1838.629195,148.041188,9104.533087
1576.998062,2068.457845,888.247130,9178.553681
1576.998379,1838.629195,1184.329507,8808.450710
1576.998697,842.705048,1036.288319,8512.368333
1576.999014,995.924147,296.082377,9104.533087
1576.999331,536.266849,-962.267725,9992.780217
1576.999649,383.047749,-1702.473667,11103.089130
1576.999966,-229.828649,-1110.308913,11103.089130
1577.000283,-306.438199,-1110.308913,11399.171507
1577.000600,-306.438199,148.041188,10807.006753
1577.000918,459.657299,814.226536,10807.006753
1577.001235,842.705048,1850.514855,9548.656652
1577.001552,1225.752797,1998.556043,8216.285956
1577.001869,1685.410096,1850.514855,8142.265362
1577.002187,1838.629195,814.226536,8290.306550
1577.002504,2221.676944,-0.000000,8586.388927
1577.002821,1762.019645,-222.061783,8660.409521
1577.003138,919.314598,-592.164754,9030.512492
1577.003456,689.485948,-592.164754,9400.615463
1577.003773,612.876398,-0.000000,8956.491898
1577.004090,383.047749,518.144159,8734.430116
1577.004408,-153.219100,666.185348,8660.409521
1577.004725,-919.314598,444.123565,8512.368333
1577.005042,-306.438199,-222.061783,9326.594869
1577.005359,-459.657299,-962.267725,9844.739029
1577.005677,-306.438199,-1184.329507,10658.965565
1577.005994,-306.438199,-1258.350101,10362.883188
1577.006311,-459.657299,-0.000000,10140.821405
1577.006628,459.657299,740.205942,9992.780217
1577.006946,1149.143247,1480.411884,9178.553681
1577.007263,1685.410096,1998.556043,7920.203579
1577.007580,1838.629195,1776.494261,7624.121203
1577.007897,1838.629195,1110.308913,7550.100608
1577.008215,1685.410096,222.061783,7994.224174
1577.008532,1838.629195,-222.061783,8142.265362
1577.008849,919.314598,-814.226536,8734.430116
1577.009167,536.266849,-666.185348,9474.636058
1577.009484,0.000000,-1036.288319,10288.862594
1577.009801,0.000000,-592.164754,10288.862594
1577.010118,-612.876398,-370.102971,9622.677246
1577.010436,-536.266849,-74.020594,9474.636058
1577.010753,-459.657299,-222.061783,9548.656652
1577.011070,-229.828649,-962.267725,10584.944971
1577.011387,-306.438199,-1406.391290,11029.068536
1577.011705,76.609550,-1184.329507,10584.944971
1577.012022,229.828649,-592.164754,10362.883188
1577.012339,919.314598,-0.000000,10584.944971
1577.012656,1762.019645,592.164754,10362.883188
1577.012974,1762.019645,888.247130,8882.471304
1577.013291,1838.629195,1184.329507,8290.306550
1577.013608,1608.800546,740.205942,7994.224174
1577.013926,2145.067394,-0.000000,8586.388927
1577.014243,1455.581446,-814.226536,8586.388927
1577.014560,995.924147,-1110.308913,9400.615463
1577.014877,0.000000,-740.205942,9844.739029
1577.015195,-536.266849,-740.205942,10140.821405
1577.015512,-842.705048,-814.226536,10584.944971
1577.015829,-689.485948,-296.082377,10732.986159
1577.016146,-766.095498,740.205942,9770.718434
1577.016464,-612.876398,666.185348,9252.574275
1577.016781,-153.219100,-0.000000,9918.759623
1577.017098,536.266849,-1110.308913,10732.986159
1577.017415,842.705048,-592.164754,10510.924376
1577.017733,229.828649,-148.041188,10066.800811
1577.018050,919.314598,222.061783,10066.800811
1577.018367,1532.190996,740.205942,9918.759623
1577.018685,2374.896044,1480.411884,9178.553681
1577.019002,2604.724693,2146.597232,7772.162391
1577.019319,2451.505594,1702.473667,7624.121203
1577.019636,2834.553343,814.226536,7920.203579
1577.019954,2987.772442,-518.144159,8142.265362
1577.020271,2757.943793,-518.144159,8586.388927
1577.020588,1915.238745,-740.205942,9104.533087
1577.020905,1455.581446,-888.247130,9030.512492
1577.021223,1302.362347,-222.061783,9252.574275
1577.021540,689.485948,370.102971,9474.636058
1577.021857,459.657299,1036.288319,8956.491898
1577.022174,306.438199,1332.370696,8512.368333
1577.022492,153.219100,888.247130,8808.450710
1577.022809,0.000000,-0.000000,9770.718434
1577.023126,-229.828649,-444.123565,10584.944971
1577.023444,-229.828649,-148.041188,10510.924376
1577.023761,0.000000,296.082377,10362.883188
1577.024078,76.609550,814.226536,10584.944971
1577.024395,919.314598,1406.391290,10510.924376
1577.024713,842.705048,1850.514855,8882.471304
1577.025030,842.705048,2072.576638,8068.244768
1577.025347,842.705048,1406.391290,7772.162391
1577.025664,1149.143247,-0.000000,8068.244768
1577.025982,995.924147,-222.061783,8734.430116
1577.026299,612.876398,-370.102971,8956.491898
1577.026616,459.657299,-148.041188,8808.450710
1577.026933,229.828649,-0.000000,9252.574275
1577.027251,306.438199,592.164754,9548.656652
1577.027568,229.828649,888.247130,8956.491898
1577.027885,0.000000,1184.329507,8660.409521
1577.028203,-153.219100,1184.329507,8586.388927
1577.028520,-766.095498,666.185348,9400.615463
1577.028837,-1072.533697,-666.185348,10214.842000
1577.029154,-766.095498,-888.247130,11029.068536
1577.029472,-842.705048,-222.061783,11103.089130
1577.029789,-1072.533697,-0.000000,11251.130318
1577.030106,-536.266849,518.144159,11103.089130
1577.030423,306.438199,962.267725,10732.986159
1577.030741,383.047749,1776.494261,9474.636058
1577.031058,995.924147,1924.535449,8808.450710
1577.031375,1302.362347,1258.350101,8882.471304
1577.031692,1532.190996,222.061783,9030.512492
1577.032010,1991.848295,-296.082377,9474.636058
1577.032327,1532.190996,-814.226536,9548.656652
1577.032644,1532.190996,-518.144159,9844.739029
1577.032962,1608.800546,-740.205942,9696.697840
1577.033279,1685.410096,-518.144159,10066.800811
1577.033596,1915.238745,-222.061783,9178.553681
1577.033913,1378.971896,370.102971,8512.368333
1577.034231,1149.143247,-148.041188,8882.471304
1577.034548,1072.533697,-370.102971,9844.739029
1577.034865,1072.533697,-814.226536,10510.924376
1577.035182,1225.752797,-962.267725,10436.903782
1577.035500,919.314598,-518.144159,10881.027347
1577.035817,919.314598,-74.020594,11177.109724
1577.036134,1455.581446,592.164754,10362.883188
1577.036451,1838.629195,1924.535449,9622.677246
1577.036769,2221.676944,1924.535449,8586.388927
1577.037086,1762.019645,1406.391290,7772.162391
1577.037403,2221.676944,740.205942,8290.306550
1577.037720,2145.067394,-74.020594,8882.471304
1577.038038,2604.724693,-740.205942,9252.574275
1577.038355,1685.410096,-888.247130,9252.574275
1577.038672,1378.971896,-518.144159,9474.636058
1577.038990,1302.362347,-0.000000,8956.491898
1577.039307,1378.971896,444.123565,8438.347739
1577.039624,995.924147,740.205942,8290.306550
1577.039941,459.657299,444.123565,8290.306550
1577.040259,306.438199,-0.000000,7994.224174
1577.040576,76.609550,-518.144159,9030.512492
1577.040893,-229.828649,-1110.308913,9844.739029
1577.041210,-229.828649,-814.226536,10214.842000
1577.041528,-229.828649,-148.041188,9844.739029
1577.041845,306.438199,444.123565,9918.759623
1577.042162,766.095498,1406.391290,9548.656652
1577.042479,1378.971896,1998.556043,8364.327145
1577.042797,1072.533697,2220.617826,7476.080014
1577.043114,1455.581446,1258.350101,7772.162391
1577.043431,1378.971896,666.185348,8512.368333
1577.043749,1378.971896,518.144159,8586.388927
1577.044066,919.314598,740.205942,8512.368333
1577.044383,459.657299,370.102971,9326.594869
1577.044700,0.000000,-0.000000,9844.739029
1577.045018,-153.219100,296.082377,10214.842000
1577.045335,-306.438199,518.144159,9622.677246
1577.045652,-766.095498,666.185348,9622.677246
1577.045969,-842.705048,-0.000000,9548.656652
1577.046287,-459.657299,-592.164754,10362.883188
1577.046604,-536.266849,-1110.308913,10732.986159
1577.046921,-459.657299,-888.247130,10807.006753
1577.047238,-229.828649,-518.144159,10288.862594
1577.047556,229.828649,518.144159,10584.944971
1577.047873,995.924147,1480.411884,10288.862594
1577.048190,1685.410096,1184.329507,9992.780217
1577.048508,1685.410096,1332.370696,8882.471304
1577.048825,2451.505594,1554.432478,8734.430116
1577.049142,2528.115143,666.185348,8660.409521
1577.049459,2834.553343,370.102971,8882.471304
1577.049777,2681.334243,222.061783,9104.533087
1577.050094,2528.115143,444.123565,9178.553681
1577.050411,2451.505594,222.061783,9474.636058
1577.050728,1991.848295,-0.000000,9622.677246
1577.051046,1302.362347,296.082377,9770.718434
1577.051363,689.485948,740.205942,9696.697840
1577.051680,153.219100,814.226536,9474.636058
1577.051997,-306.438199,-0.000000,9770.718434
1577.052315,-612.876398,-518.144159,10881.027347
1577.052632,-612.876398,-222.061783,11103.089130
1577.052949,-229.828649,-0.000000,10732.986159
1577.053267,76.609550,-0.000000,10658.965565
1577.053584,536.266849,222.061783,10658.965565
1577.053901,842.705048,592.164754,10214.842000
1577.054218,1149.143247,1554.432478,9104.533087
1577.054536,1685.410096,1702.473667,8290.306550
1577.054853,2068.457845,1628.453072,7846.182985
1577.055170,2451.505594,1628.453072,7994.224174
1577.055487,2145.067394,666.185348,8216.285956
1577.055805,1915.238745,518.144159,8142.265362
1577.056122,1455.581446,-0.000000,8586.388927
1577.056439,1149.143247,-74.020594,9030.512492
1577.056756,459.657299,-74.020594,8808.450710
1577.057074,0.000000,-0.000000,9252.574275
1577.057391,-536.266849,370.102971,8586.388927
1577.057708,-995.924147,296.082377,9252.574275
1577.058026,-1455.581446,-74.020594,9548.656652
1577.058343,-1762.019645,-740.205942,10510.924376
1577.058660,-1608.800546,-518.144159,10807.006753
1577.058977,-1608.800546,-0.000000,10881.027347
1577.059295,-1762.019645,222.061783,10881.027347
1577.059612,-766.095498,740.205942,10510.924376
1577.059929,0.000000,1554.432478,9770.718434
1577.060246,153.219100,1776.494261,8660.409521
1577.060564,766.095498,1924.535449,8142.265362
1577.060881,1455.581446,592.164754,8438.347739
1577.061198,1762.019645,-0.000000,8882.471304
1577.061515,1608.800546,-370.102971,8586.388927
1577.061833,1455.581446,-518.144159,8586.388927
1577.062150,919.314598,-888.247130,9104.533087
1577.062467,1455.581446,-888.247130,9252.574275
1577.062785,995.924147,148.041188,8882.471304
1577.063102,919.314598,444.123565,8956.491898
1577.063419,306.438199,444.123565,8734.430116
1577.063736,229.828649,-0.000000,9400.615463
1577.064054,689.485948,-666.185348,10288.862594
1577.064371,383.047749,-888.247130,10436.903782
1577.064688,459.657299,-962.267725,11325.150913
1577.065005,536.266849,-370.102971,11029.068536
1577.065323,1072.533697,-148.041188,11029.068536
1577.065640,2145.067394,814.226536,10584.944971
1577.065957,2374.896044,1628.453072,10066.800811
1577.066274,2681.334243,2220.617826,8808.450710
1577.066592,2987.772442,1628.453072,8142.265362
1577.066909,3600.648841,222.061783,8660.409521
1577.067226,3600.648841,-74.020594,8882.471304
1577.067544,3524.039291,-296.082377,8808.450710
1577.067861,3140.991542,-518.144159,8734.430116
1577.068178,2987.772442,-888.247130,9030.512492
1577.068495,1991.848295,-518.144159,9104.533087
1577.068813,2298.286494,-296.082377,8734.430116
1577.069130,1608.800546,-0.000000,8068.244768
1577.069447,766.095498,-0.000000,8364.327145
1577.069764,229.828649,-666.185348,9030.512492
1577.070082,0.000000,-1184.329507,10362.883188
1577.070399,-459.657299,-1036.288319,10658.965565
1577.070716,-919.314598,-666.185348,11029.068536
1577.071033,-1072.533697,-296.082377,10658.965565
1577.071351,-995.924147,370.102971,10807.006753
1577.071668,-229.828649,814.226536,10362.883188
1577.071985,0.000000,1850.514855,8956.491898
1577.072303,0.000000,1924.535449,8142.265362
1577.072620,0.000000,1036.288319,8734.430116
1577.072937,-229.828649,148.041188,8956.491898
1577.073254,0.000000,-222.061783,9104.533087
1577.073572,-459.657299,-666.185348,9030.512492
1577.073889,-689.485948,-740.205942,9474.636058
1577.074206,-306.438199,-666.185348,9474.636058
1577.074523,-766.095498,-148.041188,9252.574275
1577.074841,-459.657299,592.164754,8290.306550
1577.075158,-766.095498,740.205942,7772.162391
1577.075475,-612.876398,-0.000000,8216.285956
1577.075792,-689.485948,-666.185348,9178.553681
1577.076110,-995.924147,-1036.288319,9992.780217
1577.076427,-1072.533697,-1110.308913,10362.883188
1577.076744,-1072.533697,-518.144159,10658.965565
1577.077062,-766.095498,-0.000000,10658.965565
1577.077379,0.000000,370.102971,10732.986159
1577.077696,1072.533697,1184.329507,9696.697840
1577.078013,1608.800546,1998.556043,8438.347739
1577.078331,2298.286494,1702.473667,8586.388927
1577.078648,2604.724693,1480.411884,8438.347739
1577.078965,3064.381992,592.164754,8808.450710
1577.079282,2911.162892,222.061783,8808.450710
1577.079600,2987.772442,1036.288319,8882.471304
1577.079917,3064.381992,962.267725,8882.471304
1577.080234,3140.991542,888.247130,9474.636058
1577.080551,3140.991542,666.185348,9400.615463
1577.080869,2068.457845,814.226536,8734.430116
1577.081186,1762.019645,-0.000000,8734.430116
1577.081503,995.924147,-666.185348,9548.656652
1577.081821,612.876398,-1332.370696,10436.903782
1577.082138,1072.533697,-888.247130,10881.027347
1577.082455,612.876398,-666.185348,11103.089130
1577.082772,689.485948,-592.164754,11103.089130
1577.083090,1225.752797,-148.041188,11325.150913
1577.083407,1762.019645,814.226536,10214.842000
1577.083724,2221.676944,1554.432478,9326.594869
1577.084041,2604.724693,2072.576638,8290.306550
1577.084359,2757.943793,1406.391290,7698.141797
1577.084676,2987.772442,1110.308913,8068.244768
1577.084993,2834.553343,222.061783,8512.368333
1577.085310,2145.067394,-148.041188,8364.327145
1577.085628,1378.971896,-370.102971,9104.533087
1577.085945,383.047749,-518.144159,9474.636058
1577.086262,0.000000,-592.164754,9622.677246
1577.086580,-766.095498,-148.041188,9474.636058
1577.086897,-1685.410096,-148.041188,9326.594869
1577.087214,-2221.676944,-370.102971,9548.656652
1577.087531,-2221.676944,-814.226536,10658.965565
1577.087849,-2145.067394,-1850.514855,11843.295072
1577.088166,-2145.067394,-1998.556043,11177.109724
1577.088483,-2068.457845,-1110.308913,11177.109724
1577.088800,-1608.800546,-518.144159,10807.006753
1577.089118,-459.657299,148.041188,10436.903782
1577.089435,689.485948,814.226536,9400.615463
1577.089752,1072.533697,1628.453072,8068.244768
1577.090069,1762.019645,1628.453072,7402.059420
1577.090387,2221.676944,518.144159,7624.121203
1577.090704,2757.943793,-370.102971,8142.265362
1577.091021,2221.676944,-888.247130,7698.141797
1577.091339,1915.238745,-666.185348,7994.224174
1577.091656,1302.362347,-222.061783,8216.285956
1577.091973,1225.752797,-148.041188,8808.450710
1577.092290,766.095498,148.041188,9030.512492
1577.092608,0.000000,222.061783,8882.471304
1577.092925,-689.485948,-74.020594,9030.512492
1577.093243,-995.924147,-444.123565,9548.656652
1577.093560,-842.705048,-1332.370696,10658.965565
1577.093878,-919.314598,-1628.453072,11473.192101
1577.094195,-1455.581446,-740.205942,10584.944971
1577.094512,-689.485948,592.164754,10807.006753
1577.094830,229.828649,1258.350101,10362.883188
1577.095147,919.314598,1628.453072,9992.780217
1577.095465,1378.971896,2220.617826,8882.471304
1577.095782,1225.752797,1924.535449,8290.306550
1577.096099,1532.190996,1702.473667,8142.265362
1577.096417,2145.067394,444.123565,8586.388927
1577.096734,2451.505594,-0.000000,8660.409521
1577.097052,1302.362347,-0.000000,8438.347739
1577.097369,1532.190996,370.102971,8364.327145
1577.097687,1762.019645,370.102971,8808.450710
1577.098004,1685.410096,-0.000000,9178.553681
1577.098321,995.924147,518.144159,8882.471304
1577.098639,306.438199,592.164754,8808.450710
1577.098956,-459.657299,814.226536,8956.491898
1577.099274,-459.657299,-74.020594,9696.697840
1577.099591,-995.924147,-444.123565,10658.965565
1577.099908,-766.095498,-296.082377,11177.109724
1577.100226,-919.314598,222.061783,11177.109724
1577.100543,-459.657299,888.247130,10658.965565
1577.100861,0.000000,1184.329507,11473.192101
1577.101178,536.266849,2072.576638,10288.862594
1577.101496,1302.362347,2294.638420,8808.450710
1577.101813,1302.362347,2220.617826,8290.306550
1577.102130,1455.581446,1554.432478,8882.471304
1577.102448,1991.848295,518.144159,9252.574275
1577.102765,1838.629195,148.041188,9178.553681
1577.103083,1455.581446,-0.000000,9474.636058
1577.103400,1225.752797,-666.185348,9696.697840
1577.103718,1302.362347,-222.061783,9326.594869
1577.104035,1608.800546,-592.164754,9474.636058
1577.104352,919.314598,-0.000000,9252.574275
1577.104670,459.657299,-222.061783,8956.491898
1577.104987,76.609550,-222.061783,8586.388927
1577.105305,153.219100,-666.185348,10362.883188
1577.105622,306.438199,-1332.370696,11177.109724
1577.105939,-383.047749,-666.185348,10732.986159
1577.106257,-536.266849,-370.102971,11325.150913
1577.106574,-383.047749,-74.020594,11547.212695
1577.106892,306.438199,444.123565,10732.986159
1577.107209,919.314598,1184.329507,9622.677246
1577.107527,842.705048,1850.514855,8734.430116
1577.107844,1149.143247,1628.453072,8068.244768
1577.108161,1685.410096,1110.308913,8364.327145
1577.108479,1685.410096,-0.000000,8956.491898
1577.108796,1225.752797,-222.061783,9178.553681
1577.109114,766.095498,-592.164754,9474.636058
1577.109431,153.219100,-296.082377,9696.697840
1577.109748,383.047749,-666.185348,9992.780217
1577.110066,-153.219100,-666.185348,9400.615463
1577.110383,0.000000,-222.061783,8734.430116
1577.110701,-306.438199,-370.102971,8512.368333
1577.111018,76.609550,-1036.288319,8808.450710
1577.111336,76.609550,-1332.370696,9548.656652
1577.111653,0.000000,-1036.288319,9918.759623
1577.111970,0.000000,-592.164754,9474.636058
1577.112288,229.828649,-0.000000,9622.677246
1577.112605,1149.143247,1036.288319,10066.800811
1577.112923,1685.410096,1776.494261,9178.553681
1577.113240,2145.067394,2368.659014,7772.162391
1577.113557,2451.505594,2368.659014,7402.059420
1577.113875,2757.943793,1184.329507,7698.141797
1577.114192,2987.772442,518.144159,8142.265362
1577.114510,2834.553343,-148.041188,8512.368333
1577.114827,2145.067394,-370.102971,8808.450710
1577.115145,1378.971896,-518.144159,9252.574275
1577.115462,1072.533697,-666.185348,9548.656652
1577.115779,1149.143247,-0.000000,10066.800811
1577.116097,536.266849,-74.020594,9326.594869
1577.116414,306.438199,518.144159,8586.388927
1577.116732,612.876398,-0.000000,9326.594869
1577.117049,612.876398,-592.164754,9474.636058
1577.117367,995.924147,-1036.288319,10288.862594
1577.117684,842.705048,-740.205942,10288.862594
1577.118001,689.485948,-222.061783,9992.780217
1577.118319,995.924147,444.123565,10140.821405
1577.118636,1762.019645,592.164754,10584.944971
1577.118954,2298.286494,962.267725,9548.656652
1577.119271,1685.410096,1628.453072,8512.368333
1577.119588,1838.629195,1628.453072,8512.368333
1577.119906,1685.410096,296.082377,8734.430116
1577.120223,2145.067394,-370.102971,9474.636058
1577.120541,1455.581446,-666.185348,9548.656652
1577.120858,459.657299,-222.061783,9918.759623
1577.121176,76.609550,-148.041188,10066.800811
1577.121493,0.000000,-0.000000,10288.862594
1577.121810,-153.219100,740.205942,10140.821405
1577.122128,-536.266849,1332.370696,9622.677246
1577.122445,-1225.752797,1258.350101,8586.388927
1577.122763,-995.924147,222.061783,9696.697840
1577.123080,-995.924147,-222.061783,10732.986159
1577.123397,-995.924147,-518.144159,10584.944971
1577.123715,-1302.362347,-296.082377,10362.883188
1577.124032,-383.047749,296.082377,10732.986159
1577.124350,-153.219100,370.102971,10658.965565
1577.124667,229.828649,962.267725,10066.800811
1577.124985,1072.533697,1998.556043,9104.533087
1577.125302,1149.143247,2294.638420,7846.182985
1577.125619,1532.190996,1776.494261,7476.080014
1577.125937,1915.238745,1036.288319,8734.430116
1577.126254,1991.848295,814.226536,8290.306550
1577.126572,1072.533697,444.123565,8586.388927
1577.126889,842.705048,444.123565,8808.450710
1577.127206,1378.971896,-148.041188,9400.615463
1577.127524,689.485948,148.041188,9400.615463
1577.127841,306.438199,592.164754,9474.636058
1577.128159,-153.219100,1184.329507,8882.471304
1577.128476,-153.219100,1036.288319,9326.594869
1577.128794,-612.876398,296.082377,9770.718434
1577.129111,-76.609550,-0.000000,10807.006753
1577.129428,-383.047749,-74.020594,10732.986159
1577.129746,-383.047749,-74.020594,10732.986159
1577.130063,153.219100,296.082377,11177.109724
1577.130381,459.657299,296.082377,10955.047942
1577.130698,1378.971896,1110.308913,9696.697840
1577.131015,1991.848295,1702.473667,8438.347739
1577.131333,2221.676944,1554.432478,7772.162391
1577.131650,3217.601092,370.102971,7920.203579
1577.131968,2834.553343,-444.123565,7846.182985
1577.132285,2298.286494,-148.041188,8290.306550
1577.132603,1762.019645,-444.123565,8438.347739
1577.132920,1149.143247,-444.123565,9030.512492
1577.133237,1302.362347,-370.102971,9696.697840
1577.133555,842.705048,-148.041188,10140.821405
1577.133872,153.219100,296.082377,9178.553681
1577.134190,153.219100,296.082377,9104.533087
1577.134507,0.000000,222.061783,9474.636058
1577.134825,306.438199,-518.144159,10584.944971
1577.135142,383.047749,-370.102971,10436.903782
1577.135459,76.609550,-296.082377,10214.842000
1577.135777,153.219100,222.061783,10288.862594
1577.136094,766.095498,370.102971,10732.986159
1577.136412,995.924147,444.123565,10510.924376
1577.136729,1838.629195,1036.288319,9326.594869
1577.137046,1838.629195,1258.350101,8512.368333
1577.137364,2221.676944,666.185348,8216.285956
1577.137681,3140.991542,-0.000000,8364.327145
1577.137999,2987.772442,-296.082377,8364.327145
1577.138316,2681.334243,-444.123565,8438.347739
1577.138634,1991.848295,-888.247130,8956.491898
1577.138951,1455.581446,-666.185348,9474.636058
1577.139268,1225.752797,-666.185348,9770.718434
1577.139586,612.876398,-0.000000,9622.677246
1577.139903,612.876398,296.082377,9030.512492
1577.140221,-153.219100,-0.000000,8956.491898
1577.140538,0.000000,-222.061783,9326.594869
1577.140855,229.828649,-888.247130,10732.986159
1577.141173,0.000000,-888.247130,9992.780217
1577.141490,76.609550,-370.102971,10140.821405
1577.141808,-229.828649,370.102971,10140.821405
1577.142125,306.438199,888.247130,10066.800811
1577.142443,1149.143247,1258.350101,9918.759623
1577.142760,689.485948,1480.411884,9030.512492
1577.143077,229.828649,1702.473667,8216.285956
1577.143395,766.095498,1332.370696,8586.388927
1577.143712,995.924147,444.123565,9474.636058
1577.144030,1149.143247,-222.061783,9474.636058
1577.144347,536.266849,-888.247130,9104.533087
1577.144664,766.095498,-296.082377,8512.368333
1577.144982,689.485948,-222.061783,9178.553681
1577.145299,1225.752797,-0.000000,9030.512492
1577.145617,383.047749,148.041188,8734.430116
1577.145934,0.000000,518.144159,8660.409521
1577.146252,-383.047749,148.041188,9030.512492
1577.146569,0.000000,-666.185348,9548.656652
1577.146886,0.000000,-962.267725,10436.903782
1577.147204,0.000000,-0.000000,10066.800811
1577.147521,383.047749,296.082377,9696.697840
1577.147839,689.485948,370.102971,10140.821405
1577.148156,1455.581446,740.205942,10066.800811
1577.148473,1762.019645,1480.411884,9178.553681
1577.148791,1838.629195,1998.556043,8142.265362
1577.149108,2145.067394,2072.576638,8142.265362
1577.149426,2298.286494,1258.350101,8734.430116
1577.149743,1991.848295,444.123565,9400.615463
1577.150061,1302.362347,-0.000000,9474.636058
1577.150378,919.314598,-0.000000,9770.718434
1577.150695,842.705048,-74.020594,9992.780217
1577.151013,1149.143247,-74.020594,10066.800811
1577.151330,766.095498,-0.000000,9548.656652
1577.151648,229.828649,370.102971,9474.636058
1577.151965,0.000000,-74.020594,9474.636058
1577.152283,76.609550,-370.102971,9992.780217
1577.152600,306.438199,-444.123565,10807.006753
1577.152917,229.828649,-444.123565,10807.006753
1577.153235,-153.219100,-74.020594,10658.965565
1577.153552,0.000000,222.061783,10362.883188
1577.153870,689.485948,296.082377,10584.944971
1577.154187,1072.533697,740.205942,9696.697840
1577.154504,1455.581446,1184.329507,8364.327145
1577.154822,1685.410096,1850.514855,6957.935855
1577.155139,2221.676944,888.247130,7846.182985
1577.155457,2068.457845,-444.123565,8586.388927
1577.155774,1685.410096,-814.226536,8586.388927
1577.156092,1149.143247,-888.247130,8956.491898
1577.156409,76.609550,-444.123565,9548.656652
1577.156726,76.609550,-296.082377,9844.739029
1577.157044,0.000000,-0.000000,9622.677246
1577.157361,-383.047749,296.082377,9770.718434
1577.157679,-459.657299,444.123565,9326.594869
1577.157996,-459.657299,592.164754,8882.471304
1577.158313,-306.438199,-0.000000,9548.656652
1577.158631,-153.219100,-444.123565,10510.924376
1577.158948,-229.828649,-222.061783,10510.924376
1577.159266,0.000000,-0.000000,10288.862594
1577.159583,306.438199,666.185348,10066.800811
1577.159901,995.924147,740.205942,10288.862594
1577.160218,1532.190996,1184.329507,9104.533087
1577.160535,1838.629195,1406.391290,7994.224174
1577.160853,2068.457845,370.102971,7772.162391
1577.161170,1991.848295,148.041188,8290.306550
1577.161488,1838.629195,-666.185348,8660.409521
1577.161805,1838.629195,-666.185348,8512.368333
1577.162122,1302.362347,-740.205942,9030.512492
1577.162440,383.047749,-296.082377,9252.574275
1577.162757,383.047749,-370.102971,9696.697840
1577.163075,306.438199,-0.000000,9844.739029
1577.163392,-153.219100,-74.020594,9474.636058
1577.163710,-153.219100,222.061783,9252.574275
1577.164027,-689.485948,-148.041188,9474.636058
1577.164344,-383.047749,-370.102971,10732.986159
1577.164662,0.000000,-740.205942,10807.006753
1577.164979,0.000000,-74.020594,10658.965565
1577.165297,306.438199,222.061783,10436.903782
1577.165614,383.047749,444.123565,10584.944971
1577.165931,919.314598,444.123565,9992.780217
1577.166249,1302.362347,518.144159,9474.636058
1577.166566,1838.629195,1406.391290,8290.306550
1577.166884,1838.629195,888.247130,7698.141797
1577.167201,2374.896044,518.144159,8290.306550
1577.167519,2451.505594,-74.020594,8586.388927
1577.167836,2451.505594,-888.247130,8364.327145
1577.168153,1378.971896,-814.226536,9178.553681
1577.168471,1532.190996,-666.185348,9400.615463
1577.168788,1149.143247,-0.000000,9252.574275
1577.169106,1149.143247,1110.308913,8882.471304
1577.169423,536.266849,1036.288319,8660.409521
1577.169741,536.266849,888.247130,9400.615463
1577.170058,919.314598,-518.144159,9918.759623
1577.170375,383.047749,-0.000000,11251.130318
1577.170693,766.095498,222.061783,10066.800811
1577.171010,306.438199,1924.535449,9696.697840
1577.171328,919.314598,1628.453072,10288.862594
1577.171645,459.657299,1850.514855,10140.821405
1577.171962,1149.143247,1036.288319,10140.821405
1577.172280,995.924147,1406.391290,9844.739029
1577.172597,1838.629195,1480.411884,8956.491898
1577.172915,2068.457845,1184.329507,8586.388927
1577.173232,1455.581446,-0.000000,8142.265362
1577.173550,1532.190996,-1554.432478,9548.656652
1577.173867,612.876398,-518.144159,8438.347739
1577.174184,1455.581446,-888.247130,9030.512492
1577.174502,919.314598,518.144159,8956.491898
1577.174819,842.705048,814.226536,9400.615463
1577.175137,-229.828649,1850.514855,7476.080014
1577.175454,0.000000,814.226536,8882.471304
1577.175771,-1072.533697,518.144159,9104.533087
1577.176089,-612.876398,-1036.288319,9844.739029
1577.176406,-1072.533697,-148.041188,10066.800811
1577.176724,-689.485948,-222.061783,10732.986159
1577.177041,-383.047749,370.102971,9918.759623
1577.177359,-229.828649,370.102971,9992.780217
1577.177676,76.609550,370.102971,10584.944971
1577.177993,229.828649,888.247130,9474.636058
1577.178311,689.485948,1480.411884,8882.471304
1577.178628,919.314598,1628.453072,8364.327145
1577.178946,1378.971896,1332.370696,9474.636058
1577.179263,1072.533697,740.205942,8734.430116
1577.179580,1149.143247,666.185348,7920.203579
1577.179898,1225.752797,444.123565,9104.533087
1577.180215,919.314598,-0.000000,8956.491898
1577.180533,153.219100,-0.000000,8808.450710
1577.180850,689.485948,-370.102971,9400.615463
1577.181168,383.047749,-370.102971,9548.656652
1577.181485,-536.266849,-296.082377,9178.553681
1577.181802,229.828649,-1258.350101,10658.965565
1577.182120,76.609550,-1776.494261,10955.047942
1577.182437,459.657299,-1554.432478,11103.089130
1577.182755,76.609550,-148.041188,9992.780217
1577.183072,76.609550,-74.020594,10584.944971
1577.183390,919.314598,370.102971,10584.944971
1577.183707,1991.848295,962.267725,9696.697840
1577.184024,1762.019645,1702.473667,8512.368333
1577.184342,1685.410096,1702.473667,8216.285956
1577.184659,2068.457845,444.123565,8660.409521
1577.184977,2068.457845,-74.020594,9178.553681
1577.185294,2145.067394,-1332.370696,9844.739029
1577.185611,1149.143247,-1406.391290,9474.636058
1577.185929,766.095498,-1036.288319,9770.718434
1577.186246,1532.190996,-1258.350101,10214.842000
1577.186564,1532.190996,-0.000000,9178.553681
1577.186881,1455.581446,814.226536,8734.430116
1577.187199,383.047749,666.185348,8142.265362
1577.187516,612.876398,74.020594,8808.450710
1577.187833,229.828649,-1036.288319,9844.739029
1577.188151,76.609550,-2146.597232,10288.862594
1577.188468,-689.485948,-1184.329507,10140.821405
1577.188786,0.000000,-444.123565,9622.677246
1577.189103,153.219100,-518.144159,9844.739029
1577.189420,689.485948,-222.061783,9918.759623
1577.189738,1149.143247,-148.041188,9400.615463
1577.190055,766.095498,814.226536,7698.141797
1577.190373,1608.800546,1554.432478,7031.956449
1577.190690,1302.362347,1480.411884,7254.018232
1577.191008,1838.629195,222.061783,8290.306550
1577.191325,459.657299,666.185348,7772.162391
1577.191642,459.657299,-0.000000,8882.471304
1577.191960,229.828649,370.102971,8734.430116
1577.192277,0.000000,666.185348,9030.512492
1577.192595,-153.219100,-74.020594,9696.697840
1577.192912,-766.095498,-0.000000,9326.594869
1577.193229,-1455.581446,-0.000000,9030.512492
1577.193547,-995.924147,592.164754,9252.574275
1577.193864,-919.314598,-0.000000,10732.986159
1577.194182,-919.314598,222.061783,10584.944971
1577.194499,-612.876398,-0.000000,10362.883188
1577.194816,-612.876398,-74.020594,10807.006753
1577.195134,383.047749,222.061783,11399.171507
1577.195451,1072.533697,962.267725,10288.862594
1577.195768,1762.019645,2146.597232,8290.306550
1577.196086,2298.286494,2738.761985,7328.038826
1577.196403,2451.505594,1184.329507,7846.182985
1577.196720,2681.334243,518.144159,8882.471304
1577.197038,2298.286494,-0.000000,9178.553681
1577.197355,2068.457845,-74.020594,9474.636058
1577.197673,1302.362347,592.164754,9400.615463
1577.197990,1608.800546,666.185348,9918.759623
1577.198307,995.924147,148.041188,9992.780217
1577.198625,1455.581446,296.082377,10066.800811
1577.198942,306.438199,222.061783,9474.636058
1577.199259,842.705048,296.082377,10288.862594
1577.199577,1532.190996,370.102971,10362.883188
1577.199894,1225.752797,444.123565,10288.862594
1577.200211,612.876398,518.144159,10807.006753
1577.200529,306.438199,370.102971,10436.903782
1577.200846,153.219100,888.247130,10288.862594
1577.201164,1762.019645,1258.350101,11029.068536
1577.201481,2451.505594,1628.453072,10066.800811
1577.201798,1149.143247,1776.494261,8512.368333
1577.202116,1762.019645,1850.514855,8290.306550
1577.202433,2068.457845,1110.308913,8586.388927
1577.202750,2374.896044,370.102971,8586.388927
1577.203068,1455.581446,-0.000000,8290.306550
1577.203385,383.047749,-370.102971,9104.533087
1577.203702,153.219100,-444.123565,9696.697840
1577.204020,0.000000,-370.102971,10510.924376
1577.204337,-383.047749,444.123565,10140.821405
1577.204654,-766.095498,740.205942,9548.656652
1577.204972,-1608.800546,1036.288319,8290.306550
1577.205289,-766.095498,296.082377,9474.636058
1577.205607,-536.266849,-518.144159,10066.800811
1577.205924,0.000000,-1258.350101,10584.944971
1577.206241,-153.219100,-518.144159,10140.821405
1577.206559,153.219100,148.041188,11251.130318
1577.206876,919.314598,370.102971,10436.903782
1577.207193,1455.581446,592.164754,9548.656652
1577.207511,1149.143247,1406.391290,8734.430116
1577.207828,612.876398,1480.411884,8142.265362
1577.208145,1685.410096,1554.432478,7920.203579
1577.208463,2145.067394,962.267725,8586.388927
1577.208780,1915.238745,-296.082377,8882.471304
1577.209098,1378.971896,-1184.329507,9104.533087
1577.209415,1149.143247,-2294.638420,8808.450710
1577.209732,1149.143247,-1554.432478,9548.656652
1577.210050,1149.143247,-888.247130,9326.594869
1577.210367,612.876398,-0.000000,8660.409521
1577.210684,459.657299,444.123565,8364.327145
1577.211002,0.000000,222.061783,8956.491898
1577.211319,-153.219100,-740.205942,9474.636058
1577.211636,-229.828649,-888.247130,9992.780217
1577.211954,-153.219100,-296.082377,10214.842000
1577.212271,306.438199,-222.061783,10288.862594
1577.212588,919.314598,-74.020594,10362.883188
1577.212906,1072.533697,-0.000000,10510.924376
1577.213223,1608.800546,444.123565,9474.636058
1577.213541,2298.286494,2072.576638,7624.121203
1577.213858,2757.943793,1850.514855,7105.977043
1577.214175,2757.943793,1184.329507,8290.306550
1577.214493,2221.676944,-148.041188,8586.388927
1577.214810,1685.410096,-666.185348,8512.368333
1577.215127,1149.143247,-666.185348,9400.615463
1577.215445,995.924147,-1110.308913,9918.759623
1577.215762,995.924147,-74.020594,9474.636058
1577.216079,689.485948,-0.000000,9104.533087
1577.216397,229.828649,-444.123565,8956.491898
1577.216714,459.657299,-0.000000,8882.471304
1577.217032,76.609550,-0.000000,9030.512492
1577.217349,0.000000,-74.020594,9548.656652
1577.217666,0.000000,-0.000000,10658.965565
1577.217984,-306.438199,-0.000000,10140.821405
1577.218301,-919.314598,444.123565,9918.759623
1577.218618,-612.876398,444.123565,10584.944971
1577.218936,153.219100,666.185348,10658.965565
1577.219253,612.876398,1480.411884,9252.574275
1577.219570,306.438199,1184.329507,8512.368333
1577.219888,306.438199,296.082377,9326.594869
1577.220205,1072.533697,-74.020594,9474.636058
1577.220522,1149.143247,-296.082377,9474.636058
1577.220840,612.876398,-74.020594,9326.594869
1577.221157,229.828649,-0.000000,9696.697840
1577.221475,0.000000,-0.000000,10066.800811
1577.221792,306.438199,-148.041188,10214.842000
1577.222109,306.438199,-0.000000,10362.883188
1577.222427,-459.657299,740.205942,8956.491898
1577.222744,-229.828649,888.247130,8808.450710
1577.223061,306.438199,-74.020594,9178.553681
1577.223379,1072.533697,-888.247130,10288.862594
1577.223696,536.266849,-1036.288319,10288.862594
1577.224013,612.876398,-592.164754,10436.903782
1577.224331,536.266849,444.123565,10584.944971
1577.224648,1225.752797,1258.350101,10214.842000
1577.224966,1762.019645,1406.391290,9326.594869
1577.225283,1302.362347,1776.494261,8956.491898
1577.225600,1532.190996,1998.556043,8512.368333
1577.225918,1378.971896,1480.411884,8290.306550
1577.226235,2298.286494,370.102971,9326.594869
1577.226552,2221.676944,-74.020594,9474.636058
1577.226870,1455.581446,-148.041188,9104.533087
1577.227187,1762.019645,-148.041188,9474.636058
1577.227504,1762.019645,-0.000000,9474.636058
1577.227822,1455.581446,444.123565,9696.697840
1577.228139,1225.752797,1332.370696,8512.368333
1577.228456,1149.143247,1776.494261,8512.368333
1577.228774,766.095498,888.247130,8660.409521
1577.229091,1225.752797,-0.000000,10066.800811
1577.229409,1225.752797,-444.123565,9992.780217
1577.229726,842.705048,-296.082377,9844.739029
1577.230043,1149.143247,-74.020594,9992.780217
1577.230361,1455.581446,-0.000000,9918.759623
1577.230678,2068.457845,296.082377,9696.697840
1577.230995,2298.286494,1184.329507,8734.430116
1577.231313,2145.067394,1554.432478,7772.162391
1577.231630,1915.238745,1332.370696,8142.265362
1577.231947,1991.848295,592.164754,8364.327145
1577.232265,1532.190996,-0.000000,9178.553681
1577.232582,995.924147,-0.000000,9178.553681
1577.232900,536.266849,-0.000000,8956.491898
1577.233217,306.438199,-222.061783,9474.636058
1577.233534,76.609550,-0.000000,9548.656652
1577.233852,0.000000,74.020594,9252.574275
1577.234169,-229.828649,370.102971,8882.471304
1577.234486,-766.095498,-74.020594,9252.574275
1577.234804,-1532.190996,-518.144159,9918.759623
1577.235121,-1072.533697,-1110.308913,10214.842000
1577.235438,-1302.362347,-666.185348,11029.068536
1577.235756,-1455.581446,-518.144159,10732.986159
1577.236073,-1302.362347,-0.000000,10362.883188
1577.236390,-612.876398,444.123565,10436.903782
1577.236708,153.219100,666.185348,10362.883188
1577.237025,459.657299,1258.350101,8734.430116
1577.237343,842.705048,1110.308913,7994.224174
1577.237660,1302.362347,518.144159,8068.244768
1577.237977,1532.190996,-0.000000,8808.450710
1577.238295,1225.752797,-962.267725,9326.594869
1577.238612,842.705048,-592.164754,9474.636058
1577.238929,229.828649,-0.000000,9400.615463
1577.239247,459.657299,-0.000000,9622.677246
1577.239564,0.000000,-148.041188,9622.677246
1577.239881,153.219100,148.041188,9474.636058
1577.240199,-306.438199,222.061783,8808.450710
1577.240516,-153.219100,-296.082377,8882.471304
1577.240834,0.000000,-1110.308913,10362.883188
1577.241151,0.000000,-2294.638420,11251.130318
1577.241468,-229.828649,-1480.411884,11029.068536
1577.241786,-306.438199,-962.267725,10881.027347
1577.242103,0.000000,-0.000000,11103.089130
1577.242420,842.705048,666.185348,10732.986159
1577.242738,1378.971896,1924.535449,9178.553681
1577.243055,2451.505594,2220.617826,8216.285956
1577.243372,3064.381992,1924.535449,7476.080014
1577.243690,3600.648841,962.267725,7624.121203
1577.244007,3983.696590,-0.000000,8068.244768
1577.244325,4443.353888,-518.144159,8438.347739
1577.244642,3370.820191,-0.000000,8290.306550
1577.244959,3064.381992,148.041188,8808.450710
1577.245277,2757.943793,592.164754,8956.491898
1577.245594,2068.457845,740.205942,9030.512492
1577.245911,919.314598,962.267725,8512.368333
1577.246229,153.219100,592.164754,8586.388927
1577.246546,0.000000,-0.000000,8808.450710
1577.246863,-383.047749,-444.123565,9918.759623
1577.247181,0.000000,-962.267725,10955.047942
1577.247498,-306.438199,-814.226536,10510.924376
1577.247815,-383.047749,-444.123565,10584.944971
1577.248133,0.000000,518.144159,10732.986159
1577.248450,689.485948,962.267725,10288.862594
1577.248768,536.266849,1998.556043,8734.430116
1577.249085,612.876398,2368.659014,8142.265362
1577.249402,1149.143247,1702.473667,7698.141797
1577.249720,1378.971896,1036.288319,8068.244768
1577.250037,1685.410096,296.082377,8734.430116
1577.250354,1225.752797,-0.000000,8586.388927
1577.250672,459.657299,-666.185348,9030.512492
1577.250989,-153.219100,-740.205942,9178.553681
1577.251306,-459.657299,-1258.350101,9918.759623
1577.251624,-919.314598,-592.164754,9548.656652
1577.251941,-1685.410096,148.041188,9030.512492
1577.252259,-2145.067394,-0.000000,9400.615463
1577.252576,-2068.457845,-74.020594,10214.842000
1577.252893,-1915.238745,-666.185348,11103.089130
1577.253211,-1838.629195,-962.267725,11399.171507
1577.253528,-2068.457845,-592.164754,11621.233289
1577.253845,-1302.362347,222.061783,11103.089130
1577.254163,0.000000,814.226536,10732.986159
1577.254480,995.924147,1628.453072,10214.842000
1577.254797,1915.238745,1850.514855,8956.491898
1577.255115,1685.410096,2072.576638,7920.203579
1577.255432,2374.896044,1480.411884,7846.182985
1577.255749,2451.505594,518.144159,8734.430116
1577.256067,2374.896044,-0.000000,8734.430116
1577.256384,1532.190996,-0.000000,8808.450710
1577.256702,1072.533697,-592.164754,9400.615463
1577.257019,1302.362347,-814.226536,10066.800811
1577.257336,1302.362347,-592.164754,9622.677246
1577.257654,1225.752797,444.123565,8956.491898
1577.257971,1149.143247,148.041188,8734.430116
1577.258288,1685.410096,-0.000000,9474.636058
1577.258606,1455.581446,-666.185348,9622.677246
1577.258923,1991.848295,-740.205942,10436.903782
1577.259240,1302.362347,-370.102971,9992.780217
1577.259558,1838.629195,740.205942,10362.883188
1577.259875,2145.067394,1110.308913,9918.759623
1577.260193,2604.724693,1924.535449,9548.656652
1577.260510,2681.334243,2072.576638,8882.471304
1577.260827,2528.115143,2368.659014,7920.203579
1577.261145,2451.505594,1258.350101,7698.141797
1577.261462,2757.943793,592.164754,8512.368333
1577.261779,2451.505594,-370.102971,9030.512492
1577.262097,1685.410096,-888.247130,9030.512492
1577.262414,766.095498,-1258.350101,9622.677246
1577.262731,76.609550,-814.226536,10140.821405
1577.263049,0.000000,-148.041188,10140.821405
1577.263366,-383.047749,-74.020594,10066.800811
1577.263683,-919.314598,370.102971,9252.574275
1577.264001,-995.924147,296.082377,9326.594869
1577.264318,-766.095498,-296.082377,9474.636058
1577.264636,-536.266849,-814.226536,10066.800811
1577.264953,-383.047749,-666.185348,10214.842000
1577.265270,-612.876398,-444.123565,9770.718434
1577.265588,0.000000,148.041188,9844.739029
1577.265905,0.000000,296.082377,10140.821405
1577.266222,383.047749,888.247130,9252.574275
1577.266540,383.047749,1480.411884,8216.285956
1577.266857,0.000000,2146.597232,8364.327145
1577.267174,153.219100,740.205942,8438.347739
1577.267492,383.047749,-74.020594,9326.594869
1577.267809,229.828649,-222.061783,9252.574275
1577.268127,-383.047749,-370.102971,9400.615463
1577.268444,-689.485948,-222.061783,9548.656652
1577.268761,-612.876398,222.061783,9622.677246
1577.269079,0.000000,296.082377,9696.697840
1577.269396,-229.828649,814.226536,9104.533087
1577.269713,-459.657299,740.205942,9030.512492
1577.270031,-153.219100,296.082377,9474.636058
1577.270348,0.000000,222.061783,9844.739029
1577.270665,0.000000,-222.061783,10436.903782
1577.270983,306.438199,-296.082377,10658.965565
1577.271300,995.924147,-148.041188,10732.986159
1577.271617,995.924147,-0.000000,10807.006753
1577.271935,2145.067394,888.247130,10362.883188
1577.272252,2374.896044,1406.391290,9400.615463
1577.272570,2451.505594,1850.514855,8438.347739
1577.272887,2528.115143,962.267725,8068.244768
1577.273204,2681.334243,444.123565,8660.409521
1577.273522,2987.772442,-222.061783,9326.594869
1577.273839,2987.772442,-444.123565,9030.512492
1577.274156,2221.676944,-296.082377,9104.533087
1577.274474,1762.019645,-592.164754,9622.677246
1577.274791,1762.019645,-296.082377,9474.636058
1577.275108,1685.410096,444.123565,9622.677246
1577.275426,1608.800546,1036.288319,8956.491898
1577.275743,995.924147,1184.329507,8660.409521
1577.276061,995.924147,444.123565,9622.677246
1577.276378,842.705048,-148.041188,10140.821405
1577.276695,536.266849,-518.144159,11029.068536
1577.277013,0.000000,-370.102971,10732.986159
1577.277330,153.219100,296.082377,10732.986159
1577.277647,536.266849,740.205942,10288.862594
1577.277965,1378.971896,1036.288319,10214.842000
1577.278282,1915.238745,1702.473667,9104.533087
1577.278599,1915.238745,1776.494261,7624.121203
1577.278917,2374.896044,1184.329507,7846.182985
1577.279234,2681.334243,-148.041188,8512.368333
1577.279551,2528.115143,-518.144159,8364.327145
1577.279869,1991.848295,-740.205942,8290.306550
1577.280186,1378.971896,-148.041188,8290.306550
1577.280504,1685.410096,-0.000000,8660.409521
1577.280821,689.485948,-74.020594,8956.491898
1577.281138,76.609550,444.123565,8586.388927
1577.281456,-689.485948,148.041188,8438.347739
1577.281773,-995.924147,-74.020594,8808.450710
1577.282090,-1378.971896,-888.247130,9992.780217
1577.282408,-2145.067394,-1332.370696,10955.047942
1577.282725,-2068.457845,-888.247130,11029.068536
1577.283042,-2221.676944,-814.226536,10807.006753
1577.283360,-1915.238745,-148.041188,11251.130318
1577.283677,-842.705048,814.226536,11103.089130
1577.283995,-612.876398,1406.391290,9992.780217
1577.284312,0.000000,1332.370696,9030.512492
1577.284629,383.047749,1332.370696,8364.327145
1577.284947,766.095498,962.267725,8660.409521
1577.285264,2068.457845,-0.000000,9030.512492
1577.285581,1608.800546,-222.061783,8808.450710
1577.285899,1149.143247,-370.102971,8734.430116
1577.286216,1225.752797,-74.020594,8882.471304
1577.286533,1302.362347,-0.000000,9326.594869
1577.286851,1991.848295,-0.000000,9030.512492
1577.287168,1378.971896,-0.000000,8512.368333
1577.287485,536.266849,-0.000000,8734.430116
1577.287803,229.828649,-0.000000,9030.512492
1577.288120,766.095498,-222.061783,9918.759623
1577.288438,919.314598,-370.102971,10362.883188
1577.288755,306.438199,296.082377,10066.800811
1577.289072,459.657299,962.267725,10140.821405
1577.289390,1149.143247,1110.308913,10436.903782
1577.289707,1762.019645,1258.350101,10732.986159
1577.290024,1991.848295,1776.494261,9474.636058
1577.290342,1991.848295,1998.556043,8290.306550
1577.290659,2221.676944,1554.432478,8068.244768
1577.290976,2681.334243,148.041188,8956.491898
1577.291294,2911.162892,-592.164754,9326.594869
1577.291611,2374.896044,-148.041188,9104.533087
1577.291929,2145.067394,-74.020594,9104.533087
1577.292246,2068.457845,-74.020594,9178.553681
1577.292563,1608.800546,-296.082377,9844.739029
1577.292881,1608.800546,-0.000000,8882.471304
1577.293198,842.705048,666.185348,8512.368333
1577.293515,842.705048,222.061783,9178.553681
1577.293833,766.095498,-518.144159,9844.739029
1577.294150,1072.533697,-740.205942,10436.903782
1577.294467,536.266849,-814.226536,11251.130318
1577.294785,306.438199,-444.123565,10732.986159
1577.295102,536.266849,-222.061783,10362.883188
1577.295419,1378.971896,592.164754,10732.986159
1577.295737,1608.800546,1480.411884,9474.636058
1577.296054,1608.800546,1924.535449,8512.368333
1577.296371,1149.143247,1702.473667,7994.224174
1577.296689,1455.581446,1036.288319,8808.450710
1577.297006,1302.362347,518.144159,8956.491898
1577.297323,459.657299,296.082377,9104.533087
1577.297640,0.000000,-296.082377,8956.491898
1577.297958,0.000000,-444.123565,9474.636058
1577.298275,0.000000,-222.061783,9696.697840
1577.298592,-153.219100,-444.123565,9696.697840
1577.298910,-919.314598,-0.000000,9474.636058
1577.299227,-1225.752797,-0.000000,8734.430116
1577.299544,-1378.971896,-74.020594,9178.553681
1577.299861,-1302.362347,-222.061783,9770.718434
1577.300179,-1762.019645,-370.102971,9992.780217
1577.300496,-1072.533697,-222.061783,9770.718434
1577.300813,-1072.533697,296.082377,10214.842000
1577.301131,-153.219100,888.247130,10140.821405
1577.301448,153.219100,1184.329507,9474.636058
1577.301765,1455.581446,1850.514855,9030.512492
1577.302083,1149.143247,2294.638420,7402.059420
1577.302400,1608.800546,1628.453072,7550.100608
1577.302717,1915.238745,740.205942,8142.265362
1577.303034,1915.238745,148.041188,8882.471304
1577.303352,1762.019645,-148.041188,9030.512492
1577.303669,995.924147,-0.000000,8882.471304
1577.303986,766.095498,-0.000000,9548.656652
1577.304304,536.266849,-222.061783,10066.800811
1577.304621,0.000000,370.102971,9400.615463
1577.304938,-383.047749,592.164754,9030.512492
1577.305255,-306.438199,592.164754,9474.636058
1577.305573,0.000000,-370.102971,10214.842000
1577.305890,153.219100,-962.267725,10881.027347
1577.306207,459.657299,-1332.370696,11547.212695
1577.306525,-306.438199,-1258.350101,11103.089130
1577.306842,0.000000,-0.000000,11103.089130
1577.307159,1302.362347,740.205942,10436.903782
1577.307476,2145.067394,1184.329507,9474.636058
1577.307794,2298.286494,1110.308913,8660.409521
1577.308111,2298.286494,592.164754,8290.306550
1577.308428,2911.162892,-0.000000,8216.285956
1577.308746,2987.772442,-740.205942,8808.450710
1577.309063,2451.505594,-1258.350101,8882.471304
1577.309380,1838.629195,-1110.308913,9326.594869
1577.309697,1455.581446,-1036.288319,9548.656652
1577.310015,1149.143247,-370.102971,9474.636058
1577.310332,1149.143247,-222.061783,9696.697840
1577.310649,612.876398,444.123565,9030.512492
1577.310967,766.095498,370.102971,8660.409521
1577.311284,229.828649,222.061783,8512.368333
1577.311601,306.438199,-370.102971,10066.800811
1577.311919,0.000000,-814.226536,10881.027347
1577.312236,0.000000,-370.102971,10140.821405
1577.312553,0.000000,444.123565,10288.862594
1577.312870,689.485948,814.226536,10658.965565
1577.313188,842.705048,1332.370696,10140.821405
1577.313505,1302.362347,1554.432478,8882.471304
1577.313822,1455.581446,1554.432478,7920.203579
1577.314140,2068.457845,1110.308913,7550.100608
1577.314457,2604.724693,-0.000000,7920.203579
1577.314774,2221.676944,-666.185348,8512.368333
1577.315091,1302.362347,-740.205942,8734.430116
1577.315409,919.314598,-592.164754,8290.306550
1577.315726,689.485948,-222.061783,9252.574275
1577.316043,689.485948,-74.020594,9918.759623
1577.316361,383.047749,814.226536,9474.636058
1577.316678,0.000000,740.205942,8882.471304
1577.316995,-689.485948,296.082377,9474.636058
1577.317312,153.219100,-0.000000,9548.656652
1577.317630,229.828649,-222.061783,9992.780217
1577.317947,0.000000,-444.123565,10214.842000
1577.318264,-306.438199,-148.041188,10584.944971
1577.318582,-612.876398,444.123565,10214.842000
1577.318899,-229.828649,1258.350101,9844.739029
1577.319216,306.438199,1184.329507,10288.862594
1577.319533,0.000000,1406.391290,9030.512492
1577.319851,-153.219100,1628.453072,8438.347739
1577.320168,153.219100,592.164754,8586.388927
1577.320485,766.095498,-0.000000,9252.574275
1577.320803,919.314598,-444.123565,9252.574275
1577.321120,383.047749,-296.082377,9104.533087
1577.321437,383.047749,-74.020594,9474.636058
1577.321755,536.266849,-222.061783,9474.636058
1577.322072,919.314598,296.082377,9548.656652
1577.322389,306.438199,666.185348,8956.491898
1577.322706,76.609550,962.267725,8734.430116
1577.323024,-229.828649,888.247130,8882.471304
1577.323341,383.047749,222.061783,9548.656652
1577.323658,612.876398,-370.102971,10436.903782
1577.323976,306.438199,-74.020594,10658.965565
1577.324293,306.438199,-0.000000,10362.883188
1577.324610,306.438199,-0.000000,11251.130318
1577.324927,1225.752797,518.144159,10658.965565
1577.325245,1378.971896,888.247130,9918.759623
1577.325562,1149.143247,1628.453072,8882.471304
1577.325879,1302.362347,1332.370696,8660.409521
1577.326197,1302.362347,814.226536,9474.636058
1577.326514,1838.629195,-0.000000,9400.615463
1577.326831,1455.581446,-296.082377,9622.677246
1577.327148,1072.533697,-592.164754,9622.677246
1577.327466,1225.752797,-518.144159,9770.718434
1577.327783,1455.581446,-0.000000,9992.780217
1577.328100,1685.410096,-0.000000,9918.759623
1577.328418,1455.581446,222.061783,9252.574275
1577.328735,766.095498,518.144159,8956.491898
1577.329052,1225.752797,-0.000000,9104.533087
1577.329369,1072.533697,-666.185348,9918.759623
1577.329687,1225.752797,-666.185348,10140.821405
1577.330004,995.924147,-148.041188,10066.800811
1577.330321,1149.143247,296.082377,10066.800811
1577.330639,1302.362347,666.185348,9992.780217
1577.330956,1915.238745,962.267725,9622.677246
1577.331273,2068.457845,1480.411884,8734.430116
1577.331591,1532.190996,1850.514855,7698.141797
1577.331908,1685.410096,1628.453072,7698.141797
1577.332225,1915.238745,592.164754,8290.306550
1577.332542,1455.581446,518.144159,8586.388927
1577.332860,459.657299,-0.000000,8364.327145
1577.333177,-229.828649,-0.000000,9178.553681
1577.333494,-459.657299,-222.061783,9844.739029
1577.333812,-1225.752797,-370.102971,9622.677246
1577.334129,-1685.410096,-0.000000,9326.594869
1577.334446,-1991.848295,444.123565,8882.471304
1577.334763,-1991.848295,-0.000000,8734.430116
1577.335081,-1685.410096,-888.247130,9474.636058
1577.335398,-995.924147,-1258.350101,9992.780217
1577.335715,-1378.971896,-1258.350101,9992.780217
1577.336033,-919.314598,-666.185348,9770.718434
1577.336350,-689.485948,-222.061783,9992.780217
1577.336667,612.876398,148.041188,10362.883188
1577.336984,689.485948,1110.308913,9104.533087
1577.337302,1225.752797,1628.453072,7846.182985
1577.337619,1455.581446,1554.432478,7328.038826
1577.337936,2374.896044,888.247130,7994.224174
1577.338254,2451.505594,-370.102971,8142.265362
1577.338571,2068.457845,-740.205942,8734.430116
1577.338888,1302.362347,-740.205942,9252.574275
1577.339205,689.485948,-740.205942,9474.636058
1577.339523,766.095498,148.041188,10436.903782
1577.339840,612.876398,814.226536,9992.780217
1577.340157,153.219100,888.247130,9696.697840
1577.340475,0.000000,666.185348,9696.697840
1577.340792,0.000000,-0.000000,10066.800811
1577.341109,383.047749,-888.247130,11029.068536
1577.341427,766.095498,-1702.473667,11695.253884
1577.341744,536.266849,-1628.453072,11473.192101
1577.342061,919.314598,-666.185348,10732.986159
1577.342378,1762.019645,148.041188,10288.862594
1577.342696,2757.943793,666.185348,10066.800811
1577.343013,3217.601092,1406.391290,8290.306550
1577.343330,3140.991542,1850.514855,7179.997637
1577.343648,3447.429741,1554.432478,7105.977043
1577.343965,3447.429741,592.164754,7624.121203
1577.344282,3677.258390,-592.164754,8142.265362
1577.344599,2451.505594,-370.102971,8216.285956
1577.344917,1149.143247,-814.226536,9104.533087
1577.345234,1149.143247,-814.226536,10140.821405
1577.345551,536.266849,-666.185348,10436.903782
1577.345869,229.828649,-222.061783,10362.883188
1577.346186,-536.266849,370.102971,9770.718434
1577.346503,-612.876398,666.185348,9622.677246
1577.346820,-612.876398,444.123565,10362.883188
1577.347138,-229.828649,518.144159,10584.944971
1577.347455,153.219100,666.185348,10066.800811
1577.347772,229.828649,888.247130,9770.718434
1577.348090,612.876398,962.267725,9696.697840
1577.348407,1532.190996,1332.370696,9622.677246
1577.348724,2145.067394,1332.370696,8660.409521
1577.349041,1991.848295,1628.453072,7920.203579
1577.349359,1838.629195,1406.391290,7105.977043
1577.349676,1915.238745,814.226536,7624.121203
1577.349993,1762.019645,222.061783,8290.306550
1577.350311,1302.362347,-444.123565,8290.306550
1577.350628,76.609550,-518.144159,8438.347739
1577.350945,-842.705048,-518.144159,9104.533087
1577.351263,-766.095498,-0.000000,9622.677246
1577.351580,-1225.752797,444.123565,9696.697840
1577.351897,-1762.019645,666.185348,9918.759623
1577.352214,-2145.067394,592.164754,9474.636058
1577.352532,-2145.067394,592.164754,9474.636058
1577.352849,-1225.752797,-0.000000,10510.924376
1577.353166,-306.438199,-222.061783,11103.089130
1577.353484,-919.314598,-0.000000,10955.047942
1577.353801,-383.047749,444.123565,10436.903782
1577.354118,0.000000,1036.288319,9992.780217
1577.354435,1072.533697,1110.308913,9992.780217
1577.354753,1455.581446,1554.432478,8808.450710
1577.355070,1072.533697,2220.617826,7846.182985
1577.355387,1149.143247,1776.494261,7402.059420
1577.355705,1225.752797,444.123565,8290.306550
1577.356022,2068.457845,-666.185348,9474.636058
1577.356339,1455.581446,-962.267725,9178.553681
1577.356656,766.095498,-962.267725,9326.594869
1577.356974,459.657299,-1110.308913,10214.842000
1577.357291,995.924147,-444.123565,10584.944971
1577.357608,1455.581446,-0.000000,9992.780217
1577.357926,536.266849,592.164754,9252.574275
1577.358243,306.438199,740.205942,9474.636058
1577.358560,612.876398,296.082377,9474.636058
1577.358877,1149.143247,-0.000000,10288.862594
1577.359195,995.924147,-296.082377,10881.027347
1577.359512,689.485948,-0.000000,10362.883188
1577.359829,1378.971896,666.185348,9992.780217
1577.360147,2068.457845,1110.308913,10732.986159
1577.360464,2374.896044,1184.329507,9844.739029
1577.360781,2374.896044,1184.329507,8586.388927
1577.361099,2068.457845,1258.350101,7920.203579
1577.361416,2451.505594,444.123565,8586.388927
1577.361733,2451.505594,-740.205942,9400.615463
1577.362050,2068.457845,-1258.350101,9252.574275
1577.362368,1378.971896,-1036.288319,9474.636058
1577.362685,995.924147,-592.164754,9548.656652
1577.363002,1302.362347,-888.247130,9474.636058
1577.363320,1455.581446,-370.102971,9548.656652
1577.363637,612.876398,222.061783,9252.574275
1577.363954,612.876398,740.205942,8290.306550
1577.364271,383.047749,444.123565,8512.368333
1577.364589,459.657299,-444.123565,9474.636058
1577.364906,459.657299,-296.082377,9918.759623
1577.365223,0.000000,-148.041188,9844.739029
1577.365541,-306.438199,148.041188,9622.677246
1577.365858,153.219100,370.102971,9474.636058
1577.366175,383.047749,740.205942,9474.636058
1577.366492,153.219100,1332.370696,8882.471304
1577.366810,306.438199,1406.391290,7920.203579
1577.367127,0.000000,962.267725,7772.162391
1577.367444,153.219100,444.123565,8882.471304
1577.367762,0.000000,-148.041188,9252.574275
1577.368079,-306.438199,-518.144159,9104.533087
1577.368396,-1608.800546,-888.247130,9104.533087
1577.368713,-1302.362347,-444.123565,9622.677246
1577.369031,-1072.533697,-0.000000,9844.739029
1577.369348,-842.705048,-74.020594,9474.636058
1577.369665,-536.266849,-0.000000,9030.512492
1577.369983,-1378.971896,222.061783,8882.471304
1577.370300,-842.705048,-370.102971,9400.615463
1577.370617,0.000000,-962.267725,9622.677246
1577.370935,0.000000,-1110.308913,10214.842000
1577.371252,383.047749,-370.102971,10066.800811
1577.371569,459.657299,666.185348,9918.759623
1577.371886,1532.190996,888.247130,10140.821405
1577.372204,2145.067394,1258.350101,9770.718434
1577.372521,2145.067394,1628.453072,8586.388927
1577.372838,1915.238745,1628.453072,7772.162391
1577.373156,2298.286494,888.247130,8586.388927
1577.373473,2757.943793,518.144159,8956.491898
1577.373790,2451.505594,148.041188,9548.656652
1577.374107,2068.457845,148.041188,9844.739029
1577.374425,1608.800546,222.061783,10288.862594
1577.374742,1915.238745,592.164754,9992.780217
1577.375059,2298.286494,148.041188,10510.924376
1577.375377,1762.019645,666.185348,10140.821405
1577.375694,1838.629195,1184.329507,9030.512492
1577.376011,1378.971896,1036.288319,9178.553681
1577.376328,2145.067394,-0.000000,9918.759623
1577.376646,2221.676944,-148.041188,10658.965565
1577.376963,2145.067394,-592.164754,10288.862594
1577.377280,2145.067394,-222.061783,9474.636058
1577.377598,2374.896044,-148.041188,9992.780217
1577.377915,2528.115143,444.123565,9770.718434
1577.378232,2757.943793,1036.288319,8882.471304
1577.378550,2451.505594,1554.432478,7624.121203
1577.378867,2451.505594,1628.453072,7846.182985
1577.379184,2298.286494,740.205942,8216.285956
1577.379501,2451.505594,-222.061783,8808.450710
1577.379819,1838.629195,-148.041188,8808.450710
1577.380136,995.924147,-444.123565,9104.533087
1577.380453,919.314598,296.082377,9548.656652
1577.380771,383.047749,518.144159,9696.697840
1577.381088,0.000000,962.267725,9030.512492
1577.381405,-1072.533697,1406.391290,9030.512492
1577.381722,-1302.362347,1110.308913,9178.553681
1577.382040,-1378.971896,888.247130,9178.553681
1577.382357,-1072.533697,-0.000000,10362.883188
1577.382674,-1225.752797,-666.185348,10658.965565
1577.382992,-1532.190996,-666.185348,10436.903782
1577.383309,-1532.190996,-0.000000,9992.780217
1577.383626,-612.876398,592.164754,10214.842000
1577.383943,-229.828649,888.247130,9622.677246
1577.384261,76.609550,1332.370696,8956.491898
1577.384578,76.609550,1258.350101,8142.265362
1577.384895,306.438199,370.102971,8216.285956
1577.385213,536.266849,-370.102971,8808.450710
1577.385530,612.876398,-1036.288319,9326.594869
1577.385847,612.876398,-814.226536,8882.471304
1577.386164,459.657299,-370.102971,8956.491898
1577.386482,612.876398,-370.102971,9474.636058
1577.386799,306.438199,-0.000000,9696.697840
1577.387116,383.047749,148.041188,9474.636058
1577.387434,0.000000,962.267725,9104.533087
1577.387751,-919.314598,222.061783,9178.553681
1577.388068,-229.828649,-0.000000,10140.821405
1577.388386,76.609550,-666.185348,10955.047942
1577.388703,0.000000,-370.102971,11399.171507
1577.389020,0.000000,-296.082377,11325.150913
1577.389337,766.095498,-0.000000,11177.109724
1577.389655,1225.752797,666.185348,10214.842000
1577.389972,1991.848295,666.185348,9992.780217
1577.390289,2451.505594,1628.453072,8438.347739
1577.390607,2451.505594,1480.411884,7846.182985
1577.390924,2834.553343,1036.288319,8438.347739
1577.391241,3600.648841,222.061783,8660.409521
1577.391558,3370.820191,-370.102971,8808.450710
1577.391876,2757.943793,-370.102971,8882.471304
1577.392193,2451.505594,-0.000000,9178.553681
1577.392510,1838.629195,-148.041188,9252.574275
1577.392828,2068.457845,222.061783,8882.471304
1577.393145,1455.581446,296.082377,8882.471304
1577.393462,612.876398,666.185348,8660.409521
1577.393780,306.438199,-0.000000,9178.553681
1577.394097,153.219100,-666.185348,10288.862594
1577.394414,153.219100,-1258.350101,10955.047942
1577.394732,-229.828649,-740.205942,11325.150913
1577.395049,-536.266849,-74.020594,10510.924376
1577.395367,0.000000,592.164754,10584.944971
1577.395684,612.876398,1036.288319,10362.883188
1577.396001,919.314598,1850.514855,8956.491898
1577.396319,842.705048,2442.679609,7402.059420
1577.396636,1072.533697,1776.494261,7476.080014
1577.396954,229.828649,-0.000000,7994.224174
1577.397271,842.705048,-666.185348,9178.553681
1577.397589,-153.219100,-1036.288319,9400.615463
1577.397906,-842.705048,-1036.288319,9918.759623
1577.398223,-1302.362347,-1258.350101,9992.780217
1577.398541,-1608.800546,-1406.391290,10881.027347
1577.398858,-1838.629195,-740.205942,10140.821405
1577.399176,-2145.067394,-74.020594,9326.594869
1577.399493,-2221.676944,-0.000000,8882.471304
1577.399810,-1608.800546,-370.102971,9548.656652
1577.400128,-919.314598,-1406.391290,10066.800811
1577.400445,-995.924147,-962.267725,10362.883188
1577.400763,-1149.143247,-222.061783,10214.842000
1577.401080,-229.828649,370.102971,10066.800811
1577.401398,1149.143247,666.185348,10066.800811
1577.401715,1455.581446,962.267725,9178.553681
1577.402032,1762.019645,1702.473667,8438.347739
1577.402350,2068.457845,1850.514855,7179.997637
1577.402667,2451.505594,1036.288319,7772.162391
1577.402985,2757.943793,518.144159,8364.327145
1577.403302,2681.334243,-0.000000,8956.491898
1577.403619,1991.848295,148.041188,8882.471304
1577.403937,1302.362347,370.102971,9474.636058
1577.404254,1149.143247,-0.000000,10140.821405
1577.404572,1072.533697,296.082377,9844.739029
1577.404889,766.095498,888.247130,9548.656652
1577.405206,153.219100,296.082377,9696.697840
1577.405524,306.438199,-148.041188,9474.636058
1577.405841,766.095498,-888.247130,10066.800811
1577.406159,1455.581446,-1258.350101,10955.047942
1577.406476,1608.800546,-370.102971,9992.780217
1577.406794,2221.676944,444.123565,9474.636058
1577.407111,2374.896044,740.205942,9474.636058
1577.407428,2757.943793,1628.453072,9770.718434
1577.407746,3447.429741,2516.700203,8216.285956
1577.408063,3294.210641,2960.823768,7031.956449
1577.408381,3217.601092,2886.803174,6735.874072
1577.408698,3217.601092,1332.370696,7920.203579
1577.409015,3140.991542,-0.000000,8734.430116
1577.409333,2451.505594,-444.123565,9178.553681
1577.409650,1455.581446,-592.164754,9696.697840
1577.409968,612.876398,-592.164754,10436.903782
1577.410285,0.000000,-222.061783,10214.842000
1577.410603,-536.266849,-0.000000,10140.821405
1577.410920,-1302.362347,296.082377,9918.759623
1577.411237,-1608.800546,296.082377,9548.656652
1577.411555,-1302.362347,-0.000000,10214.842000
1577.411872,-766.095498,-296.082377,10288.862594
1577.412190,-766.095498,-444.123565,10436.903782
1577.412507,-612.876398,-592.164754,10362.883188
1577.412824,0.000000,-222.061783,10288.862594
1577.413142,612.876398,296.082377,10140.821405
1577.413459,1225.752797,1036.288319,9178.553681
1577.413777,1532.190996,1036.288319,8290.306550
1577.414094,1149.143247,1480.411884,7402.059420
1577.414411,1072.533697,222.061783,8068.244768
1577.414729,1378.971896,-74.020594,8216.285956
1577.415046,766.095498,-518.144159,8808.450710
1577.415364,612.876398,-888.247130,9622.677246
1577.415681,-153.219100,-666.185348,9770.718434
1577.415999,0.000000,-296.082377,9992.780217
1577.416316,-306.438199,296.082377,10066.800811
1577.416633,-612.876398,592.164754,9696.697840
1577.416951,-766.095498,296.082377,9400.615463
1577.417268,-919.314598,592.164754,9400.615463
1577.417586,-306.438199,-0.000000,10066.800811
1577.417903,-229.828649,-666.185348,10807.006753
1577.418220,0.000000,-1184.329507,11251.130318
1577.418538,-459.657299,-370.102971,10288.862594
1577.418855,536.266849,222.061783,9918.759623
1577.419173,1378.971896,296.082377,10066.800811
1577.419490,1838.629195,740.205942,9696.697840
1577.419808,2374.896044,1258.350101,8068.244768
1577.420125,2298.286494,1258.350101,7105.977043
1577.420442,2374.896044,444.123565,8142.265362
1577.420760,2604.724693,-370.102971,8882.471304
1577.421077,2298.286494,-444.123565,8808.450710
1577.421395,1915.238745,-296.082377,8808.450710
1577.421712,1302.362347,-74.020594,9696.697840
1577.422029,1302.362347,-222.061783,9770.718434
1577.422347,1455.581446,-0.000000,9400.615463
1577.422664,919.314598,666.185348,9178.553681
1577.422982,459.657299,962.267725,8808.450710
1577.423299,383.047749,888.247130,8882.471304
1577.423616,459.657299,-0.000000,9844.739029
1577.423934,383.047749,-222.061783,10658.965565
1577.424251,-383.047749,-148.041188,10732.986159
1577.424569,-229.828649,518.144159,10436.903782
1577.424886,0.000000,518.144159,10584.944971
1577.425204,612.876398,1036.288319,10436.903782
1577.425521,306.438199,1332.370696,9474.636058
1577.425838,612.876398,1110.308913,8438.347739
1577.426156,766.095498,1110.308913,8216.285956
1577.426473,1455.581446,222.061783,8660.409521
1577.426791,1608.800546,-370.102971,9178.553681
1577.427108,1302.362347,-888.247130,9326.594869
1577.427425,995.924147,-888.247130,8956.491898
1577.427743,689.485948,-592.164754,9400.615463
1577.428060,1149.143247,-0.000000,9474.636058
1577.428378,612.876398,444.123565,8956.491898
1577.428695,153.219100,814.226536,8142.265362
1577.429013,-153.219100,1258.350101,8364.327145
1577.429330,76.609550,222.061783,9030.512492
1577.429647,0.000000,-444.123565,9770.718434
1577.429965,-536.266849,-740.205942,10510.924376
1577.430282,-1302.362347,-592.164754,10955.047942
1577.430600,-995.924147,-0.000000,10807.006753
1577.430917,-689.485948,148.041188,11769.274478
1577.431234,-306.438199,962.267725,10807.006753
1577.431552,0.000000,1628.453072,9474.636058
1577.431869,0.000000,1850.514855,9104.533087
1577.432187,919.314598,1110.308913,8956.491898
1577.432504,1991.848295,444.123565,9030.512492
1577.432821,1991.848295,-518.144159,8882.471304
1577.433139,1762.019645,-740.205942,8956.491898
1577.433456,1378.971896,-518.144159,9622.677246
1577.433774,2068.457845,-0.000000,9400.615463
1577.434091,2221.676944,-0.000000,8808.450710
1577.434409,1762.019645,370.102971,8290.306550
1577.434726,1225.752797,666.185348,7920.203579
1577.435043,1225.752797,296.082377,7772.162391
1577.435361,1455.581446,-1036.288319,8808.450710
1577.435678,995.924147,-1406.391290,10066.800811
1577.435996,766.095498,-1258.350101,10140.821405
1577.436313,612.876398,-222.061783,9770.718434
1577.436630,766.095498,-0.000000,10658.965565
1577.436948,1149.143247,888.247130,10732.986159
1577.437265,1225.752797,1776.494261,9474.636058
1577.437583,995.924147,2146.597232,8808.450710
1577.437900,1915.238745,1998.556043,8808.450710
1577.438218,2221.676944,1110.308913,8734.430116
1577.438535,2451.505594,-0.000000,9474.636058
1577.438852,2374.896044,-74.020594,9474.636058
1577.439170,1685.410096,-74.020594,9104.533087
1577.439487,1532.190996,-148.041188,9030.512492
1577.439805,1915.238745,222.061783,9548.656652
1577.440122,1072.533697,148.041188,9474.636058
1577.440439,459.657299,592.164754,8438.347739
1577.440757,-459.657299,-0.000000,8660.409521
1577.441074,-612.876398,-592.164754,9474.636058
1577.441392,-536.266849,-1554.432478,9918.759623
1577.441709,-689.485948,-1850.514855,10510.924376
1577.442026,-1149.143247,-1628.453072,10658.965565
1577.442344,-842.705048,-666.185348,11177.109724
1577.442661,-536.266849,-222.061783,10881.027347
1577.442979,459.657299,888.247130,10658.965565
1577.443296,536.266849,1998.556043,9178.553681
1577.443614,689.485948,2368.659014,8142.265362
1577.443931,1302.362347,1998.556043,7994.224174
1577.444248,1685.410096,1184.329507,8808.450710
1577.444566,1685.410096,444.123565,8512.368333
1577.444883,1378.971896,-0.000000,8956.491898
1577.445201,919.314598,518.144159,9252.574275
1577.445518,919.314598,296.082377,9548.656652
1577.445835,689.485948,444.123565,9548.656652
1577.446153,76.609550,592.164754,9622.677246
1577.446470,-383.047749,740.205942,8660.409521
1577.446788,-842.705048,1036.288319,8882.471304
1577.447105,-229.828649,-148.041188,9770.718434
1577.447423,-229.828649,-592.164754,10584.944971
1577.447740,-612.876398,-814.226536,10584.944971
1577.448057,-612.876398,-518.144159,10658.965565
1577.448375,306.438199,-148.041188,10732.986159
1577.448692,1302.362347,370.102971,10658.965565
1577.449010,1991.848295,1406.391290,9326.594869
1577.449327,2374.896044,1850.514855,8216.285956
1577.449644,2834.553343,1998.556043,7624.121203
1577.449962,3753.867940,1406.391290,7772.162391
1577.450279,3907.087040,666.185348,8068.244768
1577.450597,3294.210641,-0.000000,8438.347739
1577.450914,2451.505594,-0.000000,8586.388927
1577.451231,1762.019645,148.041188,9104.533087
1577.451549,1225.752797,444.123565,9622.677246
1577.451866,612.876398,444.123565,9622.677246
1577.452184,0.000000,740.205942,9474.636058
1577.452501,-536.266849,518.144159,9400.615463
1577.452819,-689.485948,-666.185348,9992.780217
1577.453136,-995.924147,-888.247130,10658.965565
1577.453453,-1302.362347,-1332.370696,10955.047942
1577.453771,-1455.581446,-1110.308913,10955.047942
1577.454088,-1455.581446,-74.020594,10807.006753
1577.454406,-919.314598,-0.000000,10955.047942
1577.454723,-76.609550,1110.308913,10584.944971
1577.455040,0.000000,1776.494261,9104.533087
1577.455358,766.095498,2294.638420,7772.162391
1577.455675,1455.581446,1776.494261,7550.100608
1577.455993,1762.019645,666.185348,7772.162391
1577.456310,2068.457845,-222.061783,8142.265362
1577.456628,1608.800546,-592.164754,8068.244768
1577.456945,919.314598,-592.164754,8808.450710
1577.457262,383.047749,-888.247130,9622.677246
1577.457580,0.000000,-666.185348,9400.615463
1577.457897,-612.876398,-222.061783,9548.656652
1577.458215,-1302.362347,148.041188,9252.574275
1577.458532,-1762.019645,-0.000000,9696.697840
1577.458849,-1149.143247,-0.000000,9918.759623
