#time,accel_x,accel_y,accel_z
2063.779818,766.095498,370.102971,9474.636058
2063.780136,229.828649,-0.000000,9474.636058
2063.780453,612.876398,296.082377,9400.615463
2063.780771,919.314598,296.082377,9474.636058
2063.781088,766.095498,296.082377,9474.636058
2063.781406,766.095498,148.041188,9474.636058
2063.781723,919.314598,296.082377,9992.780217
2063.782041,919.314598,74.020594,9326.594869
2063.782359,536.266849,-0.000000,9400.615463
2063.782676,689.485948,296.082377,9548.656652
2063.782994,689.485948,222.061783,9400.615463
2063.783311,689.485948,296.082377,9548.656652
2063.783629,689.485948,222.061783,9474.636058
2063.783946,689.485948,148.041188,9474.636058
2063.784264,766.095498,296.082377,9400.615463
2063.784582,1532.190996,-0.000000,9474.636058
2063.784899,766.095498,-0.000000,9474.636058
2063.785217,919.314598,-0.000000,9326.594869
2063.785534,612.876398,296.082377,9548.656652
2063.785852,689.485948,296.082377,9548.656652
2063.786169,995.924147,-0.000000,9770.718434
2063.786487,919.314598,148.041188,9400.615463
2063.786805,689.485948,-0.000000,9400.615463
2063.787122,766.095498,296.082377,9474.636058
2063.787440,689.485948,148.041188,9400.615463
2063.787757,689.485948,222.061783,9400.615463
2063.788075,689.485948,-0.000000,9400.615463
2063.788392,919.314598,222.061783,9400.615463
2063.788710,689.485948,222.061783,9252.574275
2063.789028,766.095498,222.061783,9400.615463
2063.789345,689.485948,148.041188,9326.594869
2063.789663,842.705048,-0.000000,9474.636058
2063.789980,689.485948,222.061783,9400.615463
2063.790298,766.095498,148.041188,9474.636058
2063.790615,842.705048,-0.000000,9474.636058
2063.790933,459.657299,-0.000000,9178.553681
2063.791251,689.485948,-0.000000,9400.615463
2063.791568,919.314598,222.061783,9474.636058
2063.791886,842.705048,222.061783,9400.615463
2063.792203,612.876398,-0.000000,9548.656652
2063.792521,919.314598,148.041188,9474.636058
2063.792838,766.095498,148.041188,9474.636058
2063.793156,842.705048,-0.000000,9474.636058
2063.793473,842.705048,-0.000000,9474.636058
2063.793791,766.095498,-0.000000,9400.615463
2063.794109,689.485948,222.061783,9326.594869
2063.794426,536.266849,-0.000000,9474.636058
2063.794744,612.876398,222.061783,9474.636058
2063.795061,1225.752797,592.164754,9474.636058
2063.795379,766.095498,222.061783,9474.636058
2063.795696,842.705048,222.061783,9326.594869
2063.796014,766.095498,148.041188,9474.636058
2063.796332,612.876398,-0.000000,9474.636058
2063.796649,536.266849,-0.000000,9474.636058
2063.796967,919.314598,-0.000000,9474.636058
2063.797284,689.485948,370.102971,9474.636058
2063.797602,766.095498,296.082377,9474.636058
2063.797919,919.314598,-0.000000,9326.594869
2063.798237,766.095498,-74.020594,9326.594869
2063.798555,995.924147,222.061783,9474.636058
2063.798872,689.485948,148.041188,9474.636058
2063.799190,842.705048,222.061783,9548.656652
2063.799507,689.485948,-0.000000,9548.656652
2063.799825,612.876398,148.041188,9474.636058
2063.800142,842.705048,148.041188,9474.636058
2063.800460,612.876398,-0.000000,9252.574275
2063.800778,612.876398,148.041188,9400.615463
2063.801095,919.314598,222.061783,9474.636058
2063.801413,689.485948,222.061783,9252.574275
2063.801730,919.314598,-0.000000,9474.636058
2063.802048,842.705048,444.123565,9622.677246
2063.802365,919.314598,-0.000000,9400.615463
2063.802683,995.924147,-0.000000,9622.677246
2063.803001,842.705048,148.041188,9400.615463
2063.803318,689.485948,296.082377,9474.636058
2063.803636,536.266849,222.061783,9548.656652
2063.803953,689.485948,222.061783,9474.636058
2063.804271,459.657299,148.041188,9474.636058
2063.804588,689.485948,222.061783,9548.656652
2063.804906,383.047749,222.061783,9474.636058
2063.805224,383.047749,592.164754,9474.636058
2063.805541,612.876398,740.205942,9548.656652
2063.805859,612.876398,592.164754,9252.574275
2063.806176,612.876398,666.185348,9400.615463
2063.806494,842.705048,592.164754,9622.677246
2063.806811,459.657299,370.102971,9696.697840
2063.807129,766.095498,370.102971,9696.697840
2063.807447,0.000000,592.164754,9844.739029
2063.807764,919.314598,888.247130,9474.636058
2063.808082,229.828649,814.226536,9696.697840
2063.808399,459.657299,962.267725,9844.739029
2063.808717,383.047749,962.267725,9844.739029
2063.809034,383.047749,814.226536,9474.636058
2063.809352,229.828649,1036.288319,9696.697840
2063.809670,0.000000,1258.350101,9326.594869
2063.809987,-612.876398,1406.391290,9326.594869
2063.810305,-995.924147,1258.350101,9030.512492
2063.810622,-1149.143247,1406.391290,9400.615463
2063.810940,-1685.410096,888.247130,9400.615463
2063.811257,-2451.505594,666.185348,9992.780217
2063.811575,-3447.429741,592.164754,9844.739029
2063.811893,-3677.258390,666.185348,9770.718434
2063.812210,-4136.915689,888.247130,9622.677246
2063.812528,-4443.353888,1332.370696,9844.739029
2063.812845,-4290.134789,1776.494261,9696.697840
2063.813163,-4519.963438,1850.514855,9400.615463
2063.813480,-4519.963438,2146.597232,9400.615463
2063.813798,-4443.353888,2146.597232,9326.594869
2063.814115,-4596.572988,2294.638420,9178.553681
2063.814433,-4903.011187,2516.700203,9030.512492
2063.814751,-5286.058936,2738.761985,9178.553681
2063.815068,-5056.230287,3034.844362,9178.553681
2063.815386,-5209.449386,3923.091493,8586.388927
2063.815703,-4903.011187,4441.235652,8290.306550
2063.816021,-4443.353888,4737.318029,8068.244768
2063.816338,-4596.572988,5033.400406,7994.224174
2063.816656,-3524.039291,5033.400406,8290.306550
2063.816974,-3217.601092,4959.379811,8512.368333
2063.817291,-2298.286494,4811.338623,9030.512492
2063.817609,-2451.505594,5403.503377,7402.059420
2063.817926,-1532.190996,5551.544565,7698.141797
2063.818244,-1991.848295,6291.750507,8142.265362
2063.818561,76.609550,7624.121203,7698.141797
2063.818879,383.047749,7402.059420,5921.647536
2063.819197,383.047749,8142.265362,5329.482782
2063.819514,306.438199,6809.894666,6883.915261
2063.819832,-766.095498,5847.626942,7031.956449
2063.820149,-1378.971896,5181.441594,8142.265362
2063.820467,-2911.162892,4367.215058,9030.512492
2063.820784,-3370.820191,4959.379811,9622.677246
2063.821102,-4060.306139,4737.318029,9844.739029
2063.821420,-3140.991542,5107.421000,10658.965565
2063.821737,-3447.429741,5773.606348,9696.697840
2063.822055,-3294.210641,6069.688724,9178.553681
2063.822372,-3830.477490,5329.482782,9548.656652
2063.822690,-3753.867940,4589.276840,10510.924376
2063.823007,-4519.963438,3182.885551,11325.150913
2063.823325,-4979.620737,3775.050304,10807.006753
2063.823643,-4290.134789,2812.782580,11695.253884
2063.823960,-3140.991542,4071.132681,11917.315666
2063.824278,-2145.067394,3849.070898,12287.418637
2063.824595,-1378.971896,4219.173869,11177.109724
2063.824913,-1149.143247,4145.153275,10732.986159
2063.825230,-1455.581446,3627.009116,10140.821405
2063.825548,-1915.238745,2368.659014,10658.965565
2063.825866,-2374.896044,1406.391290,12213.398043
2063.826183,-2374.896044,1702.473667,12435.459826
2063.826501,-1838.629195,2220.617826,12435.459826
2063.826818,-766.095498,2072.576638,12065.356855
2063.827136,-766.095498,1628.453072,13397.727550
2063.827453,-383.047749,1554.432478,12657.521608
2063.827771,383.047749,1036.288319,12361.439231
2063.828089,1149.143247,1554.432478,11103.089130
2063.828406,2221.676944,1702.473667,10066.800811
2063.828724,2834.553343,2146.597232,9548.656652
2063.829041,2834.553343,2220.617826,9622.677246
2063.829359,2911.162892,2294.638420,9178.553681
2063.829676,2757.943793,2294.638420,8882.471304
2063.829994,2068.457845,1702.473667,9844.739029
2063.830312,1302.362347,1258.350101,9992.780217
2063.830629,-306.438199,296.082377,10436.903782
2063.830947,-689.485948,-0.000000,10436.903782
2063.831264,-229.828649,740.205942,10214.842000
2063.831582,-459.657299,814.226536,8882.471304
2063.831899,-153.219100,-0.000000,8882.471304
2063.832217,-383.047749,-0.000000,9030.512492
2063.832535,-919.314598,-0.000000,8734.430116
2063.832852,-1532.190996,370.102971,8216.285956
2063.833170,-3140.991542,-0.000000,8586.388927
2063.833487,-3064.381992,-0.000000,9326.594869
2063.833805,-2987.772442,444.123565,8734.430116
2063.834122,-2834.553343,814.226536,8216.285956
2063.834440,-2298.286494,-0.000000,8290.306550
2063.834758,-1455.581446,-0.000000,7105.977043
2063.835075,-536.266849,-0.000000,6735.874072
2063.835393,-766.095498,-0.000000,6365.771101
2063.835710,-1225.752797,296.082377,5995.668130
2063.836028,-1838.629195,518.144159,4885.359217
2063.836345,-1762.019645,1258.350101,5625.565159
2063.836663,-2221.676944,1184.329507,6513.812290
2063.836980,-2681.334243,1110.308913,7031.956449
2063.837298,-3217.601092,1184.329507,6957.935855
2063.837616,-3600.648841,888.247130,7772.162391
2063.837933,-3294.210641,740.205942,8364.327145
2063.838251,-2911.162892,666.185348,8512.368333
2063.838568,-1915.238745,1332.370696,8142.265362
2063.838886,-1762.019645,2294.638420,7772.162391
2063.839203,-612.876398,3182.885551,7772.162391
2063.839521,-612.876398,3701.029710,7698.141797
2063.839839,-995.924147,3701.029710,8216.285956
2063.840156,-1762.019645,3404.947333,8216.285956
2063.840474,-3064.381992,3330.926739,8438.347739
2063.840791,-2604.724693,3256.906145,8808.450710
2063.841109,-2451.505594,3108.864956,9178.553681
2063.841426,-2145.067394,2738.761985,9474.636058
2063.841744,-1915.238745,2738.761985,9474.636058
2063.842062,-1838.629195,3034.844362,9178.553681
2063.842379,-1455.581446,3108.864956,9178.553681
2063.842697,-1378.971896,3478.967927,9474.636058
2063.843014,-1838.629195,3404.947333,9622.677246
2063.843332,-1762.019645,3997.112087,9844.739029
2063.843649,-1838.629195,4071.132681,10658.965565
2063.843967,-1608.800546,4959.379811,11177.109724
2063.844285,-2221.676944,5625.565159,11621.233289
2063.844602,-1685.410096,5403.503377,11769.274478
2063.844920,-1608.800546,4737.318029,12361.439231
2063.845237,-2528.115143,4811.338623,11177.109724
2063.845555,-1762.019645,4515.256246,11103.089130
2063.845872,-1762.019645,4071.132681,11547.212695
2063.846190,-1378.971896,3108.864956,12139.377449
2063.846508,-995.924147,3552.988522,11399.171507
2063.846825,-1685.410096,3182.885551,11177.109724
2063.847143,-1915.238745,3182.885551,12287.418637
2063.847460,-2221.676944,2960.823768,12139.377449
2063.847778,-2221.676944,3478.967927,12583.501014
2063.848095,-1685.410096,3108.864956,12657.521608
2063.848413,-1072.533697,4145.153275,12139.377449
2063.848730,229.828649,4367.215058,10362.883188
2063.849048,1149.143247,4811.338623,10066.800811
2063.849366,1225.752797,4515.256246,10732.986159
2063.849683,1378.971896,4737.318029,10140.821405
2063.850001,1072.533697,4589.276840,10066.800811
2063.850318,76.609550,4367.215058,10881.027347
2063.850636,-1149.143247,3923.091493,11621.233289
2063.850953,-1991.848295,3478.967927,11473.192101
2063.851271,-2911.162892,1998.556043,12435.459826
2063.851589,-2451.505594,1628.453072,12805.562797
2063.851906,-2145.067394,1036.288319,12361.439231
2063.852224,-306.438199,1184.329507,11251.130318
2063.852541,689.485948,1998.556043,9992.780217
2063.852859,1225.752797,2294.638420,8660.409521
2063.853176,1225.752797,3775.050304,7402.059420
2063.853494,1225.752797,4663.297435,6661.853478
2063.853812,459.657299,5107.421000,5699.585753
2063.854129,-383.047749,5107.421000,6143.709319
2063.854447,-2221.676944,4219.173869,6661.853478
2063.854764,-3677.258390,2072.576638,6957.935855
2063.855082,-5286.058936,-1036.288319,9548.656652
2063.855399,-5669.106685,-2960.823768,10436.903782
2063.855717,-5975.544884,-3701.029710,11917.315666
2063.856034,-5745.716235,-3478.967927,11769.274478
2063.856352,-4826.401637,-2664.741391,11325.150913
2063.856670,-3370.820191,-888.247130,9918.759623
2063.856987,-1915.238745,444.123565,8586.388927
2063.857305,-229.828649,1998.556043,6513.812290
2063.857622,0.000000,3330.926739,5847.626942
2063.857940,229.828649,3923.091493,4811.338623
2063.858257,0.000000,3478.967927,3701.029710
2063.858575,-536.266849,2368.659014,4293.194464
2063.858893,-1302.362347,370.102971,4515.256246
2063.859210,-2298.286494,-1184.329507,6291.750507
2063.859528,-3447.429741,-2442.679609,7624.121203
2063.859845,-3983.696590,-4293.194464,10288.862594
2063.860163,-4213.525239,-3849.070898,11769.274478
2063.860480,-3140.991542,-3552.988522,13323.706956
2063.860798,-1915.238745,-1480.411884,12435.459826
2063.861116,306.438199,148.041188,11251.130318
2063.861433,2757.943793,2368.659014,9622.677246
2063.861751,6052.154434,4737.318029,7476.080014
2063.862068,7890.783629,6143.709319,4959.379811
2063.862386,9422.974625,5995.668130,3330.926739
2063.862703,9193.145976,5329.482782,2812.782580
2063.863021,8197.221829,3404.947333,2442.679609
2063.863338,5745.716235,1702.473667,3330.926739
2063.863656,2681.334243,-370.102971,5551.544565
2063.863974,0.000000,-2146.597232,8438.347739
2063.864291,-2145.067394,-4367.215058,13249.686362
2063.864609,-3753.867940,-5107.421000,14434.015869
2063.864926,-3677.258390,-5181.441594,17394.839637
2063.865244,-3140.991542,-2590.720797,16876.695478
2063.865561,-612.876398,-962.267725,16654.633695
2063.865879,2298.286494,1406.391290,12361.439231
2063.866197,4903.011187,1924.535449,11399.171507
2063.866514,5515.887586,2368.659014,8364.327145
2063.866832,7660.954980,2368.659014,9178.553681
2063.867149,7890.783629,2812.782580,5699.585753
2063.867467,7354.516781,2516.700203,2886.803174
2063.867784,4443.353888,2072.576638,2220.617826
2063.868102,766.095498,296.082377,6587.832884
2063.868420,-2451.505594,-2960.823768,10955.047942
2063.868737,-4596.572988,-5699.585753,14137.933492
2063.869055,-6894.859482,-6957.935855,16728.654289
2063.869372,-7507.735880,-5477.523971,18431.127956
2063.869690,-4749.792088,-3404.947333,19689.478057
2063.870007,-1455.581446,-1036.288319,17246.798449
2063.870325,1532.190996,296.082377,13693.809927
2063.870642,3830.477490,2738.761985,11399.171507
2063.870960,5669.106685,2886.803174,9474.636058
2063.871278,7124.688131,3627.009116,6661.853478
2063.871595,7048.078582,3478.967927,3552.988522
2063.871913,5515.887586,2960.823768,2590.720797
2063.872230,3753.867940,2960.823768,3627.009116
2063.872548,2221.676944,962.267725,4885.359217
2063.872865,-229.828649,-1554.432478,7772.162391
2063.873183,-2451.505594,-2960.823768,11251.130318
2063.873501,-3677.258390,-3182.885551,13619.789333
2063.873818,-3524.039291,-3997.112087,16950.716072
2063.874136,-2604.724693,-3849.070898,16802.674883
2063.874453,-1608.800546,-2590.720797,14508.036463
2063.874771,383.047749,370.102971,11251.130318
2063.875088,3140.991542,1480.411884,10584.944971
2063.875406,5362.668486,1998.556043,8734.430116
2063.875724,6894.859482,3849.070898,3552.988522
2063.876041,7124.688131,5033.400406,1036.288319
2063.876359,5056.230287,3627.009116,592.164754
2063.876676,3677.258390,370.102971,2368.659014
2063.876994,1302.362347,-592.164754,1924.535449
2063.877311,-1915.238745,-1258.350101,4663.297435
2063.877629,-3830.477490,-2664.741391,9474.636058
2063.877946,-4903.011187,-5477.523971,12509.480420
2063.878264,-6435.202183,-6069.688724,16950.716072
2063.878582,-6281.983084,-7179.997637,19097.313304
2063.878899,-5515.887586,-4071.132681,17542.880825
2063.879217,-2451.505594,-1628.453072,14582.057057
2063.879534,2068.457845,1332.370696,11621.233289
2063.879852,6435.202183,4663.297435,7328.038826
2063.880169,8886.707777,6217.729913,2812.782580
2063.880487,10418.898773,5773.606348,-1554.432478
2063.880805,9806.022374,4219.173869,-4071.132681
2063.881122,7814.174080,3552.988522,-2442.679609
2063.881440,4979.620737,814.226536,296.082377
2063.881757,-1225.752797,-2738.761985,3627.009116
2063.882075,-4596.572988,-5107.421000,9770.718434
2063.882392,-8580.269578,-8216.285956,15470.304188
2063.882710,-9806.022374,-9326.594869,21095.869347
2063.883028,-9039.926876,-8956.491898,23390.507767
2063.883345,-6435.202183,-3923.091493,17616.901420
2063.883663,-2221.676944,-1036.288319,16802.674883
2063.883980,2298.286494,4145.153275,13397.727550
2063.884298,6818.249932,5847.626942,9474.636058
2063.884615,10878.556072,9178.553681,3478.967927
2063.884933,12487.356617,9326.594869,-148.041188
2063.885250,11951.089769,9400.615463,-2368.659014
2063.885568,9422.974625,6513.812290,-1776.494261
2063.885886,5669.106685,2664.741391,740.205942
2063.886203,-459.657299,-74.020594,4515.256246
2063.886521,-4366.744339,-1702.473667,7994.224174
2063.886838,-7354.516781,-5033.400406,13841.851115
2063.887156,-9959.241474,-9548.656652,19985.560434
2063.887473,-12180.918418,-9992.780217,25241.022622
2063.887791,-8350.440928,-6513.812290,25537.104999
2063.888109,-5975.544884,-0.000000,15692.365970
2063.888426,-1149.143247,2294.638420,15174.221811
2063.888744,3140.991542,2368.659014,15840.407159
2063.889061,7277.907231,7698.141797,12213.398043
2063.889379,10725.336972,10214.842000,592.164754
2063.889696,10725.336972,10658.965565,-3478.967927
2063.890014,10572.117872,9844.739029,-1924.535449
2063.890332,6281.983084,5181.441594,-740.205942
2063.890649,2298.286494,962.267725,1036.288319
2063.890967,-3600.648841,-2664.741391,5329.482782
2063.891284,-7737.564530,-5477.523971,11843.295072
2063.891602,-9959.241474,-9400.615463,19911.539840
2063.891919,-11797.870669,-9622.677246,24130.713709
2063.892237,-10418.898773,-9622.677246,27165.558071
2063.892554,-8810.098227,-2146.597232,19615.457463
2063.892872,-3524.039291,1702.473667,19097.313304
2063.893190,1455.581446,3849.070898,17320.819043
2063.893507,7431.126331,6365.771101,12213.398043
2063.893825,12947.013916,11621.233289,1998.556043
2063.894142,15168.690860,12731.542202,-4071.132681
2063.894460,14249.376263,9548.656652,-5995.668130
2063.894777,10112.460574,5477.523971,-4589.276840
2063.895095,4290.134789,1036.288319,-444.123565
2063.895413,-842.705048,-2442.679609,2516.700203
2063.895730,-5439.278036,-3330.926739,7179.997637
2063.896048,-8044.002729,-7179.997637,15840.407159
2063.896365,-11184.994271,-9326.594869,22354.219448
2063.896683,-10648.727422,-10584.944971,27165.558071
2063.897000,-8350.440928,-5255.462188,23390.507767
2063.897318,-5056.230287,-1406.391290,17394.839637
2063.897636,689.485948,-222.061783,15544.324782
2063.897953,6511.811733,3627.009116,12731.542202
2063.898271,12410.747068,7772.162391,4441.235652
2063.898588,15704.957709,9992.780217,-3701.029710
2063.898906,14862.252661,9474.636058,-7772.162391
2063.899223,12104.308868,6439.791695,-7105.977043
2063.899541,6971.469032,2220.617826,-5773.606348
2063.899858,1302.362347,-1850.514855,74.020594
2063.900176,-3907.087040,-6957.935855,4737.318029
2063.900494,-10112.460574,-8586.388927,12361.439231
2063.900811,-10725.336972,-12287.418637,23242.466579
2063.901129,-10725.336972,-11547.212695,25389.063811
2063.901446,-10265.679673,-9400.615463,21539.992912
2063.901764,-7814.174080,-5699.585753,21317.931130
2063.902081,-5362.668486,-444.123565,18431.127956
2063.902399,1838.629195,3849.070898,14804.118840
2063.902717,9729.412825,9252.574275,6661.853478
2063.903034,14632.424012,11399.171507,148.041188
2063.903352,15628.348159,10140.821405,-6661.853478
2063.903669,16164.615008,11473.192101,-10288.862594
2063.903987,12180.918418,5847.626942,-9030.512492
2063.904304,6128.763984,-370.102971,-2960.823768
2063.904622,995.924147,-6069.688724,1110.308913
2063.904940,-5898.935335,-8142.265362,8438.347739
2063.905257,-11031.775171,-13693.809927,20281.642811
2063.905575,-11108.384721,-16728.654289,30644.525999
2063.905892,-14555.814462,-9992.780217,23834.631332
2063.906210,-9576.193725,-7328.038826,22724.322419
2063.906527,-9116.536426,-2738.761985,19689.478057
2063.906845,-3140.991542,5329.482782,15100.201217
2063.907162,7201.297681,8438.347739,11547.212695
2063.907480,12180.918418,10881.027347,4071.132681
2063.907798,16547.662757,10362.883188,-1480.411884
2063.908115,18233.072852,13471.748144,-7328.038826
2063.908433,15934.786358,10362.883188,-10732.986159
2063.908750,11797.870669,4515.256246,-6143.709319
2063.909068,3677.258390,-518.144159,74.020594
2063.909385,-1225.752797,-5625.565159,7994.224174
2063.909703,-11338.213370,-10510.924376,13619.789333
2063.910021,-12257.527968,-15322.262999,28645.969955
2063.910338,-12410.747068,-14359.995275,33309.267390
2063.910656,-13942.938064,-7994.224174,21762.054695
2063.910973,-9576.193725,-5551.544565,23686.590144
2063.911291,-8044.002729,2960.823768,21095.869347
2063.911608,-383.047749,9252.574275,14730.098246
2063.911926,10495.508323,11991.336260,8364.327145
2063.912244,14249.376263,12731.542202,1406.391290
2063.912561,17007.320056,13027.624579,-6365.771101
2063.912879,18462.901502,14211.954086,-11399.171507
2063.913196,12947.013916,6513.812290,-6291.750507
2063.913514,7354.516781,-0.000000,-518.144159
2063.913831,306.438199,-4589.276840,3701.029710
2063.914149,-3907.087040,-8364.327145,10066.800811
2063.914466,-11261.603821,-13767.830521,21317.931130
2063.914784,-12487.356617,-18357.107362,33827.411549
2063.915102,-13866.328514,-11325.150913,27387.619854
2063.915419,-11644.651570,-2664.741391,21095.869347
2063.915737,-9499.584175,-814.226536,21465.972318
2063.916054,-6052.154434,6883.915261,12731.542202
2063.916372,3370.820191,11991.336260,13471.748144
2063.916689,11261.603821,11991.336260,8364.327145
2063.917007,15245.300410,14063.912898,0.000000
2063.917325,17160.539155,11251.130318,-7698.141797
2063.917642,17160.539155,12139.377449,-11695.253884
2063.917960,11568.042020,2146.597232,-6291.750507
2063.918277,5515.887586,-3034.844362,-666.185348
2063.918595,-383.047749,-7402.059420,3775.050304
2063.918912,-5822.325785,-11695.253884,11251.130318
2063.919230,-11568.042020,-12805.562797,22946.384202
2063.919548,-11414.822920,-16950.716072,34271.535115
2063.919865,-15398.519510,-6513.812290,22058.137072
2063.920183,-12640.575717,-2072.576638,17246.798449
2063.920500,-8963.317327,3404.947333,21021.848753
2063.920818,-5286.058936,12139.377449,12953.603985
2063.921135,6128.763984,12065.356855,7105.977043
2063.921453,11184.994271,12657.521608,2368.659014
2063.921770,14172.766713,10658.965565,-4737.318029
2063.922088,17926.634653,9918.759623,-5699.585753
2063.922406,14709.033562,10066.800811,-16506.592507
2063.922723,11951.089769,1776.494261,-6439.791695
2063.923041,4366.744339,-2368.659014,370.102971
2063.923358,-1685.410096,-6957.935855,3849.070898
2063.923676,-10648.727422,-11843.295072,12509.480420
2063.923993,-12870.404366,-18357.107362,31902.876100
2063.924311,-13942.938064,-18801.230927,31162.670158
2063.924629,-17850.025103,-6587.832884,18431.127956
2063.924946,-13330.061665,-4663.297435,24352.775492
2063.925264,-10342.289223,3775.050304,20725.766376
2063.925581,153.219100,13027.624579,10066.800811
2063.925899,9882.631924,17542.880825,3775.050304
2063.926216,11797.870669,14582.057057,-2442.679609
2063.926534,13483.280765,11695.253884,-6587.832884
2063.926851,16930.710506,13841.851115,-13989.892304
2063.927169,12640.575717,3701.029710,-6069.688724
2063.927487,4979.620737,-3849.070898,-962.267725
2063.927804,1225.752797,-8956.491898,3701.029710
2063.928122,-4749.792088,-8956.491898,10214.842000
2063.928439,-9806.022374,-15470.304188,26425.352129
2063.928757,-12027.699319,-20873.807564,35455.864622
2063.929074,-13866.328514,-8364.327145,23094.425390
2063.929392,-10955.165621,-1406.391290,18357.107362
2063.929710,-8580.269578,3034.844362,23094.425390
2063.930027,-5362.668486,12287.418637,10881.027347
2063.930345,7354.516781,12361.439231,9474.636058
2063.930662,12487.356617,13693.809927,8364.327145
2063.930980,15475.129060,14063.912898,-1406.391290
2063.931297,18079.853753,10140.821405,-8142.265362
2063.931615,18233.072852,11843.295072,-15914.427753
2063.931933,13789.718964,-1036.288319,0.000000
2063.932250,3600.648841,-3034.844362,2368.659014
2063.932568,306.438199,-8512.368333,4885.359217
2063.932885,-2068.457845,-11325.150913,11843.295072
2063.933203,-10878.556072,-13323.706956,28127.825796
2063.933520,-8197.221829,-17912.983796,37084.317694
2063.933838,-11414.822920,-7328.038826,21095.869347
2063.934155,-11261.603821,-2812.782580,16580.613101
2063.934473,-9269.755526,-1998.556043,27461.640448
2063.934791,-6894.859482,8586.388927,17838.963202
2063.935108,8350.440928,11029.068536,11621.233289
2063.935426,14785.643111,16728.654289,370.102971
2063.935743,15934.786358,13323.706956,-5921.647536
2063.936061,21374.064394,12361.439231,-8364.327145
2063.936378,17543.586904,9104.533087,-13841.851115
2063.936696,10648.727422,-3701.029710,-3404.947333
2063.937014,2911.162892,-9474.636058,2738.761985
2063.937331,-2528.115143,-6291.750507,4737.318029
2063.937649,-7814.174080,-12657.521608,16210.510130
2063.937966,-9882.631924,-17912.983796,35974.008781
2063.938284,-11491.432470,-17912.983796,29904.320057
2063.938601,-16011.395908,-8216.285956,14137.933492
2063.938919,-14709.033562,-5403.503377,23020.404796
2063.939237,-12870.404366,1258.350101,20503.704593
2063.939554,-1762.019645,9992.780217,15840.407159
2063.939872,9039.926876,14211.954086,7994.224174
2063.940189,12640.575717,16950.716072,-2886.803174
2063.940507,15781.567259,14582.057057,-3923.091493
2063.940824,19841.873398,14434.015869,-15544.324782
2063.941142,16930.710506,2368.659014,-8882.471304
2063.941459,7814.174080,-2368.659014,-1110.308913
2063.941777,459.657299,-9622.677246,1406.391290
2063.942095,-3064.381992,-11843.295072,6365.771101
2063.942412,-9193.145976,-18949.272115,21465.972318
2063.942730,-9499.584175,-24870.919651,35307.823433
2063.943047,-14632.424012,-13249.686362,16876.695478
2063.943365,-13483.280765,-5477.523971,16210.510130
2063.943682,-13253.452115,-1776.494261,22502.260637
2063.944000,-10955.165621,12139.377449,14285.974681
2063.944318,3830.477490,14804.118840,11325.150913
2063.944635,11031.775171,19097.313304,1406.391290
2063.944953,11874.480219,15840.407159,-3849.070898
2063.945270,16547.662757,13915.871710,-6587.832884
2063.945588,18156.463303,13101.645173,-16432.571912
2063.945905,13483.280765,-888.247130,370.102971
2063.946222,2374.896044,-6439.791695,3034.844362
2063.946540,-3217.601092,-10288.862594,1554.432478
2063.946857,-8197.221829,-9696.697840,8512.368333
2063.947174,-9499.584175,-17987.004391,33013.185013
2063.947491,-10418.898773,-18061.024985,32865.143825
2063.947809,-14938.862211,-4367.215058,14878.139434
2063.948126,-11338.213370,-296.082377,18949.272115
2063.948443,-12563.966167,4589.276840,20873.807564
2063.948761,-4060.306139,11991.336260,14730.098246
2063.949078,10418.898773,12287.418637,7920.203579
2063.949395,12027.699319,15248.242405,-3552.988522
2063.949713,16164.615008,14730.098246,-1184.329507
2063.950030,20071.702048,15766.386565,-14878.139434
2063.950347,18539.511052,8216.285956,-10214.842000
2063.950665,12180.918418,-2516.700203,1332.370696
2063.950982,2068.457845,-7105.977043,2886.803174
2063.951299,-6205.373534,-8586.388927,3256.906145
2063.951616,-9116.536426,-14137.933492,23168.445985
2063.951934,-10572.117872,-19763.498651,36344.111752
2063.952251,-11491.432470,-13027.624579,26203.290347
2063.952568,-12640.575717,-6217.729913,19985.560434
2063.952886,-13942.938064,-444.123565,24796.899057
2063.953203,-12640.575717,8512.368333,18579.169144
2063.953520,1838.629195,12583.501014,14063.912898
2063.953838,10265.679673,11843.295072,10732.986159
2063.954155,10495.508323,17394.839637,-1036.288319
2063.954472,17237.148705,15026.180623,-2960.823768
2063.954790,19918.482948,17320.819043,-17172.777854
2063.955107,18003.244203,2886.803174,-1184.329507
2063.955424,9499.584175,-2516.700203,6513.812290
2063.955741,0.000000,-5181.441594,-2590.720797
2063.956059,-2298.286494,-11695.253884,6735.874072
2063.956376,-12104.308868,-15396.283594,24796.899057
2063.956693,-9729.412825,-21095.869347,39971.120868
2063.957011,-11338.213370,-11029.068536,23834.631332
2063.957328,-14632.424012,-5329.482782,16728.654289
2063.957645,-14785.643111,-3923.091493,21539.992912
2063.957963,-11031.775171,7476.080014,21391.951724
2063.958280,2911.162892,10584.944971,16506.592507
2063.958597,8350.440928,14434.015869,3849.070898
2063.958915,12104.308868,15766.386565,-1924.535449
2063.959232,15934.786358,13397.727550,-1850.514855
2063.959549,18079.853753,14063.912898,-17838.963202
2063.959866,16624.272307,-740.205942,-2664.741391
2063.960184,7354.516781,-6809.894666,4737.318029
2063.960501,-1302.362347,-9326.594869,3182.885551
2063.960818,-4673.182538,-11251.130318,6735.874072
2063.961136,-9729.412825,-17616.901420,28423.908173
2063.961453,-8503.660028,-21984.116477,34937.720462
2063.961770,-14709.033562,-9104.533087,15322.262999
2063.962088,-14862.252661,-6735.874072,14878.139434
2063.962405,-14172.766713,-4959.379811,23538.548956
2063.962722,-7660.954980,11103.089130,17690.922014
2063.963040,7967.393179,12287.418637,7994.224174
2063.963357,11108.384721,16432.571912,740.205942
2063.963674,14019.547613,14063.912898,-3404.947333
2063.963991,21220.845295,14285.974681,-11547.212695
2063.964309,20454.749797,11325.150913,-15174.221811
2063.964626,15551.738609,-4367.215058,-222.061783
2063.964943,5132.839837,-7698.141797,888.247130
2063.965261,-1302.362347,-9992.780217,-222.061783
2063.965578,-5822.325785,-14434.015869,16136.489536
2063.965895,-6511.811733,-18949.272115,36788.235317
2063.966213,-9193.145976,-16062.468941,22206.178260
2063.966530,-12563.966167,-9030.512492,10881.027347
2063.966847,-13330.061665,-3108.864956,21095.869347
2063.967165,-12257.527968,2368.659014,20429.683999
2063.967482,766.095498,11547.212695,12213.398043
2063.967799,11184.994271,14656.077652,3330.926739
2063.968116,11797.870669,15248.242405,-814.226536
2063.968434,17160.539155,12879.583391,-2886.803174
2063.968751,20301.530697,13175.665768,-17320.819043
2063.969068,17543.586904,-1258.350101,-2664.741391
2063.969386,6281.983084,-7031.956449,3552.988522
2063.969703,-919.314598,-12879.583391,1850.514855
2063.970020,-4366.744339,-8142.265362,3923.091493
2063.970338,-7277.907231,-15026.180623,28423.908173
2063.970655,-8273.831378,-19911.539840,31384.731941
2063.970972,-13253.452115,-9474.636058,16580.613101
2063.971290,-12104.308868,-6809.894666,17172.777854
2063.971607,-15781.567259,-2442.679609,22206.178260
2063.971924,-10495.508323,9326.594869,19319.375086
2063.972242,4213.525239,10140.821405,13323.706956
2063.972559,9346.365076,17320.819043,2960.823768
2063.972876,12947.013916,14878.139434,-1776.494261
2063.973193,17390.367805,17024.736666,-3627.009116
2063.973511,19305.606550,9622.677246,-7105.977043
2063.973828,14172.766713,-962.267725,1702.473667
2063.974145,3447.429741,-6735.874072,2664.741391
2063.974463,-3753.867940,-9622.677246,4737.318029
2063.974780,-7814.174080,-11473.192101,14285.974681
2063.975097,-8503.660028,-18431.127956,33975.452738
2063.975415,-7660.954980,-13915.871710,33161.226202
2063.975732,-12717.185267,-1998.556043,16062.468941
2063.976049,-12257.527968,1702.473667,17468.860231
2063.976367,-12334.137518,3552.988522,21243.910535
2063.976684,-4749.792088,12361.439231,14063.912898
2063.977001,7431.126331,9326.594869,8660.409521
2063.977318,8963.317327,14285.974681,-4293.194464
2063.977636,14402.595362,12361.439231,-222.061783
2063.977953,20148.311597,13915.871710,-8734.430116
2063.978270,17237.148705,4885.359217,-3997.112087
2063.978588,12027.699319,-3108.864956,3478.967927
2063.978905,1302.362347,-6735.874072,222.061783
2063.979222,-3140.991542,-9252.574275,6809.894666
2063.979540,-10035.851024,-12731.542202,19023.292709
2063.979857,-10418.898773,-17098.757260,36640.194129
2063.980174,-8427.050478,-11325.150913,30200.402434
2063.980492,-13406.671215,-1184.329507,13767.830521
2063.980809,-12334.137518,1258.350101,17246.798449
2063.981126,-10648.727422,6957.935855,21836.075289
2063.981443,-766.095498,13027.624579,11769.274478
2063.981761,9193.145976,15840.407159,3108.864956
2063.982078,11797.870669,13027.624579,-1702.473667
2063.982395,14019.547613,10214.842000,-1110.308913
2063.982713,18999.168350,12953.603985,-15766.386565
2063.983030,18233.072852,2368.659014,-3256.906145
2063.983347,8503.660028,-1332.370696,-1480.411884
2063.983665,1455.581446,-7624.121203,222.061783
2063.983982,-4673.182538,-6069.688724,3034.844362
2063.984299,-9652.803275,-15692.365970,27239.578666
2063.984617,-10418.898773,-21317.931130,36196.070564
2063.984934,-15475.129060,-10288.862594,16358.551318
2063.985251,-14785.643111,-6513.812290,17468.860231
2063.985568,-15551.738609,-962.267725,23316.487173
2063.985886,-10342.289223,11029.068536,16284.530724
2063.986203,4903.011187,14211.954086,7328.038826
2063.986520,10725.336972,18357.107362,3849.070898
2063.986838,11568.042020,12731.542202,1258.350101
2063.987155,17466.977354,9326.594869,-2368.659014
2063.987472,19535.435199,10140.821405,-14508.036463
2063.987790,16700.881856,-1406.391290,-1480.411884
2063.988107,7354.516781,-2738.761985,444.123565
2063.988424,1455.581446,-7550.100608,-1554.432478
2063.988742,-2528.115143,-8956.491898,10436.903782
2063.989059,-8810.098227,-18209.066173,30718.546593
2063.989376,-8503.660028,-18949.272115,32569.061448
2063.989693,-16011.395908,-5921.647536,11325.150913
2063.990011,-16164.615008,-5995.668130,16728.654289
2063.990328,-14555.814462,-1184.329507,25907.207970
2063.990645,-7814.174080,12657.521608,16876.695478
2063.990963,6971.469032,14063.912898,7031.956449
2063.991280,10495.508323,14952.160028,-1850.514855
2063.991597,12563.966167,11399.171507,888.247130
2063.991915,16624.272307,10955.047942,-7550.100608
2063.992232,16930.710506,4885.359217,-4515.256246
2063.992549,10189.070123,-4293.194464,296.082377
2063.992867,2528.115143,-7105.977043,4145.153275
2063.993184,-1685.410096,-9178.553681,5551.544565
2063.993501,-8963.317327,-9992.780217,15544.324782
2063.993819,-6971.469032,-18949.272115,35677.926404
2063.994136,-11568.042020,-11473.192101,22502.260637
2063.994453,-11797.870669,-4367.215058,13397.727550
2063.994770,-13023.623466,-518.144159,16950.716072
2063.995088,-12104.308868,4367.215058,18875.251521
2063.995405,2221.676944,10807.006753,12805.562797
2063.995722,9422.974625,11695.253884,2368.659014
2063.996040,12410.747068,11769.274478,-2960.823768
2063.996357,16088.005458,7920.203579,0.000000
2063.996674,16930.710506,9400.615463,-13101.645173
2063.996992,15398.519510,962.267725,-1110.308913
2063.997309,6741.640382,-4071.132681,1184.329507
2063.997626,612.876398,-7254.018232,2960.823768
2063.997944,-3677.258390,-7254.018232,7402.059420
2063.998261,-7124.688131,-12583.501014,27313.599260
2063.998578,-7354.516781,-14804.118840,33679.370361
2063.998895,-9269.755526,-6291.750507,21095.869347
2063.999213,-10342.289223,-1702.473667,14211.954086
2063.999530,-9269.755526,1184.329507,24574.837274
2063.999847,-6358.592633,12805.562797,14952.160028
2064.000165,6741.640382,13397.727550,7105.977043
2064.000482,12410.747068,15470.304188,1554.432478
2064.000799,14019.547613,13101.645173,740.205942
2064.001117,16777.491406,9696.697840,-5551.544565
2064.001434,15551.738609,7105.977043,-13101.645173
2064.001751,12257.527968,-5403.503377,4959.379811
2064.002069,2911.162892,-7105.977043,2886.803174
2064.002386,-2068.457845,-9178.553681,4219.173869
2064.002703,-5362.668486,-11547.212695,14211.954086
2064.003020,-10955.165621,-16136.489536,32569.061448
2064.003338,-8656.879127,-15618.345376,33161.226202
2064.003655,-12947.013916,-5181.441594,13397.727550
2064.003972,-10342.289223,-0.000000,13915.871710
2064.004290,-9116.536426,2664.741391,23686.590144
2064.004607,-4903.011187,12361.439231,10955.047942
2064.004924,8810.098227,11473.192101,5921.647536
2064.005242,12410.747068,13397.727550,74.020594
2064.005559,11414.822920,7550.100608,-5403.503377
2064.005876,17620.196454,8216.285956,-9992.780217
2064.006194,13866.328514,-0.000000,-2960.823768
2064.006511,7507.735880,-4811.338623,-1554.432478
2064.006828,3524.039291,-10436.903782,3256.906145
2064.007145,-3677.258390,-9696.697840,8290.306550
2064.007463,-7354.516781,-15470.304188,23316.487173
2064.007780,-11338.213370,-18801.230927,32050.917289
2064.008097,-12717.185267,-11991.336260,21984.116477
2064.008415,-12563.966167,-2368.659014,16358.551318
2064.008732,-11108.384721,3256.906145,18949.272115
2064.009049,-7048.078582,12065.356855,13101.645173
2064.009367,4596.572988,20947.828159,6069.688724
2064.009684,10878.556072,16358.551318,1480.411884
2064.010001,13406.671215,12065.356855,-1628.453072
2064.010319,15092.081311,8142.265362,-2442.679609
2064.010636,15245.300410,10214.842000,-13619.789333
2064.010953,12334.137518,-3330.926739,222.061783
2064.011270,4903.011187,-4219.173869,814.226536
2064.011588,0.000000,-5403.503377,2812.782580
2064.011905,-3907.087040,-9770.718434,13841.851115
2064.012222,-10878.556072,-15766.386565,26499.372724
2064.012540,-10725.336972,-15470.304188,32643.082042
2064.012857,-15551.738609,-5329.482782,14285.974681
2064.013174,-12104.308868,-0.000000,14508.036463
2064.013492,-9806.022374,4885.359217,23686.590144
2064.013809,-4136.915689,17246.798449,9178.553681
2064.014126,9499.584175,14582.057057,4219.173869
2064.014444,12410.747068,15322.262999,296.082377
2064.014761,14555.814462,9178.553681,-2294.638420
2064.015078,17850.025103,8142.265362,-7105.977043
2064.015395,14019.547613,2368.659014,-3701.029710
2064.015713,6971.469032,-6513.812290,1702.473667
2064.016030,2681.334243,-7550.100608,6365.771101
2064.016347,-1838.629195,-8290.306550,8068.244768
2064.016665,-8350.440928,-9030.512492,19245.354492
2064.016982,-9959.241474,-16580.613101,32421.020260
2064.017299,-12563.966167,-10214.842000,25092.981434
2064.017617,-16164.615008,-4071.132681,14878.139434
2064.017934,-13866.328514,-1480.411884,25167.002028
2064.018251,-12027.699319,5403.503377,19319.375086
2064.018569,229.828649,14582.057057,9770.718434
2064.018886,9499.584175,15322.262999,2220.617826
2064.019203,12717.185267,12583.501014,3478.967927
2064.019521,16317.834107,4219.173869,1850.514855
2064.019838,16317.834107,6809.894666,-4811.338623
2064.020155,11031.775171,-1258.350101,-222.061783
2064.020472,6971.469032,-5107.421000,5107.421000
2064.020790,2528.115143,-6661.853478,6365.771101
2064.021107,-2221.676944,-3997.112087,6883.915261
2064.021424,-7737.564530,-10066.800811,22946.384202
2064.021742,-8120.612279,-9992.780217,31310.711347
2064.022059,-9576.193725,-4959.379811,21539.992912
2064.022376,-11338.213370,740.205942,10510.924376
2064.022694,-7431.126331,148.041188,19097.313304
2064.023011,-6205.373534,7402.059420,14878.139434
2064.023328,3677.258390,8068.244768,7476.080014
2064.023646,14709.033562,8512.368333,2738.761985
2064.023963,13636.499864,5181.441594,-2220.617826
2064.024280,15858.176809,4219.173869,-1554.432478
2064.024597,15168.690860,2516.700203,-7772.162391
2064.024915,10572.117872,-1924.535449,-1998.556043
2064.025232,6358.592633,-5403.503377,2516.700203
2064.025549,-612.876398,-8512.368333,3330.926739
2064.025867,-6971.469032,-8660.409521,10732.986159
2064.026184,-8503.660028,-9104.533087,28127.825796
2064.026501,-9039.926876,-12805.562797,29460.196492
2064.026819,-12793.794817,-4885.359217,12583.501014
2064.027136,-10955.165621,-1258.350101,18061.024985
2064.027453,-9806.022374,4441.235652,21910.095883
2064.027771,-4826.401637,11251.130318,6809.894666
2064.028088,8273.831378,13323.706956,1702.473667
2064.028405,12257.527968,11917.315666,3627.009116
2064.028722,10572.117872,4663.297435,-1998.556043
2064.029040,14172.766713,5329.482782,-7772.162391
2064.029357,11031.775171,-666.185348,-592.164754
2064.029674,5822.325785,-4293.194464,-814.226536
2064.029992,2298.286494,-5033.400406,4145.153275
2064.030309,-1838.629195,-8364.327145,8586.388927
2064.030626,-8350.440928,-10288.862594,15914.427753
2064.030944,-8810.098227,-10658.965565,25833.187376
2064.031261,-11568.042020,-7254.018232,20059.581028
2064.031578,-12257.527968,-2368.659014,12953.603985
2064.031896,-9116.536426,1036.288319,19245.354492
2064.032213,-7507.735880,12287.418637,8660.409521
2064.032530,3907.087040,13915.871710,4959.379811
2064.032847,11108.384721,11473.192101,2960.823768
2064.033165,13100.233016,4589.276840,1036.288319
2064.033482,12487.356617,2738.761985,-518.144159
2064.033799,12563.966167,2368.659014,-2146.597232
2064.034117,9806.022374,-2146.597232,-1998.556043
2064.034434,6052.154434,-3478.967927,1924.535449
2064.034751,1991.848295,-7031.956449,10732.986159
2064.035069,-5669.106685,-6809.894666,11991.336260
2064.035386,-7584.345430,-12731.542202,24648.857869
2064.035703,-11261.603821,-8882.471304,28868.031738
2064.036021,-14249.376263,-4515.256246,20059.581028
2064.036338,-9806.022374,3108.864956,16284.530724
2064.036655,-7507.735880,5773.606348,21391.951724
2064.036972,-2911.162892,11251.130318,10066.800811
2064.037290,7584.345430,11325.150913,7624.121203
2064.037607,14785.643111,12731.542202,3923.091493
2064.037924,15321.909960,4811.338623,-1110.308913
2064.038242,17313.758255,4737.318029,444.123565
2064.038559,11797.870669,740.205942,-1998.556043
2064.038876,7967.393179,-1850.514855,666.185348
2064.039194,3753.867940,-5033.400406,5625.565159
2064.039511,536.266849,-7476.080014,14434.015869
2064.039828,-8656.879127,-11177.109724,17468.860231
2064.040146,-11568.042020,-8808.450710,29016.072926
2064.040463,-11491.432470,-8142.265362,26351.331535
2064.040780,-14172.766713,222.061783,15322.262999
2064.041098,-7507.735880,-814.226536,25759.166782
2064.041415,-6281.983084,7920.203579,13915.871710
2064.041732,1378.971896,14211.954086,5995.668130
2064.042049,12104.308868,13915.871710,4589.276840
2064.042367,14938.862211,11917.315666,0.000000
2064.042684,15321.909960,1998.556043,-592.164754
2064.043001,13406.671215,3478.967927,-5995.668130
2064.043319,9576.193725,-6069.688724,2442.679609
2064.043636,4519.963438,-7254.018232,1258.350101
2064.043953,2451.505594,-8512.368333,8290.306550
2064.044270,-842.705048,-9400.615463,12287.418637
2064.044588,-7431.126331,-8956.491898,19911.539840
2064.044905,-8886.707777,-9252.574275,27091.537477
2064.045222,-13100.233016,-1110.308913,16432.571912
2064.045539,-9882.631924,888.247130,15396.283594
2064.045857,-7814.174080,4293.194464,19615.457463
2064.046174,-3907.087040,12139.377449,7550.100608
2064.046491,6971.469032,13249.686362,2590.720797
2064.046808,12870.404366,12287.418637,370.102971
2064.047126,14555.814462,4663.297435,-1184.329507
2064.047443,14096.157163,-222.061783,-1258.350101
2064.047760,10725.336972,-4071.132681,-740.205942
2064.048077,7277.907231,-7179.997637,-1406.391290
2064.048394,3447.429741,-5033.400406,666.185348
2064.048712,-459.657299,-7179.997637,8142.265362
2064.049029,-7124.688131,-7994.224174,13989.892304
2064.049346,-8656.879127,-9918.759623,23834.631332
2064.049663,-10878.556072,-4737.318029,20355.663405
2064.049981,-14709.033562,-1702.473667,10955.047942
2064.050298,-9269.755526,-222.061783,20207.622217
2064.050615,-11184.994271,6217.729913,11991.336260
2064.050932,-1072.533697,11399.171507,6439.791695
2064.051250,5592.497135,10881.027347,3182.885551
2064.051567,10878.556072,7920.203579,1332.370696
2064.051884,9729.412825,2664.741391,-6291.750507
2064.052201,12257.527968,1850.514855,1702.473667
2064.052518,7584.345430,-6439.791695,3034.844362
2064.052836,3217.601092,-7846.182985,-1184.329507
2064.053153,-153.219100,-8438.347739,7402.059420
2064.053470,-6205.373534,-6735.874072,14582.057057
2064.053787,-6894.859482,-9918.759623,22132.157666
2064.054105,-10189.070123,-4737.318029,25907.207970
2064.054422,-11184.994271,-1332.370696,19911.539840
2064.054739,-10112.460574,4663.297435,17172.777854
2064.055056,-5745.716235,8068.244768,12657.521608
2064.055374,-1532.190996,12583.501014,9326.594869
2064.055691,5515.887586,12805.562797,6661.853478
2064.056008,13330.061665,8364.327145,3923.091493
2064.056325,14172.766713,5995.668130,-2146.597232
2064.056642,15858.176809,2220.617826,0.000000
2064.056960,11568.042020,-2664.741391,1628.453072
2064.057277,5975.544884,-7402.059420,1924.535449
2064.057594,2528.115143,-7550.100608,7994.224174
2064.057911,-1762.019645,-6957.935855,13619.789333
2064.058229,-9269.755526,-6735.874072,17542.880825
2064.058546,-9116.536426,-6291.750507,24944.940245
2064.058863,-9422.974625,-4515.256246,27091.537477
2064.059180,-11721.261119,-148.041188,15914.427753
2064.059497,-9116.536426,1480.411884,17468.860231
2064.059815,-7354.516781,6513.812290,14211.954086
2064.060132,1225.752797,11103.089130,12361.439231
2064.060449,8810.098227,8956.491898,9474.636058
2064.060766,13176.842566,9474.636058,2220.617826
2064.061084,16854.100956,3775.050304,1184.329507
2064.061401,15781.567259,5255.462188,-4219.173869
2064.061718,13330.061665,-3849.070898,1480.411884
2064.062035,6665.030833,-7031.956449,3034.844362
2064.062353,3677.258390,-5995.668130,5329.482782
2064.062670,-766.095498,-6217.729913,11399.171507
2064.062987,-7890.783629,-6809.894666,19763.498651
2064.063304,-8044.002729,-6069.688724,26055.249158
2064.063621,-11261.603821,-3552.988522,21095.869347
2064.063939,-12257.527968,1406.391290,16432.571912
2064.064256,-7737.564530,4885.359217,20355.663405
2064.064573,-4136.915689,9622.677246,10436.903782
2064.064890,4136.915689,14137.933492,6069.688724
2064.065208,13100.233016,10140.821405,8216.285956
2064.065525,15245.300410,9104.533087,-222.061783
2064.065842,17390.367805,2664.741391,-3627.009116
2064.066159,12257.527968,2442.679609,-6513.812290
2064.066477,9729.412825,-6217.729913,2516.700203
2064.066794,2987.772442,-8142.265362,2664.741391
2064.067111,-1915.238745,-8290.306550,7105.977043
2064.067428,-7737.564530,-6143.709319,11547.212695
2064.067745,-9882.631924,-6661.853478,21614.013506
2064.068063,-7967.393179,-6587.832884,23390.507767
2064.068380,-14479.204912,-444.123565,10881.027347
2064.068697,-10955.165621,-1850.514855,15766.386565
2064.069014,-10265.679673,3478.967927,13471.748144
2064.069332,-3753.867940,8364.327145,8956.491898
2064.069649,6665.030833,7476.080014,7105.977043
2064.069966,11491.432470,7105.977043,1702.473667
2064.070283,12947.013916,2664.741391,-2368.659014
2064.070601,14785.643111,3627.009116,-1184.329507
2064.070918,12717.185267,-2886.803174,1776.494261
2064.071235,5515.887586,-5329.482782,-4737.318029
2064.071552,3140.991542,-6957.935855,3849.070898
2064.071869,-5362.668486,-6957.935855,8142.265362
2064.072187,-7048.078582,-10881.027347,20651.745782
2064.072504,-11184.994271,-8586.388927,23538.548956
2064.072821,-12717.185267,-5477.523971,17838.963202
2064.073138,-14325.985813,740.205942,14582.057057
2064.073456,-10955.165621,2738.761985,19541.436869
2064.073773,-7507.735880,4589.276840,14359.995275
2064.074090,1991.848295,12953.603985,8142.265362
2064.074407,11031.775171,9622.677246,6365.771101
2064.074725,12947.013916,7402.059420,222.061783
2064.075042,16317.834107,4663.297435,-1480.411884
2064.075359,16700.881856,-0.000000,1628.453072
2064.075676,8886.707777,-2960.823768,-3627.009116
2064.075993,6205.373534,-6735.874072,2590.720797
2064.076311,-153.219100,-6957.935855,9326.594869
2064.076628,-7660.954980,-5403.503377,15100.201217
2064.076945,-7277.907231,-4737.318029,18949.272115
2064.077262,-7890.783629,-740.205942,23316.487173
2064.077580,-12027.699319,3034.844362,16728.654289
2064.077897,-9422.974625,1184.329507,16876.695478
2064.078214,-8044.002729,6735.874072,13027.624579
2064.078531,-1762.019645,9548.656652,11029.068536
2064.078849,7277.907231,6809.894666,9474.636058
2064.079166,12410.747068,6365.771101,3552.988522
2064.079483,16394.443657,2664.741391,4071.132681
2064.079800,15934.786358,592.164754,444.123565
2064.080117,11721.261119,-4663.297435,2442.679609
2064.080435,7814.174080,-6069.688724,2072.576638
2064.080752,3447.429741,-2368.659014,3256.906145
2064.081069,842.705048,-1776.494261,13027.624579
2064.081386,-7431.126331,-0.000000,13989.892304
2064.081704,-7584.345430,-1036.288319,21539.992912
2064.082021,-9116.536426,-0.000000,22502.260637
2064.082338,-12563.966167,1850.514855,17172.777854
2064.082655,-9346.365076,-962.267725,20947.828159
2064.082973,-8963.317327,3330.926739,15100.201217
2064.083290,-612.876398,8586.388927,11473.192101
2064.083607,8656.879127,8956.491898,10510.924376
2064.083924,12563.966167,6143.709319,5625.565159
2064.084241,13100.233016,3034.844362,-2664.741391
2064.084559,12870.404366,3627.009116,-1850.514855
2064.084876,9193.145976,-2368.659014,1702.473667
2064.085193,4903.011187,-2960.823768,1332.370696
2064.085510,842.705048,-5921.647536,4737.318029
2064.085828,-5898.935335,-3478.967927,12213.398043
2064.086145,-9039.926876,-7994.224174,21910.095883
2064.086462,-9959.241474,-5773.606348,25463.084405
2064.086779,-14019.547613,-4515.256246,14508.036463
2064.087097,-12487.356617,-1702.473667,20503.704593
2064.087414,-10648.727422,3627.009116,17246.798449
2064.087731,-4903.011187,10362.883188,8512.368333
2064.088048,3677.258390,9252.574275,4293.194464
2064.088365,10495.508323,7031.956449,7179.997637
2064.088683,14479.204912,1924.535449,2368.659014
2064.089000,15015.471761,2368.659014,-4071.132681
2064.089317,14325.985813,-4589.276840,1702.473667
2064.089634,7507.735880,-8364.327145,148.041188
2064.089952,5362.668486,-8068.244768,4071.132681
2064.090269,536.266849,-6069.688724,9844.739029
2064.090586,-7431.126331,-4737.318029,10214.842000
2064.090903,-7660.954980,-4071.132681,18727.210333
2064.091221,-8350.440928,-3256.906145,18727.210333
2064.091538,-13789.718964,1258.350101,9992.780217
2064.091855,-10572.117872,-1702.473667,16358.551318
2064.092172,-9806.022374,5625.565159,11547.212695
2064.092489,0.000000,10066.800811,6513.812290
2064.092807,10035.851024,9770.718434,8364.327145
2064.093124,13636.499864,5403.503377,2294.638420
2064.093441,14938.862211,1554.432478,-1480.411884
2064.093758,13713.109414,666.185348,-962.267725
2064.094076,10648.727422,-3923.091493,296.082377
2064.094393,5439.278036,-6735.874072,0.000000
2064.094710,1838.629195,-5625.565159,6587.832884
2064.095027,-5209.449386,-3330.926739,10807.006753
2064.095345,-7584.345430,-4367.215058,19245.354492
2064.095662,-7277.907231,-4737.318029,23538.548956
2064.095979,-13636.499864,-222.061783,12435.459826
2064.096296,-12334.137518,-1110.308913,18061.024985
2064.096613,-9422.974625,1776.494261,17987.004391
2064.096931,-4903.011187,8586.388927,9474.636058
2064.097248,6205.373534,9770.718434,5551.544565
2064.097565,14402.595362,8586.388927,6143.709319
2064.097882,15781.567259,2146.597232,2442.679609
2064.098200,16241.224558,2146.597232,-1110.308913
2064.098517,13559.890315,-3478.967927,4219.173869
2064.098834,6358.592633,-7254.018232,1998.556043
2064.099151,3753.867940,-9030.512492,6587.832884
2064.099469,-1225.752797,-5033.400406,11621.233289
2064.099786,-7277.907231,-4663.297435,16580.613101
2064.100103,-8197.221829,-2442.679609,21317.931130
2064.100420,-7890.783629,-962.267725,21095.869347
2064.100737,-11031.775171,2146.597232,16654.633695
2064.101055,-7890.783629,2146.597232,20725.766376
2064.101372,-6818.249932,6439.791695,12361.439231
2064.101689,689.485948,10732.986159,6365.771101
2064.102006,10342.289223,8956.491898,9992.780217
2064.102324,13713.109414,3034.844362,4959.379811
2064.102641,15628.348159,2442.679609,1554.432478
2064.102958,12563.966167,1332.370696,-1702.473667
2064.103275,9346.365076,-4737.318029,3775.050304
2064.103593,3600.648841,-5847.626942,3034.844362
2064.103910,1685.410096,-5033.400406,8142.265362
2064.104227,-4519.963438,-3108.864956,12065.356855
2064.104544,-6052.154434,-2886.803174,18431.127956
2064.104861,-7814.174080,-1628.453072,21243.910535
2064.105179,-11414.822920,-1184.329507,15766.386565
2064.105496,-10648.727422,-1480.411884,18801.230927
2064.105813,-9499.584175,3108.864956,16358.551318
2064.106130,-5898.935335,5329.482782,11029.068536
2064.106448,2528.115143,9030.512492,4663.297435
2064.106765,10801.946522,7624.121203,7254.018232
2064.107082,13483.280765,1924.535449,2886.803174
2064.107399,12793.794817,1628.453072,-2516.700203
2064.107717,11568.042020,-4293.194464,3404.947333
2064.108034,5669.106685,-5255.462188,-592.164754
2064.108351,4060.306139,-3849.070898,74.020594
2064.108668,1072.533697,-5477.523971,9474.636058
2064.108985,-6665.030833,-4885.359217,13323.706956
2064.109303,-8656.879127,-6143.709319,20207.622217
2064.109620,-11031.775171,-4737.318029,17764.942608
2064.109937,-13866.328514,-1110.308913,14804.118840
2064.110254,-9729.412825,-296.082377,20873.807564
2064.110572,-8503.660028,6587.832884,9992.780217
2064.110889,1838.629195,13175.665768,3182.885551
2064.111206,9806.022374,11177.109724,5181.441594
2064.111523,13023.623466,2960.823768,4663.297435
2064.111841,15475.129060,3108.864956,-1702.473667
2064.112158,14862.252661,888.247130,0.000000
2064.112475,8273.831378,-1480.411884,-3256.906145
2064.112792,5669.106685,-4811.338623,518.144159
2064.113109,1225.752797,-5329.482782,5255.462188
2064.113427,-4596.572988,-5403.503377,15396.283594
2064.113744,-8810.098227,-7328.038826,19023.292709
2064.114061,-9499.584175,-5551.544565,21688.034101
2064.114378,-13636.499864,-1036.288319,13175.665768
2064.114696,-10265.679673,148.041188,17912.983796
2064.115013,-9193.145976,4071.132681,16432.571912
2064.115330,-3064.381992,10732.986159,6439.791695
2064.115647,6128.763984,10436.903782,4367.215058
2064.115965,12870.404366,6883.915261,3701.029710
2064.116282,15321.909960,1480.411884,4219.173869
2064.116599,14709.033562,444.123565,-296.082377
2064.116916,11491.432470,-3330.926739,1702.473667
2064.117233,5056.230287,-5773.606348,1406.391290
2064.117551,2451.505594,-6513.812290,4441.235652
2064.117868,-1149.143247,-5181.441594,11103.089130
2064.118185,-7354.516781,-4663.297435,15766.386565
2064.118502,-9499.584175,-2072.576638,20725.766376
2064.118820,-10801.946522,-4737.318029,16802.674883
2064.119137,-12563.966167,-148.041188,15618.345376
2064.119454,-9652.803275,-1110.308913,25241.022622
2064.119771,-7967.393179,5773.606348,13249.686362
2064.120089,1455.581446,10510.924376,3775.050304
2064.120406,10801.946522,9844.739029,9252.574275
2064.120723,14402.595362,3256.906145,6883.915261
2064.121040,15704.957709,2886.803174,518.144159
2064.121357,13483.280765,1702.473667,1110.308913
2064.121675,7354.516781,-3108.864956,1702.473667
2064.121992,4826.401637,-5255.462188,5403.503377
2064.122309,1378.971896,-5773.606348,9548.656652
2064.122626,-5209.449386,-3849.070898,13841.851115
2064.122944,-7201.297681,-3256.906145,21910.095883
2064.123261,-7890.783629,1702.473667,19393.395680
2064.123578,-10342.289223,3330.926739,14804.118840
2064.123895,-7201.297681,1332.370696,21391.951724
2064.124213,-7507.735880,4219.173869,15100.201217
2064.124530,-1532.190996,9622.677246,5477.523971
2064.124847,6741.640382,7254.018232,5625.565159
2064.125164,11874.480219,3478.967927,7624.121203
2064.125481,13713.109414,-518.144159,4515.256246
2064.125799,11951.089769,518.144159,444.123565
2064.126116,7660.954980,-5255.462188,3627.009116
2064.126433,2987.772442,-6883.915261,5773.606348
2064.126750,1149.143247,-7550.100608,6809.894666
2064.127068,-2757.943793,-2960.823768,12583.501014
2064.127385,-6665.030833,-1924.535449,15322.262999
2064.127702,-7507.735880,222.061783,19023.292709
2064.128019,-7890.783629,-74.020594,12213.398043
2064.128337,-9729.412825,1480.411884,15988.448347
2064.128654,-6052.154434,1480.411884,18653.189738
2064.128971,-3753.867940,6587.832884,9326.594869
2064.129288,3983.696590,8586.388927,4663.297435
2064.129605,10878.556072,4367.215058,6365.771101
2064.129923,12870.404366,-74.020594,3997.112087
2064.130240,13789.718964,444.123565,148.041188
2064.130557,10342.289223,-2442.679609,1924.535449
2064.130874,5056.230287,-5329.482782,740.205942
2064.131192,3983.696590,-4219.173869,1702.473667
2064.131509,612.876398,-4663.297435,8438.347739
2064.131826,-7277.907231,-3552.988522,13619.789333
2064.132143,-7814.174080,-3256.906145,16950.716072
2064.132460,-9039.926876,148.041188,14582.057057
2064.132778,-11108.384721,-0.000000,13545.768739
2064.133095,-8427.050478,-1184.329507,23316.487173
2064.133412,-7507.735880,4293.194464,10955.047942
2064.133729,995.924147,10214.842000,2368.659014
2064.134047,8886.707777,9252.574275,3997.112087
2064.134364,13253.452115,2812.782580,5551.544565
2064.134681,15398.519510,1036.288319,444.123565
2064.134998,14249.376263,1628.453072,-740.205942
2064.135316,9039.926876,-2442.679609,-666.185348
2064.135633,4443.353888,-5107.421000,1184.329507
2064.135950,2451.505594,-5995.668130,9178.553681
2064.136267,-6665.030833,-5255.462188,11769.274478
2064.136584,-7967.393179,-6587.832884,19837.519246
2064.136902,-9039.926876,-1258.350101,17024.736666
2064.137219,-12640.575717,-74.020594,12805.562797
2064.137536,-9729.412825,-1776.494261,18875.251521
2064.137853,-8733.488677,2072.576638,16432.571912
2064.138171,-3524.039291,8364.327145,6957.935855
2064.138488,4366.744339,8882.471304,7476.080014
2064.138805,9346.365076,3923.091493,6143.709319
2064.139122,11797.870669,740.205942,4071.132681
2064.139440,13789.718964,518.144159,5625.565159
2064.139757,9422.974625,-2368.659014,4737.318029
2064.140074,3677.258390,-3552.988522,962.267725
2064.140391,1532.190996,-5625.565159,6439.791695
2064.140708,-2145.067394,-5107.421000,13841.851115
2064.141026,-7124.688131,-4441.235652,16802.674883
2064.141343,-9116.536426,518.144159,19615.457463
2064.141660,-10725.336972,1110.308913,14211.954086
2064.141977,-9959.241474,3627.009116,17764.942608
2064.142295,-6128.763984,3849.070898,20799.786970
2064.142612,-3294.210641,8586.388927,11029.068536
2064.142929,2451.505594,11103.089130,3997.112087
2064.143246,9959.241474,7179.997637,7254.018232
2064.143564,14402.595362,2146.597232,5699.585753
2064.143881,14709.033562,-148.041188,3775.050304
2064.144198,12870.404366,-1776.494261,4589.276840
2064.144515,6971.469032,-2072.576638,962.267725
2064.144832,4673.182538,-3775.050304,2738.761985
2064.145150,689.485948,-4145.153275,10510.924376
2064.145467,-5515.887586,-2812.782580,14582.057057
2064.145785,-8273.831378,-2516.700203,19541.436869
2064.146102,-9576.193725,1036.288319,18653.189738
2064.146419,-10342.289223,4145.153275,14434.015869
2064.146737,-6665.030833,3923.091493,19541.436869
2064.147054,-4366.744339,4071.132681,13249.686362
2064.147372,306.438199,9326.594869,5551.544565
2064.147689,6741.640382,7698.141797,4145.153275
2064.148007,11644.651570,2664.741391,4441.235652
2064.148324,11797.870669,-2812.782580,2220.617826
2064.148641,11261.603821,-2368.659014,5033.400406
2064.148959,6588.421283,-5403.503377,4811.338623
2064.149276,1532.190996,-5847.626942,2072.576638
2064.149594,76.609550,-6735.874072,9178.553681
2064.149911,-3907.087040,-7772.162391,16654.633695
2064.150229,-8044.002729,-2960.823768,17394.839637
2064.150546,-8733.488677,2516.700203,15692.365970
2064.150863,-9806.022374,4145.153275,10436.903782
2064.151181,-6588.421283,6439.791695,16654.633695
2064.151498,-3600.648841,3182.885551,17246.798449
2064.151816,-1762.019645,10288.862594,5403.503377
2064.152133,4979.620737,7105.977043,2664.741391
2064.152450,10495.508323,3701.029710,5403.503377
2064.152768,11491.432470,-4441.235652,5107.421000
2064.153085,11491.432470,-4441.235652,3923.091493
2064.153403,8350.440928,-5699.585753,5403.503377
2064.153720,4136.915689,-4071.132681,3108.864956
2064.154038,3447.429741,-7254.018232,3923.091493
2064.154355,-1532.190996,-5107.421000,11473.192101
2064.154672,-6818.249932,-4219.173869,14730.098246
2064.154990,-8963.317327,518.144159,15026.180623
2064.155307,-10189.070123,1184.329507,9918.759623
2064.155625,-8733.488677,1184.329507,14952.160028
2064.155942,-6588.421283,2812.782580,18949.272115
2064.156260,-2528.115143,5847.626942,9474.636058
2064.156577,2834.553343,8734.430116,2220.617826
2064.156894,8503.660028,4589.276840,4145.153275
2064.157212,9959.241474,-2664.741391,2738.761985
2064.157529,11031.775171,-2368.659014,3997.112087
2064.157847,9576.193725,-3404.947333,9178.553681
2064.158164,3753.867940,-2738.761985,-962.267725
2064.158482,2987.772442,-4441.235652,2812.782580
2064.158799,0.000000,-5107.421000,12657.521608
2064.159116,-6894.859482,-3701.029710,15100.201217
2064.159434,-7967.393179,-2368.659014,18283.086767
2064.159751,-8963.317327,1998.556043,13915.871710
2064.160069,-7354.516781,3478.967927,15766.386565
2064.160386,-4596.572988,3034.844362,17912.983796
2064.160704,-766.095498,3404.947333,11769.274478
2064.161021,4519.963438,8734.430116,3701.029710
2064.161338,9959.241474,5329.482782,5181.441594
2064.161656,13636.499864,-740.205942,3478.967927
2064.161973,14019.547613,-1998.556043,4441.235652
2064.162291,12410.747068,-1110.308913,5403.503377
2064.162608,8733.488677,-1924.535449,3108.864956
2064.162926,4903.011187,-3034.844362,5181.441594
2064.163243,1991.848295,-5329.482782,12435.459826
2064.163560,-4673.182538,-4145.153275,15988.448347
2064.163878,-6818.249932,-2590.720797,18431.127956
2064.164195,-7584.345430,1628.453072,18505.148550
2064.164513,-8044.002729,2072.576638,13915.871710
2064.164830,-4903.011187,1332.370696,18949.272115
2064.165147,-2987.772442,3627.009116,14804.118840
2064.165465,1072.533697,7179.997637,6661.853478
2064.165782,6665.030833,4959.379811,4293.194464
2064.166100,9806.022374,3182.885551,4145.153275
2064.166417,11031.775171,-2146.597232,3775.050304
2064.166735,8733.488677,-0.000000,3478.967927
2064.167052,5898.935335,-1628.453072,4811.338623
2064.167369,1378.971896,-2516.700203,3108.864956
2064.167687,-995.924147,-3701.029710,7179.997637
2064.168004,-4213.525239,-5847.626942,14211.954086
2064.168322,-9422.974625,-4737.318029,18949.272115
2064.168639,-10955.165621,-1258.350101,18727.210333
2064.168957,-11031.775171,148.041188,11621.233289
2064.169274,-9346.365076,1258.350101,17987.004391
2064.169591,-5132.839837,3552.988522,19393.395680
2064.169909,-1225.752797,10066.800811,5847.626942
2064.170226,4826.401637,12139.377449,2738.761985
2064.170544,9039.926876,4441.235652,4663.297435
2064.170861,10265.679673,296.082377,2368.659014
2064.171179,10648.727422,1258.350101,2590.720797
2064.171496,9193.145976,-1702.473667,6439.791695
2064.171813,2374.896044,-1998.556043,296.082377
2064.172131,919.314598,-4737.318029,4219.173869
2064.172448,-2451.505594,-6883.915261,13101.645173
2064.172766,-7584.345430,-5551.544565,16136.489536
2064.173083,-8886.707777,-1628.453072,18061.024985
2064.173401,-9269.755526,-0.000000,12287.418637
2064.173718,-10112.460574,3775.050304,12583.501014
2064.174035,-5898.935335,2294.638420,19467.416275
2064.174353,-3370.820191,7920.203579,9030.512492
2064.174670,3370.820191,9030.512492,4441.235652
2064.174988,8733.488677,5255.462188,3627.009116
2064.175305,10495.508323,1554.432478,1702.473667
2064.175623,11797.870669,-148.041188,4589.276840
2064.175940,9346.365076,-2516.700203,6291.750507
2064.176257,3907.087040,-4219.173869,1628.453072
2064.176575,1225.752797,-3775.050304,4589.276840
2064.176892,-1532.190996,-4959.379811,14063.912898
2064.177210,-6435.202183,-3552.988522,14878.139434
2064.177527,-7048.078582,-0.000000,19393.395680
2064.177845,-8044.002729,3108.864956,13693.809927
2064.178162,-7890.783629,4663.297435,11843.295072
2064.178479,-3524.039291,2294.638420,16358.551318
2064.178797,0.000000,2664.741391,11029.068536
2064.179114,6281.983084,5625.565159,4811.338623
2064.179432,11491.432470,1702.473667,3701.029710
2064.179749,13253.452115,-1110.308913,2146.597232
2064.180066,12410.747068,-1924.535449,2738.761985
2064.180384,10572.117872,-2812.782580,7550.100608
2064.180701,5286.058936,-4071.132681,1702.473667
2064.181019,1225.752797,-1776.494261,4219.173869
2064.181336,-1225.752797,-5255.462188,13249.686362
2064.181654,-6128.763984,-1776.494261,14730.098246
2064.181971,-6358.592633,-444.123565,18209.066173
2064.182288,-6358.592633,1850.514855,16506.592507
2064.182606,-6818.249932,2072.576638,13545.768739
2064.182923,-2987.772442,888.247130,18357.107362
2064.183241,-1608.800546,2368.659014,14211.954086
2064.183558,3524.039291,6217.729913,7476.080014
2064.183876,7967.393179,5625.565159,2812.782580
2064.184193,10878.556072,1554.432478,3997.112087
2064.184510,10342.289223,-1924.535449,3404.947333
2064.184828,7737.564530,-1702.473667,3404.947333
2064.185145,4673.182538,-3552.988522,4663.297435
2064.185463,459.657299,-2368.659014,5107.421000
2064.185780,153.219100,-4811.338623,11251.130318
2064.186098,-3064.381992,-3182.885551,13249.686362
2064.186415,-5745.716235,-2590.720797,17987.004391
2064.186732,-7660.954980,-444.123565,16876.695478
2064.187050,-6358.592633,222.061783,13471.748144
2064.187367,-4749.792088,888.247130,14804.118840
2064.187685,-1532.190996,2368.659014,15692.365970
2064.188002,2911.162892,5255.462188,9400.615463
2064.188320,6205.373534,4885.359217,3034.844362
2064.188637,10955.165621,1036.288319,4515.256246
2064.188954,10572.117872,-3182.885551,1480.411884
2064.189272,9116.536426,-2516.700203,2812.782580
2064.189589,6894.859482,-4145.153275,4071.132681
2064.189907,1072.533697,-3849.070898,1628.453072
2064.190224,-689.485948,-6217.729913,9844.739029
2064.190542,-4136.915689,-4589.276840,13101.645173
2064.190859,-8044.002729,-3775.050304,17024.736666
2064.191176,-8350.440928,-962.267725,17246.798449
2064.191494,-9729.412825,592.164754,10510.924376
2064.191811,-7431.126331,962.267725,17542.880825
2064.192129,-4136.915689,518.144159,19319.375086
2064.192446,-1225.752797,6439.791695,7624.121203
2064.192763,6358.592633,6735.874072,3108.864956
2064.193081,9882.631924,3923.091493,5625.565159
2064.193398,11644.651570,-1850.514855,1998.556043
2064.193716,11338.213370,1258.350101,1480.411884
2064.194033,8886.707777,962.267725,1924.535449
2064.194351,4903.011187,-74.020594,888.247130
2064.194668,-842.705048,-2368.659014,6365.771101
2064.194985,-4136.915689,-3478.967927,12435.459826
2064.195303,-7277.907231,-2664.741391,16062.468941
2064.195620,-9039.926876,370.102971,17172.777854
2064.195938,-9193.145976,-2368.659014,14359.995275
2064.196255,-8733.488677,1702.473667,12361.439231
2064.196573,-4903.011187,148.041188,18061.024985
2064.196890,-919.314598,4885.359217,9844.739029
2064.197207,3907.087040,5403.503377,4737.318029
2064.197525,9806.022374,4737.318029,5107.421000
2064.197842,13100.233016,1776.494261,2220.617826
2064.198160,12640.575717,3108.864956,3182.885551
2064.198477,10648.727422,-444.123565,3256.906145
2064.198795,4213.525239,-814.226536,1924.535449
2064.199112,229.828649,-3701.029710,5847.626942
2064.199429,-2834.553343,-4959.379811,14656.077652
2064.199747,-8656.879127,-3034.844362,13989.892304
2064.200064,-8350.440928,-0.000000,18209.066173
2064.200382,-8810.098227,1480.411884,15840.407159
2064.200699,-6358.592633,2812.782580,14137.933492
2064.201017,-2987.772442,1998.556043,17468.860231
2064.201334,-1072.533697,4441.235652,12657.521608
2064.201651,2451.505594,4293.194464,7550.100608
2064.201969,8273.831378,3034.844362,7179.997637
2064.202286,11721.261119,2220.617826,3923.091493
2064.202604,12870.404366,2220.617826,3478.967927
2064.202921,10265.679673,3627.009116,2590.720797
2064.203239,5898.935335,2886.803174,1332.370696
2064.203556,1915.238745,-0.000000,4441.235652
2064.203873,-2604.724693,-2516.700203,10658.965565
2064.204191,-8503.660028,-2738.761985,15100.201217
2064.204508,-10495.508323,-2220.617826,20873.807564
2064.204826,-11261.603821,-666.185348,18653.189738
2064.205143,-8350.440928,814.226536,14508.036463
2064.205460,-4903.011187,2812.782580,16580.613101
2064.205778,-1685.410096,2886.803174,14211.954086
2064.206095,1532.190996,5033.400406,9104.533087
2064.206413,4979.620737,3404.947333,8290.306550
2064.206730,9039.926876,444.123565,8068.244768
2064.207048,10572.117872,814.226536,4959.379811
2064.207365,9499.584175,2664.741391,1850.514855
2064.207682,7507.735880,-74.020594,74.020594
2064.208000,2451.505594,-962.267725,2294.638420
2064.208317,-689.485948,-6291.750507,11769.274478
2064.208635,-5592.497135,-5921.647536,14582.057057
2064.208952,-7507.735880,-3478.967927,19837.519246
2064.209270,-8120.612279,-74.020594,15396.283594
2064.209587,-7354.516781,962.267725,14285.974681
2064.209904,-4290.134789,3108.864956,11621.233289
2064.210222,-1302.362347,3182.885551,12361.439231
2064.210539,689.485948,4293.194464,8882.471304
2064.210857,4060.306139,1184.329507,6217.729913
2064.211174,8580.269578,-1036.288319,7402.059420
2064.211492,9882.631924,-3404.947333,5329.482782
2064.211809,10725.336972,-2072.576638,4959.379811
2064.212126,9422.974625,-2960.823768,2516.700203
2064.212444,4673.182538,-1036.288319,592.164754
2064.212761,2068.457845,-2738.761985,7328.038826
2064.213079,-2987.772442,-1184.329507,11695.253884
2064.213396,-4826.401637,-296.082377,13915.871710
2064.213714,-7354.516781,2812.782580,13619.789333
2064.214031,-5439.278036,888.247130,14211.954086
2064.214348,-4979.620737,2368.659014,10362.883188
2064.214666,-1838.629195,1924.535449,11547.212695
2064.214983,306.438199,2442.679609,8660.409521
2064.215301,1838.629195,-444.123565,4663.297435
2064.215618,7584.345430,-2368.659014,8512.368333
2064.215936,7890.783629,-4737.318029,5847.626942
2064.216253,9039.926876,-4293.194464,5773.606348
2064.216570,8963.317327,-2812.782580,4589.276840
2064.216888,3983.696590,-592.164754,-740.205942
2064.217205,1838.629195,-1184.329507,6735.874072
2064.217523,-2987.772442,-2738.761985,11769.274478
2064.217840,-7660.954980,-3182.885551,13767.830521
2064.218157,-9729.412825,-0.000000,15692.365970
2064.218475,-6741.640382,444.123565,15470.304188
2064.218792,-5132.839837,3923.091493,9696.697840
2064.219110,-1378.971896,3330.926739,11325.150913
2064.219427,1072.533697,3849.070898,7698.141797
2064.219745,2145.067394,2368.659014,3997.112087
2064.220062,5975.544884,-2368.659014,9474.636058
2064.220379,7124.688131,-4737.318029,9918.759623
2064.220697,8044.002729,-2886.803174,7772.162391
2064.221014,9346.365076,-592.164754,5847.626942
2064.221332,6435.202183,1406.391290,444.123565
2064.221649,2987.772442,-444.123565,7105.977043
2064.221967,-2221.676944,-518.144159,11843.295072
2064.222284,-5669.106685,666.185348,13323.706956
2064.222601,-7660.954980,1332.370696,15544.324782
2064.222919,-6894.859482,2220.617826,17690.922014
2064.223236,-4903.011187,4441.235652,14359.995275
2064.223554,-1838.629195,5773.606348,11547.212695
2064.223871,842.705048,5699.585753,8586.388927
2064.224189,2451.505594,2960.823768,6809.894666
2064.224506,6818.249932,-666.185348,10066.800811
2064.224823,9422.974625,-3775.050304,10288.862594
2064.225141,10035.851024,-3552.988522,8808.450710
2064.225458,9806.022374,-1332.370696,5181.441594
2064.225776,8350.440928,-74.020594,2886.803174
2064.226093,4290.134789,148.041188,3034.844362
2064.226411,-1378.971896,-148.041188,11251.130318
2064.226728,-4903.011187,222.061783,14063.912898
2064.227045,-9116.536426,2368.659014,14952.160028
2064.227363,-8503.660028,3182.885551,16432.571912
2064.227680,-7431.126331,1998.556043,14582.057057
2064.227998,-5439.278036,3997.112087,10807.006753
2064.228315,-1762.019645,2220.617826,12435.459826
2064.228633,153.219100,2294.638420,9992.780217
2064.228950,3524.039291,148.041188,9474.636058
2064.229267,8733.488677,-2368.659014,11621.233289
2064.229585,9576.193725,-3182.885551,8512.368333
2064.229902,9806.022374,-1036.288319,6957.935855
2064.230220,7814.174080,-148.041188,1924.535449
2064.230537,2987.772442,3775.050304,1554.432478
2064.230855,1072.533697,962.267725,7328.038826
2064.231172,-4903.011187,2886.803174,10214.842000
2064.231489,-5592.497135,1924.535449,14434.015869
2064.231807,-9729.412825,2960.823768,12657.521608
2064.232124,-6971.469032,1998.556043,13175.665768
2064.232442,-4749.792088,1776.494261,11473.192101
2064.232759,-2068.457845,1924.535449,11991.336260
2064.233076,153.219100,-444.123565,10807.006753
2064.233394,2298.286494,-2072.576638,10732.986159
2064.233711,7354.516781,-4885.359217,12287.418637
2064.234029,10648.727422,-5107.421000,10066.800811
2064.234346,10955.165621,-4811.338623,6735.874072
2064.234664,10265.679673,-814.226536,1332.370696
2064.234981,8197.221829,1258.350101,-444.123565
2064.235298,3064.381992,2812.782580,3108.864956
2064.235616,0.000000,2220.617826,6957.935855
2064.235933,-5286.058936,2812.782580,7698.141797
2064.236251,-7431.126331,2442.679609,11251.130318
2064.236568,-7814.174080,-1628.453072,13619.789333
2064.236886,-8503.660028,-0.000000,11843.295072
2064.237203,-4366.744339,-3182.885551,13693.809927
2064.237520,-3524.039291,-2886.803174,13027.624579
2064.237838,-612.876398,-3849.070898,12361.439231
2064.238155,3907.087040,-6291.750507,13693.809927
2064.238473,6588.421283,-6069.688724,11103.089130
2064.238790,8044.002729,-4811.338623,7772.162391
2064.239108,8197.221829,-1406.391290,2146.597232
2064.239425,7354.516781,2442.679609,0.000000
2064.239742,5209.449386,3997.112087,814.226536
2064.240060,153.219100,5403.503377,5773.606348
2064.240377,-4136.915689,5329.482782,6217.729913
2064.240695,-8044.002729,5107.421000,8956.491898
2064.241012,-7967.393179,3108.864956,11917.315666
2064.241330,-7584.345430,222.061783,15470.304188
2064.241647,-6128.763984,-1480.411884,11991.336260
2064.241964,-4136.915689,-1406.391290,14063.912898
2064.242282,-766.095498,-2664.741391,13323.706956
2064.242599,3217.601092,-5181.441594,16580.613101
2064.242917,6741.640382,-5995.668130,13619.789333
2064.243234,9346.365076,-4441.235652,10436.903782
2064.243552,9499.584175,1332.370696,3034.844362
2064.243869,10495.508323,4515.256246,740.205942
2064.244186,6588.421283,6587.832884,1036.288319
2064.244504,3753.867940,5699.585753,4367.215058
2064.244821,-1225.752797,8142.265362,5921.647536
2064.245139,-4596.572988,5107.421000,8364.327145
2064.245456,-7354.516781,2664.741391,12953.603985
2064.245773,-6511.811733,592.164754,14137.933492
2064.246091,-5132.839837,-2146.597232,15248.242405
2064.246408,-3907.087040,-2072.576638,14730.098246
2064.246726,-1302.362347,-5403.503377,15618.345376
2064.247029,2221.676944,-3923.091493,15322.262999
2064.247346,8580.269578,-4737.318029,15692.365970
2064.247664,10725.336972,-2960.823768,12139.377449
2064.247981,10495.508323,-444.123565,5699.585753
2064.248299,9422.974625,5329.482782,888.247130
2064.248616,7354.516781,7031.956449,740.205942
2064.248934,1915.238745,7476.080014,3478.967927
2064.249251,-1915.238745,6587.832884,6587.832884
2064.249569,-5132.839837,7031.956449,8438.347739
2064.249886,-8044.002729,3849.070898,11695.253884
2064.250204,-7507.735880,-1480.411884,17024.736666
2064.250521,-7277.907231,-2960.823768,15544.324782
2064.250838,-5362.668486,-4145.153275,16950.716072
2064.251156,-3907.087040,-3330.926739,14434.015869
2064.251473,306.438199,-5477.523971,15692.365970
2064.251791,4443.353888,-6291.750507,16284.530724
2064.252108,9959.241474,-4959.379811,13175.665768
2064.252426,11568.042020,-592.164754,5107.421000
2064.252743,10572.117872,3923.091493,-814.226536
2064.253061,9193.145976,6143.709319,-1776.494261
2064.253378,4826.401637,7031.956449,74.020594
2064.253695,-383.047749,5699.585753,3404.947333
2064.254013,-5975.544884,2442.679609,8586.388927
2064.254330,-10265.679673,1110.308913,9474.636058
2064.254648,-9499.584175,-1628.453072,15396.283594
2064.254965,-9499.584175,-3182.885551,13545.768739
2064.255283,-8427.050478,-4441.235652,13693.809927
2064.255600,-6894.859482,-5477.523971,15914.427753
2064.255918,-3830.477490,-5181.441594,16432.571912
2064.256235,919.314598,-5477.523971,16580.613101
2064.256553,6971.469032,-4145.153275,15766.386565
2064.256870,9346.365076,-3034.844362,9770.718434
2064.257187,10955.165621,4663.297435,1036.288319
2064.257505,11568.042020,8068.244768,-3256.906145
2064.257822,9269.755526,8068.244768,-2146.597232
2064.258140,5286.058936,5551.544565,1776.494261
2064.258457,-536.266849,4885.359217,2664.741391
2064.258775,-5132.839837,4219.173869,6513.812290
2064.259092,-6205.373534,1924.535449,11843.295072
2064.259410,-7354.516781,-666.185348,11769.274478
2064.259727,-5975.544884,-2886.803174,11473.192101
2064.260044,-5362.668486,-4737.318029,13545.768739
2064.260362,-3524.039291,-7846.182985,17098.757260
2064.260679,612.876398,-9918.759623,18209.066173
2064.260997,6205.373534,-9474.636058,16284.530724
2064.261314,10265.679673,-6735.874072,11029.068536
2064.261632,11491.432470,-2146.597232,6143.709319
2064.261949,12793.794817,3256.906145,0.000000
2064.262267,10342.289223,6661.853478,-4071.132681
2064.262584,7354.516781,7698.141797,1258.350101
2064.262901,536.266849,8142.265362,3182.885551
2064.263219,-4596.572988,7179.997637,5033.400406
2064.263536,-6894.859482,5847.626942,7698.141797
2064.263854,-6435.202183,3552.988522,10955.047942
2064.264171,-6741.640382,-1110.308913,11843.295072
2064.264489,-5286.058936,-4737.318029,13693.809927
2064.264806,-4519.963438,-7846.182985,17542.880825
2064.265124,-1149.143247,-8290.306550,18505.148550
2064.265441,4290.134789,-9770.718434,18949.272115
2064.265759,7890.783629,-8438.347739,16358.551318
2064.266076,10342.289223,-3404.947333,9326.594869
2064.266393,11874.480219,5477.523971,888.247130
2064.266711,10342.289223,9252.574275,-3627.009116
2064.267028,7814.174080,12065.356855,-1332.370696
2064.267346,3140.991542,12361.439231,2072.576638
2064.267663,-2987.772442,10807.006753,1998.556043
2064.267981,-6665.030833,6291.750507,6883.915261
2064.268298,-7890.783629,1628.453072,13619.789333
2064.268616,-8963.317327,-3404.947333,14359.995275
2064.268933,-7890.783629,-6883.915261,16136.489536
2064.269250,-8580.269578,-7772.162391,16432.571912
2064.269568,-5669.106685,-10658.965565,23094.425390
2064.269885,-1302.362347,-11029.068536,23316.487173
2064.270203,4213.525239,-9178.553681,20207.622217
2064.270520,8120.612279,-4885.359217,14359.995275
2064.270838,10955.165621,518.144159,6069.688724
2064.271155,12257.527968,6957.935855,0.000000
2064.271473,9422.974625,11991.336260,-4959.379811
2064.271790,6052.154434,12435.459826,-3182.885551
2064.272108,-536.266849,10955.047942,-1702.473667
2064.272425,-5132.839837,6883.915261,4811.338623
2064.272742,-7277.907231,1554.432478,10510.924376
2064.273060,-10189.070123,-518.144159,12287.418637
2064.273377,-9576.193725,-4737.318029,15100.201217
2064.273695,-9806.022374,-7846.182985,18579.169144
2064.274012,-8273.831378,-11399.171507,22946.384202
2064.274330,-3983.696590,-10362.883188,22872.363608
2064.274647,2221.676944,-8068.244768,22058.137072
2064.274965,8427.050478,-5033.400406,15914.427753
2064.275282,12947.013916,2590.720797,7179.997637
2064.275599,14862.252661,9030.512492,-1258.350101
2064.275917,14479.204912,14211.954086,-5921.647536
2064.276234,9806.022374,15692.365970,-7476.080014
2064.276552,3447.429741,13693.809927,-3108.864956
2064.276869,-1225.752797,9548.656652,592.164754
2064.277187,-6128.763984,6735.874072,6439.791695
2064.277504,-7201.297681,-148.041188,11695.253884
2064.277822,-8656.879127,-5033.400406,15026.180623
2064.278139,-7660.954980,-8142.265362,17394.839637
2064.278456,-6741.640382,-11547.212695,20059.581028
2064.278774,-4979.620737,-13175.665768,20503.704593
2064.279091,229.828649,-11917.315666,23094.425390
2064.279409,5362.668486,-9696.697840,17616.901420
2064.279726,9422.974625,-2368.659014,12213.398043
2064.280044,12334.137518,3552.988522,3701.029710
2064.280361,14172.766713,11843.295072,-3627.009116
2064.280679,11414.822920,14211.954086,-6883.915261
2064.280996,6128.763984,13915.871710,-3923.091493
2064.281314,-766.095498,8956.491898,-370.102971
2064.281631,-6511.811733,5921.647536,5403.503377
2064.281948,-6511.811733,740.205942,11251.130318
2064.282266,-7814.174080,-1480.411884,12287.418637
2064.282583,-6665.030833,-5255.462188,17024.736666
2064.282901,-7048.078582,-8512.368333,17172.777854
2064.283218,-6052.154434,-10510.924376,21984.116477
2064.283536,-2298.286494,-11843.295072,24204.734303
2064.283853,1225.752797,-10510.924376,21688.034101
2064.284171,5209.449386,-5255.462188,15618.345376
2064.284488,9652.803275,1184.329507,9252.574275
2064.284805,12257.527968,7550.100608,0.000000
2064.285123,11568.042020,12583.501014,-3775.050304
2064.285440,8963.317327,14434.015869,-2812.782580
2064.285758,3447.429741,13989.892304,-3627.009116
2064.286075,-2604.724693,8956.491898,-1184.329507
2064.286393,-5822.325785,3404.947333,7402.059420
2064.286710,-8197.221829,-2072.576638,13249.686362
2064.287028,-9806.022374,-6069.688724,14804.118840
2064.287345,-9729.412825,-7550.100608,17098.757260
2064.287663,-9116.536426,-10510.924376,20873.807564
2064.287980,-5745.716235,-12657.521608,23686.590144
2064.288297,-1378.971896,-11251.130318,23538.548956
2064.288615,2451.505594,-10658.965565,19393.395680
2064.288932,6741.640382,-4071.132681,12953.603985
2064.289250,12180.918418,4145.153275,4071.132681
2064.289567,14019.547613,10955.047942,-2960.823768
2064.289885,11951.089769,15396.283594,-5773.606348
2064.290202,7431.126331,15692.365970,-5477.523971
2064.290520,766.095498,12287.418637,-3701.029710
2064.290837,-3753.867940,7179.997637,4071.132681
2064.291154,-5669.106685,1258.350101,10214.842000
2064.291472,-8656.879127,-1406.391290,11695.253884
2064.291789,-8197.221829,-6291.750507,16506.592507
2064.292107,-8427.050478,-9992.780217,20059.581028
2064.292424,-7201.297681,-11695.253884,21984.116477
2064.292742,-2145.067394,-11251.130318,23982.672521
2064.293059,3370.820191,-10807.006753,21317.931130
2064.293377,8580.269578,-4367.215058,15988.448347
2064.293694,13023.623466,1998.556043,8660.409521
2064.294011,15245.300410,9178.553681,962.267725
2064.294329,14402.595362,14804.118840,-4219.173869
2064.294646,11414.822920,15988.448347,-5033.400406
2064.294964,4903.011187,15100.201217,-5625.565159
2064.295281,-1378.971896,9844.739029,-2146.597232
2064.295599,-4749.792088,3701.029710,5847.626942
2064.295916,-6741.640382,-1184.329507,10510.924376
2064.296234,-8197.221829,-5699.585753,13767.830521
2064.296551,-8733.488677,-9474.636058,17542.880825
2064.296869,-9116.536426,-12805.562797,23242.466579
2064.297186,-7277.907231,-14582.057057,25241.022622
2064.297503,-2911.162892,-14952.160028,25611.125593
2064.297821,2911.162892,-9918.759623,20355.663405
2064.298138,8503.660028,-1924.535449,12361.439231
2064.298456,12870.404366,5921.647536,5847.626942
2064.298773,14785.643111,11473.192101,-1702.473667
2064.299091,12257.527968,16580.613101,-5921.647536
2064.299408,7737.564530,17098.757260,-7698.141797
2064.299726,1378.971896,13249.686362,-5921.647536
2064.300043,-2604.724693,6883.915261,1702.473667
2064.300360,-6665.030833,1406.391290,8364.327145
2064.300678,-8503.660028,-3775.050304,11399.171507
2064.300995,-9116.536426,-7624.121203,14582.057057
2064.301313,-8886.707777,-12139.377449,20577.725188
2064.301630,-8733.488677,-16136.489536,23908.651927
2064.301948,-6741.640382,-13989.892304,26055.249158
2064.302265,-1302.362347,-13249.686362,23390.507767
2064.302583,2757.943793,-6661.853478,16580.613101
2064.302900,9806.022374,-0.000000,11103.089130
2064.303218,13100.233016,8142.265362,1554.432478
2064.303535,13100.233016,14804.118840,-5921.647536
2064.303852,9346.365076,17246.798449,-8956.491898
2064.304170,5056.230287,14656.077652,-6217.729913
2064.304487,-459.657299,10955.047942,-1998.556043
2064.304805,-3983.696590,3256.906145,3775.050304
2064.305122,-6818.249932,-1332.370696,8586.388927
2064.305440,-8044.002729,-5477.523971,13915.871710
2064.305757,-8350.440928,-9104.533087,17024.736666
2064.306075,-8810.098227,-13175.665768,21836.075289
2064.306392,-8120.612279,-15322.262999,26795.455100
2064.306709,-3983.696590,-15100.201217,27017.516883
2064.307027,766.095498,-9178.553681,19689.478057
2064.307344,7354.516781,-2590.720797,14063.912898
2064.307662,14249.376263,3552.988522,7624.121203
2064.307979,16624.272307,10214.842000,-1110.308913
2064.308297,15015.471761,16580.613101,-7031.956449
2064.308614,10495.508323,17690.922014,-11029.068536
2064.308932,5362.668486,15914.427753,-7254.018232
2064.309249,1149.143247,8956.491898,814.226536
2064.309567,-4136.915689,4293.194464,5107.421000
2064.309884,-6511.811733,-1480.411884,9844.739029
2064.310201,-8963.317327,-5625.565159,13693.809927
2064.310519,-9269.755526,-12583.501014,20947.828159
2064.310836,-9039.926876,-15544.324782,25907.207970
2064.311154,-6894.859482,-15396.283594,27831.743419
2064.311471,-2911.162892,-13027.624579,25463.084405
2064.311789,2451.505594,-7105.977043,19763.498651
2064.312106,9652.803275,-148.041188,12361.439231
2064.312424,15398.519510,7550.100608,3775.050304
2064.312741,16777.491406,13619.789333,-2960.823768
2064.313058,13406.671215,19763.498651,-10510.924376
2064.313376,8273.831378,17468.860231,-10362.883188
2064.313693,2604.724693,11917.315666,-4293.194464
2064.314011,-2374.896044,4737.318029,1702.473667
2064.314328,-6358.592633,-222.061783,5847.626942
2064.314646,-9116.536426,-4737.318029,9918.759623
2064.314963,-11184.994271,-9474.636058,16432.571912
2064.315281,-11568.042020,-15026.180623,23390.507767
2064.315598,-10342.289223,-16506.592507,28942.052332
2064.315915,-8197.221829,-15914.427753,29016.072926
2064.316233,-3830.477490,-11029.068536,24056.693115
2064.316550,3983.696590,-3997.112087,17246.798449
2064.316868,12563.966167,2664.741391,12065.356855
2064.317185,17160.539155,9474.636058,3701.029710
2064.317503,17313.758255,15988.448347,-6513.812290
2064.317820,13942.938064,20429.683999,-11843.295072
2064.318138,9193.145976,18431.127956,-9844.739029
2064.318455,3447.429741,11251.130318,-5921.647536
2064.318773,-2681.334243,3923.091493,1036.288319
2064.319090,-7890.783629,-0.000000,4219.173869
2064.319407,-11261.603821,-3849.070898,9622.677246
2064.319725,-12793.794817,-10066.800811,20207.622217
2064.320042,-12410.747068,-18283.086767,27757.722825
2064.320360,-13330.061665,-18801.230927,28275.866984
2064.320677,-10035.851024,-17838.963202,30496.484810
2064.320995,-5056.230287,-11251.130318,24500.816680
2064.321312,5362.668486,-3552.988522,18727.210333
2064.321630,12563.966167,6513.812290,9844.739029
2064.321947,18079.853753,9844.739029,4515.256246
2064.322264,17926.634653,17987.004391,-5921.647536
2064.322582,12870.404366,23390.507767,-12213.398043
2064.322899,10112.460574,18505.148550,-12879.583391
2064.323217,3217.601092,10658.965565,-8216.285956
2064.323534,-1149.143247,5403.503377,1036.288319
2064.323852,-7814.174080,-444.123565,3256.906145
2064.324169,-11414.822920,-6661.853478,10732.986159
2064.324487,-12870.404366,-14137.933492,20947.828159
2064.324804,-12180.918418,-18283.086767,31310.711347
2064.325122,-11951.089769,-20503.704593,29978.340651
2064.325439,-10035.851024,-16876.695478,25611.125593
2064.325756,-3064.381992,-11103.089130,23686.590144
2064.326074,5898.935335,-3404.947333,17764.942608
2064.326391,15858.176809,5477.523971,10214.842000
2064.326709,18922.558801,12287.418637,296.082377
2064.327026,18922.558801,21021.848753,-9252.574275
2064.327344,13942.938064,22428.240043,-15544.324782
2064.327661,9116.536426,17987.004391,-10658.965565
2064.327979,3140.991542,9696.697840,-3923.091493
2064.328296,-2451.505594,5847.626942,-444.123565
2064.328613,-7201.297681,740.205942,4737.318029
2064.328931,-10725.336972,-6809.894666,14656.077652
2064.329248,-10725.336972,-12065.356855,25018.960840
2064.329566,-11031.775171,-19763.498651,29904.320057
2064.329883,-10495.508323,-19023.292709,28423.908173
2064.330201,-9193.145976,-16580.613101,28423.908173
2064.330518,-2145.067394,-10436.903782,24796.899057
2064.330836,7431.126331,-1406.391290,15026.180623
2064.331153,16930.710506,7624.121203,8068.244768
2064.331470,19841.873398,12139.377449,592.164754
2064.331788,18386.291952,20355.663405,-9474.636058
2064.332105,13330.061665,22576.281231,-14804.118840
2064.332423,9346.365076,15914.427753,-10584.944971
2064.332740,1915.238745,8290.306550,-3775.050304
2064.333058,-3064.381992,6661.853478,1406.391290
2064.333375,-8350.440928,814.226536,4663.297435
2064.333693,-11951.089769,-7328.038826,15840.407159
2064.334010,-13023.623466,-15618.345376,25241.022622
2064.334328,-13866.328514,-18875.251521,27091.537477
2064.334645,-13866.328514,-19467.416275,31680.814318
2064.334962,-12947.013916,-18135.045579,29608.237680
2064.335280,-4290.134789,-8216.285956,22428.240043
2064.335597,7507.735880,-0.000000,16876.695478
2064.335915,14096.157163,7550.100608,9030.512492
2064.336232,16164.615008,12435.459826,370.102971
2064.336550,16930.710506,21021.848753,-9770.718434
2064.336867,13253.452115,21169.889941,-12805.562797
2064.337185,9039.926876,14730.098246,-10436.903782
2064.337502,1838.629195,9548.656652,-2368.659014
2064.337819,-5209.449386,5699.585753,-1406.391290
2064.338137,-10265.679673,-1406.391290,5773.606348
2064.338454,-13023.623466,-7254.018232,15248.242405
2064.338772,-14019.547613,-15322.262999,24352.775492
2064.339089,-13713.109414,-19393.395680,28868.031738
2064.339407,-13636.499864,-20799.786970,29534.217086
2064.339724,-9422.974625,-15988.448347,28275.866984
2064.340042,459.657299,-7920.203579,23982.672521
2064.340359,12487.356617,-814.226536,15766.386565
2064.340677,18769.339701,5921.647536,7994.224174
2064.340994,20607.968896,13545.768739,-1258.350101
2064.341311,19612.044749,21095.869347,-9474.636058
2064.341629,15858.176809,22872.363608,-14137.933492
2064.341946,10878.556072,15840.407159,-10436.903782
2064.342264,2528.115143,10362.883188,-3923.091493
2064.342581,-4903.011187,6143.709319,-2664.741391
2064.342899,-9269.755526,444.123565,6217.729913
2064.343216,-10801.946522,-7179.997637,15840.407159
2064.343534,-10189.070123,-16580.613101,23760.610738
2064.343851,-12104.308868,-19467.416275,25315.043216
2064.344168,-12947.013916,-22946.384202,30866.587781
2064.344486,-10189.070123,-20281.642811,30718.546593
2064.344803,306.438199,-9918.759623,25241.022622
2064.345121,11797.870669,-0.000000,15322.262999
2064.345438,17237.148705,8882.471304,6883.915261
2064.345755,19918.482948,18061.024985,-2146.597232
2064.346073,17850.025103,23612.569550,-12287.418637
2064.346390,13559.890315,21762.054695,-12213.398043
2064.346707,7584.345430,12953.603985,-9104.533087
2064.347025,153.219100,9326.594869,-3552.988522
2064.347342,-6205.373534,6217.729913,-2368.659014
2064.347659,-9346.365076,-962.267725,6291.750507
2064.347977,-11414.822920,-8808.450710,17394.839637
2064.348294,-10801.946522,-17172.777854,27091.537477
2064.348611,-12104.308868,-21095.869347,26869.475695
2064.348929,-13789.718964,-20651.745782,29312.155303
2064.349246,-10265.679673,-17764.942608,30940.608376
2064.349563,0.000000,-10510.924376,25092.981434
2064.349881,10189.070123,-0.000000,14582.057057
2064.350198,16930.710506,7105.977043,8512.368333
2064.350515,18845.949251,16284.530724,-2738.761985
2064.350833,19612.044749,23168.445985,-10140.821405
2064.351150,15858.176809,22058.137072,-15100.201217
2064.351467,10265.679673,14359.995275,-10584.944971
2064.351784,0.000000,10510.924376,-5403.503377
2064.352102,-7431.126331,4663.297435,-370.102971
2064.352419,-10878.556072,-3256.906145,8734.430116
2064.352736,-12104.308868,-9622.677246,20133.601622
2064.353054,-12563.966167,-13693.809927,22280.198854
2064.353371,-12410.747068,-18801.230927,29460.196492
2064.353688,-14709.033562,-23390.507767,32643.082042
2064.354006,-9959.241474,-16876.695478,28868.031738
2064.354323,1915.238745,-7772.162391,25018.960840
2064.354640,8197.221829,1184.329507,15026.180623
2064.354958,13789.718964,8364.327145,6957.935855
2064.355275,17773.415554,18579.169144,-2960.823768
2064.355592,18386.291952,23094.425390,-11769.274478
2064.355910,13559.890315,21243.910535,-13545.768739
2064.356227,6511.811733,11621.233289,-7772.162391
2064.356544,-4290.134789,9178.553681,-4737.318029
2064.356862,-9882.631924,4589.276840,2220.617826
2064.357179,-13406.671215,-3182.885551,7550.100608
2064.357496,-14862.252661,-9622.677246,19393.395680
2064.357814,-13636.499864,-16432.571912,24278.754898
2064.358131,-14249.376263,-18653.189738,27535.661042
2064.358448,-14019.547613,-21614.013506,31754.834912
2064.358765,-9959.241474,-17098.757260,26647.413912
2064.359083,2911.162892,-9104.533087,24352.775492
2064.359400,9193.145976,-1406.391290,14211.954086
2064.359717,16317.834107,6365.771101,9474.636058
2064.360035,20378.140247,15988.448347,-2072.576638
2064.360352,21603.893044,24500.816680,-8586.388927
2064.360669,20454.749797,24204.734303,-11399.171507
2064.360987,13789.718964,18875.251521,-15988.448347
2064.361304,5209.449386,11251.130318,-8364.327145
2064.361621,-3370.820191,4885.359217,-814.226536
2064.361939,-8044.002729,-3330.926739,5551.544565
2064.362256,-9576.193725,-6809.894666,16506.592507
2064.362573,-8197.221829,-15840.407159,23390.507767
2064.362891,-11031.775171,-19171.333898,24500.816680
2064.363208,-11951.089769,-21317.931130,29016.072926
2064.363525,-8580.269578,-18801.230927,28942.052332
2064.363843,459.657299,-8438.347739,24278.754898
2064.364160,10112.460574,-0.000000,17468.860231
2064.364477,17696.806004,7550.100608,11547.212695
2064.364795,19841.873398,15988.448347,-814.226536
2064.365112,20148.311597,22502.260637,-8882.471304
2064.365429,16011.395908,19689.478057,-9474.636058
2064.365747,10418.898773,15618.345376,-11843.295072
2064.366064,842.705048,13693.809927,-9474.636058
2064.366381,-5592.497135,6957.935855,-1332.370696
2064.366698,-9806.022374,-444.123565,5995.668130
2064.367016,-12257.527968,-8216.285956,17542.880825
2064.367333,-11491.432470,-18283.086767,25833.187376
2064.367650,-14096.157163,-21169.889941,26647.413912
2064.367968,-15704.957709,-22946.384202,29164.114115
2064.368285,-10878.556072,-20281.642811,30496.484810
2064.368602,-1532.190996,-11547.212695,27313.599260
2064.368920,6511.811733,-1776.494261,16284.530724
2064.369237,13559.890315,8068.244768,9992.780217
2064.369554,17237.148705,16580.613101,-740.205942
2064.369872,17850.025103,21317.931130,-11177.109724
2064.370189,15858.176809,20651.745782,-10658.965565
2064.370506,6511.811733,15026.180623,-13989.892304
2064.370824,-2451.505594,9696.697840,-10066.800811
2064.371141,-8427.050478,4885.359217,-814.226536
2064.371458,-11031.775171,-1628.453072,10436.903782
2064.371776,-14096.157163,-9474.636058,16210.510130
2064.372093,-15858.176809,-15026.180623,19467.416275
2064.372410,-13483.280765,-19837.519246,31828.855506
2064.372728,-15628.348159,-20873.807564,33827.411549
2064.373045,-11031.775171,-16136.489536,25907.207970
2064.373362,995.924147,-8882.471304,24722.878463
2064.373679,7048.078582,814.226536,16876.695478
2064.373997,13330.061665,9252.574275,9326.594869
2064.374314,18692.730151,18283.086767,518.144159
2064.374631,18692.730151,23834.631332,-11177.109724
2064.374949,16930.710506,22206.178260,-12065.356855
2064.375266,10189.070123,19985.560434,-11843.295072
2064.375583,0.000000,14582.057057,-9844.739029
2064.375901,-5132.839837,2812.782580,-2368.659014
2064.376218,-8273.831378,-4219.173869,9030.512492
2064.376535,-10035.851024,-6957.935855,18653.189738
2064.376853,-10725.336972,-14878.139434,22428.240043
2064.377170,-9806.022374,-19763.498651,25611.125593
2064.377487,-10342.289223,-20281.642811,29608.237680
2064.377805,-7890.783629,-16728.654289,28127.825796
2064.378122,2987.772442,-11177.109724,23834.631332
2064.378439,9269.755526,-3034.844362,13841.851115
2064.378757,16930.710506,9252.574275,8586.388927
2064.379074,19918.482948,18061.024985,-1406.391290
2064.379391,21680.502593,24648.857869,-10214.842000
2064.379709,16317.834107,24870.919651,-16876.695478
2064.380026,10112.460574,16432.571912,-8438.347739
2064.380343,-689.485948,9474.636058,-1998.556043
2064.380660,-6205.373534,5181.441594,-666.185348
2064.380978,-9576.193725,-2590.720797,8290.306550
2064.381295,-10265.679673,-8364.327145,21465.972318
2064.381612,-9576.193725,-16580.613101,24352.775492
2064.381930,-11491.432470,-18431.127956,24870.919651
2064.382247,-11644.651570,-23390.507767,31236.690752
2064.382564,-7048.078582,-16432.571912,27165.558071
2064.382882,1149.143247,-9178.553681,21021.848753
2064.383199,7124.688131,-1480.411884,15988.448347
2064.383516,14325.985813,5773.606348,11547.212695
2064.383834,17696.806004,16654.633695,0.000000
2064.384151,18999.168350,24796.899057,-9844.739029
2064.384468,17237.148705,23686.590144,-14804.118840
2064.384786,9039.926876,16358.551318,-11695.253884
2064.385103,612.876398,7179.997637,-3256.906145
2064.385420,-6818.249932,1998.556043,2738.761985
2064.385738,-9806.022374,-7328.038826,10658.965565
2064.386055,-10648.727422,-11843.295072,21095.869347
2064.386372,-8350.440928,-14730.098246,24870.919651
2064.386690,-7354.516781,-16728.654289,25537.104999
2064.387007,-8810.098227,-19023.292709,27905.764013
2064.387324,-2145.067394,-17394.839637,27683.702231
2064.387641,4060.306139,-11843.295072,19985.560434
2064.387959,8427.050478,-3330.926739,10140.821405
2064.388276,14555.814462,6365.771101,6587.832884
2064.388593,16317.834107,17320.819043,-5255.462188
2064.388911,15934.786358,24352.775492,-14359.995275
2064.389228,12257.527968,15100.201217,-9992.780217
2064.389545,1838.629195,5625.565159,-1850.514855
2064.389863,-3983.696590,-3478.967927,7402.059420
2064.390180,-9193.145976,-2960.823768,1702.473667
2064.390497,-7814.174080,-9474.636058,15988.448347
2064.390815,-5898.935335,-18209.066173,28053.805202
2064.391132,-4903.011187,-16802.674883,25315.043216
2064.391449,-1378.971896,-15840.407159,21984.116477
2064.391767,2298.286494,-15692.365970,21243.910535
2064.392084,7660.954980,-14730.098246,18727.210333
2064.392401,11261.603821,-7624.121203,11917.315666
2064.392719,13406.671215,-74.020594,6217.729913
2064.393036,15781.567259,7772.162391,3627.009116
2064.393353,13253.452115,16580.613101,-11695.253884
2064.393671,9499.584175,13989.892304,-9252.574275
2064.393988,8810.098227,5477.523971,5107.421000
2064.394305,1302.362347,1258.350101,-888.247130
2064.394622,-1685.410096,-2664.741391,74.020594
2064.394940,-383.047749,-10066.800811,12287.418637
2064.395257,-459.657299,-13619.789333,19837.519246
2064.395574,2068.457845,-12361.439231,20725.766376
2064.395892,0.000000,-11695.253884,15914.427753
2064.396209,3753.867940,-14211.954086,14804.118840
2064.396526,4443.353888,-12213.398043,15618.345376
2064.396844,6741.640382,-7698.141797,14878.139434
2064.397161,11108.384721,2368.659014,6661.853478
2064.397478,11951.089769,5477.523971,2516.700203
2064.397796,8886.707777,12435.459826,-9030.512492
2064.398113,5898.935335,9252.574275,-2072.576638
2064.398430,4443.353888,-888.247130,7179.997637
2064.398748,-3064.381992,-370.102971,4737.318029
2064.399065,-306.438199,-3478.967927,5329.482782
2064.399382,995.924147,-1258.350101,9326.594869
2064.399700,2374.896044,-3923.091493,12213.398043
2064.400017,1532.190996,-5847.626942,12065.356855
2064.400334,-1532.190996,-8290.306550,11843.295072
2064.400652,-306.438199,-13175.665768,17838.963202
2064.400969,-3064.381992,-11251.130318,15322.262999
2064.401286,689.485948,-6883.915261,16062.468941
2064.401604,3600.648841,-518.144159,8438.347739
2064.401921,6205.373534,2738.761985,5773.606348
2064.402238,6358.592633,5329.482782,6439.791695
2064.402555,5209.449386,6143.709319,4293.194464
2064.402873,4519.963438,6957.935855,962.267725
2064.403190,3600.648841,3923.091493,3108.864956
2064.403507,2068.457845,1258.350101,10881.027347
2064.403825,1532.190996,-0.000000,9326.594869
2064.404142,-1532.190996,-1036.288319,5625.565159
2064.404459,-2987.772442,-888.247130,10288.862594
2064.404777,-4290.134789,-4367.215058,17394.839637
2064.405094,-4290.134789,-7254.018232,19615.457463
2064.405411,-4443.353888,-7846.182985,18283.086767
2064.405729,-2451.505594,-7402.059420,19985.560434
2064.406046,766.095498,-5921.647536,15396.283594
2064.406363,7737.564530,-1036.288319,12213.398043
2064.406681,13176.842566,2368.659014,7254.018232
2064.406998,14096.157163,7920.203579,1110.308913
2064.407315,13176.842566,12731.542202,-3108.864956
2064.407633,11108.384721,13693.809927,-2368.659014
2064.407950,7507.735880,7254.018232,3330.926739
2064.408267,1685.410096,1924.535449,7031.956449
2064.408585,-3830.477490,-518.144159,7846.182985
2064.408902,-6052.154434,-4515.256246,13027.624579
2064.409219,-7277.907231,-8512.368333,18505.148550
2064.409536,-4826.401637,-11547.212695,23982.672521
2064.409854,-3907.087040,-13693.809927,23094.425390
2064.410171,-2451.505594,-12805.562797,20947.828159
2064.410488,0.000000,-8364.327145,17542.880825
2064.410806,4749.792088,-814.226536,12361.439231
2064.411123,8810.098227,4737.318029,7994.224174
2064.411440,9422.974625,10066.800811,1628.453072
2064.411758,7201.297681,12361.439231,1184.329507
2064.412075,5745.716235,11103.089130,1480.411884
2064.412392,5745.716235,5255.462188,3404.947333
2064.412710,4903.011187,-740.205942,6291.750507
2064.413027,4060.306139,-7550.100608,10732.986159
2064.413344,2681.334243,-13323.706956,12361.439231
2064.413662,2987.772442,-16728.654289,14952.160028
2064.413979,4826.401637,-14508.036463,14804.118840
2064.414296,6281.983084,-8660.409521,11177.109724
2064.414614,7507.735880,-0.000000,9030.512492
2064.414931,5209.449386,4885.359217,4071.132681
2064.415248,2757.943793,2516.700203,5921.647536
2064.415566,766.095498,1850.514855,9992.780217
2064.415883,-1532.190996,1406.391290,9548.656652
2064.416200,-1762.019645,4219.173869,6291.750507
2064.416517,306.438199,4293.194464,4219.173869
2064.416835,3217.601092,-444.123565,6143.709319
2064.417152,4749.792088,-7105.977043,9696.697840
2064.417469,4903.011187,-13249.686362,11769.274478
2064.417787,4903.011187,-13323.706956,10881.027347
2064.418104,6511.811733,-7846.182985,9992.780217
2064.418421,7354.516781,-1850.514855,7920.203579
2064.418739,6281.983084,1998.556043,6069.688724
2064.419056,2681.334243,3552.988522,3108.864956
2064.419373,612.876398,3256.906145,5255.462188
2064.419691,-1762.019645,592.164754,7476.080014
2064.420008,-1225.752797,-1924.535449,9622.677246
2064.420325,-153.219100,-2146.597232,8364.327145
2064.420643,612.876398,-2960.823768,7476.080014
2064.420960,1991.848295,-7550.100608,8216.285956
2064.421277,1991.848295,-10584.944971,8734.430116
2064.421595,3447.429741,-12435.459826,11103.089130
2064.421912,3294.210641,-9104.533087,12065.356855
2064.422229,3370.820191,-4737.318029,12287.418637
2064.422547,2834.553343,-0.000000,11843.295072
2064.422864,2145.067394,1776.494261,11103.089130
2064.423181,1991.848295,1924.535449,9474.636058
2064.423498,2145.067394,2516.700203,7550.100608
2064.423816,4136.915689,2072.576638,7031.956449
2064.424133,4596.572988,592.164754,7179.997637
2064.424450,4596.572988,-1480.411884,6513.812290
2064.424768,5439.278036,-3478.967927,8734.430116
2064.425085,4519.963438,-5699.585753,8512.368333
2064.425402,3907.087040,-6439.791695,9400.615463
2064.425720,2757.943793,-6143.709319,9474.636058
2064.426037,1532.190996,-4367.215058,10214.842000
2064.426354,689.485948,-3849.070898,12065.356855
2064.426672,689.485948,-2442.679609,14211.954086
2064.426989,842.705048,-1258.350101,13323.706956
2064.427306,2451.505594,-148.041188,11917.315666
2064.427624,3677.258390,2590.720797,9178.553681
2064.427941,5286.058936,3701.029710,7772.162391
2064.428258,6052.154434,4811.338623,7624.121203
2064.428576,5056.230287,2960.823768,8216.285956
2064.428893,4060.306139,2146.597232,8290.306550
2064.429210,3600.648841,814.226536,9030.512492
2064.429528,3753.867940,-592.164754,10288.862594
2064.429845,3830.477490,-2590.720797,10510.924376
2064.430162,3294.210641,-3182.885551,9474.636058
2064.430479,2528.115143,-3330.926739,8438.347739
2064.430797,2911.162892,-3108.864956,9844.739029
2064.431114,2374.896044,-1628.453072,10658.965565
2064.431431,2451.505594,-1850.514855,11399.171507
2064.431749,1532.190996,-296.082377,11843.295072
2064.432066,459.657299,-0.000000,11917.315666
2064.432383,459.657299,962.267725,11843.295072
2064.432701,229.828649,1776.494261,10955.047942
2064.433018,612.876398,2812.782580,11029.068536
2064.433335,612.876398,2220.617826,10140.821405
2064.433653,1302.362347,1628.453072,9474.636058
2064.433970,2528.115143,-814.226536,8734.430116
2064.434287,3524.039291,-1924.535449,8216.285956
2064.434605,3753.867940,-3330.926739,7994.224174
2064.434922,4366.744339,-3330.926739,8290.306550
2064.435239,3370.820191,-2960.823768,8364.327145
2064.435557,3064.381992,-2146.597232,10140.821405
2064.435874,1991.848295,-2516.700203,11251.130318
2064.436191,536.266849,-1998.556043,11843.295072
2064.436509,0.000000,-1850.514855,12065.356855
2064.436826,-766.095498,-666.185348,11251.130318
2064.437143,0.000000,740.205942,9770.718434
2064.437461,1685.410096,1702.473667,8438.347739
2064.437778,2374.896044,888.247130,7105.977043
2064.438095,1455.581446,444.123565,5995.668130
2064.438412,4596.572988,-2664.741391,8808.450710
2064.438730,3600.648841,-3478.967927,6883.915261
2064.439047,4443.353888,-5625.565159,8512.368333
2064.439364,3217.601092,-4811.338623,8586.388927
2064.439682,2528.115143,-2516.700203,8512.368333
2064.439999,2911.162892,-3849.070898,9104.533087
2064.440316,1455.581446,-3404.947333,9622.677246
2064.440634,1838.629195,-2146.597232,10658.965565
2064.440951,1378.971896,-592.164754,9326.594869
2064.441268,1685.410096,444.123565,8956.491898
2064.441586,1302.362347,-1036.288319,8216.285956
2064.441903,0.000000,666.185348,6809.894666
2064.442220,1991.848295,148.041188,7254.018232
2064.442538,1762.019645,-740.205942,6365.771101
2064.442855,2145.067394,-3108.864956,8216.285956
2064.443172,2987.772442,-4663.297435,9844.739029
2064.443490,1072.533697,-3997.112087,9844.739029
2064.443807,1378.971896,-5107.421000,11695.253884
2064.444124,919.314598,-5181.441594,10732.986159
2064.444442,2145.067394,-1924.535449,9326.594869
2064.444759,2757.943793,-0.000000,7772.162391
2064.445076,2757.943793,2812.782580,6735.874072
2064.445393,4060.306139,3034.844362,6883.915261
2064.445711,4366.744339,3775.050304,6143.709319
2064.446028,3600.648841,3182.885551,6735.874072
2064.446345,2528.115143,740.205942,7105.977043
2064.446663,766.095498,-666.185348,6883.915261
2064.446980,536.266849,-1702.473667,8068.244768
2064.447297,-459.657299,-2812.782580,9400.615463
2064.447615,-76.609550,-3034.844362,10881.027347
2064.447932,459.657299,-2812.782580,11695.253884
2064.448249,306.438199,-2516.700203,11103.089130
2064.448567,766.095498,-2294.638420,12213.398043
2064.448884,612.876398,-2220.617826,11547.212695
2064.449201,842.705048,-518.144159,9992.780217
2064.449519,2221.676944,1110.308913,10140.821405
2064.449836,3217.601092,3478.967927,9696.697840
2064.450153,5822.325785,4145.153275,8734.430116
2064.450471,7814.174080,3330.926739,8290.306550
2064.450788,7737.564530,2590.720797,8068.244768
2064.451106,8273.831378,1554.432478,7994.224174
2064.451423,7890.783629,148.041188,7994.224174
2064.451740,7660.954980,-888.247130,9030.512492
2064.452058,6741.640382,-888.247130,9696.697840
2064.452375,5592.497135,-666.185348,9844.739029
2064.452692,4903.011187,-1110.308913,10658.965565
2064.453010,3830.477490,-2220.617826,11547.212695
2064.453327,2987.772442,-2368.659014,11769.274478
2064.453644,1991.848295,-2368.659014,12065.356855
2064.453962,1378.971896,-3182.885551,13249.686362
2064.454279,1532.190996,-3108.864956,12879.583391
2064.454596,1915.238745,-2960.823768,12509.480420
2064.454914,2528.115143,-3108.864956,12361.439231
2064.455231,3447.429741,-3182.885551,11769.274478
2064.455548,4443.353888,-1924.535449,10732.986159
2064.455866,5056.230287,-1258.350101,10584.944971
2064.456183,5439.278036,-1628.453072,10584.944971
2064.456500,5515.887586,-2516.700203,9548.656652
2064.456818,5745.716235,-3256.906145,9992.780217
2064.457135,5362.668486,-4219.173869,9474.636058
2064.457452,5056.230287,-4441.235652,9400.615463
2064.457770,4443.353888,-5033.400406,9104.533087
2064.458087,4060.306139,-6069.688724,10066.800811
2064.458404,2834.553343,-6439.791695,10066.800811
2064.458722,2528.115143,-6143.709319,11695.253884
2064.459039,1685.410096,-6587.832884,10584.944971
2064.459356,1072.533697,-5921.647536,11029.068536
2064.459674,1685.410096,-5847.626942,11473.192101
2064.459991,1455.581446,-5847.626942,11177.109724
2064.460308,2374.896044,-5551.544565,11251.130318
2064.460626,3064.381992,-4959.379811,10140.821405
2064.460943,4979.620737,-4145.153275,9474.636058
2064.461260,5975.544884,-3627.009116,7994.224174
2064.461578,6511.811733,-2368.659014,6513.812290
2064.461895,6665.030833,-2960.823768,5995.668130
2064.462212,5898.935335,-3775.050304,6291.750507
2064.462530,5669.106685,-4589.276840,7031.956449
2064.462847,5132.839837,-4441.235652,7994.224174
2064.463164,4903.011187,-4367.215058,7920.203579
2064.463482,4903.011187,-4589.276840,8142.265362
2064.463799,4290.134789,-4145.153275,7550.100608
2064.464116,3830.477490,-3627.009116,7402.059420
2064.464434,2987.772442,-3923.091493,7402.059420
2064.464751,3294.210641,-3627.009116,8290.306550
2064.465068,2298.286494,-2368.659014,7550.100608
2064.465386,2681.334243,-1998.556043,7550.100608
2064.465703,3064.381992,-1998.556043,7031.956449
2064.466020,2681.334243,-1702.473667,7550.100608
2064.466338,2681.334243,-2072.576638,6661.853478
2064.466655,2604.724693,-2220.617826,6291.750507
2064.466973,3677.258390,-2072.576638,7031.956449
2064.467290,3370.820191,-2220.617826,6661.853478
2064.467607,3217.601092,-1850.514855,5551.544565
2064.467925,2604.724693,-2442.679609,5921.647536
2064.468242,1762.019645,-1776.494261,6883.915261
2064.468559,2145.067394,-1702.473667,8142.265362
2064.468877,766.095498,-740.205942,7920.203579
2064.469194,229.828649,148.041188,8660.409521
2064.469511,-383.047749,-370.102971,9400.615463
2064.469829,-689.485948,-1036.288319,9770.718434
2064.470146,-766.095498,-2368.659014,11695.253884
2064.470463,0.000000,-1924.535449,11103.089130
2064.470781,1225.752797,518.144159,9326.594869
2064.471098,2911.162892,888.247130,10066.800811
2064.471415,3753.867940,-518.144159,11029.068536
2064.471733,3524.039291,-1332.370696,11177.109724
2064.472050,3064.381992,-888.247130,11399.171507
2064.472367,3370.820191,1406.391290,11103.089130
2064.472685,4060.306139,2368.659014,9770.718434
2064.473002,4903.011187,3552.988522,10881.027347
2064.473319,4903.011187,1998.556043,10066.800811
2064.473637,3753.867940,1184.329507,10510.924376
2064.473954,3370.820191,-444.123565,11621.233289
2064.474271,3524.039291,-592.164754,13397.727550
2064.474589,3447.429741,-0.000000,11177.109724
2064.474906,2604.724693,-0.000000,11547.212695
2064.475223,1532.190996,-296.082377,12361.439231
2064.475541,919.314598,-1110.308913,12361.439231
2064.475858,1072.533697,-888.247130,12953.603985
2064.476175,1685.410096,-1332.370696,13915.871710
2064.476493,2298.286494,-0.000000,13767.830521
2064.476810,3217.601092,-0.000000,13027.624579
2064.477127,3983.696590,-0.000000,11695.253884
2064.477445,4596.572988,-1036.288319,11547.212695
2064.477762,4060.306139,-518.144159,10658.965565
2064.478079,4673.182538,-0.000000,9622.677246
2064.478397,4290.134789,962.267725,9770.718434
2064.478714,3907.087040,296.082377,9992.780217
2064.479031,2987.772442,-0.000000,10436.903782
2064.479349,2451.505594,-740.205942,9326.594869
2064.479666,1685.410096,-1332.370696,8882.471304
2064.479983,1532.190996,-3478.967927,9548.656652
2064.480301,1149.143247,-4663.297435,11251.130318
2064.480618,766.095498,-5181.441594,10362.883188
2064.480935,919.314598,-5255.462188,11177.109724
2064.481253,1685.410096,-4071.132681,10362.883188
2064.481570,2374.896044,-3552.988522,9622.677246
2064.481888,2068.457845,-1554.432478,6661.853478
2064.482205,2068.457845,-1702.473667,7624.121203
2064.482522,2681.334243,-2220.617826,9178.553681
2064.482840,2451.505594,-3182.885551,9474.636058
2064.483157,3140.991542,-2886.803174,8290.306550
2064.483474,3294.210641,-2368.659014,6809.894666
2064.483792,4443.353888,-2294.638420,6809.894666
2064.484109,4979.620737,-4071.132681,5921.647536
2064.484426,4443.353888,-3775.050304,6439.791695
2064.484744,4443.353888,-3552.988522,5995.668130
2064.485061,3217.601092,-2146.597232,5699.585753
2064.485378,4213.525239,-3552.988522,7328.038826
2064.485696,2604.724693,-4737.318029,7994.224174
2064.486013,1991.848295,-5551.544565,8290.306550
2064.486330,1532.190996,-6217.729913,7994.224174
2064.486648,2528.115143,-6513.812290,9474.636058
2064.486965,3983.696590,-5921.647536,8808.450710
2064.487282,4826.401637,-3552.988522,6439.791695
2064.487600,5132.839837,-3404.947333,5773.606348
2064.487917,4979.620737,-3849.070898,5699.585753
2064.488234,4060.306139,-4885.359217,6439.791695
2064.488552,3140.991542,-2886.803174,6217.729913
2064.488869,2451.505594,-1702.473667,6587.832884
2064.489186,2604.724693,-518.144159,7179.997637
2064.489504,1608.800546,-1702.473667,8956.491898
2064.489821,919.314598,-2886.803174,8882.471304
2064.490138,0.000000,-3849.070898,10140.821405
2064.490456,229.828649,-5329.482782,10658.965565
2064.490773,536.266849,-6069.688724,12657.521608
2064.491090,1915.238745,-4071.132681,10807.006753
2064.491408,3907.087040,-3701.029710,11103.089130
2064.491725,3907.087040,-2516.700203,9622.677246
2064.492042,5132.839837,-3182.885551,10658.965565
2064.492360,4673.182538,-1036.288319,8142.265362
2064.492677,5822.325785,592.164754,8660.409521
2064.492994,5056.230287,3108.864956,6809.894666
2064.493312,5515.887586,2368.659014,8364.327145
2064.493629,4673.182538,3330.926739,6809.894666
2064.493946,4366.744339,1924.535449,8142.265362
2064.494264,2987.772442,1036.288319,9622.677246
2064.494581,3294.210641,-1628.453072,12805.562797
2064.494898,1991.848295,-1554.432478,12509.480420
2064.495216,1532.190996,-1924.535449,13397.727550
2064.495533,842.705048,-1850.514855,14434.015869
2064.495850,3524.039291,-3923.091493,16580.613101
2064.496168,2834.553343,-1776.494261,13545.768739
2064.496485,5592.497135,-962.267725,13989.892304
2064.496802,6358.592633,2146.597232,11325.150913
2064.497120,8350.440928,1924.535449,9844.739029
2064.497437,8350.440928,1110.308913,8586.388927
2064.497755,7124.688131,3034.844362,5995.668130
2064.498072,6435.202183,2812.782580,6291.750507
2064.498389,5132.839837,2442.679609,7031.956449
2064.498707,2834.553343,1628.453072,7105.977043
2064.499024,76.609550,1110.308913,8956.491898
2064.499341,-3370.820191,-222.061783,9548.656652
2064.499659,-5362.668486,-3256.906145,12731.542202
2064.499976,-7354.516781,-5847.626942,15766.386565
2064.500293,-7737.564530,-4071.132681,17246.798449
2064.500611,-5515.887586,-4071.132681,17320.819043
2064.500928,-4366.744339,-2072.576638,15692.365970
2064.501245,-459.657299,-1924.535449,16062.468941
2064.501563,1532.190996,444.123565,11473.192101
2064.501880,3447.429741,2664.741391,7698.141797
2064.502197,4903.011187,3701.029710,5773.606348
2064.502515,3677.258390,4885.359217,2664.741391
2064.502832,2911.162892,6439.791695,444.123565
2064.503149,536.266849,5847.626942,518.144159
2064.503467,-2604.724693,4071.132681,2886.803174
2064.503784,-5056.230287,814.226536,4959.379811
2064.504101,-7507.735880,-666.185348,7846.182985
2064.504419,-9193.145976,-2590.720797,11547.212695
2064.504736,-8350.440928,-5329.482782,15100.201217
2064.505053,-6665.030833,-6291.750507,15914.427753
2064.505371,-3447.429741,-5625.565159,16136.489536
2064.505688,0.000000,-2886.803174,14582.057057
2064.506005,2451.505594,-0.000000,10881.027347
2064.506323,5975.544884,1924.535449,7920.203579
2064.506640,7584.345430,3775.050304,5477.523971
2064.506957,6971.469032,6809.894666,1628.453072
2064.507275,5592.497135,7994.224174,-370.102971
2064.507592,5209.449386,9400.615463,-518.144159
2064.507909,3830.477490,8068.244768,-1776.494261
2064.508227,1149.143247,5921.647536,-370.102971
2064.508544,-842.705048,1406.391290,5033.400406
2064.508861,-3907.087040,-2812.782580,9104.533087
2064.509179,-5056.230287,-6069.688724,13323.706956
2064.509496,-5056.230287,-7254.018232,17246.798449
2064.509813,-4903.011187,-7402.059420,19393.395680
2064.510131,-3217.601092,-7105.977043,19097.313304
2064.510448,-995.924147,-4737.318029,17098.757260
2064.510765,2298.286494,-1998.556043,14878.139434
2064.511083,6281.983084,1036.288319,11621.233289
2064.511400,8044.002729,4293.194464,7105.977043
2064.511717,8810.098227,6883.915261,2368.659014
2064.512035,9039.926876,8586.388927,-444.123565
2064.512352,7737.564530,9178.553681,-2146.597232
2064.512670,5669.106685,7105.977043,-518.144159
2064.512987,2298.286494,4959.379811,3330.926739
2064.513304,-1915.238745,2442.679609,6883.915261
2064.513622,-4903.011187,-444.123565,12879.583391
2064.513939,-8044.002729,-4737.318029,17838.963202
2064.514256,-8886.707777,-8142.265362,21391.951724
2064.514574,-7967.393179,-9178.553681,22798.343014
2064.514891,-3907.087040,-8142.265362,22502.260637
2064.515208,306.438199,-5625.565159,19837.519246
2064.515526,4596.572988,-3552.988522,16210.510130
2064.515843,8120.612279,-592.164754,11843.295072
2064.516160,8733.488677,4145.153275,5403.503377
2064.516478,9652.803275,8290.306550,1110.308913
2064.516795,8886.707777,12361.439231,-2442.679609
2064.517112,7201.297681,14137.933492,-3256.906145
2064.517430,4596.572988,13101.645173,-1628.453072
2064.517747,0.000000,8586.388927,1184.329507
2064.518064,-4826.401637,1998.556043,6661.853478
2064.518382,-8963.317327,-3627.009116,13027.624579
2064.518699,-11338.213370,-8882.471304,17690.922014
2064.519016,-10572.117872,-12213.398043,23390.507767
2064.519334,-9193.145976,-11177.109724,22354.219448
2064.519651,-4290.134789,-10584.944971,24574.837274
2064.519968,0.000000,-6291.750507,20873.807564
2064.520286,5439.278036,-1776.494261,14878.139434
2064.520603,8120.612279,1110.308913,9622.677246
2064.520920,9116.536426,4959.379811,5255.462188
2064.521238,9193.145976,9326.594869,296.082377
2064.521555,10035.851024,11991.336260,-3034.844362
2064.521872,8044.002729,13767.830521,-5995.668130
2064.522190,6052.154434,11473.192101,-4663.297435
2064.522507,766.095498,8142.265362,-2516.700203
2064.522824,-4596.572988,1776.494261,2812.782580
2064.523142,-10035.851024,-6291.750507,9844.739029
2064.523459,-12793.794817,-10436.903782,19615.457463
2064.523776,-12717.185267,-14952.160028,25241.022622
2064.524094,-10878.556072,-13841.851115,23390.507767
2064.524411,-4136.915689,-11621.233289,24352.775492
2064.524728,1915.238745,-7476.080014,21910.095883
2064.525046,7124.688131,-5921.647536,15840.407159
2064.525363,10112.460574,-2738.761985,10214.842000
2064.525680,12640.575717,592.164754,5995.668130
2064.525998,14172.766713,8734.430116,-1702.473667
2064.526315,13789.718964,14211.954086,-7624.121203
2064.526632,13636.499864,17246.798449,-11399.171507
2064.526950,10495.508323,16432.571912,-12213.398043
2064.527267,3983.696590,12509.480420,-6291.750507
2064.527584,-4213.525239,2960.823768,370.102971
2064.527902,-10648.727422,-4959.379811,9030.512492
2064.528219,-14709.033562,-10955.047942,18505.148550
2064.528537,-14479.204912,-16358.551318,26055.249158
2064.528854,-13023.623466,-16284.530724,23612.569550
2064.529171,-7124.688131,-16358.551318,26499.372724
2064.529489,-1072.533697,-10584.944971,24204.734303
2064.529806,5056.230287,-4959.379811,18283.086767
2064.530123,11491.432470,-2146.597232,14656.077652
2064.530441,13483.280765,1554.432478,9474.636058
2064.530758,13483.280765,8438.347739,1258.350101
2064.531075,13559.890315,15174.221811,-6957.935855
2064.531393,13636.499864,19097.313304,-9992.780217
2064.531710,13023.623466,20577.725188,-12583.501014
2064.532027,7737.564530,19023.292709,-10732.986159
2064.532345,-689.485948,9252.574275,-2664.741391
2064.532662,-9576.193725,-592.164754,4441.235652
2064.532979,-15858.176809,-9918.759623,16506.592507
2064.533297,-17696.806004,-18949.272115,27609.681637
2064.533614,-17466.977354,-18431.127956,25167.002028
2064.533931,-14402.595362,-18283.086767,31088.649564
2064.534249,-8886.707777,-13101.645173,32569.061448
2064.534566,-2068.457845,-7105.977043,25537.104999
2064.534883,6511.811733,-2516.700203,21984.116477
2064.535201,9806.022374,222.061783,17394.839637
2064.535518,11797.870669,5255.462188,7698.141797
2064.535835,15092.081311,14137.933492,-3552.988522
2064.536153,16394.443657,21243.910535,-5107.421000
2064.536470,16854.100956,22650.301825,-13101.645173
2064.536787,14862.252661,25833.187376,-20207.622217
2064.537105,7277.907231,20133.601622,-9992.780217
2064.537422,-3064.381992,7031.956449,-518.144159
2064.537739,-12410.747068,-4959.379811,7698.141797
2064.538057,-18079.853753,-12731.542202,19467.416275
2064.538374,-20531.359346,-19245.354492,27535.661042
2064.538691,-19305.606550,-22354.219448,30792.567187
2064.539009,-15168.690860,-21391.951724,31088.649564
2064.539326,-7967.393179,-16432.571912,30940.608376
2064.539643,1072.533697,-8734.430116,26943.496289
2064.539961,8197.221829,-1184.329507,20725.766376
2064.540278,13330.061665,1776.494261,15914.427753
2064.540595,16317.834107,11177.109724,3775.050304
2064.540913,16241.224558,21317.931130,-4515.256246
2064.541230,19228.997000,25389.063811,-9770.718434
2064.541547,18079.853753,29460.196492,-21021.848753
2064.541865,15628.348159,29090.093521,-17542.880825
2064.542182,4979.620737,17468.860231,-7550.100608
2064.542499,-4749.792088,3182.885551,0.000000
2064.542817,-12563.966167,-7550.100608,7254.018232
2064.543134,-17773.415554,-16580.613101,17542.880825
2064.543451,-20837.797546,-24870.919651,29460.196492
2064.543769,-21144.235745,-26795.455100,32124.937883
2064.544086,-15934.786358,-23612.569550,29534.217086
2064.544404,-6971.469032,-18653.189738,33161.226202
2064.544721,1149.143247,-9474.636058,29238.134709
2064.545038,7814.174080,-5551.544565,23686.590144
2064.545356,11951.089769,1924.535449,10584.944971
2064.545673,12640.575717,10881.027347,1258.350101
2064.545990,18769.339701,16580.613101,962.267725
2064.546308,19305.606550,26055.249158,-15174.221811
