#time,accel_x,accel_y,accel_z
145.548451,842.705048,-0.000000,9400.615463
145.548768,536.266849,444.123565,9548.656652
145.549084,689.485948,518.144159,9474.636058
145.549401,842.705048,148.041188,9474.636058
145.549717,766.095498,148.041188,9252.574275
145.550034,919.314598,74.020594,9252.574275
145.550351,689.485948,296.082377,9474.636058
145.550667,689.485948,296.082377,9474.636058
145.550984,689.485948,296.082377,9474.636058
145.551301,536.266849,222.061783,9400.615463
145.551617,1072.533697,-0.000000,9474.636058
145.551934,1149.143247,296.082377,9548.656652
145.552251,536.266849,148.041188,9622.677246
145.552567,536.266849,148.041188,9474.636058
145.552884,689.485948,148.041188,9326.594869
145.553200,995.924147,148.041188,9474.636058
145.553517,612.876398,222.061783,9400.615463
145.553834,766.095498,-0.000000,9474.636058
145.554150,766.095498,-0.000000,9474.636058
145.554467,689.485948,148.041188,9326.594869
145.554784,766.095498,-0.000000,9326.594869
145.555100,842.705048,-0.000000,9400.615463
145.555417,766.095498,296.082377,9474.636058
145.555734,536.266849,148.041188,9400.615463
145.556050,766.095498,148.041188,9326.594869
145.556367,383.047749,370.102971,9622.677246
145.556683,766.095498,222.061783,9548.656652
145.557000,766.095498,222.061783,9400.615463
145.557317,842.705048,-0.000000,9400.615463
145.557633,612.876398,296.082377,9474.636058
145.557950,1149.143247,296.082377,9400.615463
145.558267,919.314598,148.041188,9178.553681
145.558583,536.266849,74.020594,9400.615463
145.558900,536.266849,296.082377,9474.636058
145.559217,842.705048,222.061783,9474.636058
145.559533,612.876398,370.102971,9696.697840
145.559850,459.657299,148.041188,9326.594869
145.560166,842.705048,222.061783,9400.615463
145.560483,766.095498,370.102971,9400.615463
145.560800,766.095498,370.102971,9474.636058
145.561116,842.705048,-0.000000,9548.656652
145.561433,842.705048,370.102971,9326.594869
145.561750,689.485948,74.020594,9252.574275
145.562066,766.095498,-0.000000,9474.636058
145.562383,536.266849,74.020594,9474.636058
145.562700,1072.533697,370.102971,9622.677246
145.563016,842.705048,296.082377,9326.594869
145.563333,536.266849,296.082377,9474.636058
145.563649,995.924147,148.041188,9178.553681
145.563966,1302.362347,222.061783,9400.615463
145.564283,842.705048,-0.000000,9474.636058
145.564599,459.657299,222.061783,9400.615463
145.564916,612.876398,-0.000000,9548.656652
145.565233,536.266849,148.041188,9474.636058
145.565549,766.095498,148.041188,9400.615463
145.565866,689.485948,666.185348,9548.656652
145.566183,689.485948,296.082377,9474.636058
145.566499,766.095498,148.041188,9326.594869
145.566816,612.876398,222.061783,9474.636058
145.567132,612.876398,148.041188,9400.615463
145.567449,612.876398,148.041188,9474.636058
145.567766,689.485948,148.041188,9474.636058
145.568082,766.095498,296.082377,9326.594869
145.568399,766.095498,148.041188,9400.615463
145.568716,689.485948,370.102971,9474.636058
145.569032,995.924147,148.041188,9252.574275
145.569349,459.657299,296.082377,9474.636058
145.569666,919.314598,-0.000000,9474.636058
145.569982,612.876398,148.041188,9400.615463
145.570299,919.314598,222.061783,9400.615463
145.570615,842.705048,148.041188,9400.615463
145.570932,689.485948,444.123565,9474.636058
145.571249,689.485948,370.102971,9474.636058
145.571565,689.485948,370.102971,9326.594869
145.571882,536.266849,-0.000000,9474.636058
145.572199,612.876398,296.082377,9400.615463
145.572515,995.924147,222.061783,9474.636058
145.572832,689.485948,-0.000000,9474.636058
145.573149,919.314598,296.082377,9474.636058
145.573466,766.095498,222.061783,9474.636058
145.573782,842.705048,148.041188,9548.656652
145.574099,1149.143247,296.082377,9400.615463
145.574416,766.095498,296.082377,9474.636058
145.574733,536.266849,148.041188,9474.636058
145.575049,612.876398,296.082377,9622.677246
145.575366,536.266849,222.061783,9474.636058
145.575683,612.876398,148.041188,9474.636058
145.575999,612.876398,-0.000000,9474.636058
145.576316,1072.533697,-0.000000,9474.636058
145.576633,1302.362347,-0.000000,9474.636058
145.576950,842.705048,-0.000000,9474.636058
145.577266,842.705048,148.041188,9326.594869
145.577583,766.095498,222.061783,9474.636058
145.577900,919.314598,222.061783,9474.636058
145.578217,995.924147,222.061783,9474.636058
145.578533,689.485948,148.041188,9474.636058
145.578850,842.705048,296.082377,9474.636058
145.579167,842.705048,370.102971,9474.636058
145.579483,612.876398,148.041188,9474.636058
145.579800,842.705048,370.102971,9252.574275
145.580117,612.876398,148.041188,9400.615463
145.580434,842.705048,222.061783,9474.636058
145.580750,766.095498,222.061783,9474.636058
145.581067,612.876398,296.082377,9548.656652
145.581384,766.095498,222.061783,9548.656652
145.581701,842.705048,222.061783,9474.636058
145.582017,689.485948,-0.000000,9400.615463
145.582334,689.485948,370.102971,9400.615463
145.582651,612.876398,-0.000000,9326.594869
145.582967,689.485948,296.082377,9400.615463
145.583284,1072.533697,222.061783,9474.636058
145.583601,766.095498,-0.000000,9400.615463
145.583918,689.485948,296.082377,9474.636058
145.584234,919.314598,296.082377,9474.636058
145.584551,766.095498,370.102971,9474.636058
145.584868,766.095498,222.061783,9252.574275
145.585185,995.924147,296.082377,9474.636058
145.585501,919.314598,222.061783,9548.656652
145.585818,766.095498,-0.000000,9400.615463
145.586135,459.657299,222.061783,9474.636058
145.586451,995.924147,444.123565,9474.636058
145.586768,842.705048,296.082377,9474.636058
145.587085,536.266849,148.041188,9474.636058
145.587402,766.095498,296.082377,9400.615463
145.587718,766.095498,222.061783,9474.636058
145.588035,766.095498,148.041188,9474.636058
145.588352,995.924147,-0.000000,9622.677246
145.588669,919.314598,-0.000000,9326.594869
145.588985,689.485948,-0.000000,9400.615463
145.589302,612.876398,222.061783,9400.615463
145.589619,1072.533697,148.041188,9400.615463
145.589935,1225.752797,-0.000000,9178.553681
145.590252,842.705048,222.061783,9326.594869
145.590569,612.876398,296.082377,9474.636058
145.590886,919.314598,296.082377,9548.656652
145.591202,612.876398,148.041188,9474.636058
145.591519,842.705048,-0.000000,9622.677246
145.591836,459.657299,222.061783,9474.636058
145.592153,689.485948,148.041188,9474.636058
145.592469,612.876398,222.061783,9474.636058
145.592786,919.314598,296.082377,9474.636058
145.593103,995.924147,-0.000000,9474.636058
145.593419,919.314598,148.041188,9326.594869
145.593736,459.657299,444.123565,9474.636058
145.594053,689.485948,296.082377,9326.594869
145.594370,766.095498,222.061783,9474.636058
145.594686,612.876398,-0.000000,9474.636058
145.595003,919.314598,148.041188,9474.636058
145.595320,689.485948,-0.000000,9326.594869
145.595637,766.095498,-0.000000,9548.656652
145.595953,842.705048,296.082377,9474.636058
145.596270,766.095498,222.061783,9326.594869
145.596587,766.095498,296.082377,9326.594869
145.596903,919.314598,370.102971,9474.636058
145.597220,766.095498,296.082377,9400.615463
145.597537,612.876398,-0.000000,9474.636058
145.597854,766.095498,-0.000000,9400.615463
145.598170,612.876398,-0.000000,9400.615463
145.598487,689.485948,222.061783,9400.615463
145.598804,842.705048,296.082377,9400.615463
145.599121,766.095498,222.061783,9326.594869
145.599437,919.314598,444.123565,9474.636058
145.599754,766.095498,370.102971,9400.615463
145.600071,612.876398,370.102971,9400.615463
145.600387,995.924147,148.041188,9474.636058
145.600704,919.314598,-148.041188,9178.553681
145.601021,612.876398,296.082377,9474.636058
145.601338,536.266849,296.082377,9474.636058
145.601654,842.705048,296.082377,9474.636058
145.601971,612.876398,222.061783,9400.615463
145.602288,1302.362347,148.041188,9252.574275
145.602605,919.314598,222.061783,9474.636058
145.602921,919.314598,370.102971,9474.636058
145.603238,766.095498,-0.000000,9474.636058
145.603555,536.266849,148.041188,9474.636058
145.603871,612.876398,-0.000000,9770.718434
145.604188,919.314598,296.082377,9326.594869
145.604505,612.876398,296.082377,9622.677246
145.604822,766.095498,296.082377,9474.636058
145.605138,689.485948,222.061783,9474.636058
145.605455,689.485948,-0.000000,9548.656652
145.605772,766.095498,148.041188,9326.594869
145.606089,766.095498,222.061783,9474.636058
145.606405,612.876398,-74.020594,9622.677246
145.606722,919.314598,222.061783,9400.615463
145.607039,459.657299,296.082377,9474.636058
145.607355,919.314598,296.082377,9474.636058
145.607672,919.314598,444.123565,9400.615463
145.607989,842.705048,370.102971,9326.594869
145.608306,995.924147,296.082377,9252.574275
145.608622,689.485948,370.102971,9474.636058
145.608939,459.657299,-0.000000,9474.636058
145.609256,919.314598,222.061783,9326.594869
145.609573,689.485948,-0.000000,9474.636058
145.609889,766.095498,296.082377,9474.636058
145.610206,995.924147,222.061783,9474.636058
145.610523,919.314598,222.061783,9474.636058
145.610839,612.876398,222.061783,9400.615463
145.611156,689.485948,-0.000000,9252.574275
145.611473,1149.143247,-222.061783,9252.574275
145.611790,919.314598,296.082377,9474.636058
145.612106,689.485948,296.082377,9326.594869
145.612423,766.095498,74.020594,9400.615463
145.612740,612.876398,-0.000000,9400.615463
145.613057,689.485948,-74.020594,9474.636058
145.613373,766.095498,296.082377,9474.636058
145.613690,612.876398,222.061783,9474.636058
145.614007,842.705048,148.041188,9400.615463
145.614323,842.705048,-0.000000,9474.636058
145.614640,842.705048,222.061783,9474.636058
145.614957,766.095498,-0.000000,9326.594869
145.615274,459.657299,-74.020594,9326.594869
145.615590,842.705048,222.061783,9400.615463
145.615907,842.705048,222.061783,9400.615463
145.616224,1072.533697,296.082377,9474.636058
145.616541,766.095498,222.061783,9474.636058
145.616857,689.485948,296.082377,9474.636058
145.617174,995.924147,-0.000000,9252.574275
145.617491,1532.190996,370.102971,9474.636058
145.617807,689.485948,148.041188,9548.656652
145.618124,689.485948,-0.000000,9474.636058
145.618441,995.924147,-0.000000,9400.615463
145.618758,842.705048,222.061783,9474.636058
145.619074,919.314598,296.082377,9326.594869
145.619391,1072.533697,370.102971,9474.636058
145.619708,689.485948,148.041188,9400.615463
145.620025,766.095498,296.082377,9474.636058
145.620341,766.095498,222.061783,9326.594869
145.620658,919.314598,296.082377,9474.636058
145.620975,919.314598,-0.000000,9622.677246
145.621291,689.485948,222.061783,9548.656652
145.621608,766.095498,518.144159,9474.636058
145.621925,689.485948,222.061783,9400.615463
145.622242,995.924147,148.041188,9548.656652
145.622558,612.876398,222.061783,9474.636058
145.622875,919.314598,222.061783,9474.636058
145.623192,919.314598,296.082377,9474.636058
145.623509,766.095498,148.041188,9474.636058
145.623825,842.705048,148.041188,9400.615463
145.624142,766.095498,370.102971,9252.574275
145.624459,612.876398,-0.000000,9474.636058
145.624775,919.314598,-0.000000,9474.636058
145.625092,689.485948,222.061783,9474.636058
145.625409,459.657299,444.123565,9474.636058
145.625726,459.657299,296.082377,9548.656652
145.626042,536.266849,222.061783,9474.636058
145.626359,766.095498,222.061783,9326.594869
145.626676,383.047749,296.082377,9474.636058
145.626993,689.485948,148.041188,9474.636058
145.627309,1072.533697,222.061783,9474.636058
145.627626,919.314598,296.082377,9326.594869
145.627943,612.876398,222.061783,9474.636058
145.628259,919.314598,-0.000000,9622.677246
145.628576,689.485948,296.082377,9326.594869
145.628893,919.314598,370.102971,9400.615463
145.629210,842.705048,148.041188,9326.594869
145.629526,919.314598,-0.000000,9400.615463
145.629843,995.924147,-0.000000,9474.636058
145.630160,919.314598,-0.000000,9326.594869
145.630477,1225.752797,148.041188,9474.636058
145.630793,766.095498,-0.000000,9474.636058
145.631110,0.000000,-0.000000,9474.636058
145.631427,612.876398,296.082377,9400.615463
145.631743,689.485948,222.061783,9326.594869
145.632060,612.876398,-0.000000,9326.594869
145.632377,766.095498,-0.000000,9400.615463
145.632694,689.485948,-0.000000,9474.636058
145.633010,689.485948,148.041188,9326.594869
145.633327,612.876398,296.082377,9474.636058
145.633644,689.485948,444.123565,9400.615463
145.633961,766.095498,-74.020594,9400.615463
145.634277,919.314598,-0.000000,9622.677246
145.634594,766.095498,-0.000000,9474.636058
145.634911,766.095498,296.082377,9400.615463
145.635227,766.095498,296.082377,9400.615463
145.635544,842.705048,370.102971,9400.615463
145.635861,612.876398,-0.000000,9474.636058
145.636178,612.876398,148.041188,9400.615463
145.636494,842.705048,-0.000000,9474.636058
145.636811,919.314598,222.061783,9474.636058
145.637128,919.314598,-0.000000,9548.656652
145.637445,842.705048,148.041188,9770.718434
145.637761,766.095498,296.082377,9696.697840
145.638078,995.924147,222.061783,9252.574275
145.638395,842.705048,296.082377,9548.656652
145.638711,842.705048,222.061783,9474.636058
145.639028,842.705048,370.102971,9400.615463
145.639345,766.095498,222.061783,9474.636058
145.639662,919.314598,222.061783,9474.636058
145.639978,766.095498,296.082377,9474.636058
145.640295,766.095498,296.082377,9474.636058
145.640612,842.705048,-0.000000,9400.615463
145.640929,766.095498,-0.000000,9474.636058
145.641245,919.314598,148.041188,9326.594869
145.641562,842.705048,222.061783,9474.636058
145.641879,919.314598,296.082377,9548.656652
145.642195,612.876398,296.082377,9548.656652
145.642512,766.095498,-0.000000,9400.615463
145.642829,689.485948,296.082377,9474.636058
145.643146,842.705048,-0.000000,9474.636058
145.643462,842.705048,370.102971,9622.677246
145.643779,689.485948,444.123565,9622.677246
145.644096,842.705048,74.020594,9474.636058
145.644413,766.095498,-0.000000,9252.574275
145.644729,766.095498,444.123565,9400.615463
145.645046,1302.362347,148.041188,9326.594869
145.645363,766.095498,148.041188,9474.636058
145.645679,689.485948,148.041188,9474.636058
145.645996,689.485948,148.041188,9474.636058
145.646313,842.705048,518.144159,9548.656652
145.646630,842.705048,-0.000000,9400.615463
145.646946,536.266849,222.061783,9474.636058
145.647263,536.266849,148.041188,9474.636058
145.647580,766.095498,370.102971,9474.636058
145.647897,842.705048,222.061783,9474.636058
145.648213,919.314598,222.061783,9548.656652
145.648530,612.876398,296.082377,9474.636058
145.648847,919.314598,-0.000000,9400.615463
145.649163,766.095498,-0.000000,9474.636058
145.649480,842.705048,148.041188,9400.615463
145.649797,1149.143247,-0.000000,9400.615463
145.650114,766.095498,-0.000000,9474.636058
145.650430,1225.752797,-0.000000,9326.594869
145.650747,842.705048,222.061783,9326.594869
145.651064,766.095498,296.082377,9548.656652
145.651381,1072.533697,-0.000000,9474.636058
145.651697,842.705048,222.061783,9400.615463
145.652014,612.876398,370.102971,9474.636058
145.652331,689.485948,148.041188,9400.615463
145.652647,1225.752797,148.041188,9548.656652
145.652964,766.095498,-0.000000,9400.615463
145.653281,995.924147,148.041188,9474.636058
145.653598,689.485948,222.061783,9622.677246
145.653914,536.266849,296.082377,9326.594869
145.654231,689.485948,-0.000000,9474.636058
145.654548,766.095498,-0.000000,9474.636058
145.654865,919.314598,-0.000000,9326.594869
145.655181,842.705048,222.061783,9326.594869
145.655498,689.485948,-0.000000,9474.636058
145.655815,842.705048,222.061783,9474.636058
145.656131,1149.143247,-74.020594,9474.636058
145.656448,766.095498,148.041188,9474.636058
145.656765,1072.533697,-0.000000,9326.594869
145.657082,766.095498,148.041188,9400.615463
145.657398,689.485948,296.082377,9326.594869
145.657715,612.876398,-0.000000,9400.615463
145.658032,689.485948,-0.000000,9474.636058
145.658349,766.095498,-0.000000,9400.615463
145.658665,536.266849,-0.000000,9252.574275
145.658982,995.924147,296.082377,9400.615463
145.659299,1149.143247,-0.000000,9400.615463
145.659615,919.314598,370.102971,9474.636058
145.659932,766.095498,222.061783,9474.636058
145.660249,536.266849,370.102971,9326.594869
145.660566,612.876398,-0.000000,9474.636058
145.660882,766.095498,222.061783,9474.636058
145.661199,612.876398,370.102971,9474.636058
145.661516,766.095498,148.041188,9326.594869
145.661833,766.095498,296.082377,9400.615463
145.662149,689.485948,-0.000000,9474.636058
145.662466,612.876398,-0.000000,9252.574275
145.662783,612.876398,296.082377,9548.656652
145.663099,842.705048,-0.000000,9326.594869
145.663416,766.095498,222.061783,9474.636058
145.663733,689.485948,296.082377,9622.677246
145.664050,766.095498,296.082377,9400.615463
145.664366,842.705048,370.102971,9474.636058
145.664683,842.705048,-0.000000,9474.636058
145.665000,1072.533697,-74.020594,9252.574275
145.665317,842.705048,666.185348,9548.656652
145.665633,689.485948,74.020594,9622.677246
145.665950,919.314598,-0.000000,9474.636058
145.666267,689.485948,296.082377,9326.594869
145.666583,1225.752797,444.123565,9400.615463
145.666900,766.095498,-0.000000,9474.636058
145.667217,919.314598,222.061783,9474.636058
145.667534,766.095498,222.061783,9326.594869
145.667850,612.876398,-0.000000,9326.594869
145.668167,689.485948,222.061783,9474.636058
145.668484,383.047749,-0.000000,9326.594869
145.668801,536.266849,148.041188,9400.615463
145.669117,536.266849,148.041188,9400.615463
145.669434,842.705048,370.102971,9474.636058
145.669751,842.705048,-0.000000,9474.636058
145.670067,842.705048,444.123565,9474.636058
145.670384,689.485948,444.123565,9474.636058
145.670701,766.095498,222.061783,9474.636058
145.671018,919.314598,-74.020594,9474.636058
145.671334,919.314598,-0.000000,9548.656652
145.671651,995.924147,296.082377,9622.677246
145.671968,536.266849,74.020594,9474.636058
145.672285,612.876398,444.123565,9474.636058
145.672601,919.314598,148.041188,9400.615463
145.672918,842.705048,222.061783,9474.636058
145.673235,689.485948,370.102971,9474.636058
145.673552,766.095498,296.082377,9474.636058
145.673868,536.266849,296.082377,9474.636058
145.674185,536.266849,-0.000000,9696.697840
145.674502,689.485948,296.082377,9474.636058
145.674819,842.705048,296.082377,9474.636058
145.675135,612.876398,148.041188,9474.636058
145.675452,1225.752797,370.102971,9474.636058
145.675769,995.924147,296.082377,9326.594869
145.676086,383.047749,-0.000000,9474.636058
145.676403,612.876398,-0.000000,9474.636058
145.676719,612.876398,-0.000000,9474.636058
145.677036,842.705048,518.144159,9474.636058
145.677353,766.095498,296.082377,9474.636058
145.677670,536.266849,222.061783,9474.636058
145.677986,689.485948,296.082377,9400.615463
145.678303,612.876398,-0.000000,9474.636058
145.678620,1072.533697,-0.000000,9474.636058
145.678937,919.314598,296.082377,9474.636058
145.679254,995.924147,222.061783,9252.574275
145.679570,842.705048,222.061783,9400.615463
145.679887,689.485948,444.123565,9474.636058
145.680204,842.705048,222.061783,9326.594869
145.680521,766.095498,296.082377,9548.656652
145.680838,612.876398,296.082377,9474.636058
145.681154,459.657299,296.082377,9474.636058
145.681471,919.314598,-0.000000,9400.615463
145.681788,1302.362347,-0.000000,9474.636058
145.682105,536.266849,148.041188,9622.677246
145.682421,689.485948,296.082377,9474.636058
145.682738,689.485948,296.082377,9474.636058
145.683055,536.266849,222.061783,9400.615463
145.683372,689.485948,222.061783,9548.656652
145.683689,612.876398,148.041188,9400.615463
145.684005,689.485948,-0.000000,9400.615463
145.684322,689.485948,296.082377,9622.677246
145.684639,689.485948,-0.000000,9326.594869
145.684956,459.657299,222.061783,9474.636058
145.685272,766.095498,222.061783,9622.677246
145.685589,612.876398,370.102971,9474.636058
145.685906,689.485948,222.061783,9326.594869
145.686223,536.266849,222.061783,9474.636058
145.686540,612.876398,-0.000000,9474.636058
145.686856,689.485948,222.061783,9548.656652
145.687173,995.924147,-0.000000,9400.615463
145.687490,689.485948,222.061783,9474.636058
145.687807,689.485948,518.144159,9474.636058
145.688123,612.876398,148.041188,9474.636058
145.688440,689.485948,370.102971,9326.594869
145.688757,766.095498,296.082377,9622.677246
145.689074,842.705048,222.061783,9400.615463
145.689391,766.095498,148.041188,9474.636058
145.689707,689.485948,-0.000000,9474.636058
145.690024,536.266849,222.061783,9548.656652
145.690341,842.705048,148.041188,9474.636058
145.690658,766.095498,148.041188,9474.636058
145.690975,1072.533697,518.144159,9326.594869
145.691291,459.657299,296.082377,9548.656652
145.691608,689.485948,148.041188,9400.615463
145.691925,766.095498,148.041188,9474.636058
145.692242,689.485948,222.061783,9474.636058
145.692558,612.876398,-74.020594,9548.656652
145.692875,766.095498,148.041188,9474.636058
145.693192,766.095498,296.082377,9548.656652
145.693509,612.876398,222.061783,9474.636058
145.693826,766.095498,370.102971,9400.615463
145.694142,842.705048,-0.000000,9474.636058
145.694459,995.924147,518.144159,9326.594869
145.694776,919.314598,-0.000000,9400.615463
145.695093,766.095498,222.061783,9474.636058
145.695409,689.485948,-0.000000,9474.636058
145.695726,995.924147,-0.000000,9178.553681
145.696043,919.314598,-0.000000,9474.636058
145.696360,919.314598,296.082377,9400.615463
145.696677,995.924147,222.061783,9326.594869
145.696993,995.924147,-0.000000,9252.574275
145.697310,689.485948,-0.000000,9548.656652
145.697627,1072.533697,-0.000000,9252.574275
145.697944,842.705048,-0.000000,9326.594869
145.698260,842.705048,-0.000000,9548.656652
145.698577,1072.533697,74.020594,9548.656652
145.698894,766.095498,-0.000000,9400.615463
145.699211,766.095498,222.061783,9474.636058
145.699528,919.314598,296.082377,9474.636058
145.699844,766.095498,222.061783,9326.594869
145.700161,766.095498,296.082377,9474.636058
145.700478,842.705048,148.041188,9252.574275
145.700795,766.095498,222.061783,9326.594869
145.701112,919.314598,222.061783,9474.636058
145.701428,612.876398,-0.000000,9326.594869
145.701745,689.485948,-74.020594,9474.636058
145.702062,536.266849,222.061783,9548.656652
145.702379,842.705048,-0.000000,9474.636058
145.702695,995.924147,148.041188,9474.636058
145.703012,919.314598,296.082377,9400.615463
145.703329,612.876398,222.061783,9474.636058
145.703646,536.266849,-0.000000,9400.615463
145.703963,766.095498,148.041188,9548.656652
145.704279,766.095498,148.041188,9474.636058
145.704596,842.705048,444.123565,9474.636058
145.704913,995.924147,-0.000000,9326.594869
145.705230,842.705048,296.082377,9474.636058
145.705546,766.095498,296.082377,9474.636058
145.705863,766.095498,370.102971,9474.636058
145.706180,459.657299,-0.000000,9474.636058
145.706497,229.828649,148.041188,9326.594869
145.706814,766.095498,370.102971,9474.636058
145.707130,612.876398,370.102971,9474.636058
145.707447,612.876398,148.041188,9400.615463
145.707764,919.314598,296.082377,9696.697840
145.708081,536.266849,148.041188,9474.636058
145.708397,766.095498,148.041188,9400.615463
145.708714,536.266849,222.061783,9400.615463
145.709031,612.876398,444.123565,9474.636058
145.709348,995.924147,222.061783,9474.636058
145.709665,689.485948,222.061783,9326.594869
145.709981,766.095498,222.061783,9474.636058
145.710298,689.485948,-0.000000,9400.615463
145.710615,612.876398,222.061783,9474.636058
145.710932,842.705048,-0.000000,9104.533087
145.711249,919.314598,222.061783,9326.594869
145.711565,766.095498,222.061783,9474.636058
145.711882,612.876398,148.041188,9548.656652
145.712199,766.095498,-0.000000,9400.615463
145.712516,766.095498,-0.000000,9474.636058
145.712832,689.485948,444.123565,9400.615463
145.713149,612.876398,296.082377,9252.574275
145.713466,766.095498,222.061783,9474.636058
145.713783,919.314598,148.041188,9548.656652
145.714100,689.485948,296.082377,9252.574275
145.714416,689.485948,148.041188,9326.594869
145.714733,766.095498,296.082377,9474.636058
145.715050,536.266849,296.082377,9400.615463
145.715367,536.266849,-0.000000,9326.594869
145.715683,919.314598,370.102971,9474.636058
145.716000,612.876398,370.102971,9622.677246
145.716317,689.485948,296.082377,9474.636058
145.716634,1149.143247,-0.000000,9474.636058
145.716951,689.485948,-0.000000,9400.615463
145.717267,766.095498,222.061783,9548.656652
145.717584,612.876398,148.041188,9400.615463
145.717901,919.314598,296.082377,9474.636058
145.718218,229.828649,-0.000000,9474.636058
145.718535,612.876398,148.041188,9474.636058
145.718851,766.095498,-0.000000,9474.636058
145.719168,689.485948,296.082377,9548.656652
145.719485,766.095498,-0.000000,9474.636058
145.719802,995.924147,-0.000000,9400.615463
145.720118,536.266849,296.082377,9474.636058
145.720435,536.266849,296.082377,9400.615463
145.720752,689.485948,222.061783,9474.636058
145.721069,689.485948,148.041188,9400.615463
145.721386,842.705048,222.061783,9474.636058
145.721702,612.876398,148.041188,9474.636058
145.722019,842.705048,222.061783,9474.636058
145.722336,766.095498,148.041188,9326.594869
145.722653,536.266849,296.082377,9474.636058
145.722969,919.314598,-0.000000,9178.553681
145.723286,612.876398,148.041188,9400.615463
145.723603,689.485948,222.061783,9474.636058
145.723920,689.485948,296.082377,9474.636058
145.724237,995.924147,296.082377,9474.636058
145.724553,689.485948,296.082377,9474.636058
145.724870,689.485948,296.082377,9326.594869
145.725187,766.095498,-0.000000,9400.615463
145.725504,766.095498,148.041188,9474.636058
145.725820,689.485948,296.082377,9400.615463
145.726137,459.657299,444.123565,9622.677246
145.726454,689.485948,148.041188,9400.615463
145.726771,842.705048,444.123565,9474.636058
145.727088,919.314598,148.041188,9400.615463
145.727404,689.485948,-0.000000,9326.594869
145.727721,689.485948,148.041188,9474.636058
145.728038,689.485948,-0.000000,9326.594869
145.728355,842.705048,148.041188,9548.656652
145.728672,766.095498,222.061783,9474.636058
145.728988,1225.752797,-0.000000,9622.677246
145.729305,536.266849,148.041188,9474.636058
145.729622,919.314598,444.123565,9548.656652
145.729939,995.924147,222.061783,9622.677246
145.730255,612.876398,222.061783,9326.594869
145.730572,1378.971896,148.041188,9696.697840
145.730889,689.485948,222.061783,9548.656652
145.731206,689.485948,148.041188,9474.636058
145.731523,919.314598,222.061783,9400.615463
145.731839,766.095498,296.082377,9548.656652
145.732156,459.657299,-0.000000,9400.615463
145.732473,919.314598,-0.000000,9326.594869
145.732790,612.876398,-0.000000,9252.574275
145.733106,689.485948,370.102971,9474.636058
145.733423,612.876398,222.061783,9400.615463
145.733740,766.095498,-74.020594,9770.718434
145.734057,766.095498,222.061783,9474.636058
145.734374,995.924147,-0.000000,9474.636058
145.734690,689.485948,222.061783,9474.636058
145.735007,306.438199,370.102971,9474.636058
145.735324,459.657299,-0.000000,9474.636058
145.735641,842.705048,296.082377,9178.553681
145.735957,689.485948,148.041188,9400.615463
145.736274,766.095498,296.082377,9474.636058
145.736591,919.314598,222.061783,9474.636058
145.736908,689.485948,148.041188,9400.615463
145.737225,1149.143247,-0.000000,9474.636058
145.737541,459.657299,296.082377,9400.615463
145.737858,766.095498,296.082377,9474.636058
145.738175,612.876398,148.041188,9474.636058
145.738492,766.095498,444.123565,9696.697840
145.738809,689.485948,370.102971,9622.677246
145.739125,766.095498,222.061783,9474.636058
145.739442,689.485948,222.061783,9474.636058
145.739759,1378.971896,296.082377,9400.615463
145.740076,766.095498,-0.000000,9400.615463
145.740392,536.266849,148.041188,9474.636058
145.740709,766.095498,222.061783,9474.636058
145.741026,842.705048,222.061783,9474.636058
145.741343,995.924147,-296.082377,9474.636058
145.741660,842.705048,148.041188,9326.594869
145.741976,766.095498,296.082377,9474.636058
145.742293,766.095498,444.123565,9622.677246
145.742610,842.705048,296.082377,9474.636058
145.742927,842.705048,-296.082377,8956.491898
145.743243,766.095498,296.082377,9474.636058
145.743560,612.876398,296.082377,9400.615463
145.743877,766.095498,296.082377,9474.636058
145.744194,766.095498,148.041188,9548.656652
145.744511,766.095498,148.041188,9474.636058
145.744827,612.876398,296.082377,9474.636058
145.745144,383.047749,296.082377,9474.636058
145.745461,995.924147,222.061783,9474.636058
145.745778,766.095498,222.061783,9474.636058
145.746095,995.924147,370.102971,9474.636058
145.746411,689.485948,296.082377,9474.636058
145.746728,919.314598,370.102971,9474.636058
145.747045,919.314598,222.061783,9474.636058
145.747362,919.314598,148.041188,9474.636058
145.747678,536.266849,222.061783,9548.656652
145.747995,689.485948,296.082377,9548.656652
145.748312,842.705048,222.061783,9474.636058
145.748629,842.705048,222.061783,9548.656652
145.748946,536.266849,222.061783,9474.636058
145.749262,766.095498,148.041188,9474.636058
145.749579,612.876398,222.061783,9400.615463
145.749896,766.095498,148.041188,9326.594869
145.750213,919.314598,296.082377,9474.636058
145.750529,689.485948,296.082377,9400.615463
145.750846,766.095498,-0.000000,9474.636058
145.751163,766.095498,148.041188,9474.636058
145.751480,995.924147,296.082377,9400.615463
145.751797,766.095498,296.082377,9400.615463
145.752113,612.876398,148.041188,9474.636058
145.752430,842.705048,-0.000000,9400.615463
145.752747,612.876398,-0.000000,9474.636058
145.753064,766.095498,222.061783,9474.636058
145.753380,842.705048,-0.000000,9622.677246
145.753697,612.876398,296.082377,9474.636058
145.754014,919.314598,296.082377,9252.574275
145.754331,536.266849,222.061783,9474.636058
145.754648,1149.143247,222.061783,9400.615463
145.754964,766.095498,222.061783,9474.636058
145.755281,842.705048,222.061783,9474.636058
145.755598,766.095498,-0.000000,9474.636058
145.755915,536.266849,222.061783,9474.636058
145.756232,842.705048,222.061783,9400.615463
145.756548,612.876398,296.082377,9474.636058
145.756865,689.485948,-0.000000,9474.636058
145.757182,766.095498,222.061783,9548.656652
145.757499,842.705048,296.082377,9474.636058
145.757815,766.095498,444.123565,9696.697840
145.758132,842.705048,222.061783,9326.594869
145.758449,689.485948,148.041188,9548.656652
145.758766,766.095498,148.041188,9400.615463
145.759083,689.485948,296.082377,9474.636058
145.759399,1149.143247,370.102971,9474.636058
145.759716,842.705048,222.061783,9326.594869
145.760033,612.876398,148.041188,9326.594869
145.760350,766.095498,222.061783,9400.615463
145.760666,919.314598,296.082377,9474.636058
145.760983,1225.752797,-0.000000,9474.636058
145.761300,689.485948,296.082377,9474.636058
145.761617,689.485948,370.102971,9474.636058
145.761934,842.705048,-0.000000,9400.615463
145.762250,689.485948,-0.000000,9400.615463
145.762567,612.876398,222.061783,9770.718434
145.762884,766.095498,222.061783,9326.594869
145.763201,689.485948,148.041188,9474.636058
145.763517,766.095498,370.102971,9474.636058
145.763834,766.095498,296.082377,9474.636058
145.764151,766.095498,444.123565,9548.656652
145.764468,612.876398,-0.000000,9474.636058
145.764785,842.705048,148.041188,9474.636058
145.765101,689.485948,222.061783,9474.636058
145.765418,842.705048,518.144159,9474.636058
145.765735,689.485948,296.082377,9622.677246
145.766052,536.266849,370.102971,9548.656652
145.766369,689.485948,222.061783,9474.636058
145.766685,689.485948,148.041188,9400.615463
145.767002,766.095498,-0.000000,9400.615463
145.767319,689.485948,-0.000000,9400.615463
145.767636,842.705048,222.061783,9474.636058
145.767952,995.924147,148.041188,9474.636058
145.768269,612.876398,222.061783,9400.615463
145.768586,766.095498,-0.000000,9474.636058
145.768903,1225.752797,296.082377,9400.615463
145.769220,842.705048,296.082377,9400.615463
145.769536,689.485948,370.102971,9252.574275
145.769853,612.876398,222.061783,9474.636058
145.770170,842.705048,-0.000000,9252.574275
145.770487,689.485948,-74.020594,9474.636058
145.770803,842.705048,222.061783,9474.636058
145.771120,612.876398,222.061783,9474.636058
145.771437,766.095498,222.061783,9474.636058
145.771754,842.705048,222.061783,9474.636058
145.772071,1072.533697,-0.000000,9474.636058
145.772387,689.485948,-0.000000,9400.615463
145.772704,995.924147,148.041188,9400.615463
145.773021,689.485948,222.061783,9474.636058
145.773338,612.876398,74.020594,9548.656652
145.773655,1072.533697,-0.000000,9400.615463
145.773971,842.705048,-0.000000,9474.636058
145.774288,689.485948,-0.000000,9474.636058
145.774605,536.266849,148.041188,9474.636058
145.774922,766.095498,148.041188,9474.636058
145.775238,766.095498,-0.000000,9474.636058
145.775555,919.314598,296.082377,9400.615463
145.775872,689.485948,370.102971,9400.615463
145.776189,766.095498,222.061783,9474.636058
145.776505,766.095498,148.041188,9326.594869
145.776822,1072.533697,148.041188,9326.594869
145.777139,919.314598,222.061783,9622.677246
145.777455,766.095498,222.061783,9474.636058
145.777772,842.705048,148.041188,9548.656652
145.778089,842.705048,296.082377,9474.636058
145.778406,766.095498,222.061783,9548.656652
145.778722,612.876398,-0.000000,9326.594869
145.779039,842.705048,370.102971,9622.677246
145.779356,842.705048,222.061783,9696.697840
145.779673,766.095498,222.061783,9474.636058
145.779989,766.095498,-0.000000,9474.636058
145.780306,1072.533697,370.102971,9474.636058
145.780623,612.876398,148.041188,9474.636058
145.780940,536.266849,-0.000000,9400.615463
145.781256,612.876398,222.061783,9400.615463
145.781573,1149.143247,-74.020594,9474.636058
145.781890,766.095498,-0.000000,9474.636058
145.782207,536.266849,222.061783,9326.594869
145.782523,689.485948,74.020594,9400.615463
145.782840,536.266849,296.082377,9474.636058
145.783157,689.485948,-0.000000,9622.677246
145.783474,766.095498,370.102971,9474.636058
145.783790,766.095498,222.061783,9474.636058
145.784107,766.095498,148.041188,9252.574275
145.784424,689.485948,-0.000000,9178.553681
145.784740,766.095498,222.061783,9326.594869
145.785057,766.095498,222.061783,9326.594869
145.785374,689.485948,148.041188,9474.636058
145.785691,919.314598,370.102971,9474.636058
145.786007,1378.971896,-0.000000,9474.636058
145.786324,919.314598,296.082377,9474.636058
145.786641,766.095498,-0.000000,9326.594869
145.786958,766.095498,148.041188,9548.656652
145.787274,612.876398,296.082377,9474.636058
145.787591,306.438199,296.082377,9474.636058
145.787908,536.266849,296.082377,9474.636058
145.788225,612.876398,222.061783,9400.615463
145.788541,612.876398,-0.000000,9474.636058
145.788858,536.266849,74.020594,9400.615463
145.789175,612.876398,-0.000000,9474.636058
145.789492,536.266849,74.020594,9474.636058
145.789808,919.314598,222.061783,9474.636058
145.790125,842.705048,296.082377,9326.594869
145.790442,842.705048,222.061783,9474.636058
145.790758,536.266849,222.061783,9548.656652
145.791075,766.095498,148.041188,9400.615463
145.791392,612.876398,222.061783,9400.615463
145.791709,766.095498,222.061783,9474.636058
145.792025,995.924147,296.082377,9326.594869
145.792342,536.266849,296.082377,9548.656652
145.792659,766.095498,370.102971,9474.636058
145.792976,919.314598,370.102971,9252.574275
145.793292,689.485948,222.061783,9400.615463
145.793609,689.485948,444.123565,9474.636058
145.793926,919.314598,148.041188,9548.656652
145.794243,842.705048,-0.000000,9474.636058
145.794559,689.485948,222.061783,9474.636058
145.794876,842.705048,148.041188,9474.636058
145.795193,919.314598,148.041188,9474.636058
145.795510,536.266849,148.041188,9400.615463
145.795826,689.485948,296.082377,9400.615463
145.796143,689.485948,296.082377,9326.594869
145.796460,919.314598,-0.000000,9474.636058
145.796777,995.924147,-0.000000,9548.656652
145.797093,612.876398,148.041188,9474.636058
145.797410,689.485948,296.082377,9474.636058
145.797727,612.876398,296.082377,9400.615463
145.798043,459.657299,666.185348,9400.615463
145.798360,1532.190996,444.123565,9252.574275
145.798677,612.876398,222.061783,9474.636058
145.798994,766.095498,148.041188,9474.636058
145.799310,689.485948,222.061783,9474.636058
145.799627,919.314598,222.061783,9474.636058
145.799944,689.485948,222.061783,9474.636058
145.800261,919.314598,222.061783,9178.553681
145.800577,842.705048,296.082377,9326.594869
145.800894,612.876398,222.061783,9474.636058
145.801211,766.095498,-0.000000,9548.656652
145.801528,842.705048,148.041188,9326.594869
145.801844,995.924147,370.102971,9400.615463
145.802161,689.485948,-0.000000,9474.636058
145.802478,766.095498,222.061783,9474.636058
145.802795,766.095498,-0.000000,9474.636058
145.803111,766.095498,-0.000000,9474.636058
145.803428,612.876398,148.041188,9400.615463
145.803745,612.876398,296.082377,9474.636058
145.804061,536.266849,148.041188,9548.656652
145.804378,1455.581446,-0.000000,9474.636058
145.804695,612.876398,148.041188,9474.636058
145.805012,842.705048,592.164754,9474.636058
145.805328,766.095498,296.082377,9326.594869
145.805645,689.485948,222.061783,9474.636058
145.805962,842.705048,148.041188,9474.636058
145.806279,689.485948,-0.000000,9474.636058
145.806595,689.485948,-0.000000,9622.677246
145.806912,842.705048,148.041188,9474.636058
145.807229,1149.143247,370.102971,9474.636058
145.807546,536.266849,444.123565,9326.594869
145.807862,842.705048,370.102971,9252.574275
145.808179,612.876398,296.082377,9326.594869
145.808496,689.485948,148.041188,9252.574275
145.808813,383.047749,-0.000000,9474.636058
145.809129,536.266849,-0.000000,9474.636058
145.809446,995.924147,-0.000000,9400.615463
145.809763,612.876398,148.041188,9474.636058
145.810079,766.095498,222.061783,9474.636058
145.810396,689.485948,148.041188,9622.677246
145.810713,459.657299,370.102971,9252.574275
145.811030,995.924147,444.123565,9326.594869
145.811346,1072.533697,-0.000000,9326.594869
145.811663,612.876398,-0.000000,9400.615463
145.811980,919.314598,222.061783,9474.636058
145.812297,766.095498,148.041188,9474.636058
145.812613,689.485948,370.102971,9474.636058
145.812930,766.095498,296.082377,9474.636058
145.813247,689.485948,370.102971,9548.656652
145.813564,842.705048,370.102971,9474.636058
145.813880,995.924147,370.102971,9474.636058
145.814197,689.485948,148.041188,9474.636058
145.814514,919.314598,222.061783,9548.656652
145.814831,766.095498,296.082377,9548.656652
145.815147,995.924147,222.061783,9326.594869
145.815464,612.876398,148.041188,9474.636058
145.815781,612.876398,370.102971,9400.615463
145.816098,919.314598,148.041188,9400.615463
145.816414,766.095498,296.082377,9400.615463
145.816731,766.095498,296.082377,9178.553681
145.817048,536.266849,296.082377,9400.615463
145.817364,842.705048,-0.000000,9400.615463
145.817681,766.095498,148.041188,9474.636058
145.817998,919.314598,222.061783,9696.697840
145.818315,689.485948,-0.000000,9622.677246
145.818631,842.705048,-0.000000,9474.636058
145.818948,689.485948,222.061783,9474.636058
145.819265,1072.533697,222.061783,9474.636058
145.819582,766.095498,296.082377,9474.636058
145.819898,612.876398,370.102971,9252.574275
145.820215,689.485948,222.061783,9474.636058
145.820532,919.314598,370.102971,9474.636058
145.820849,919.314598,222.061783,9400.615463
145.821165,919.314598,148.041188,9474.636058
145.821482,459.657299,74.020594,9548.656652
145.821799,766.095498,148.041188,9326.594869
145.822116,689.485948,296.082377,9474.636058
145.822432,842.705048,-0.000000,9548.656652
145.822749,919.314598,370.102971,9326.594869
145.823066,919.314598,296.082377,9474.636058
145.823382,459.657299,148.041188,9400.615463
145.823699,612.876398,296.082377,9400.615463
145.824016,689.485948,296.082377,9696.697840
145.824333,459.657299,370.102971,9474.636058
145.824649,612.876398,148.041188,9400.615463
145.824966,612.876398,370.102971,9474.636058
145.825283,612.876398,370.102971,9474.636058
145.825600,842.705048,-0.000000,9548.656652
145.825916,689.485948,296.082377,9400.615463
145.826233,766.095498,222.061783,9548.656652
145.826550,766.095498,296.082377,9326.594869
145.826867,383.047749,-0.000000,9474.636058
145.827183,995.924147,-74.020594,8956.491898
145.827500,995.924147,-0.000000,9400.615463
145.827817,689.485948,148.041188,9696.697840
145.828134,383.047749,370.102971,9548.656652
145.828450,689.485948,370.102971,9474.636058
145.828767,919.314598,-0.000000,9326.594869
145.829084,842.705048,296.082377,9400.615463
145.829401,536.266849,222.061783,9474.636058
145.829717,689.485948,-0.000000,9474.636058
145.830034,995.924147,-74.020594,9770.718434
145.830351,536.266849,-0.000000,9474.636058
145.830667,689.485948,148.041188,9622.677246
145.830984,919.314598,296.082377,9326.594869
145.831301,766.095498,296.082377,9326.594869
145.831618,995.924147,296.082377,9474.636058
145.831934,842.705048,148.041188,9326.594869
145.832251,612.876398,148.041188,9474.636058
145.832568,536.266849,148.041188,9474.636058
145.832885,689.485948,296.082377,9548.656652
145.833201,919.314598,148.041188,9252.574275
145.833518,919.314598,296.082377,9252.574275
145.833835,689.485948,74.020594,9474.636058
145.834152,842.705048,222.061783,9400.615463
145.834468,1072.533697,74.020594,9474.636058
145.834785,766.095498,222.061783,9474.636058
145.835102,766.095498,222.061783,9474.636058
145.835419,689.485948,222.061783,9474.636058
145.835735,689.485948,148.041188,9400.615463
145.836052,842.705048,148.041188,9326.594869
145.836369,919.314598,222.061783,9474.636058
145.836685,1149.143247,518.144159,9400.615463
145.837002,612.876398,-0.000000,9474.636058
145.837319,689.485948,148.041188,9474.636058
145.837636,842.705048,148.041188,9474.636058
145.837952,766.095498,-0.000000,9400.615463
145.838269,995.924147,-0.000000,9474.636058
145.838586,536.266849,296.082377,9474.636058
145.838903,612.876398,444.123565,9326.594869
145.839219,1149.143247,-0.000000,9400.615463
145.839536,842.705048,222.061783,9474.636058
145.839853,995.924147,-0.000000,9178.553681
145.840170,689.485948,222.061783,9400.615463
145.840486,689.485948,444.123565,9474.636058
145.840803,1149.143247,74.020594,9622.677246
145.841120,459.657299,148.041188,9326.594869
145.841437,766.095498,370.102971,9474.636058
145.841753,842.705048,148.041188,9326.594869
145.842070,766.095498,148.041188,9474.636058
145.842387,383.047749,-0.000000,9474.636058
145.842704,919.314598,296.082377,9474.636058
145.843020,612.876398,296.082377,9400.615463
145.843337,689.485948,370.102971,9474.636058
145.843654,842.705048,222.061783,9400.615463
145.843970,842.705048,370.102971,9400.615463
145.844287,766.095498,-0.000000,9474.636058
145.844604,919.314598,-0.000000,9474.636058
145.844921,842.705048,148.041188,9474.636058
145.845237,612.876398,296.082377,9474.636058
145.845554,842.705048,-0.000000,9474.636058
145.845871,842.705048,222.061783,9474.636058
145.846188,1072.533697,444.123565,9400.615463
145.846504,612.876398,222.061783,9400.615463
145.846821,1072.533697,148.041188,9622.677246
145.847138,766.095498,-0.000000,9400.615463
145.847455,612.876398,370.102971,9548.656652
145.847771,689.485948,-0.000000,9474.636058
145.848088,842.705048,370.102971,9548.656652
145.848405,842.705048,-0.000000,9474.636058
145.848722,919.314598,370.102971,9474.636058
145.849038,1149.143247,222.061783,9252.574275
145.849355,689.485948,148.041188,9400.615463
145.849672,383.047749,148.041188,9474.636058
145.849988,842.705048,148.041188,9474.636058
145.850305,842.705048,296.082377,9474.636058
145.850622,689.485948,296.082377,9548.656652
145.850939,612.876398,370.102971,9252.574275
145.851255,995.924147,222.061783,9548.656652
145.851572,612.876398,296.082377,9326.594869
145.851889,536.266849,-0.000000,9474.636058
145.852206,919.314598,-0.000000,9400.615463
145.852522,612.876398,148.041188,9400.615463
145.852839,536.266849,296.082377,9548.656652
145.853156,842.705048,518.144159,9326.594869
145.853473,689.485948,-0.000000,9400.615463
145.853789,842.705048,296.082377,9474.636058
145.854106,766.095498,148.041188,9474.636058
145.854423,842.705048,148.041188,9548.656652
145.854740,689.485948,222.061783,9400.615463
145.855056,842.705048,296.082377,9326.594869
145.855373,689.485948,-0.000000,9326.594869
145.855690,766.095498,296.082377,9548.656652
145.856006,1149.143247,-222.061783,9622.677246
145.856323,1149.143247,296.082377,9474.636058
145.856640,689.485948,148.041188,9326.594869
145.856957,842.705048,370.102971,9474.636058
145.857273,612.876398,444.123565,9474.636058
145.857590,766.095498,296.082377,9474.636058
145.857907,689.485948,296.082377,9474.636058
145.858224,842.705048,296.082377,9474.636058
145.858540,842.705048,-0.000000,9400.615463
145.858857,689.485948,-0.000000,9400.615463
145.859174,766.095498,-0.000000,9474.636058
145.859491,995.924147,518.144159,9548.656652
145.859807,995.924147,296.082377,9326.594869
145.860124,842.705048,370.102971,9400.615463
145.860441,536.266849,444.123565,9474.636058
145.860758,766.095498,370.102971,9400.615463
145.861074,919.314598,148.041188,9474.636058
145.861391,689.485948,-0.000000,9400.615463
145.861708,689.485948,222.061783,9400.615463
145.862025,766.095498,-0.000000,9622.677246
145.862341,689.485948,222.061783,9474.636058
145.862658,1072.533697,370.102971,9400.615463
145.862975,766.095498,296.082377,9400.615463
145.863291,536.266849,296.082377,9474.636058
145.863608,1302.362347,592.164754,9474.636058
145.863925,766.095498,148.041188,9474.636058
145.864242,919.314598,222.061783,9474.636058
145.864558,766.095498,-0.000000,9474.636058
145.864875,612.876398,222.061783,9474.636058
145.865192,1302.362347,296.082377,9844.739029
145.865509,612.876398,370.102971,9474.636058
145.865825,766.095498,296.082377,9400.615463
145.866142,995.924147,222.061783,9252.574275
145.866459,919.314598,222.061783,9400.615463
145.866776,689.485948,-0.000000,9474.636058
145.867092,689.485948,-0.000000,9400.615463
145.867409,919.314598,296.082377,9474.636058
145.867726,612.876398,296.082377,9474.636058
145.868043,536.266849,296.082377,9326.594869
145.868359,1378.971896,-0.000000,9474.636058
145.868676,536.266849,-0.000000,9400.615463
145.868993,766.095498,148.041188,9474.636058
145.869309,689.485948,222.061783,9474.636058
145.869626,689.485948,148.041188,9474.636058
145.869943,612.876398,296.082377,9622.677246
145.870260,842.705048,296.082377,9474.636058
145.870576,689.485948,296.082377,9326.594869
145.870893,536.266849,148.041188,9474.636058
145.871210,1225.752797,296.082377,9400.615463
145.871527,1762.019645,148.041188,9548.656652
145.871843,612.876398,296.082377,9474.636058
145.872160,766.095498,-0.000000,9474.636058
145.872477,689.485948,-0.000000,9474.636058
145.872794,766.095498,370.102971,9400.615463
145.873110,612.876398,370.102971,9474.636058
145.873427,689.485948,518.144159,9400.615463
145.873744,766.095498,148.041188,9400.615463
145.874061,842.705048,148.041188,9474.636058
145.874377,842.705048,-74.020594,9400.615463
145.874694,766.095498,-0.000000,9548.656652
145.875011,842.705048,-0.000000,9400.615463
145.875328,689.485948,222.061783,9326.594869
145.875644,919.314598,296.082377,9474.636058
145.875961,383.047749,-0.000000,9696.697840
145.876278,766.095498,148.041188,9326.594869
145.876594,612.876398,148.041188,9326.594869
145.876911,612.876398,222.061783,9474.636058
145.877228,459.657299,222.061783,9474.636058
145.877545,536.266849,-74.020594,9474.636058
145.877861,919.314598,74.020594,9400.615463
145.878178,995.924147,222.061783,9400.615463
145.878495,766.095498,-0.000000,9474.636058
145.878812,842.705048,370.102971,9548.656652
145.879128,766.095498,-74.020594,9474.636058
145.879445,919.314598,-0.000000,9326.594869
145.879762,842.705048,148.041188,9474.636058
145.880079,689.485948,-0.000000,9326.594869
145.880395,536.266849,444.123565,9474.636058
145.880712,76.609550,148.041188,9548.656652
145.881029,689.485948,370.102971,9548.656652
145.881346,536.266849,148.041188,9770.718434
145.881662,766.095498,222.061783,9474.636058
145.881979,919.314598,74.020594,9474.636058
145.882296,612.876398,370.102971,9474.636058
145.882612,842.705048,222.061783,9400.615463
145.882929,842.705048,222.061783,9400.615463
145.883246,995.924147,222.061783,9474.636058
145.883563,766.095498,74.020594,9474.636058
145.883879,689.485948,296.082377,9326.594869
145.884196,766.095498,222.061783,9252.574275
145.884513,766.095498,222.061783,9326.594869
145.884830,919.314598,222.061783,9400.615463
145.885146,919.314598,370.102971,9474.636058
145.885463,842.705048,148.041188,9326.594869
145.885780,689.485948,296.082377,9474.636058
145.886097,689.485948,148.041188,9474.636058
145.886413,766.095498,-0.000000,9474.636058
145.886730,612.876398,148.041188,9400.615463
145.887047,536.266849,-0.000000,9400.615463
145.887364,766.095498,370.102971,9400.615463
145.887680,536.266849,370.102971,9474.636058
145.887997,995.924147,370.102971,9474.636058
145.888314,842.705048,148.041188,9474.636058
145.888630,995.924147,296.082377,9474.636058
145.888947,766.095498,-0.000000,9474.636058
145.889264,612.876398,-0.000000,9400.615463
145.889581,919.314598,-0.000000,9548.656652
145.889897,919.314598,-0.000000,9400.615463
145.890214,842.705048,74.020594,9474.636058
145.890531,919.314598,296.082377,9474.636058
145.890848,842.705048,74.020594,9548.656652
145.891164,689.485948,296.082377,9474.636058
145.891481,612.876398,-0.000000,9400.615463
145.891798,612.876398,222.061783,9474.636058
145.892115,689.485948,296.082377,9400.615463
145.892431,842.705048,222.061783,9622.677246
145.892748,842.705048,296.082377,9400.615463
145.893065,689.485948,-0.000000,9400.615463
145.893382,459.657299,296.082377,9474.636058
145.893698,1072.533697,-0.000000,9548.656652
145.894015,689.485948,-0.000000,9252.574275
145.894332,919.314598,148.041188,9400.615463
145.894648,842.705048,222.061783,9622.677246
145.894965,612.876398,444.123565,9474.636058
145.895282,766.095498,-0.000000,9400.615463
145.895599,766.095498,-0.000000,9474.636058
145.895915,842.705048,148.041188,9474.636058
145.896232,842.705048,148.041188,9474.636058
145.896549,842.705048,-0.000000,9696.697840
145.896866,689.485948,222.061783,9474.636058
145.897182,1302.362347,-0.000000,9326.594869
145.897499,766.095498,222.061783,9474.636058
145.897816,612.876398,222.061783,9474.636058
145.898133,612.876398,296.082377,9474.636058
145.898449,766.095498,296.082377,9400.615463
145.898766,612.876398,296.082377,9474.636058
145.899083,612.876398,296.082377,9474.636058
145.899400,612.876398,-0.000000,9326.594869
145.899716,689.485948,-0.000000,9400.615463
145.900033,689.485948,296.082377,9474.636058
145.900350,919.314598,370.102971,9548.656652
145.900666,612.876398,-0.000000,9326.594869
145.900983,842.705048,296.082377,9474.636058
145.901300,612.876398,296.082377,9548.656652
145.901617,689.485948,222.061783,9474.636058
145.901933,995.924147,222.061783,9474.636058
145.902250,842.705048,296.082377,9474.636058
145.902567,766.095498,222.061783,9474.636058
145.902884,612.876398,222.061783,9400.615463
145.903200,919.314598,-0.000000,9548.656652
145.903517,766.095498,-0.000000,9178.553681
145.903834,612.876398,222.061783,9400.615463
145.904151,612.876398,222.061783,9400.615463
145.904467,766.095498,222.061783,9400.615463
145.904784,766.095498,222.061783,9326.594869
145.905101,689.485948,-74.020594,9474.636058
145.905418,766.095498,148.041188,9548.656652
145.905734,536.266849,222.061783,9622.677246
145.906051,842.705048,296.082377,9400.615463
145.906368,383.047749,222.061783,9178.553681
145.906684,842.705048,370.102971,9548.656652
145.907001,459.657299,222.061783,9474.636058
145.907318,842.705048,222.061783,9326.594869
145.907635,689.485948,222.061783,9474.636058
145.907951,1225.752797,-0.000000,9474.636058
145.908268,689.485948,222.061783,9474.636058
145.908585,689.485948,148.041188,9400.615463
145.908902,995.924147,296.082377,9400.615463
145.909218,689.485948,296.082377,9474.636058
145.909535,689.485948,222.061783,9474.636058
145.909852,689.485948,-0.000000,9030.512492
145.910169,919.314598,222.061783,9400.615463
145.910485,919.314598,296.082377,9252.574275
145.910802,612.876398,148.041188,9474.636058
145.911119,842.705048,296.082377,9030.512492
145.911436,689.485948,222.061783,9326.594869
145.911752,689.485948,370.102971,9400.615463
145.912069,689.485948,-0.000000,9474.636058
145.912386,766.095498,-0.000000,9474.636058
145.912703,766.095498,-0.000000,9474.636058
145.913019,689.485948,-0.000000,9400.615463
145.913336,842.705048,370.102971,9474.636058
145.913653,536.266849,222.061783,9474.636058
145.913969,842.705048,-0.000000,9474.636058
145.914286,919.314598,-0.000000,9548.656652
145.914603,842.705048,296.082377,9474.636058
145.914920,995.924147,222.061783,9400.615463
145.915236,689.485948,-0.000000,9400.615463
145.915553,766.095498,222.061783,9326.594869
145.915870,842.705048,-0.000000,9548.656652
145.916187,842.705048,296.082377,9474.636058
145.916503,766.095498,148.041188,9474.636058
145.916820,919.314598,296.082377,9400.615463
145.917137,919.314598,370.102971,9474.636058
145.917454,1072.533697,148.041188,9548.656652
145.917770,842.705048,296.082377,9548.656652
145.918087,689.485948,148.041188,9400.615463
145.918404,612.876398,222.061783,9474.636058
145.918721,536.266849,370.102971,9474.636058
145.919037,919.314598,148.041188,9400.615463
145.919354,766.095498,296.082377,9252.574275
145.919671,766.095498,222.061783,9474.636058
145.919987,919.314598,148.041188,9474.636058
145.920304,766.095498,296.082377,9474.636058
145.920621,766.095498,-0.000000,9474.636058
145.920938,842.705048,222.061783,9474.636058
145.921254,536.266849,222.061783,9474.636058
145.921571,766.095498,370.102971,9326.594869
145.921888,306.438199,444.123565,9474.636058
145.922205,919.314598,222.061783,9474.636058
145.922521,842.705048,222.061783,9326.594869
145.922838,612.876398,222.061783,9548.656652
145.923155,995.924147,-0.000000,9400.615463
145.923472,536.266849,222.061783,9474.636058
145.923788,842.705048,-0.000000,9474.636058
145.924105,842.705048,222.061783,9474.636058
145.924422,612.876398,-0.000000,9474.636058
145.924739,842.705048,222.061783,9474.636058
145.925055,689.485948,148.041188,9474.636058
145.925372,842.705048,74.020594,9622.677246
145.925689,995.924147,370.102971,9326.594869
145.926005,766.095498,-0.000000,9474.636058
145.926322,842.705048,-0.000000,9326.594869
145.926639,1378.971896,222.061783,9696.697840
145.926956,842.705048,-0.000000,9474.636058
145.927272,459.657299,-0.000000,9326.594869
145.927589,766.095498,296.082377,9326.594869
145.927906,536.266849,296.082377,9326.594869
145.928223,995.924147,-0.000000,9326.594869
145.928539,766.095498,148.041188,9474.636058
145.928856,689.485948,444.123565,9252.574275
145.929173,689.485948,222.061783,9548.656652
145.929490,689.485948,222.061783,9474.636058
145.929806,766.095498,-0.000000,9548.656652
145.930123,689.485948,-0.000000,9622.677246
145.930440,689.485948,-0.000000,9400.615463
145.930757,766.095498,222.061783,9474.636058
145.931073,1455.581446,296.082377,9474.636058
145.931390,766.095498,-0.000000,9474.636058
145.931707,766.095498,-0.000000,9252.574275
145.932023,612.876398,-0.000000,9474.636058
145.932340,919.314598,222.061783,9548.656652
145.932657,689.485948,-148.041188,9474.636058
145.932974,919.314598,-0.000000,9474.636058
145.933290,766.095498,222.061783,9474.636058
145.933607,919.314598,-0.000000,9474.636058
145.933924,536.266849,222.061783,9400.615463
145.934241,766.095498,148.041188,9474.636058
145.934557,689.485948,-0.000000,9622.677246
145.934874,842.705048,296.082377,9326.594869
145.935191,689.485948,-0.000000,9326.594869
145.935508,919.314598,-0.000000,9474.636058
145.935824,689.485948,148.041188,9474.636058
145.936141,919.314598,222.061783,9400.615463
145.936458,919.314598,296.082377,9474.636058
145.936775,842.705048,-0.000000,9400.615463
145.937091,766.095498,74.020594,9474.636058
145.937408,842.705048,222.061783,9548.656652
145.937725,995.924147,444.123565,9474.636058
145.938041,689.485948,148.041188,9474.636058
145.938358,842.705048,296.082377,9326.594869
145.938675,766.095498,296.082377,9400.615463
145.938992,842.705048,-0.000000,9622.677246
145.939308,842.705048,-0.000000,9622.677246
145.939625,689.485948,444.123565,9474.636058
145.939942,842.705048,222.061783,9474.636058
145.940259,1532.190996,740.205942,9252.574275
145.940575,1072.533697,370.102971,9178.553681
145.940892,612.876398,-0.000000,9474.636058
145.941209,536.266849,148.041188,9548.656652
145.941526,995.924147,-0.000000,9622.677246
145.941842,689.485948,-74.020594,9326.594869
145.942159,536.266849,222.061783,9548.656652
145.942476,995.924147,148.041188,9474.636058
145.942793,766.095498,370.102971,9474.636058
145.943109,919.314598,370.102971,9178.553681
145.943426,766.095498,296.082377,9326.594869
145.943743,1072.533697,222.061783,9474.636058
145.944059,689.485948,148.041188,9400.615463
145.944376,612.876398,148.041188,9622.677246
145.944693,1072.533697,222.061783,9622.677246
145.945010,766.095498,148.041188,9548.656652
145.945326,842.705048,148.041188,9326.594869
145.945643,612.876398,444.123565,9474.636058
145.945960,842.705048,444.123565,9474.636058
145.946277,842.705048,222.061783,9548.656652
145.946593,689.485948,148.041188,9326.594869
145.946910,536.266849,148.041188,9400.615463
145.947227,689.485948,-0.000000,9474.636058
145.947544,689.485948,-0.000000,9400.615463
145.947860,383.047749,222.061783,9400.615463
145.948177,919.314598,296.082377,9548.656652
145.948494,689.485948,370.102971,9400.615463
145.948811,842.705048,296.082377,9474.636058
145.949127,1072.533697,222.061783,9326.594869
145.949444,995.924147,296.082377,9326.594869
145.949761,689.485948,222.061783,9252.574275
145.950077,842.705048,222.061783,9474.636058
145.950394,842.705048,296.082377,9622.677246
145.950711,766.095498,-0.000000,9474.636058
145.951028,919.314598,-0.000000,9918.759623
145.951344,842.705048,370.102971,9474.636058
145.951661,689.485948,222.061783,9400.615463
145.951978,612.876398,296.082377,9178.553681
145.952295,919.314598,518.144159,9548.656652
145.952611,842.705048,518.144159,9474.636058
145.952928,536.266849,296.082377,9400.615463
145.953245,919.314598,148.041188,9400.615463
145.953562,689.485948,148.041188,9548.656652
145.953878,919.314598,-0.000000,9548.656652
145.954195,995.924147,222.061783,9400.615463
145.954512,612.876398,222.061783,9474.636058
145.954829,842.705048,296.082377,9474.636058
145.955145,689.485948,592.164754,9474.636058
145.955462,1378.971896,-222.061783,9474.636058
145.955779,689.485948,296.082377,9474.636058
145.956096,766.095498,296.082377,9474.636058
145.956412,689.485948,148.041188,9474.636058
145.956729,919.314598,296.082377,9474.636058
145.957046,919.314598,-0.000000,9622.677246
145.957362,689.485948,296.082377,9548.656652
145.957679,995.924147,444.123565,9474.636058
145.957996,766.095498,370.102971,9326.594869
145.958313,766.095498,370.102971,9326.594869
145.958629,689.485948,74.020594,9400.615463
145.958946,612.876398,222.061783,9474.636058
145.959263,689.485948,370.102971,9400.615463
145.959580,766.095498,-0.000000,9474.636058
145.959896,766.095498,-0.000000,9400.615463
145.960213,459.657299,-0.000000,9622.677246
145.960530,612.876398,296.082377,9474.636058
145.960847,995.924147,222.061783,9326.594869
145.961163,919.314598,148.041188,9326.594869
145.961480,919.314598,296.082377,9474.636058
145.961797,536.266849,222.061783,9400.615463
145.962114,842.705048,222.061783,9474.636058
145.962430,459.657299,148.041188,9252.574275
145.962747,766.095498,-0.000000,9474.636058
145.963064,842.705048,-0.000000,9548.656652
145.963380,766.095498,74.020594,9474.636058
145.963697,612.876398,222.061783,9474.636058
145.964014,689.485948,518.144159,9400.615463
145.964331,766.095498,296.082377,9474.636058
145.964647,1149.143247,148.041188,9474.636058
145.964964,919.314598,296.082377,9400.615463
145.965281,459.657299,296.082377,9400.615463
145.965598,766.095498,296.082377,9474.636058
145.965914,689.485948,222.061783,9474.636058
145.966231,536.266849,-0.000000,9622.677246
145.966548,689.485948,-0.000000,9400.615463
145.966865,689.485948,296.082377,9178.553681
145.967181,536.266849,444.123565,9474.636058
145.967498,842.705048,296.082377,9474.636058
145.967815,995.924147,222.061783,9326.594869
145.968132,766.095498,148.041188,9400.615463
145.968448,919.314598,296.082377,9474.636058
145.968765,842.705048,-0.000000,9400.615463
145.969082,842.705048,-0.000000,9474.636058
145.969398,766.095498,222.061783,9844.739029
145.969715,842.705048,222.061783,9474.636058
145.970032,919.314598,148.041188,9252.574275
145.970349,842.705048,-0.000000,9252.574275
145.970665,1072.533697,444.123565,9474.636058
145.970982,689.485948,-0.000000,9400.615463
145.971299,766.095498,148.041188,9400.615463
145.971616,842.705048,-0.000000,9548.656652
145.971932,689.485948,148.041188,9474.636058
145.972249,612.876398,444.123565,9474.636058
145.972566,689.485948,74.020594,9474.636058
145.972883,459.657299,222.061783,9474.636058
145.973199,689.485948,222.061783,9400.615463
145.973516,995.924147,222.061783,9474.636058
145.973833,536.266849,148.041188,9548.656652
145.974150,689.485948,296.082377,9474.636058
145.974466,612.876398,222.061783,9474.636058
145.974783,919.314598,444.123565,9622.677246
145.975100,612.876398,148.041188,9474.636058
145.975416,919.314598,-0.000000,9474.636058
145.975733,536.266849,370.102971,9474.636058
145.976050,689.485948,370.102971,9474.636058
145.976367,842.705048,148.041188,9326.594869
145.976683,995.924147,148.041188,9400.615463
145.977000,766.095498,222.061783,9622.677246
145.977317,842.705048,148.041188,9474.636058
145.977634,766.095498,-0.000000,9326.594869
145.977950,766.095498,222.061783,9474.636058
145.978267,995.924147,-0.000000,9252.574275
145.978584,995.924147,296.082377,9474.636058
145.978901,766.095498,222.061783,9474.636058
145.979217,919.314598,74.020594,9548.656652
145.979534,459.657299,-0.000000,9474.636058
145.979851,766.095498,222.061783,9474.636058
145.980168,612.876398,148.041188,9474.636058
145.980484,306.438199,148.041188,9326.594869
145.980801,842.705048,370.102971,9474.636058
145.981118,766.095498,74.020594,9548.656652
145.981435,842.705048,222.061783,9400.615463
145.981751,766.095498,370.102971,9474.636058
145.982068,689.485948,370.102971,9400.615463
145.982385,689.485948,222.061783,9622.677246
145.982702,383.047749,-222.061783,9474.636058
145.983018,1072.533697,444.123565,9474.636058
145.983335,689.485948,-0.000000,9400.615463
145.983652,612.876398,222.061783,9474.636058
145.983969,536.266849,222.061783,9474.636058
145.984285,1072.533697,74.020594,9474.636058
145.984602,766.095498,296.082377,9400.615463
145.984919,842.705048,222.061783,9474.636058
145.985236,766.095498,370.102971,9474.636058
145.985552,995.924147,-148.041188,9474.636058
145.985869,689.485948,-0.000000,9474.636058
145.986186,612.876398,222.061783,9622.677246
145.986503,766.095498,296.082377,9474.636058
145.986819,689.485948,222.061783,9400.615463
145.987136,766.095498,-0.000000,9474.636058
145.987453,459.657299,296.082377,9474.636058
145.987770,612.876398,222.061783,9326.594869
145.988086,766.095498,370.102971,9474.636058
145.988403,842.705048,296.082377,9474.636058
145.988720,612.876398,370.102971,9548.656652
145.989037,536.266849,148.041188,9400.615463
145.989353,612.876398,222.061783,9400.615463
145.989670,766.095498,222.061783,9474.636058
145.989987,919.314598,148.041188,9178.553681
145.990304,766.095498,370.102971,9548.656652
145.990620,766.095498,-0.000000,9252.574275
145.990937,842.705048,296.082377,9474.636058
145.991254,919.314598,222.061783,9400.615463
145.991571,766.095498,-0.000000,9474.636058
145.991887,766.095498,-0.000000,9474.636058
145.992204,612.876398,-0.000000,9474.636058
145.992521,1149.143247,296.082377,9474.636058
145.992838,842.705048,-0.000000,9400.615463
145.993154,766.095498,296.082377,9474.636058
145.993471,1072.533697,370.102971,9622.677246
145.993788,995.924147,-0.000000,9400.615463
145.994105,766.095498,-0.000000,9474.636058
145.994421,689.485948,222.061783,9400.615463
145.994738,919.314598,222.061783,9474.636058
145.995055,612.876398,148.041188,9474.636058
145.995372,306.438199,296.082377,9622.677246
145.995688,383.047749,296.082377,9622.677246
145.996005,689.485948,148.041188,9474.636058
145.996322,766.095498,-0.000000,9474.636058
145.996639,536.266849,-0.000000,9622.677246
145.996955,689.485948,296.082377,9474.636058
145.997272,689.485948,-0.000000,9400.615463
145.997589,689.485948,222.061783,9474.636058
145.997906,536.266849,222.061783,9474.636058
145.998222,842.705048,222.061783,9474.636058
145.998539,689.485948,-0.000000,9178.553681
145.998856,995.924147,444.123565,9178.553681
145.999173,766.095498,370.102971,9400.615463
145.999489,919.314598,148.041188,9474.636058
145.999806,536.266849,370.102971,9326.594869
146.000123,919.314598,-0.000000,9400.615463
146.000440,766.095498,-0.000000,9326.594869
146.000756,612.876398,370.102971,9326.594869
146.001073,919.314598,222.061783,9400.615463
146.001390,383.047749,-222.061783,9252.574275
146.001706,689.485948,-0.000000,9400.615463
146.002023,766.095498,222.061783,9474.636058
146.002340,689.485948,148.041188,9474.636058
146.002657,766.095498,-0.000000,9400.615463
146.002973,842.705048,148.041188,9622.677246
146.003290,766.095498,-0.000000,9474.636058
146.003607,919.314598,296.082377,9474.636058
146.003924,919.314598,-0.000000,9400.615463
146.004240,689.485948,148.041188,9326.594869
146.004557,919.314598,-0.000000,9548.656652
146.004874,612.876398,296.082377,9474.636058
146.005191,612.876398,-0.000000,9252.574275
146.005507,689.485948,370.102971,9400.615463
146.005824,842.705048,296.082377,9474.636058
146.006141,766.095498,222.061783,9474.636058
146.006458,995.924147,148.041188,9474.636058
146.006774,612.876398,148.041188,9326.594869
146.007091,766.095498,296.082377,9400.615463
146.007408,766.095498,-0.000000,9474.636058
146.007725,766.095498,-0.000000,9326.594869
146.008041,842.705048,444.123565,9474.636058
146.008358,842.705048,296.082377,9326.594869
146.008675,766.095498,296.082377,9474.636058
146.008992,612.876398,-0.000000,9622.677246
146.009308,612.876398,-0.000000,9474.636058
146.009625,842.705048,222.061783,9326.594869
146.009942,766.095498,222.061783,9474.636058
146.010259,612.876398,370.102971,9474.636058
146.010575,842.705048,-0.000000,9474.636058
146.010892,842.705048,370.102971,9474.636058
146.011209,1149.143247,296.082377,9474.636058
146.011526,689.485948,296.082377,9474.636058
146.011842,766.095498,148.041188,9326.594869
146.012159,536.266849,-0.000000,9696.697840
146.012476,842.705048,296.082377,9252.574275
146.012793,689.485948,-0.000000,9400.615463
146.013109,1072.533697,148.041188,9474.636058
146.013426,1225.752797,-0.000000,9474.636058
146.013743,919.314598,148.041188,9696.697840
146.014060,766.095498,296.082377,9474.636058
146.014376,842.705048,296.082377,9474.636058
146.014693,689.485948,370.102971,9474.636058
146.015010,995.924147,-0.000000,9474.636058
146.015327,766.095498,-0.000000,9400.615463
146.015643,766.095498,370.102971,9548.656652
146.015960,536.266849,-0.000000,9474.636058
146.016277,766.095498,-0.000000,9474.636058
146.016594,995.924147,296.082377,9326.594869
146.016910,689.485948,74.020594,9474.636058
146.017227,689.485948,370.102971,9474.636058
146.017544,612.876398,148.041188,9326.594869
146.017861,766.095498,222.061783,9400.615463
146.018177,842.705048,296.082377,9696.697840
146.018494,612.876398,370.102971,9474.636058
146.018811,459.657299,222.061783,9474.636058
146.019128,842.705048,222.061783,9474.636058
146.019444,1072.533697,-0.000000,9474.636058
146.019761,459.657299,-0.000000,9474.636058
146.020078,842.705048,222.061783,9400.615463
146.020395,689.485948,296.082377,9400.615463
146.020711,536.266849,444.123565,9474.636058
146.021028,1149.143247,296.082377,9474.636058
146.021345,842.705048,222.061783,9474.636058
146.021662,842.705048,222.061783,9474.636058
146.021978,612.876398,296.082377,9474.636058
146.022295,842.705048,222.061783,9400.615463
146.022612,459.657299,222.061783,9622.677246
146.022929,1072.533697,222.061783,9326.594869
146.023245,766.095498,222.061783,9326.594869
146.023562,536.266849,74.020594,9548.656652
146.023879,842.705048,296.082377,9474.636058
146.024196,689.485948,222.061783,9474.636058
146.024512,689.485948,370.102971,9474.636058
146.024829,919.314598,222.061783,9326.594869
146.025146,919.314598,-0.000000,9326.594869
146.025463,995.924147,-148.041188,9622.677246
146.025779,766.095498,222.061783,9474.636058
146.026096,842.705048,148.041188,9474.636058
146.026413,536.266849,222.061783,9400.615463
146.026730,612.876398,370.102971,9400.615463
146.027046,1378.971896,-0.000000,9474.636058
146.027363,689.485948,296.082377,9326.594869
146.027680,766.095498,370.102971,9252.574275
146.027997,919.314598,-0.000000,9400.615463
146.028313,766.095498,370.102971,9474.636058
146.028630,689.485948,-74.020594,9548.656652
146.028947,689.485948,222.061783,9474.636058
146.029264,383.047749,-0.000000,9326.594869
146.029580,612.876398,222.061783,9400.615463
146.029897,842.705048,-0.000000,9474.636058
146.030214,919.314598,222.061783,9474.636058
146.030531,842.705048,-0.000000,9326.594869
146.030847,1149.143247,296.082377,9474.636058
146.031164,919.314598,148.041188,9400.615463
146.031481,842.705048,370.102971,9474.636058
146.031798,459.657299,-222.061783,9548.656652
146.032114,766.095498,148.041188,9474.636058
146.032431,689.485948,444.123565,9474.636058
146.032748,1072.533697,296.082377,9474.636058
146.033065,459.657299,-0.000000,9474.636058
146.033381,766.095498,-148.041188,9326.594869
146.033698,689.485948,222.061783,9474.636058
146.034015,612.876398,148.041188,9474.636058
146.034332,612.876398,296.082377,9474.636058
146.034648,995.924147,222.061783,9474.636058
146.034965,1225.752797,148.041188,9326.594869
146.035282,995.924147,296.082377,9474.636058
146.035599,842.705048,222.061783,9400.615463
146.035915,612.876398,222.061783,9400.615463
146.036232,1072.533697,370.102971,9548.656652
146.036549,1149.143247,518.144159,9622.677246
146.036866,459.657299,222.061783,9474.636058
146.037182,1072.533697,296.082377,9474.636058
146.037499,689.485948,148.041188,9474.636058
146.037816,842.705048,-0.000000,9474.636058
146.038133,995.924147,370.102971,9400.615463
146.038449,766.095498,370.102971,9474.636058
146.038766,766.095498,296.082377,9474.636058
146.039083,689.485948,370.102971,9474.636058
146.039400,689.485948,148.041188,9622.677246
146.039716,1225.752797,-0.000000,9326.594869
146.040033,766.095498,296.082377,9474.636058
146.040350,842.705048,-0.000000,9400.615463
146.040667,766.095498,-0.000000,9400.615463
146.040983,842.705048,222.061783,9326.594869
146.041300,995.924147,444.123565,9622.677246
146.041617,842.705048,296.082377,9400.615463
146.041934,1072.533697,296.082377,9252.574275
146.042250,766.095498,222.061783,9474.636058
146.042567,842.705048,222.061783,9400.615463
146.042884,689.485948,-0.000000,9474.636058
146.043201,766.095498,148.041188,9474.636058
146.043517,842.705048,222.061783,9474.636058
146.043834,612.876398,222.061783,9474.636058
146.044151,689.485948,222.061783,9474.636058
146.044467,689.485948,222.061783,9326.594869
146.044784,766.095498,-0.000000,9326.594869
146.045101,612.876398,296.082377,9400.615463
146.045418,766.095498,222.061783,9400.615463
146.045734,766.095498,74.020594,9474.636058
146.046051,459.657299,666.185348,9474.636058
146.046368,995.924147,222.061783,9326.594869
146.046685,689.485948,-0.000000,9326.594869
146.047001,536.266849,370.102971,9400.615463
146.047318,766.095498,-0.000000,9474.636058
146.047635,612.876398,222.061783,9400.615463
146.047952,842.705048,296.082377,9474.636058
146.048268,689.485948,222.061783,9474.636058
146.048585,536.266849,222.061783,9400.615463
146.048902,689.485948,370.102971,9474.636058
146.049219,689.485948,296.082377,9622.677246
146.049535,612.876398,-0.000000,9474.636058
146.049852,919.314598,222.061783,9400.615463
146.050169,842.705048,-0.000000,9474.636058
146.050486,1072.533697,370.102971,9474.636058
146.050802,919.314598,222.061783,9474.636058
146.051119,842.705048,-0.000000,9400.615463
146.051436,689.485948,-0.000000,9326.594869
146.051753,766.095498,222.061783,9474.636058
146.052069,766.095498,74.020594,9622.677246
146.052386,689.485948,222.061783,9326.594869
146.052703,689.485948,148.041188,9326.594869
146.053020,919.314598,296.082377,9474.636058
146.053336,766.095498,148.041188,9400.615463
146.053653,689.485948,-74.020594,9696.697840
146.053970,766.095498,296.082377,9326.594869
146.054287,766.095498,296.082377,9326.594869
146.054603,689.485948,296.082377,9474.636058
146.054920,919.314598,148.041188,9474.636058
146.055237,919.314598,-0.000000,9770.718434
146.055554,995.924147,148.041188,9474.636058
146.055870,612.876398,148.041188,9548.656652
146.056187,766.095498,222.061783,9474.636058
146.056504,689.485948,222.061783,9252.574275
146.056821,766.095498,148.041188,9474.636058
146.057137,842.705048,222.061783,9400.615463
146.057454,536.266849,296.082377,9474.636058
146.057771,766.095498,222.061783,9326.594869
146.058088,459.657299,296.082377,9548.656652
146.058404,459.657299,222.061783,9548.656652
146.058721,536.266849,296.082377,9474.636058
146.059038,919.314598,296.082377,9400.615463
146.059355,689.485948,370.102971,9400.615463
146.059671,766.095498,-0.000000,9548.656652
146.059988,536.266849,296.082377,9474.636058
146.060305,612.876398,222.061783,9474.636058
146.060622,919.314598,148.041188,9474.636058
146.060938,842.705048,296.082377,9474.636058
146.061255,689.485948,-0.000000,9548.656652
146.061572,995.924147,148.041188,9474.636058
146.061889,612.876398,-0.000000,9400.615463
146.062205,689.485948,222.061783,9474.636058
146.062522,766.095498,222.061783,9326.594869
146.062839,995.924147,-0.000000,9548.656652
146.063156,919.314598,222.061783,9548.656652
146.063472,689.485948,-0.000000,9474.636058
146.063789,612.876398,370.102971,9400.615463
146.064106,1302.362347,-0.000000,9474.636058
146.064423,1072.533697,222.061783,9474.636058
146.064739,689.485948,222.061783,9474.636058
146.065056,919.314598,370.102971,9326.594869
146.065373,689.485948,296.082377,9474.636058
146.065690,689.485948,222.061783,9474.636058
146.066006,536.266849,148.041188,9548.656652
146.066323,612.876398,74.020594,9400.615463
146.066640,612.876398,296.082377,9326.594869
146.066957,459.657299,222.061783,9474.636058
146.067273,919.314598,-222.061783,9326.594869
146.067590,919.314598,370.102971,9474.636058
146.067907,536.266849,222.061783,9474.636058
146.068224,842.705048,-0.000000,9400.615463
146.068540,536.266849,222.061783,9474.636058
146.068857,995.924147,296.082377,9400.615463
146.069174,459.657299,296.082377,9474.636058
146.069491,612.876398,148.041188,9400.615463
146.069807,689.485948,222.061783,9326.594869
146.070124,766.095498,-0.000000,9400.615463
146.070441,842.705048,-0.000000,9252.574275
146.070758,766.095498,-0.000000,9474.636058
146.071074,842.705048,296.082377,9252.574275
146.071391,919.314598,-0.000000,9474.636058
146.071708,842.705048,222.061783,9474.636058
146.072025,689.485948,518.144159,9696.697840
146.072341,766.095498,222.061783,9474.636058
146.072658,536.266849,296.082377,9474.636058
146.072975,842.705048,-0.000000,9474.636058
146.073292,842.705048,148.041188,9474.636058
146.073608,919.314598,-0.000000,9400.615463
146.073925,1072.533697,-0.000000,9252.574275
146.074242,536.266849,-0.000000,9474.636058
146.074559,842.705048,222.061783,9400.615463
146.074875,766.095498,222.061783,9474.636058
146.075192,536.266849,148.041188,9400.615463
146.075509,689.485948,222.061783,9326.594869
146.075829,689.485948,-0.000000,9326.594869
146.076146,689.485948,74.020594,9400.615463
146.076462,919.314598,296.082377,9622.677246
146.076779,842.705048,148.041188,9474.636058
146.077096,995.924147,370.102971,9326.594869
146.077413,766.095498,-0.000000,9474.636058
146.077729,766.095498,296.082377,9400.615463
146.078046,919.314598,296.082377,9474.636058
146.078363,766.095498,-0.000000,9474.636058
146.078679,536.266849,148.041188,9474.636058
146.078996,612.876398,148.041188,9474.636058
146.079313,536.266849,-0.000000,9400.615463
146.079630,766.095498,370.102971,9474.636058
146.079946,766.095498,222.061783,9104.533087
146.080263,766.095498,444.123565,9326.594869
146.080580,459.657299,-0.000000,9252.574275
146.080896,766.095498,-0.000000,9474.636058
146.081213,919.314598,370.102971,9326.594869
146.081530,689.485948,148.041188,9474.636058
146.081847,689.485948,148.041188,9400.615463
146.082163,689.485948,148.041188,9474.636058
146.082480,153.219100,-0.000000,9770.718434
146.082797,766.095498,222.061783,9326.594869
146.083113,766.095498,370.102971,9326.594869
146.083430,995.924147,296.082377,9326.594869
146.083747,995.924147,148.041188,9474.636058
146.084064,459.657299,-74.020594,9474.636058
146.084380,919.314598,-0.000000,9252.574275
146.084697,612.876398,148.041188,9400.615463
146.085014,919.314598,370.102971,9474.636058
146.085330,842.705048,148.041188,9474.636058
146.085647,459.657299,148.041188,9474.636058
146.085964,766.095498,370.102971,9474.636058
146.086281,995.924147,-0.000000,9400.615463
146.086597,689.485948,296.082377,9474.636058
146.086914,1302.362347,74.020594,9474.636058
146.087231,995.924147,222.061783,9548.656652
146.087547,919.314598,296.082377,9326.594869
146.087864,766.095498,148.041188,9326.594869
146.088181,842.705048,-0.000000,9400.615463
146.088498,689.485948,444.123565,9474.636058
146.088814,995.924147,-0.000000,9474.636058
146.089131,689.485948,222.061783,9474.636058
146.089448,919.314598,222.061783,9548.656652
146.089764,1072.533697,148.041188,9474.636058
146.090081,995.924147,148.041188,9474.636058
146.090398,766.095498,592.164754,9474.636058
146.090715,766.095498,518.144159,9474.636058
146.091031,612.876398,296.082377,9400.615463
146.091348,689.485948,222.061783,9474.636058
146.091665,842.705048,-0.000000,9474.636058
146.091981,842.705048,-0.000000,9252.574275
146.092298,842.705048,370.102971,9548.656652
146.092615,842.705048,148.041188,9474.636058
146.092932,689.485948,296.082377,9474.636058
146.093248,612.876398,296.082377,9548.656652
146.093565,383.047749,-370.102971,9474.636058
146.093882,612.876398,296.082377,9474.636058
146.094198,689.485948,-0.000000,9400.615463
146.094515,766.095498,222.061783,9400.615463
146.094832,842.705048,370.102971,9326.594869
146.095149,1072.533697,148.041188,9474.636058
146.095465,536.266849,296.082377,9474.636058
146.095782,842.705048,222.061783,9474.636058
146.096099,766.095498,-0.000000,9474.636058
146.096415,689.485948,-0.000000,9252.574275
146.096732,612.876398,-0.000000,9252.574275
146.097049,612.876398,148.041188,9474.636058
146.097366,842.705048,-0.000000,9326.594869
146.097682,536.266849,222.061783,9326.594869
146.097999,766.095498,296.082377,9400.615463
146.098316,536.266849,-0.000000,9474.636058
146.098632,689.485948,-0.000000,9252.574275
146.098949,766.095498,148.041188,9474.636058
146.099266,689.485948,148.041188,9400.615463
146.099583,689.485948,-0.000000,9400.615463
146.099899,842.705048,148.041188,9622.677246
146.100216,842.705048,148.041188,9474.636058
146.100533,766.095498,-0.000000,9474.636058
146.100849,536.266849,296.082377,9400.615463
146.101166,1072.533697,74.020594,9548.656652
146.101483,766.095498,-0.000000,9474.636058
146.101800,919.314598,296.082377,9326.594869
146.102116,689.485948,222.061783,9400.615463
146.102433,842.705048,-0.000000,9178.553681
146.102750,842.705048,518.144159,9622.677246
146.103066,842.705048,-0.000000,9474.636058
146.103383,1072.533697,-0.000000,9474.636058
146.103700,612.876398,370.102971,9474.636058
146.104017,689.485948,296.082377,9400.615463
146.104333,919.314598,518.144159,9474.636058
146.104650,842.705048,148.041188,9400.615463
146.104967,536.266849,148.041188,9400.615463
146.105283,842.705048,222.061783,9474.636058
146.105600,919.314598,222.061783,9400.615463
146.105917,919.314598,-0.000000,9844.739029
146.106234,536.266849,-0.000000,9474.636058
146.106550,536.266849,-0.000000,9474.636058
146.106867,842.705048,296.082377,9474.636058
146.107184,842.705048,222.061783,9474.636058
146.107500,1149.143247,222.061783,9400.615463
146.107817,1072.533697,296.082377,9326.594869
146.108134,1072.533697,370.102971,9474.636058
146.108451,919.314598,222.061783,9400.615463
146.108767,766.095498,222.061783,9474.636058
146.109084,689.485948,148.041188,9548.656652
146.109401,842.705048,370.102971,9474.636058
146.109717,612.876398,296.082377,9474.636058
146.110034,766.095498,222.061783,9474.636058
146.110351,842.705048,370.102971,9474.636058
146.110668,612.876398,-0.000000,9326.594869
146.110984,919.314598,222.061783,9474.636058
146.111301,842.705048,-0.000000,9400.615463
146.111618,689.485948,370.102971,9400.615463
146.111934,689.485948,-0.000000,9622.677246
146.112251,919.314598,222.061783,9474.636058
146.112568,689.485948,148.041188,9474.636058
146.112885,612.876398,-0.000000,9474.636058
146.113201,766.095498,296.082377,9474.636058
146.113518,1072.533697,222.061783,9400.615463
146.113835,919.314598,148.041188,9474.636058
146.114151,766.095498,222.061783,9474.636058
146.114468,919.314598,370.102971,9400.615463
146.114785,919.314598,148.041188,9326.594869
146.115102,689.485948,148.041188,9474.636058
146.115418,766.095498,-0.000000,9474.636058
146.115735,766.095498,222.061783,9474.636058
146.116052,612.876398,222.061783,9474.636058
146.116368,689.485948,370.102971,9474.636058
146.116685,842.705048,-0.000000,9252.574275
146.117002,689.485948,296.082377,9400.615463
146.117319,689.485948,148.041188,9252.574275
146.117635,766.095498,-0.000000,9474.636058
146.117952,766.095498,222.061783,9474.636058
146.118269,995.924147,148.041188,9474.636058
146.118585,689.485948,222.061783,9696.697840
146.118902,995.924147,370.102971,9400.615463
146.119219,995.924147,296.082377,9400.615463
146.119536,766.095498,296.082377,9400.615463
146.119852,689.485948,-0.000000,9178.553681
146.120169,689.485948,296.082377,9400.615463
146.120486,766.095498,-0.000000,9548.656652
146.120802,766.095498,296.082377,9474.636058
146.121119,1302.362347,444.123565,9400.615463
146.121436,536.266849,-0.000000,9474.636058
146.121753,919.314598,222.061783,9326.594869
146.122069,612.876398,-0.000000,9474.636058
146.122386,766.095498,-0.000000,9474.636058
146.122703,766.095498,-0.000000,9400.615463
146.123019,842.705048,-0.000000,9326.594869
146.123336,766.095498,222.061783,9474.636058
146.123653,842.705048,296.082377,9474.636058
146.123969,766.095498,222.061783,9474.636058
146.124286,689.485948,-0.000000,9474.636058
146.124603,919.314598,296.082377,9770.718434
146.124920,766.095498,-0.000000,9474.636058
146.125236,842.705048,444.123565,9474.636058
146.125553,842.705048,148.041188,9326.594869
146.125870,766.095498,-0.000000,9770.718434
146.126186,842.705048,148.041188,9474.636058
146.126503,842.705048,370.102971,9474.636058
146.126820,766.095498,148.041188,9474.636058
146.127137,536.266849,296.082377,9474.636058
146.127453,842.705048,-0.000000,9474.636058
146.127770,459.657299,296.082377,9400.615463
146.128087,459.657299,222.061783,9474.636058
146.128403,766.095498,518.144159,9400.615463
146.128720,995.924147,148.041188,9474.636058
146.129037,766.095498,-0.000000,9326.594869
146.129354,689.485948,222.061783,9400.615463
146.129670,766.095498,-0.000000,9474.636058
146.129987,689.485948,222.061783,9696.697840
146.130304,842.705048,222.061783,9622.677246
146.130620,842.705048,296.082377,9622.677246
146.130937,1072.533697,518.144159,9326.594869
146.131254,612.876398,296.082377,9474.636058
146.131571,1378.971896,-0.000000,9622.677246
146.131887,842.705048,222.061783,9400.615463
146.132204,689.485948,370.102971,9474.636058
146.132521,689.485948,-0.000000,9400.615463
146.132837,612.876398,222.061783,9548.656652
146.133154,919.314598,-74.020594,9474.636058
146.133471,689.485948,148.041188,9326.594869
146.133788,689.485948,148.041188,9474.636058
146.134104,766.095498,370.102971,9400.615463
146.134421,536.266849,-0.000000,9104.533087
146.134738,995.924147,-0.000000,9252.574275
146.135054,689.485948,-0.000000,9400.615463
146.135371,1072.533697,-0.000000,9474.636058
146.135688,919.314598,-0.000000,9326.594869
146.136005,536.266849,296.082377,9474.636058
146.136321,766.095498,370.102971,9326.594869
146.136638,766.095498,222.061783,9474.636058
146.136955,919.314598,148.041188,9400.615463
146.137271,842.705048,222.061783,9474.636058
146.137588,842.705048,-0.000000,9474.636058
146.137905,612.876398,-0.000000,9622.677246
146.138222,536.266849,-0.000000,9474.636058
146.138538,919.314598,222.061783,9474.636058
146.138855,689.485948,148.041188,9474.636058
146.139172,1072.533697,222.061783,9400.615463
146.139488,842.705048,148.041188,9400.615463
146.139805,689.485948,148.041188,9474.636058
146.140122,766.095498,222.061783,9400.615463
146.140439,766.095498,296.082377,9474.636058
146.140755,919.314598,148.041188,9474.636058
146.141072,536.266849,-0.000000,9252.574275
146.141389,612.876398,-0.000000,9326.594869
146.141705,766.095498,-0.000000,9326.594869
146.142022,536.266849,-0.000000,9252.574275
146.142339,995.924147,-0.000000,9474.636058
146.142656,689.485948,148.041188,9474.636058
146.142972,919.314598,296.082377,9400.615463
146.143289,919.314598,148.041188,9474.636058
146.143606,766.095498,370.102971,9474.636058
146.143922,229.828649,148.041188,9326.594869
146.144239,766.095498,296.082377,9474.636058
146.144556,766.095498,-74.020594,9400.615463
146.144873,766.095498,-0.000000,9474.636058
146.145189,842.705048,148.041188,9400.615463
146.145506,612.876398,-0.000000,9474.636058
146.145823,766.095498,296.082377,9474.636058
146.146139,689.485948,370.102971,9400.615463
146.146456,612.876398,222.061783,9474.636058
146.146773,689.485948,370.102971,9474.636058
146.147090,1072.533697,296.082377,9622.677246
146.147406,689.485948,444.123565,9548.656652
146.147723,995.924147,222.061783,9178.553681
146.148040,612.876398,-0.000000,9474.636058
146.148356,766.095498,148.041188,9474.636058
146.148673,689.485948,148.041188,9770.718434
146.148990,612.876398,444.123565,9474.636058
146.149307,842.705048,296.082377,9400.615463
146.149623,842.705048,370.102971,9400.615463
146.149940,919.314598,-74.020594,9252.574275
146.150257,1072.533697,-296.082377,9548.656652
146.150573,612.876398,-0.000000,9400.615463
146.150890,842.705048,148.041188,9474.636058
146.151207,536.266849,444.123565,9400.615463
146.151524,766.095498,296.082377,9548.656652
146.151840,919.314598,370.102971,9548.656652
146.152157,842.705048,148.041188,9326.594869
146.152474,766.095498,222.061783,9474.636058
146.152790,766.095498,296.082377,9474.636058
146.153107,689.485948,296.082377,9474.636058
146.153424,689.485948,518.144159,9400.615463
146.153741,919.314598,296.082377,9474.636058
146.154057,689.485948,-0.000000,9474.636058
146.154374,766.095498,148.041188,9400.615463
146.154691,536.266849,222.061783,9400.615463
146.155007,842.705048,370.102971,9474.636058
146.155324,766.095498,296.082377,9474.636058
146.155641,766.095498,-0.000000,9474.636058
146.155958,1072.533697,-0.000000,9326.594869
146.156274,689.485948,148.041188,9474.636058
146.156591,842.705048,-0.000000,9474.636058
146.156908,919.314598,222.061783,9326.594869
146.157224,766.095498,-0.000000,9474.636058
146.157541,689.485948,148.041188,9474.636058
146.157858,689.485948,518.144159,9400.615463
146.158175,919.314598,296.082377,9474.636058
146.158491,842.705048,222.061783,9400.615463
146.158808,842.705048,-0.000000,9326.594869
146.159125,612.876398,-0.000000,9474.636058
146.159441,612.876398,296.082377,9474.636058
146.159758,612.876398,-74.020594,9474.636058
146.160075,919.314598,222.061783,9696.697840
146.160392,689.485948,444.123565,9400.615463
146.160708,842.705048,370.102971,9326.594869
146.161025,766.095498,-0.000000,9474.636058
146.161342,842.705048,222.061783,9400.615463
146.161658,766.095498,222.061783,9326.594869
146.161975,536.266849,296.082377,9400.615463
146.162292,995.924147,-0.000000,9474.636058
146.162609,919.314598,-0.000000,9474.636058
146.162925,689.485948,-0.000000,9474.636058
146.163242,919.314598,222.061783,9400.615463
146.163559,842.705048,296.082377,9400.615463
146.163875,536.266849,222.061783,9474.636058
146.164192,919.314598,222.061783,9474.636058
146.164509,842.705048,-0.000000,9474.636058
146.164826,766.095498,296.082377,9548.656652
146.165142,612.876398,222.061783,9474.636058
146.165459,766.095498,296.082377,9622.677246
146.165776,766.095498,222.061783,9474.636058
146.166092,536.266849,148.041188,9548.656652
146.166409,919.314598,370.102971,9326.594869
146.166726,766.095498,444.123565,9400.615463
146.167043,1225.752797,444.123565,9400.615463
146.167359,842.705048,-0.000000,9474.636058
146.167676,689.485948,222.061783,9474.636058
146.167993,919.314598,222.061783,9474.636058
146.168309,842.705048,296.082377,9474.636058
146.168626,536.266849,222.061783,9474.636058
146.168943,536.266849,148.041188,9400.615463
146.169260,612.876398,370.102971,9474.636058
146.169576,689.485948,222.061783,9326.594869
146.169893,766.095498,148.041188,9474.636058
146.170210,612.876398,222.061783,9474.636058
146.170526,842.705048,222.061783,9474.636058
146.170843,612.876398,222.061783,9474.636058
146.171160,612.876398,222.061783,9400.615463
146.171477,766.095498,444.123565,9474.636058
146.171793,1072.533697,222.061783,9474.636058
146.172110,689.485948,148.041188,9548.656652
146.172427,766.095498,296.082377,9548.656652
146.172743,612.876398,222.061783,9400.615463
146.173060,766.095498,-0.000000,9474.636058
146.173377,766.095498,-0.000000,9548.656652
146.173694,689.485948,148.041188,9400.615463
146.174010,919.314598,222.061783,9474.636058
146.174327,766.095498,-0.000000,9474.636058
146.174644,919.314598,296.082377,9474.636058
146.174960,766.095498,296.082377,9400.615463
146.175277,689.485948,148.041188,9400.615463
146.175594,995.924147,148.041188,9474.636058
146.175911,766.095498,296.082377,9622.677246
146.176227,919.314598,222.061783,9474.636058
146.176544,689.485948,222.061783,9548.656652
146.176861,689.485948,148.041188,9548.656652
146.177177,919.314598,148.041188,9400.615463
146.177494,689.485948,-0.000000,9326.594869
146.177811,919.314598,-0.000000,9400.615463
146.178128,766.095498,296.082377,9326.594869
146.178444,766.095498,148.041188,9252.574275
146.178761,689.485948,222.061783,9696.697840
146.179078,842.705048,370.102971,9622.677246
146.179395,842.705048,148.041188,9474.636058
146.179711,689.485948,444.123565,9548.656652
146.180028,842.705048,-0.000000,9400.615463
146.180345,383.047749,296.082377,9400.615463
146.180662,995.924147,-0.000000,9474.636058
146.180978,689.485948,148.041188,9474.636058
146.181295,842.705048,222.061783,9474.636058
146.181612,612.876398,370.102971,9474.636058
146.181928,766.095498,370.102971,9770.718434
146.182245,229.828649,148.041188,9770.718434
146.182562,459.657299,74.020594,9400.615463
146.182879,766.095498,370.102971,9400.615463
146.183195,842.705048,296.082377,9400.615463
146.183512,919.314598,222.061783,9474.636058
146.183829,919.314598,296.082377,9844.739029
146.184146,612.876398,222.061783,9474.636058
146.184462,766.095498,148.041188,9400.615463
146.184779,536.266849,296.082377,9400.615463
146.185096,689.485948,-0.000000,9474.636058
146.185413,842.705048,-0.000000,9178.553681
146.185729,689.485948,148.041188,9622.677246
146.186046,766.095498,148.041188,9474.636058
146.186363,612.876398,148.041188,9474.636058
146.186680,842.705048,222.061783,9400.615463
146.186996,919.314598,148.041188,9252.574275
146.187313,612.876398,296.082377,9474.636058
146.187630,766.095498,148.041188,9474.636058
146.187946,536.266849,222.061783,9474.636058
146.188263,842.705048,-0.000000,9400.615463
146.188580,1225.752797,-0.000000,9770.718434
146.188897,612.876398,74.020594,9400.615463
146.189213,842.705048,296.082377,9326.594869
146.189530,612.876398,444.123565,9548.656652
146.189847,536.266849,296.082377,9474.636058
146.190164,689.485948,296.082377,9400.615463
146.190480,842.705048,-0.000000,9474.636058
146.190797,919.314598,222.061783,9474.636058
146.191114,919.314598,222.061783,9400.615463
146.191431,1149.143247,296.082377,9548.656652
146.191747,689.485948,296.082377,9474.636058
146.192064,612.876398,222.061783,9696.697840
146.192381,766.095498,296.082377,9474.636058
146.192698,612.876398,296.082377,9400.615463
146.193014,1072.533697,148.041188,9474.636058
146.193331,766.095498,222.061783,9474.636058
146.193648,919.314598,-0.000000,9474.636058
146.193964,842.705048,222.061783,9474.636058
146.194281,766.095498,222.061783,9474.636058
146.194598,612.876398,222.061783,9474.636058
146.194915,459.657299,-0.000000,9548.656652
146.195231,536.266849,74.020594,9474.636058
146.195548,842.705048,222.061783,9326.594869
146.195865,536.266849,-0.000000,9474.636058
146.196182,1072.533697,222.061783,9548.656652
146.196498,766.095498,370.102971,9474.636058
146.196815,919.314598,-0.000000,9474.636058
146.197132,766.095498,-0.000000,9326.594869
146.197449,842.705048,-0.000000,9400.615463
146.197765,612.876398,296.082377,9474.636058
146.198082,995.924147,-0.000000,9474.636058
146.198399,689.485948,-0.000000,9474.636058
146.198716,689.485948,296.082377,9400.615463
146.199032,766.095498,222.061783,9326.594869
146.199349,153.219100,-0.000000,9400.615463
146.199666,612.876398,148.041188,9400.615463
146.199982,1072.533697,444.123565,9474.636058
146.200299,689.485948,-0.000000,9474.636058
146.200616,689.485948,222.061783,9400.615463
146.200933,842.705048,-0.000000,9474.636058
146.201249,689.485948,296.082377,9474.636058
146.201566,919.314598,222.061783,9474.636058
146.201883,689.485948,222.061783,9400.615463
146.202200,766.095498,148.041188,9400.615463
146.202516,689.485948,-74.020594,9326.594869
146.202833,766.095498,222.061783,9400.615463
146.203150,842.705048,-0.000000,9474.636058
146.203467,919.314598,222.061783,9548.656652
146.203783,459.657299,148.041188,9474.636058
146.204100,612.876398,148.041188,9474.636058
146.204417,919.314598,444.123565,9400.615463
146.204733,536.266849,-0.000000,9474.636058
146.205050,995.924147,148.041188,9326.594869
146.205367,689.485948,148.041188,9400.615463
146.205684,842.705048,222.061783,9696.697840
146.206000,766.095498,296.082377,9474.636058
146.206317,689.485948,222.061783,9474.636058
146.206634,919.314598,-0.000000,9400.615463
146.206951,919.314598,296.082377,9252.574275
146.207267,995.924147,222.061783,9400.615463
146.207584,689.485948,148.041188,9400.615463
146.207901,995.924147,370.102971,9326.594869
146.208218,766.095498,370.102971,9474.636058
146.208534,1072.533697,296.082377,9326.594869
146.208851,536.266849,296.082377,9400.615463
146.209168,766.095498,370.102971,9474.636058
146.209485,766.095498,370.102971,9400.615463
146.209801,689.485948,296.082377,9474.636058
146.210118,689.485948,-0.000000,9178.553681
146.210435,612.876398,222.061783,9474.636058
146.210751,842.705048,148.041188,9474.636058
146.211068,536.266849,296.082377,9474.636058
146.211385,995.924147,222.061783,9474.636058
146.211702,1072.533697,-0.000000,9326.594869
146.212018,995.924147,-0.000000,9474.636058
146.212335,459.657299,296.082377,9400.615463
146.212652,536.266849,370.102971,9622.677246
146.212969,919.314598,222.061783,9548.656652
146.213285,306.438199,444.123565,9696.697840
146.213602,1302.362347,296.082377,9474.636058
146.213919,459.657299,-0.000000,9400.615463
146.214236,689.485948,444.123565,9474.636058
146.214552,842.705048,296.082377,9474.636058
146.214869,766.095498,-0.000000,9474.636058
146.215186,689.485948,-0.000000,9474.636058
146.215503,612.876398,148.041188,9548.656652
146.215819,612.876398,296.082377,9474.636058
146.216136,536.266849,-0.000000,9252.574275
146.216453,306.438199,-0.000000,9326.594869
146.216769,536.266849,74.020594,9326.594869
146.217086,612.876398,148.041188,9400.615463
146.217403,842.705048,296.082377,9326.594869
146.217720,995.924147,-0.000000,9326.594869
146.218036,766.095498,296.082377,9400.615463
146.218353,766.095498,148.041188,9548.656652
146.218670,919.314598,370.102971,9474.636058
146.218987,919.314598,222.061783,9474.636058
146.219303,689.485948,-0.000000,9252.574275
146.219620,995.924147,518.144159,9474.636058
146.219937,612.876398,74.020594,9474.636058
146.220254,689.485948,148.041188,9548.656652
146.220570,612.876398,222.061783,9474.636058
146.220887,459.657299,-0.000000,9474.636058
146.221204,612.876398,370.102971,9474.636058
146.221520,766.095498,148.041188,9474.636058
146.221837,612.876398,-0.000000,9474.636058
146.222154,919.314598,222.061783,9400.615463
146.222471,919.314598,-0.000000,9474.636058
146.222787,919.314598,-0.000000,9400.615463
146.223104,842.705048,370.102971,9400.615463
146.223421,766.095498,-0.000000,9474.636058
146.223738,1149.143247,592.164754,9696.697840
146.224054,842.705048,296.082377,9400.615463
146.224371,766.095498,296.082377,9474.636058
146.224688,689.485948,370.102971,9474.636058
146.225005,919.314598,222.061783,9474.636058
146.225321,995.924147,-0.000000,9474.636058
146.225638,766.095498,148.041188,9474.636058
146.225955,612.876398,148.041188,9400.615463
146.226272,842.705048,222.061783,9474.636058
146.226588,1225.752797,74.020594,9474.636058
146.226905,766.095498,-0.000000,9474.636058
146.227222,919.314598,222.061783,9548.656652
146.227538,995.924147,296.082377,9474.636058
146.227855,612.876398,296.082377,9474.636058
146.228172,612.876398,-0.000000,9474.636058
146.228489,766.095498,148.041188,9400.615463
146.228805,842.705048,296.082377,9548.656652
146.229122,612.876398,296.082377,9474.636058
146.229439,689.485948,222.061783,9326.594869
146.229756,689.485948,-0.000000,9030.512492
146.230072,1072.533697,370.102971,9400.615463
146.230389,612.876398,-0.000000,9400.615463
146.230706,842.705048,-0.000000,9400.615463
146.231023,766.095498,296.082377,9252.574275
146.231339,842.705048,148.041188,9326.594869
146.231656,766.095498,-0.000000,9474.636058
146.231973,766.095498,148.041188,9400.615463
146.232290,766.095498,222.061783,9474.636058
146.232606,1149.143247,148.041188,9696.697840
146.232923,995.924147,444.123565,9326.594869
146.233240,1072.533697,-0.000000,9252.574275
146.233556,842.705048,-0.000000,9474.636058
146.233873,766.095498,222.061783,9400.615463
146.234190,536.266849,148.041188,9400.615463
146.234507,842.705048,-0.000000,9474.636058
146.234823,842.705048,296.082377,9474.636058
146.235140,766.095498,222.061783,9400.615463
146.235457,766.095498,222.061783,9400.615463
146.235774,842.705048,370.102971,9474.636058
146.236090,1149.143247,296.082377,9548.656652
146.236407,919.314598,148.041188,9474.636058
146.236724,536.266849,-0.000000,9474.636058
146.237041,612.876398,148.041188,9474.636058
146.237357,1072.533697,222.061783,9474.636058
146.237674,536.266849,370.102971,9474.636058
146.237991,766.095498,296.082377,9400.615463
146.238308,766.095498,296.082377,9400.615463
146.238624,689.485948,370.102971,9400.615463
146.238941,766.095498,296.082377,9400.615463
146.239258,919.314598,-0.000000,9400.615463
146.239574,919.314598,222.061783,9548.656652
146.239891,689.485948,-0.000000,9474.636058
146.240208,612.876398,296.082377,9474.636058
146.240525,995.924147,296.082377,9474.636058
146.240841,919.314598,222.061783,9326.594869
146.241158,995.924147,370.102971,9474.636058
146.241475,919.314598,222.061783,9696.697840
146.241792,842.705048,148.041188,9400.615463
146.242108,536.266849,-148.041188,9474.636058
146.242425,842.705048,222.061783,9548.656652
146.242742,842.705048,222.061783,9326.594869
146.243059,766.095498,296.082377,9474.636058
146.243375,689.485948,148.041188,9400.615463
146.243692,1072.533697,222.061783,9548.656652
146.244009,689.485948,222.061783,9474.636058
146.244325,612.876398,222.061783,9474.636058
146.244642,536.266849,370.102971,9474.636058
146.244959,1762.019645,74.020594,9474.636058
146.245276,459.657299,-0.000000,9622.677246
146.245592,612.876398,-0.000000,9474.636058
146.245909,612.876398,222.061783,9474.636058
146.246226,919.314598,148.041188,9326.594869
146.246543,766.095498,-0.000000,9474.636058
146.246859,919.314598,148.041188,9178.553681
146.247176,766.095498,370.102971,9474.636058
146.247493,766.095498,148.041188,9474.636058
146.247810,842.705048,222.061783,9474.636058
146.248126,689.485948,-0.000000,9326.594869
146.248443,689.485948,148.041188,9474.636058
146.248760,306.438199,222.061783,9474.636058
146.249077,612.876398,148.041188,9474.636058
146.249393,689.485948,148.041188,9474.636058
146.249710,766.095498,-74.020594,9400.615463
146.250027,689.485948,148.041188,9474.636058
146.250343,766.095498,222.061783,9400.615463
146.250660,766.095498,222.061783,9474.636058
146.250977,689.485948,296.082377,9474.636058
146.251294,842.705048,370.102971,9474.636058
146.251610,459.657299,-0.000000,9326.594869
146.251927,689.485948,296.082377,9400.615463
146.252244,689.485948,148.041188,9474.636058
146.252561,766.095498,222.061783,9474.636058
146.252877,842.705048,370.102971,9696.697840
146.253194,995.924147,296.082377,9400.615463
146.253511,612.876398,148.041188,9474.636058
146.253828,842.705048,222.061783,9474.636058
146.254144,919.314598,222.061783,9474.636058
146.254461,612.876398,-0.000000,9474.636058
146.254778,689.485948,148.041188,9252.574275
146.255095,919.314598,296.082377,9548.656652
146.255411,919.314598,296.082377,9474.636058
146.255728,612.876398,-0.000000,9400.615463
146.256045,766.095498,148.041188,9474.636058
146.256361,766.095498,370.102971,9474.636058
146.256678,689.485948,222.061783,9326.594869
146.256995,766.095498,296.082377,9326.594869
146.257312,766.095498,370.102971,9474.636058
146.257628,919.314598,-0.000000,9178.553681
146.257945,536.266849,148.041188,9548.656652
146.258262,919.314598,222.061783,9400.615463
146.258579,689.485948,148.041188,9622.677246
146.258895,1149.143247,-74.020594,9400.615463
146.259212,842.705048,370.102971,9400.615463
146.259529,919.314598,222.061783,9326.594869
146.259846,842.705048,222.061783,9326.594869
146.260162,766.095498,-0.000000,9474.636058
146.260479,689.485948,370.102971,9474.636058
146.260796,612.876398,148.041188,9474.636058
146.261112,536.266849,-0.000000,9548.656652
146.261429,995.924147,222.061783,9400.615463
146.261746,689.485948,222.061783,9326.594869
146.262063,842.705048,222.061783,9400.615463
146.262379,689.485948,-0.000000,9326.594869
146.262696,766.095498,222.061783,9400.615463
146.263013,612.876398,-0.000000,9474.636058
146.263330,1378.971896,370.102971,9400.615463
146.263646,919.314598,-0.000000,9474.636058
146.263963,612.876398,74.020594,9474.636058
146.264280,842.705048,444.123565,9548.656652
146.264597,842.705048,222.061783,9474.636058
146.264913,842.705048,222.061783,9474.636058
146.265230,766.095498,148.041188,9400.615463
146.265547,612.876398,-0.000000,9474.636058
146.265864,689.485948,148.041188,9400.615463
146.266180,766.095498,-0.000000,9474.636058
146.266497,766.095498,-0.000000,9474.636058
146.266814,612.876398,-0.000000,9474.636058
146.267130,536.266849,296.082377,9474.636058
146.267447,766.095498,-0.000000,9326.594869
146.267764,459.657299,-0.000000,9252.574275
146.268081,766.095498,296.082377,9326.594869
146.268397,842.705048,148.041188,9400.615463
146.268714,766.095498,222.061783,9474.636058
146.269031,689.485948,296.082377,9474.636058
146.269348,766.095498,-0.000000,9474.636058
146.269664,612.876398,296.082377,9474.636058
146.269981,689.485948,222.061783,9474.636058
146.270298,766.095498,148.041188,9474.636058
146.270615,612.876398,-0.000000,9252.574275
146.270931,995.924147,-0.000000,9474.636058
146.271248,842.705048,222.061783,9474.636058
146.271565,842.705048,296.082377,9474.636058
146.271882,919.314598,148.041188,9474.636058
146.272198,919.314598,222.061783,9474.636058
146.272515,766.095498,-0.000000,9326.594869
146.272832,766.095498,148.041188,9400.615463
146.273148,689.485948,222.061783,9400.615463
146.273465,689.485948,222.061783,9474.636058
146.273782,766.095498,148.041188,9474.636058
146.274099,766.095498,-0.000000,9548.656652
146.274415,1072.533697,296.082377,9400.615463
146.274732,842.705048,296.082377,9474.636058
146.275049,766.095498,370.102971,9474.636058
146.275366,612.876398,-0.000000,9326.594869
146.275682,919.314598,148.041188,9400.615463
146.275999,995.924147,-0.000000,9474.636058
146.276316,842.705048,148.041188,9400.615463
146.276633,766.095498,518.144159,9400.615463
146.276949,766.095498,-0.000000,9622.677246
146.277266,766.095498,370.102971,9474.636058
146.277583,383.047749,222.061783,9474.636058
146.277900,689.485948,-0.000000,9474.636058
146.278216,766.095498,148.041188,9474.636058
146.278533,1225.752797,-0.000000,9696.697840
146.278850,766.095498,-0.000000,9474.636058
146.279166,689.485948,296.082377,9474.636058
146.279483,842.705048,148.041188,9474.636058
146.279800,842.705048,444.123565,9474.636058
146.280116,612.876398,-74.020594,9326.594869
146.280433,689.485948,370.102971,9474.636058
146.280750,919.314598,-0.000000,9548.656652
146.281066,919.314598,-0.000000,9400.615463
146.281383,919.314598,370.102971,9400.615463
146.281700,995.924147,74.020594,9548.656652
146.282016,919.314598,-0.000000,9474.636058
146.282333,766.095498,370.102971,9400.615463
146.282650,612.876398,296.082377,9474.636058
146.282966,536.266849,370.102971,9474.636058
146.283283,1149.143247,74.020594,9696.697840
146.283600,919.314598,-0.000000,9326.594869
146.283917,612.876398,222.061783,9474.636058
146.284233,766.095498,296.082377,9400.615463
146.284550,689.485948,-0.000000,9326.594869
146.284867,1302.362347,-74.020594,9474.636058
146.285183,919.314598,148.041188,9474.636058
146.285500,689.485948,222.061783,9400.615463
146.285817,842.705048,222.061783,9548.656652
146.286133,612.876398,222.061783,9474.636058
146.286450,766.095498,-0.000000,9400.615463
146.286767,766.095498,222.061783,9252.574275
146.287083,612.876398,-0.000000,9400.615463
146.287400,536.266849,296.082377,9400.615463
146.287717,612.876398,74.020594,9474.636058
146.288033,995.924147,222.061783,9252.574275
146.288350,842.705048,222.061783,9474.636058
146.288667,766.095498,148.041188,9474.636058
146.288983,612.876398,370.102971,9474.636058
146.289300,459.657299,296.082377,9474.636058
146.289617,612.876398,-74.020594,9474.636058
146.289934,842.705048,370.102971,9474.636058
146.290250,766.095498,222.061783,9326.594869
146.290567,842.705048,296.082377,9474.636058
146.290884,766.095498,148.041188,9474.636058
146.291200,919.314598,296.082377,9474.636058
146.291517,919.314598,-0.000000,9400.615463
146.291834,689.485948,222.061783,9400.615463
146.292150,612.876398,370.102971,9474.636058
146.292467,842.705048,222.061783,9474.636058
146.292784,842.705048,74.020594,9474.636058
146.293100,689.485948,222.061783,9474.636058
146.293417,689.485948,296.082377,9474.636058
146.293734,689.485948,148.041188,9400.615463
146.294050,919.314598,-0.000000,9548.656652
146.294367,536.266849,222.061783,9474.636058
146.294684,995.924147,148.041188,9474.636058
146.295000,766.095498,148.041188,9400.615463
146.295317,612.876398,222.061783,9252.574275
146.295634,1072.533697,222.061783,9474.636058
146.295950,536.266849,296.082377,9474.636058
146.296267,919.314598,296.082377,9252.574275
146.296584,919.314598,222.061783,9474.636058
146.296901,919.314598,148.041188,9474.636058
146.297217,536.266849,444.123565,9474.636058
146.297534,842.705048,74.020594,9252.574275
146.297851,766.095498,296.082377,9326.594869
146.298167,766.095498,222.061783,9474.636058
146.298484,1149.143247,222.061783,9548.656652
146.298801,919.314598,296.082377,9474.636058
146.299117,612.876398,222.061783,9474.636058
146.299434,1072.533697,370.102971,9400.615463
146.299751,689.485948,148.041188,9474.636058
146.300067,536.266849,370.102971,9400.615463
146.300384,766.095498,222.061783,9400.615463
146.300701,689.485948,444.123565,9474.636058
146.301017,689.485948,296.082377,9474.636058
146.301334,842.705048,444.123565,9548.656652
146.301651,689.485948,444.123565,9622.677246
146.301967,919.314598,370.102971,9326.594869
146.302284,1072.533697,518.144159,9474.636058
146.302601,536.266849,296.082377,9400.615463
146.302918,689.485948,296.082377,9548.656652
146.303234,766.095498,-0.000000,9770.718434
146.303551,919.314598,-0.000000,9400.615463
146.303868,766.095498,222.061783,9474.636058
146.304184,612.876398,370.102971,9474.636058
146.304501,383.047749,-74.020594,9474.636058
146.304818,766.095498,296.082377,9400.615463
146.305134,842.705048,444.123565,9326.594869
146.305451,766.095498,148.041188,9326.594869
146.305768,842.705048,-0.000000,9326.594869
146.306084,919.314598,-0.000000,9548.656652
146.306401,689.485948,-0.000000,9400.615463
146.306718,766.095498,148.041188,9474.636058
146.307034,459.657299,296.082377,9474.636058
146.307351,689.485948,-0.000000,9326.594869
146.307668,1072.533697,-0.000000,9326.594869
146.307984,766.095498,296.082377,9548.656652
146.308301,842.705048,296.082377,9326.594869
146.308618,689.485948,148.041188,9474.636058
146.308934,459.657299,-0.000000,9474.636058
146.309251,766.095498,148.041188,9548.656652
146.309568,536.266849,-0.000000,9252.574275
146.309885,766.095498,-0.000000,9474.636058
146.310201,766.095498,296.082377,9474.636058
146.310518,612.876398,222.061783,9622.677246
146.310835,689.485948,222.061783,9548.656652
146.311151,995.924147,-0.000000,9474.636058
146.311468,842.705048,-0.000000,9326.594869
146.311785,1072.533697,148.041188,9326.594869
146.312101,919.314598,222.061783,9548.656652
146.312418,919.314598,148.041188,9474.636058
146.312735,766.095498,296.082377,9474.636058
146.313051,842.705048,222.061783,9400.615463
146.313368,919.314598,148.041188,9474.636058
146.313685,919.314598,-0.000000,9474.636058
146.314001,689.485948,148.041188,9400.615463
146.314318,995.924147,-0.000000,9474.636058
146.314635,689.485948,296.082377,9548.656652
146.314951,766.095498,296.082377,9474.636058
146.315268,383.047749,-0.000000,9474.636058
146.315585,1225.752797,-0.000000,9326.594869
146.315902,766.095498,222.061783,9474.636058
146.316218,689.485948,-0.000000,9400.615463
146.316535,842.705048,-0.000000,9474.636058
146.316852,612.876398,222.061783,9548.656652
146.317168,842.705048,370.102971,9474.636058
146.317485,689.485948,370.102971,9474.636058
146.317802,842.705048,296.082377,9474.636058
146.318118,612.876398,370.102971,9400.615463
146.318435,766.095498,-0.000000,8956.491898
146.318752,612.876398,-0.000000,9326.594869
146.319068,689.485948,148.041188,9474.636058
146.319385,689.485948,296.082377,9474.636058
146.319702,1302.362347,296.082377,9548.656652
146.320018,612.876398,148.041188,9474.636058
146.320335,689.485948,222.061783,9474.636058
146.320652,689.485948,370.102971,9400.615463
146.320968,766.095498,222.061783,9474.636058
146.321285,612.876398,148.041188,9326.594869
146.321602,1149.143247,-0.000000,9622.677246
146.321919,612.876398,148.041188,9548.656652
146.322235,842.705048,222.061783,9474.636058
146.322552,536.266849,-0.000000,9548.656652
146.322869,919.314598,222.061783,9474.636058
146.323185,842.705048,296.082377,9252.574275
146.323502,766.095498,296.082377,9548.656652
146.323819,766.095498,296.082377,9474.636058
146.324135,612.876398,74.020594,9474.636058
146.324452,1378.971896,148.041188,9770.718434
146.324769,919.314598,-0.000000,9474.636058
146.325085,919.314598,222.061783,9326.594869
146.325402,612.876398,370.102971,9400.615463
146.325719,689.485948,-0.000000,9474.636058
146.326035,766.095498,-0.000000,9400.615463
146.326352,995.924147,296.082377,9474.636058
146.326669,842.705048,296.082377,9400.615463
146.326985,766.095498,296.082377,9326.594869
146.327302,766.095498,296.082377,9400.615463
146.327619,995.924147,-148.041188,9400.615463
146.327935,766.095498,-0.000000,9326.594869
146.328252,536.266849,-0.000000,9474.636058
146.328569,689.485948,148.041188,9400.615463
146.328886,689.485948,222.061783,9400.615463
146.329202,842.705048,-148.041188,9622.677246
146.329519,919.314598,296.082377,9400.615463
146.329836,689.485948,296.082377,9400.615463
146.330152,842.705048,148.041188,9548.656652
146.330469,766.095498,222.061783,9474.636058
146.330786,689.485948,74.020594,9326.594869
146.331102,919.314598,148.041188,9548.656652
146.331419,842.705048,370.102971,9474.636058
146.331736,919.314598,296.082377,9326.594869
146.332052,919.314598,296.082377,9400.615463
146.332369,842.705048,-0.000000,9548.656652
146.332686,766.095498,148.041188,9400.615463
146.333002,766.095498,-0.000000,9400.615463
146.333319,842.705048,-0.000000,9474.636058
146.333636,995.924147,-296.082377,9474.636058
146.333952,229.828649,-0.000000,9474.636058
146.334269,612.876398,370.102971,9326.594869
146.334586,766.095498,222.061783,9178.553681
146.334903,612.876398,148.041188,9548.656652
146.335219,919.314598,148.041188,9400.615463
146.335536,1072.533697,222.061783,9474.636058
146.335853,766.095498,222.061783,9474.636058
146.336169,689.485948,-0.000000,9400.615463
146.336486,612.876398,-0.000000,9474.636058
146.336803,766.095498,222.061783,9548.656652
146.337119,689.485948,-0.000000,9400.615463
146.337436,995.924147,222.061783,9326.594869
146.337753,689.485948,222.061783,9474.636058
146.338069,536.266849,-0.000000,9474.636058
146.338386,689.485948,296.082377,9474.636058
146.338703,995.924147,222.061783,9474.636058
146.339019,766.095498,222.061783,9400.615463
146.339336,766.095498,-0.000000,9622.677246
146.339653,919.314598,222.061783,9474.636058
146.339969,766.095498,370.102971,9104.533087
146.340286,1072.533697,-0.000000,9400.615463
146.340603,766.095498,296.082377,9474.636058
146.340919,689.485948,148.041188,9326.594869
146.341236,689.485948,-0.000000,9474.636058
146.341553,689.485948,222.061783,9474.636058
146.341870,536.266849,222.061783,9326.594869
146.342186,612.876398,296.082377,9400.615463
146.342503,383.047749,-0.000000,9252.574275
146.342820,766.095498,370.102971,9474.636058
146.343136,1149.143247,296.082377,9622.677246
146.343453,766.095498,148.041188,9400.615463
146.343770,919.314598,296.082377,9326.594869
146.344086,689.485948,222.061783,9400.615463
146.344403,612.876398,370.102971,9474.636058
146.344720,842.705048,222.061783,9696.697840
146.345036,842.705048,222.061783,9474.636058
146.345353,689.485948,370.102971,9474.636058
146.345670,689.485948,296.082377,9474.636058
146.345986,689.485948,-0.000000,9400.615463
146.346303,995.924147,-0.000000,9474.636058
146.346620,612.876398,-0.000000,9696.697840
146.346936,766.095498,296.082377,9474.636058
146.347253,842.705048,370.102971,9474.636058
146.347570,1149.143247,-0.000000,9474.636058
146.347887,536.266849,222.061783,9400.615463
146.348203,612.876398,-0.000000,9400.615463
146.348520,919.314598,296.082377,9474.636058
146.348837,612.876398,-0.000000,9474.636058
146.349153,612.876398,444.123565,9548.656652
146.349470,919.314598,-0.000000,9622.677246
146.349787,766.095498,370.102971,9474.636058
146.350103,689.485948,-0.000000,9474.636058
146.350420,766.095498,296.082377,9400.615463
146.350737,842.705048,222.061783,9474.636058
146.351053,919.314598,296.082377,9474.636058
146.351370,766.095498,370.102971,9474.636058
146.351687,842.705048,-0.000000,9400.615463
146.352003,689.485948,370.102971,9326.594869
146.352320,919.314598,222.061783,9548.656652
146.352637,919.314598,222.061783,9400.615463
146.352953,612.876398,222.061783,9474.636058
146.353270,689.485948,222.061783,9252.574275
146.353587,1225.752797,-0.000000,9474.636058
146.353903,766.095498,222.061783,9548.656652
146.354220,842.705048,222.061783,9474.636058
146.354537,689.485948,222.061783,9400.615463
146.354854,689.485948,296.082377,9400.615463
146.355170,689.485948,296.082377,9622.677246
146.355487,459.657299,296.082377,9474.636058
146.355804,536.266849,222.061783,9474.636058
146.356120,919.314598,-0.000000,9474.636058
146.356437,919.314598,222.061783,9474.636058
146.356754,919.314598,-0.000000,9326.594869
146.357070,689.485948,222.061783,9400.615463
146.357387,842.705048,222.061783,9474.636058
146.357704,842.705048,-0.000000,9400.615463
146.358020,1072.533697,-0.000000,9474.636058
146.358337,689.485948,-0.000000,9474.636058
146.358654,612.876398,148.041188,9548.656652
146.358970,612.876398,222.061783,9474.636058
146.359287,919.314598,-0.000000,9474.636058
146.359604,842.705048,296.082377,9622.677246
146.359920,689.485948,370.102971,9474.636058
146.360237,536.266849,444.123565,9474.636058
146.360554,842.705048,-0.000000,9474.636058
146.360871,766.095498,-0.000000,9474.636058
146.361187,612.876398,222.061783,9474.636058
146.361504,536.266849,148.041188,9548.656652
146.361821,536.266849,296.082377,9474.636058
146.362137,842.705048,222.061783,9400.615463
146.362454,689.485948,370.102971,9474.636058
146.362771,766.095498,-148.041188,9474.636058
146.363087,612.876398,370.102971,9326.594869
146.363404,842.705048,-0.000000,9474.636058
146.363721,612.876398,148.041188,9474.636058
146.364037,766.095498,-0.000000,9548.656652
146.364354,842.705048,296.082377,9252.574275
146.364671,689.485948,222.061783,9252.574275
146.364987,612.876398,148.041188,9474.636058
146.365304,842.705048,296.082377,9400.615463
146.365621,689.485948,148.041188,9474.636058
146.365937,995.924147,-0.000000,9474.636058
146.366254,536.266849,-74.020594,9326.594869
146.366571,689.485948,-0.000000,9400.615463
146.366888,919.314598,370.102971,9474.636058
146.367204,1072.533697,-0.000000,9474.636058
146.367521,766.095498,222.061783,9326.594869
146.367838,842.705048,222.061783,9474.636058
146.368154,766.095498,222.061783,9326.594869
146.368471,766.095498,-0.000000,9474.636058
146.368788,766.095498,296.082377,9400.615463
146.369104,459.657299,-0.000000,9400.615463
146.369421,536.266849,148.041188,9548.656652
146.369738,612.876398,-0.000000,9474.636058
146.370054,766.095498,222.061783,9474.636058
146.370371,919.314598,518.144159,9400.615463
146.370688,689.485948,222.061783,9474.636058
146.371004,612.876398,222.061783,9474.636058
146.371321,919.314598,296.082377,9474.636058
146.371638,1455.581446,-0.000000,9474.636058
146.371954,1302.362347,-0.000000,9696.697840
146.372271,536.266849,74.020594,9474.636058
146.372588,766.095498,148.041188,9548.656652
146.372904,766.095498,370.102971,9400.615463
146.373221,689.485948,-0.000000,9474.636058
146.373538,536.266849,148.041188,9622.677246
146.373855,612.876398,148.041188,9474.636058
146.374171,612.876398,296.082377,9474.636058
146.374488,766.095498,-0.000000,9622.677246
146.374805,536.266849,222.061783,9474.636058
146.375121,995.924147,-0.000000,9548.656652
146.375438,766.095498,370.102971,9474.636058
146.375755,842.705048,222.061783,9474.636058
146.376071,995.924147,370.102971,9252.574275
146.376388,1455.581446,222.061783,9474.636058
146.376705,612.876398,148.041188,9474.636058
146.377021,536.266849,222.061783,9474.636058
146.377338,536.266849,222.061783,9474.636058
146.377655,459.657299,-0.000000,9474.636058
146.377971,919.314598,296.082377,9400.615463
146.378288,995.924147,-0.000000,9252.574275
146.378605,536.266849,74.020594,9178.553681
146.378921,689.485948,296.082377,9474.636058
146.379238,689.485948,296.082377,9548.656652
146.379555,766.095498,-74.020594,9474.636058
146.379872,842.705048,148.041188,9474.636058
146.380188,536.266849,296.082377,9696.697840
146.380505,766.095498,148.041188,9474.636058
146.380822,995.924147,-0.000000,9474.636058
146.381138,766.095498,148.041188,9474.636058
146.381455,842.705048,444.123565,9622.677246
146.381772,766.095498,-0.000000,9178.553681
146.382088,612.876398,222.061783,9474.636058
146.382405,766.095498,222.061783,9400.615463
146.382722,919.314598,-222.061783,9474.636058
146.383038,612.876398,-0.000000,9474.636058
146.383355,689.485948,-0.000000,9474.636058
146.383672,612.876398,296.082377,9474.636058
146.383988,766.095498,222.061783,9400.615463
146.384305,919.314598,296.082377,9696.697840
146.384622,995.924147,296.082377,9474.636058
146.384938,612.876398,296.082377,9400.615463
146.385255,689.485948,148.041188,9326.594869
146.385572,689.485948,296.082377,9474.636058
146.385888,536.266849,-0.000000,9400.615463
146.386205,766.095498,-0.000000,9474.636058
146.386522,689.485948,148.041188,9400.615463
146.386838,766.095498,148.041188,9400.615463
146.387155,842.705048,444.123565,9400.615463
146.387472,689.485948,518.144159,9548.656652
146.387788,459.657299,74.020594,9326.594869
146.388105,689.485948,148.041188,9474.636058
146.388422,842.705048,222.061783,9474.636058
146.388739,766.095498,-0.000000,9474.636058
146.389055,689.485948,148.041188,9474.636058
146.389372,689.485948,296.082377,9400.615463
146.389689,1072.533697,296.082377,9400.615463
146.390005,919.314598,296.082377,9400.615463
146.390322,612.876398,444.123565,9474.636058
146.390639,995.924147,296.082377,9474.636058
146.390955,766.095498,-0.000000,9400.615463
146.391272,689.485948,148.041188,9400.615463
146.391589,766.095498,222.061783,9474.636058
146.391905,459.657299,-0.000000,9696.697840
146.392222,919.314598,370.102971,9474.636058
146.392539,766.095498,444.123565,9400.615463
146.392855,842.705048,296.082377,9326.594869
146.393172,536.266849,370.102971,9474.636058
146.393489,919.314598,296.082377,9474.636058
146.393805,919.314598,-0.000000,9474.636058
146.394122,842.705048,222.061783,9326.594869
146.394439,766.095498,296.082377,9474.636058
146.394755,919.314598,222.061783,9474.636058
146.395072,766.095498,370.102971,9474.636058
146.395389,766.095498,296.082377,9474.636058
146.395705,919.314598,222.061783,9474.636058
146.396022,919.314598,222.061783,9474.636058
