#time,accel_x,accel_y,accel_z
1804.602662,2451.505594,6883.915261,11473.192101
1804.602980,2834.553343,5921.647536,12509.480420
1804.603297,2145.067394,4663.297435,12879.583391
1804.603614,1915.238745,4145.153275,14359.995275
1804.603932,1532.190996,3404.947333,14063.912898
1804.604249,1378.971896,2886.803174,14656.077652
1804.604567,459.657299,2368.659014,14730.098246
1804.604884,766.095498,2146.597232,15322.262999
1804.605201,612.876398,1924.535449,15396.283594
1804.605519,689.485948,1628.453072,14063.912898
1804.605836,1225.752797,1036.288319,14285.974681
1804.606153,1685.410096,370.102971,13915.871710
1804.606471,1225.752797,370.102971,13175.665768
1804.606788,1225.752797,518.144159,11917.315666
1804.607106,1072.533697,888.247130,11917.315666
1804.607423,153.219100,1702.473667,11325.150913
1804.607740,612.876398,1480.411884,10732.986159
1804.608058,306.438199,1776.494261,9844.739029
1804.608375,76.609550,1036.288319,9548.656652
1804.608692,0.000000,888.247130,9178.553681
1804.609010,-383.047749,-296.082377,8660.409521
1804.609327,-612.876398,-814.226536,8512.368333
1804.609645,-995.924147,-1406.391290,8290.306550
1804.609962,-1455.581446,-1110.308913,8512.368333
1804.610279,-1762.019645,-1406.391290,8586.388927
1804.610597,-1915.238745,-1258.350101,8512.368333
1804.610914,-1455.581446,-1184.329507,8068.244768
1804.611231,-1532.190996,-740.205942,7476.080014
1804.611549,-1608.800546,-1110.308913,6957.935855
1804.611866,-1532.190996,-1332.370696,6883.915261
1804.612184,-689.485948,-1258.350101,6513.812290
1804.612501,229.828649,-1480.411884,5773.606348
1804.612818,1072.533697,-1184.329507,5107.421000
1804.613136,1685.410096,-1776.494261,4737.318029
1804.613453,2451.505594,-2368.659014,4885.359217
1804.613771,2145.067394,-2738.761985,4885.359217
1804.614088,2068.457845,-3034.844362,4737.318029
1804.614405,1685.410096,-3849.070898,5255.462188
1804.614723,995.924147,-4071.132681,5699.585753
1804.615040,1608.800546,-4737.318029,5921.647536
1804.615357,919.314598,-4663.297435,6439.791695
1804.615675,536.266849,-4737.318029,7105.977043
1804.615992,76.609550,-4515.256246,7179.997637
1804.616310,-76.609550,-3923.091493,7550.100608
1804.616627,0.000000,-3478.967927,8290.306550
1804.616944,-383.047749,-2368.659014,8808.450710
1804.617262,-459.657299,-1628.453072,8438.347739
1804.617579,0.000000,-814.226536,8512.368333
1804.617896,0.000000,-518.144159,8364.327145
1804.618214,-76.609550,-148.041188,8068.244768
1804.618531,0.000000,444.123565,7920.203579
1804.618849,0.000000,740.205942,8142.265362
1804.619166,-153.219100,1110.308913,8734.430116
1804.619483,-153.219100,1628.453072,8808.450710
1804.619801,229.828649,1998.556043,8734.430116
1804.620118,0.000000,2294.638420,8882.471304
1804.620435,0.000000,2368.659014,8734.430116
1804.620753,-229.828649,2368.659014,9178.553681
1804.621070,0.000000,2368.659014,9400.615463
1804.621388,-153.219100,2664.741391,9844.739029
1804.621705,-229.828649,3034.844362,10066.800811
1804.622022,0.000000,2886.803174,9992.780217
1804.622340,0.000000,2960.823768,10362.883188
1804.622657,153.219100,3404.947333,10732.986159
1804.622974,306.438199,3701.029710,10510.924376
1804.623292,612.876398,4293.194464,10362.883188
1804.623609,689.485948,3997.112087,10658.965565
1804.623927,766.095498,3701.029710,10807.006753
1804.624244,1149.143247,3330.926739,10955.047942
1804.624561,689.485948,3552.988522,10732.986159
1804.624879,766.095498,3478.967927,11251.130318
1804.625196,383.047749,3478.967927,11621.233289
1804.625514,383.047749,3478.967927,11917.315666
1804.625831,76.609550,2960.823768,12065.356855
1804.626148,-229.828649,2960.823768,12509.480420
1804.626466,-153.219100,3034.844362,12731.542202
1804.626783,-536.266849,2664.741391,12731.542202
1804.627100,-229.828649,2442.679609,13027.624579
1804.627418,229.828649,2738.761985,13249.686362
1804.627735,76.609550,2738.761985,12805.562797
1804.628053,76.609550,2960.823768,12361.439231
1804.628370,383.047749,2738.761985,12139.377449
1804.628687,1072.533697,3034.844362,12287.418637
1804.629005,536.266849,2590.720797,11547.212695
1804.629322,1149.143247,2664.741391,11251.130318
1804.629639,766.095498,2368.659014,10732.986159
1804.629957,766.095498,1998.556043,10658.965565
1804.630274,842.705048,1332.370696,10140.821405
1804.630592,766.095498,1184.329507,9992.780217
1804.630909,1072.533697,1110.308913,9548.656652
1804.631226,995.924147,888.247130,9326.594869
1804.631544,919.314598,814.226536,8956.491898
1804.631861,842.705048,666.185348,8586.388927
1804.632178,766.095498,444.123565,8290.306550
1804.632496,766.095498,222.061783,8216.285956
1804.632813,689.485948,-0.000000,8290.306550
1804.633131,689.485948,-74.020594,8068.244768
1804.633448,919.314598,-74.020594,7846.182985
1804.633765,842.705048,-370.102971,7698.141797
1804.634083,919.314598,-370.102971,7772.162391
1804.634400,1149.143247,-592.164754,7698.141797
1804.634718,1149.143247,-740.205942,7476.080014
1804.635035,766.095498,-888.247130,7402.059420
1804.635352,919.314598,-962.267725,7402.059420
1804.635670,766.095498,-1332.370696,7476.080014
1804.635987,536.266849,-1480.411884,7772.162391
1804.636304,612.876398,-1924.535449,7624.121203
1804.636622,229.828649,-1850.514855,8290.306550
1804.636939,153.219100,-1924.535449,8290.306550
1804.637256,-153.219100,-1998.556043,8364.327145
1804.637573,0.000000,-2072.576638,8586.388927
1804.637890,-689.485948,-2590.720797,8438.347739
1804.638208,-383.047749,-2368.659014,8438.347739
1804.638525,0.000000,-2516.700203,8142.265362
1804.638842,-229.828649,-2368.659014,8290.306550
1804.639159,153.219100,-2146.597232,8512.368333
1804.639476,-383.047749,-2368.659014,8586.388927
1804.639793,-383.047749,-2146.597232,8660.409521
1804.640110,-229.828649,-1924.535449,8882.471304
1804.640427,0.000000,-1480.411884,8660.409521
1804.640745,0.000000,-1258.350101,8512.368333
1804.641062,306.438199,-740.205942,8660.409521
1804.641379,536.266849,-592.164754,8586.388927
1804.641696,612.876398,-370.102971,8586.388927
1804.642013,766.095498,-74.020594,8364.327145
1804.642330,612.876398,666.185348,8438.347739
1804.642647,766.095498,740.205942,8660.409521
1804.642964,842.705048,1406.391290,8586.388927
1804.643281,842.705048,1998.556043,8734.430116
1804.643599,1455.581446,2442.679609,9030.512492
1804.643916,1072.533697,2738.761985,9030.512492
1804.644233,1378.971896,2812.782580,8734.430116
1804.644550,1608.800546,3034.844362,8956.491898
1804.644867,1762.019645,3404.947333,9400.615463
1804.645184,1915.238745,3182.885551,9474.636058
1804.645501,1225.752797,3404.947333,9474.636058
1804.645818,1302.362347,3330.926739,9844.739029
1804.646135,1378.971896,3182.885551,10214.842000
1804.646453,1302.362347,2960.823768,10732.986159
1804.646770,919.314598,2664.741391,11029.068536
1804.647087,995.924147,2294.638420,11177.109724
1804.647404,766.095498,2072.576638,11473.192101
1804.647721,766.095498,1850.514855,11621.233289
1804.648038,536.266849,1702.473667,11547.212695
1804.648355,383.047749,1702.473667,11547.212695
1804.648672,0.000000,1258.350101,11843.295072
1804.648989,-229.828649,1332.370696,11695.253884
1804.649307,-306.438199,1258.350101,11769.274478
1804.649624,-536.266849,1036.288319,11251.130318
1804.649941,-689.485948,666.185348,11769.274478
1804.650258,-689.485948,1332.370696,11843.295072
1804.650575,-995.924147,814.226536,11399.171507
1804.650892,-995.924147,962.267725,11177.109724
1804.651209,-1455.581446,814.226536,11325.150913
1804.651526,-766.095498,1406.391290,10658.965565
1804.651843,-306.438199,1480.411884,10584.944971
1804.652161,-229.828649,1628.453072,10436.903782
1804.652478,0.000000,1702.473667,9548.656652
1804.652795,153.219100,1554.432478,9548.656652
1804.653112,229.828649,1702.473667,9252.574275
1804.653429,383.047749,1924.535449,9030.512492
1804.653746,689.485948,1628.453072,8808.450710
1804.654063,842.705048,1554.432478,8882.471304
1804.654380,1072.533697,1332.370696,8586.388927
1804.654697,1149.143247,814.226536,8512.368333
1804.655015,1225.752797,814.226536,8216.285956
1804.655332,1608.800546,666.185348,8068.244768
1804.655649,1838.629195,370.102971,7920.203579
1804.655966,1762.019645,-0.000000,7920.203579
1804.656283,1991.848295,-370.102971,7698.141797
1804.656600,1915.238745,-888.247130,7698.141797
1804.656917,1838.629195,-1406.391290,7772.162391
1804.657234,1915.238745,-1998.556043,7994.224174
1804.657551,1685.410096,-2664.741391,7698.141797
1804.657869,1838.629195,-2590.720797,7920.203579
1804.658186,1532.190996,-3034.844362,8142.265362
1804.658503,1608.800546,-3330.926739,8290.306550
1804.658820,1608.800546,-3256.906145,8216.285956
1804.659137,1608.800546,-3552.988522,8512.368333
1804.659454,1608.800546,-3552.988522,8586.388927
1804.659771,1455.581446,-3552.988522,8734.430116
1804.660088,1225.752797,-3478.967927,8586.388927
1804.660405,1302.362347,-3478.967927,8808.450710
1804.660723,1608.800546,-3034.844362,8882.471304
1804.661040,919.314598,-2812.782580,9030.512492
1804.661357,842.705048,-2442.679609,9104.533087
1804.661674,919.314598,-2516.700203,9030.512492
1804.661991,1072.533697,-2368.659014,9326.594869
1804.662308,766.095498,-1998.556043,9178.553681
1804.662625,766.095498,-1776.494261,9030.512492
1804.662942,766.095498,-1480.411884,9030.512492
1804.663259,995.924147,-1332.370696,9030.512492
1804.663577,766.095498,-888.247130,9030.512492
1804.663894,919.314598,-740.205942,9104.533087
1804.664211,842.705048,-370.102971,9030.512492
1804.664528,1225.752797,-148.041188,9104.533087
1804.664845,842.705048,-296.082377,9178.553681
1804.665162,1378.971896,-0.000000,8956.491898
1804.665479,1455.581446,-0.000000,9104.533087
1804.665796,1991.848295,296.082377,9252.574275
1804.666113,1838.629195,370.102971,9252.574275
1804.666431,1838.629195,518.144159,9548.656652
1804.666748,1991.848295,518.144159,9474.636058
1804.667065,1762.019645,592.164754,9474.636058
1804.667382,2221.676944,1036.288319,9548.656652
1804.667699,1762.019645,518.144159,9770.718434
1804.668016,1608.800546,814.226536,10140.821405
1804.668333,1455.581446,888.247130,10288.862594
1804.668650,1149.143247,1184.329507,10658.965565
1804.668968,1072.533697,1406.391290,10510.924376
1804.669285,689.485948,1258.350101,10510.924376
1804.669602,842.705048,1480.411884,10510.924376
1804.669919,383.047749,1850.514855,10807.006753
1804.670236,612.876398,1850.514855,11029.068536
1804.670553,229.828649,1776.494261,11029.068536
1804.670870,383.047749,1998.556043,10807.006753
1804.671187,0.000000,1850.514855,10584.944971
1804.671504,-383.047749,2146.597232,10881.027347
1804.671822,-383.047749,1924.535449,10807.006753
1804.672139,0.000000,1850.514855,10955.047942
1804.672456,0.000000,1776.494261,10807.006753
1804.672773,-383.047749,1850.514855,10658.965565
1804.673090,-306.438199,1924.535449,10510.924376
1804.673407,-229.828649,1850.514855,10140.821405
1804.673724,-306.438199,1776.494261,10066.800811
1804.674041,-229.828649,1258.350101,10140.821405
1804.674358,0.000000,1184.329507,9696.697840
1804.674676,-229.828649,1184.329507,9696.697840
1804.674993,0.000000,1628.453072,10066.800811
1804.675310,-229.828649,814.226536,9474.636058
1804.675627,0.000000,740.205942,8882.471304
1804.675944,76.609550,740.205942,9326.594869
1804.676261,153.219100,740.205942,9326.594869
1804.676578,306.438199,518.144159,8808.450710
1804.676895,383.047749,-148.041188,8660.409521
1804.677212,306.438199,-74.020594,8660.409521
1804.677530,766.095498,-148.041188,8512.368333
1804.677847,536.266849,-148.041188,8956.491898
1804.678164,459.657299,-666.185348,8808.450710
1804.678481,919.314598,-1184.329507,8956.491898
1804.678798,612.876398,-962.267725,8660.409521
1804.679115,995.924147,-962.267725,8734.430116
1804.679432,1149.143247,-1480.411884,8882.471304
1804.679749,1302.362347,-1554.432478,8734.430116
1804.680066,1378.971896,-1554.432478,8734.430116
1804.680384,1532.190996,-1850.514855,8734.430116
1804.680701,1455.581446,-2072.576638,8956.491898
1804.681018,1378.971896,-2146.597232,9104.533087
1804.681335,1762.019645,-1850.514855,8882.471304
1804.681652,1915.238745,-1924.535449,8956.491898
1804.681969,1762.019645,-2072.576638,8734.430116
1804.682286,1685.410096,-1998.556043,8808.450710
1804.682603,1838.629195,-1998.556043,8882.471304
1804.682920,1685.410096,-2146.597232,8956.491898
1804.683238,1685.410096,-2368.659014,8660.409521
1804.683555,1762.019645,-1924.535449,8660.409521
1804.683872,1532.190996,-2072.576638,8956.491898
1804.684189,1838.629195,-1924.535449,8734.430116
1804.684506,1608.800546,-1776.494261,8882.471304
1804.684823,1991.848295,-1406.391290,8882.471304
1804.685140,1838.629195,-1332.370696,8882.471304
1804.685457,1991.848295,-888.247130,8956.491898
1804.685774,1915.238745,-962.267725,8734.430116
1804.686092,2451.505594,-740.205942,8660.409521
1804.686409,2068.457845,-370.102971,8882.471304
1804.686726,1915.238745,-296.082377,8882.471304
1804.687043,1915.238745,-0.000000,8734.430116
1804.687360,1838.629195,-0.000000,8956.491898
1804.687677,1915.238745,518.144159,9178.553681
1804.687994,1685.410096,444.123565,9030.512492
1804.688311,1455.581446,518.144159,9252.574275
1804.688628,1072.533697,592.164754,9474.636058
1804.688946,689.485948,592.164754,9622.677246
1804.689263,766.095498,518.144159,9178.553681
1804.689580,689.485948,888.247130,9918.759623
1804.689897,459.657299,962.267725,9770.718434
1804.690214,689.485948,1110.308913,10066.800811
1804.690531,383.047749,888.247130,10066.800811
1804.690848,459.657299,1110.308913,10140.821405
1804.691165,383.047749,962.267725,10214.842000
1804.691482,383.047749,888.247130,10436.903782
1804.691800,229.828649,1110.308913,10362.883188
1804.692117,459.657299,1258.350101,10510.924376
1804.692434,153.219100,1332.370696,10658.965565
1804.692751,459.657299,1332.370696,10066.800811
1804.693068,459.657299,1332.370696,10140.821405
1804.693385,306.438199,1406.391290,10066.800811
1804.693702,459.657299,1554.432478,9992.780217
1804.694019,459.657299,1554.432478,10140.821405
1804.694336,383.047749,1628.453072,10066.800811
1804.694654,383.047749,1850.514855,9770.718434
1804.694971,306.438199,1628.453072,9992.780217
1804.695288,306.438199,1702.473667,9844.739029
1804.695605,229.828649,1924.535449,9770.718434
1804.695922,689.485948,1998.556043,9474.636058
1804.696239,459.657299,2294.638420,9474.636058
1804.696556,919.314598,1998.556043,9474.636058
1804.696873,536.266849,1998.556043,9400.615463
1804.697191,536.266849,1776.494261,9252.574275
1804.697508,536.266849,1702.473667,9400.615463
1804.697825,766.095498,1258.350101,9400.615463
1804.698142,689.485948,1332.370696,9326.594869
1804.698459,306.438199,1110.308913,8956.491898
1804.698776,229.828649,962.267725,9474.636058
1804.699093,306.438199,1036.288319,9326.594869
1804.699410,0.000000,666.185348,9474.636058
1804.699727,76.609550,148.041188,9474.636058
1804.700045,0.000000,148.041188,9474.636058
1804.700362,0.000000,-148.041188,9474.636058
1804.700679,229.828649,-370.102971,9474.636058
1804.700996,-153.219100,-666.185348,9696.697840
1804.701313,0.000000,-666.185348,9474.636058
1804.701630,-383.047749,-518.144159,9474.636058
1804.701947,-153.219100,-888.247130,9474.636058
1804.702264,0.000000,-666.185348,9400.615463
1804.702581,-383.047749,-962.267725,9400.615463
1804.702899,0.000000,-1258.350101,9400.615463
1804.703216,76.609550,-888.247130,9252.574275
1804.703533,76.609550,-962.267725,9178.553681
1804.703850,536.266849,-740.205942,9326.594869
1804.704167,459.657299,-814.226536,9030.512492
1804.704484,383.047749,-592.164754,9178.553681
1804.704801,689.485948,-518.144159,8956.491898
1804.705118,842.705048,-370.102971,9030.512492
1804.705435,919.314598,-296.082377,9030.512492
1804.705753,1149.143247,-666.185348,8660.409521
1804.706070,1378.971896,-74.020594,8808.450710
1804.706387,1225.752797,-0.000000,8882.471304
1804.706704,1455.581446,-74.020594,8956.491898
1804.707021,1532.190996,-148.041188,8808.450710
1804.707338,1838.629195,-0.000000,8808.450710
1804.707655,1608.800546,148.041188,8660.409521
1804.707972,1608.800546,-0.000000,8660.409521
1804.708289,1838.629195,-0.000000,8734.430116
1804.708607,1762.019645,-0.000000,8808.450710
1804.708924,1378.971896,-0.000000,8956.491898
1804.709241,1378.971896,296.082377,8956.491898
1804.709558,1225.752797,74.020594,9178.553681
1804.709875,1072.533697,222.061783,9252.574275
1804.710192,1072.533697,-0.000000,9104.533087
1804.710509,919.314598,370.102971,9326.594869
1804.710826,536.266849,148.041188,9474.636058
1804.711143,536.266849,296.082377,9474.636058
1804.711461,536.266849,296.082377,9696.697840
1804.711778,229.828649,444.123565,9844.739029
1804.712095,459.657299,592.164754,9844.739029
1804.712412,459.657299,888.247130,9770.718434
1804.712729,306.438199,888.247130,9992.780217
1804.713046,76.609550,1036.288319,9918.759623
1804.713363,0.000000,1406.391290,9918.759623
1804.713680,0.000000,1480.411884,9918.759623
1804.713997,0.000000,1480.411884,9844.739029
1804.714315,76.609550,1776.494261,9770.718434
1804.714632,76.609550,1850.514855,9696.697840
1804.714949,153.219100,1850.514855,9548.656652
1804.715266,0.000000,1998.556043,9770.718434
1804.715583,-536.266849,1850.514855,9622.677246
1804.715900,0.000000,1924.535449,9770.718434
1804.716217,229.828649,1924.535449,9696.697840
1804.716534,229.828649,2072.576638,9770.718434
1804.716851,229.828649,1850.514855,9770.718434
1804.717169,306.438199,1850.514855,9696.697840
1804.717486,459.657299,1776.494261,9844.739029
1804.717803,536.266849,1628.453072,9770.718434
1804.718120,459.657299,1776.494261,9770.718434
1804.718437,612.876398,1702.473667,9918.759623
1804.718754,383.047749,1406.391290,9844.739029
1804.719071,536.266849,1406.391290,9844.739029
1804.719388,689.485948,1110.308913,9992.780217
1804.719705,689.485948,1184.329507,9770.718434
1804.720023,689.485948,1184.329507,9844.739029
1804.720340,689.485948,888.247130,9770.718434
1804.720657,536.266849,740.205942,9770.718434
1804.720974,306.438199,740.205942,9918.759623
1804.721291,459.657299,148.041188,9622.677246
1804.721608,383.047749,370.102971,9918.759623
1804.721925,612.876398,-0.000000,9918.759623
1804.722242,536.266849,222.061783,9844.739029
1804.722559,689.485948,-0.000000,9844.739029
1804.722877,459.657299,-0.000000,9844.739029
1804.723194,536.266849,-0.000000,9770.718434
1804.723511,536.266849,-0.000000,9622.677246
1804.723828,995.924147,-74.020594,9474.636058
1804.724145,689.485948,-370.102971,9474.636058
1804.724462,766.095498,-296.082377,9474.636058
1804.724779,1378.971896,-148.041188,9178.553681
1804.725096,1149.143247,-370.102971,9178.553681
1804.725414,1838.629195,-222.061783,9104.533087
1804.725731,919.314598,-444.123565,8808.450710
1804.726048,1225.752797,-518.144159,8734.430116
1804.726365,1455.581446,-444.123565,8660.409521
1804.726682,1455.581446,-518.144159,8660.409521
1804.726999,1225.752797,-444.123565,8512.368333
1804.727316,1225.752797,-666.185348,8512.368333
1804.727633,1302.362347,-814.226536,8290.306550
1804.727950,1225.752797,-814.226536,8216.285956
1804.728268,1302.362347,-814.226536,8216.285956
1804.728585,1455.581446,-888.247130,8586.388927
1804.728902,995.924147,-1036.288319,8290.306550
1804.729219,1225.752797,-888.247130,8512.368333
1804.729536,1302.362347,-740.205942,8512.368333
1804.729853,842.705048,-740.205942,8290.306550
1804.730170,689.485948,-888.247130,8586.388927
1804.730487,995.924147,-1036.288319,8808.450710
1804.730804,612.876398,-962.267725,8660.409521
1804.731122,766.095498,-888.247130,8882.471304
1804.731439,842.705048,-814.226536,9030.512492
1804.731756,766.095498,-888.247130,9030.512492
1804.732073,766.095498,-814.226536,9104.533087
1804.732390,536.266849,-740.205942,9326.594869
1804.732707,383.047749,-666.185348,9252.574275
1804.733024,536.266849,-370.102971,9326.594869
1804.733341,383.047749,-296.082377,9474.636058
1804.733658,229.828649,-296.082377,9548.656652
1804.733976,766.095498,-74.020594,9400.615463
1804.734293,306.438199,-74.020594,9548.656652
1804.734610,229.828649,-0.000000,9474.636058
1804.734927,229.828649,-74.020594,9474.636058
1804.735244,689.485948,370.102971,9696.697840
1804.735561,383.047749,222.061783,9696.697840
1804.735878,536.266849,444.123565,9548.656652
1804.736195,536.266849,518.144159,9622.677246
1804.736512,612.876398,740.205942,9474.636058
1804.736829,689.485948,962.267725,9696.697840
1804.737146,842.705048,1110.308913,9992.780217
1804.737464,1302.362347,888.247130,9918.759623
1804.737781,612.876398,1036.288319,9770.718434
1804.738098,689.485948,1110.308913,9844.739029
1804.738415,612.876398,1258.350101,9992.780217
1804.738732,536.266849,1184.329507,9918.759623
1804.739049,689.485948,1480.411884,9992.780217
1804.739366,536.266849,1554.432478,9844.739029
1804.739683,153.219100,1628.453072,10066.800811
1804.740000,229.828649,1554.432478,10140.821405
1804.740317,919.314598,1480.411884,10214.842000
1804.740634,383.047749,1406.391290,10066.800811
1804.740951,229.828649,1406.391290,10584.944971
1804.741268,383.047749,1332.370696,10140.821405
1804.741586,383.047749,1332.370696,10288.862594
1804.741903,383.047749,1184.329507,10288.862594
1804.742220,0.000000,1110.308913,10066.800811
1804.742537,229.828649,1110.308913,10140.821405
1804.742854,153.219100,962.267725,10066.800811
1804.743171,229.828649,740.205942,10362.883188
1804.743488,229.828649,888.247130,9992.780217
1804.743805,383.047749,814.226536,10288.862594
1804.744122,383.047749,740.205942,10214.842000
1804.744439,459.657299,666.185348,10214.842000
1804.744756,459.657299,666.185348,10066.800811
1804.745073,536.266849,666.185348,9844.739029
1804.745390,766.095498,518.144159,9844.739029
1804.745708,689.485948,518.144159,9770.718434
1804.746025,919.314598,444.123565,9548.656652
1804.746342,1149.143247,370.102971,9474.636058
1804.746659,995.924147,-74.020594,9474.636058
1804.746976,995.924147,148.041188,9178.553681
1804.747293,1149.143247,148.041188,9252.574275
1804.747610,1225.752797,-0.000000,9104.533087
1804.747927,1149.143247,-0.000000,8956.491898
1804.748244,1072.533697,-0.000000,8808.450710
1804.748561,1455.581446,-0.000000,8808.450710
1804.748878,1455.581446,-74.020594,8586.388927
1804.749195,1455.581446,-222.061783,8734.430116
1804.749512,1685.410096,-518.144159,8882.471304
1804.749830,1225.752797,-592.164754,8808.450710
1804.750147,1378.971896,-444.123565,8586.388927
1804.750464,1072.533697,-814.226536,8808.450710
1804.750781,995.924147,-1184.329507,8660.409521
1804.751098,1455.581446,-1184.329507,8660.409521
1804.751415,766.095498,-1332.370696,8882.471304
1804.751732,1149.143247,-1332.370696,8808.450710
1804.752049,919.314598,-1480.411884,8882.471304
1804.752366,1072.533697,-1332.370696,8734.430116
1804.752683,1072.533697,-1258.350101,8956.491898
1804.753000,919.314598,-1406.391290,8808.450710
1804.753317,1149.143247,-1110.308913,8956.491898
1804.753634,766.095498,-1332.370696,8586.388927
1804.753952,1072.533697,-1332.370696,8882.471304
1804.754269,766.095498,-1480.411884,8956.491898
1804.754586,1149.143247,-1332.370696,8956.491898
1804.754903,1072.533697,-1332.370696,8882.471304
1804.755220,1302.362347,-1110.308913,8586.388927
1804.755537,1149.143247,-1036.288319,8882.471304
1804.755854,1455.581446,-962.267725,9104.533087
1804.756171,1225.752797,-814.226536,9104.533087
1804.756488,1685.410096,-592.164754,9104.533087
1804.756805,1378.971896,-444.123565,9104.533087
1804.757122,1532.190996,-444.123565,9178.553681
1804.757439,1532.190996,-370.102971,9326.594869
1804.757756,1532.190996,-222.061783,9252.574275
1804.758073,1378.971896,-0.000000,9030.512492
1804.758391,1455.581446,-0.000000,9030.512492
1804.758708,1915.238745,-0.000000,9548.656652
1804.759025,1455.581446,222.061783,9104.533087
1804.759342,1072.533697,-0.000000,9326.594869
1804.759659,995.924147,222.061783,9400.615463
1804.759976,1072.533697,222.061783,9474.636058
1804.760293,612.876398,592.164754,9918.759623
1804.760610,766.095498,444.123565,9548.656652
1804.760927,383.047749,370.102971,9696.697840
1804.761244,383.047749,444.123565,9474.636058
1804.761561,612.876398,444.123565,9474.636058
1804.761878,536.266849,296.082377,9696.697840
1804.762195,612.876398,740.205942,9770.718434
1804.762513,229.828649,370.102971,9918.759623
1804.762830,306.438199,666.185348,9918.759623
1804.763147,306.438199,666.185348,10214.842000
1804.763464,536.266849,740.205942,10066.800811
1804.763781,306.438199,666.185348,9918.759623
1804.764098,536.266849,740.205942,9918.759623
1804.764415,459.657299,814.226536,10066.800811
1804.764732,306.438199,518.144159,9992.780217
1804.765049,536.266849,814.226536,9770.718434
1804.765366,536.266849,740.205942,9992.780217
1804.765683,536.266849,888.247130,9992.780217
1804.766000,1149.143247,814.226536,9770.718434
1804.766317,842.705048,888.247130,9918.759623
1804.766635,612.876398,1184.329507,9844.739029
1804.766952,612.876398,888.247130,9622.677246
1804.767269,919.314598,962.267725,9622.677246
1804.767586,919.314598,740.205942,9770.718434
1804.767903,1072.533697,962.267725,9474.636058
1804.768220,1225.752797,740.205942,9474.636058
1804.768537,1072.533697,888.247130,9474.636058
1804.768854,1378.971896,592.164754,9474.636058
1804.769171,995.924147,666.185348,9474.636058
1804.769488,995.924147,370.102971,9400.615463
1804.769805,995.924147,518.144159,9770.718434
1804.770122,842.705048,444.123565,9474.636058
1804.770439,919.314598,222.061783,9474.636058
1804.770757,689.485948,148.041188,9474.636058
1804.771074,612.876398,-0.000000,9548.656652
1804.771391,459.657299,-0.000000,9696.697840
1804.771708,383.047749,-222.061783,9474.636058
1804.772025,612.876398,-222.061783,9474.636058
1804.772342,459.657299,-518.144159,9326.594869
1804.772659,229.828649,-0.000000,9474.636058
1804.772976,459.657299,-0.000000,9326.594869
1804.773293,306.438199,-74.020594,9252.574275
1804.773610,459.657299,-74.020594,9326.594869
1804.773927,229.828649,-148.041188,9326.594869
1804.774244,153.219100,-0.000000,9400.615463
1804.774561,536.266849,-148.041188,9252.574275
1804.774879,536.266849,-0.000000,9326.594869
1804.775196,459.657299,296.082377,9252.574275
1804.775513,76.609550,-370.102971,8956.491898
1804.775830,536.266849,-0.000000,9104.533087
1804.776147,995.924147,-0.000000,9400.615463
1804.776464,919.314598,-0.000000,9104.533087
1804.776781,1149.143247,222.061783,9030.512492
1804.777098,1302.362347,444.123565,9252.574275
1804.777415,1225.752797,296.082377,9030.512492
1804.777732,1225.752797,444.123565,9104.533087
1804.778049,1378.971896,296.082377,9030.512492
1804.778366,995.924147,370.102971,9104.533087
1804.778683,842.705048,370.102971,9104.533087
1804.779001,1225.752797,444.123565,8956.491898
1804.779318,919.314598,222.061783,9104.533087
1804.779635,1072.533697,444.123565,8956.491898
1804.779952,536.266849,296.082377,9252.574275
1804.780269,842.705048,296.082377,9104.533087
1804.780586,689.485948,444.123565,9474.636058
1804.780903,612.876398,222.061783,9400.615463
1804.781220,459.657299,370.102971,9474.636058
1804.781537,306.438199,296.082377,9622.677246
1804.781854,306.438199,74.020594,9252.574275
1804.782171,383.047749,518.144159,9474.636058
1804.782488,229.828649,222.061783,9548.656652
1804.782805,153.219100,222.061783,9622.677246
1804.783123,-229.828649,592.164754,9918.759623
1804.783440,229.828649,518.144159,9696.697840
1804.783757,229.828649,518.144159,9548.656652
1804.784074,153.219100,592.164754,9844.739029
1804.784391,306.438199,666.185348,9696.697840
1804.784708,919.314598,296.082377,9844.739029
1804.785025,536.266849,666.185348,9770.718434
1804.785342,383.047749,666.185348,9696.697840
1804.785659,383.047749,518.144159,9622.677246
1804.785976,612.876398,740.205942,9696.697840
1804.786293,612.876398,518.144159,9622.677246
1804.786610,1072.533697,888.247130,9770.718434
1804.786927,766.095498,740.205942,9548.656652
1804.787245,995.924147,814.226536,9622.677246
1804.787562,1149.143247,296.082377,9326.594869
1804.787879,1072.533697,74.020594,9474.636058
1804.788196,689.485948,592.164754,9474.636058
1804.788513,995.924147,814.226536,9252.574275
1804.788830,1225.752797,740.205942,9474.636058
1804.789147,1378.971896,370.102971,9400.615463
1804.789464,1225.752797,666.185348,9474.636058
1804.789781,1302.362347,518.144159,9400.615463
1804.790098,1302.362347,592.164754,9400.615463
1804.790415,1072.533697,518.144159,9252.574275
1804.790732,995.924147,592.164754,9474.636058
1804.791049,1072.533697,518.144159,9474.636058
1804.791367,766.095498,444.123565,9252.574275
1804.791684,612.876398,222.061783,9474.636058
1804.792001,536.266849,-0.000000,9400.615463
1804.792318,536.266849,-74.020594,9400.615463
1804.792635,383.047749,296.082377,9252.574275
1804.792952,229.828649,-0.000000,9474.636058
1804.793269,536.266849,-0.000000,9252.574275
1804.793586,459.657299,222.061783,9104.533087
1804.793903,383.047749,222.061783,9474.636058
1804.794220,459.657299,-0.000000,9030.512492
1804.794537,229.828649,-0.000000,9400.615463
1804.794854,459.657299,-0.000000,9400.615463
1804.795171,689.485948,-0.000000,9326.594869
1804.795489,459.657299,-0.000000,9326.594869
1804.795806,612.876398,-0.000000,9326.594869
1804.796123,612.876398,-0.000000,9400.615463
1804.796440,536.266849,-0.000000,9252.574275
1804.796757,612.876398,-148.041188,9178.553681
1804.797074,612.876398,-0.000000,8882.471304
1804.797391,689.485948,-0.000000,9178.553681
1804.797708,612.876398,222.061783,9326.594869
1804.798025,842.705048,148.041188,9252.574275
1804.798342,766.095498,-0.000000,9178.553681
1804.798659,689.485948,370.102971,9104.533087
1804.798976,689.485948,148.041188,9104.533087
1804.799293,689.485948,222.061783,9030.512492
1804.799611,766.095498,518.144159,9178.553681
1804.799928,842.705048,222.061783,9178.553681
1804.800245,766.095498,148.041188,9104.533087
1804.800562,459.657299,222.061783,9474.636058
1804.800879,689.485948,370.102971,9474.636058
1804.801196,1302.362347,370.102971,9474.636058
1804.801513,383.047749,296.082377,9474.636058
1804.801830,612.876398,296.082377,9474.636058
1804.802147,459.657299,370.102971,9474.636058
1804.802464,306.438199,370.102971,9548.656652
1804.802781,383.047749,-0.000000,9770.718434
1804.803098,612.876398,444.123565,9548.656652
1804.803415,76.609550,296.082377,9770.718434
1804.803733,459.657299,296.082377,9548.656652
1804.804050,919.314598,296.082377,9770.718434
1804.804367,383.047749,592.164754,9770.718434
1804.804684,459.657299,518.144159,9844.739029
1804.805001,383.047749,518.144159,9696.697840
1804.805318,536.266849,518.144159,9918.759623
1804.805635,536.266849,518.144159,9992.780217
1804.805952,459.657299,592.164754,9770.718434
1804.806269,229.828649,666.185348,9622.677246
1804.806586,689.485948,444.123565,9622.677246
1804.806903,459.657299,518.144159,9844.739029
1804.807220,995.924147,370.102971,9992.780217
1804.807537,842.705048,666.185348,9622.677246
1804.807855,995.924147,444.123565,9696.697840
1804.808172,1072.533697,888.247130,9622.677246
1804.808489,1072.533697,666.185348,9474.636058
1804.808806,842.705048,370.102971,9696.697840
1804.809123,919.314598,740.205942,9548.656652
1804.809440,919.314598,518.144159,9622.677246
1804.809757,689.485948,518.144159,9474.636058
1804.810074,689.485948,370.102971,9474.636058
1804.810391,383.047749,296.082377,9622.677246
1804.810708,383.047749,370.102971,9622.677246
1804.811025,536.266849,518.144159,9474.636058
1804.811342,459.657299,370.102971,9326.594869
1804.811659,229.828649,296.082377,9548.656652
1804.811977,306.438199,-0.000000,9474.636058
1804.812294,383.047749,-0.000000,9474.636058
1804.812611,153.219100,-0.000000,9326.594869
1804.812928,76.609550,222.061783,9548.656652
1804.813245,76.609550,-0.000000,9548.656652
1804.813562,0.000000,-296.082377,9178.553681
1804.813879,383.047749,-74.020594,9400.615463
1804.814196,459.657299,-0.000000,9252.574275
1804.814513,536.266849,-0.000000,9326.594869
1804.814830,842.705048,-222.061783,9104.533087
1804.815147,383.047749,-74.020594,9178.553681
1804.815464,459.657299,-0.000000,9400.615463
1804.815781,842.705048,-0.000000,9178.553681
1804.816099,919.314598,-0.000000,9252.574275
1804.816416,842.705048,-0.000000,9178.553681
1804.816733,1378.971896,-222.061783,9326.594869
1804.817050,766.095498,-148.041188,9104.533087
1804.817367,919.314598,74.020594,9104.533087
1804.817684,995.924147,-148.041188,8956.491898
1804.818001,1302.362347,-296.082377,9030.512492
1804.818318,995.924147,-0.000000,9030.512492
1804.818635,1149.143247,-0.000000,9104.533087
1804.818952,1225.752797,-0.000000,9178.553681
1804.819269,1149.143247,-0.000000,9178.553681
1804.819586,1455.581446,-0.000000,9104.533087
1804.819903,1608.800546,-0.000000,8956.491898
1804.820221,919.314598,-74.020594,9104.533087
1804.820538,1302.362347,-74.020594,9178.553681
1804.820855,1378.971896,-296.082377,8956.491898
1804.821172,1378.971896,-518.144159,9474.636058
1804.821489,1072.533697,-222.061783,9326.594869
1804.821806,1072.533697,-370.102971,9474.636058
1804.822123,842.705048,-148.041188,9400.615463
1804.822440,536.266849,-148.041188,9326.594869
1804.822757,995.924147,-222.061783,9474.636058
1804.823074,766.095498,-0.000000,9770.718434
1804.823391,459.657299,-444.123565,9474.636058
1804.823708,306.438199,-444.123565,9548.656652
1804.824025,612.876398,-74.020594,9548.656652
1804.824342,766.095498,-222.061783,9474.636058
1804.824660,612.876398,-222.061783,9770.718434
1804.824977,689.485948,-148.041188,9548.656652
1804.825294,459.657299,-0.000000,9696.697840
1804.825611,612.876398,-222.061783,9622.677246
1804.825928,1149.143247,-0.000000,9696.697840
1804.826245,842.705048,-0.000000,9696.697840
1804.826562,919.314598,-0.000000,9548.656652
1804.826879,1225.752797,148.041188,9474.636058
1804.827196,1225.752797,222.061783,9474.636058
1804.827513,1302.362347,-0.000000,9622.677246
1804.827830,1378.971896,370.102971,9474.636058
1804.828147,1225.752797,222.061783,9474.636058
1804.828464,1455.581446,370.102971,9474.636058
1804.828782,1378.971896,370.102971,9474.636058
1804.829099,1532.190996,-0.000000,9474.636058
1804.829416,1302.362347,296.082377,9474.636058
1804.829733,1302.362347,370.102971,9474.636058
1804.830050,1225.752797,222.061783,9474.636058
1804.830367,1455.581446,296.082377,9400.615463
1804.830684,1072.533697,222.061783,9400.615463
1804.831001,1072.533697,148.041188,9326.594869
1804.831318,919.314598,296.082377,9252.574275
1804.831635,1072.533697,444.123565,9474.636058
1804.831952,1225.752797,-0.000000,9400.615463
1804.832269,919.314598,-0.000000,9474.636058
1804.832586,689.485948,148.041188,9622.677246
1804.832904,536.266849,-0.000000,9474.636058
1804.833221,306.438199,-0.000000,9326.594869
1804.833538,459.657299,-0.000000,9474.636058
1804.833855,229.828649,222.061783,9326.594869
1804.834172,306.438199,-0.000000,9474.636058
1804.834489,306.438199,148.041188,9474.636058
1804.834806,459.657299,-0.000000,9770.718434
1804.835123,229.828649,148.041188,9474.636058
1804.835440,229.828649,148.041188,9252.574275
1804.835757,306.438199,222.061783,9400.615463
1804.836074,306.438199,148.041188,9326.594869
1804.836391,536.266849,-0.000000,9400.615463
1804.836708,459.657299,370.102971,9326.594869
1804.837026,459.657299,148.041188,9474.636058
1804.837343,459.657299,148.041188,9326.594869
1804.837660,536.266849,148.041188,9252.574275
1804.837977,459.657299,518.144159,9252.574275
1804.838294,612.876398,222.061783,9104.533087
1804.838611,842.705048,222.061783,9178.553681
1804.838928,766.095498,222.061783,9400.615463
1804.839246,842.705048,370.102971,9030.512492
1804.839563,766.095498,-0.000000,9178.553681
1804.839880,459.657299,296.082377,9252.574275
1804.840197,919.314598,296.082377,9252.574275
1804.840514,842.705048,148.041188,9178.553681
1804.840831,1225.752797,222.061783,9326.594869
1804.841148,919.314598,296.082377,9400.615463
1804.841466,1072.533697,148.041188,9400.615463
1804.841783,1225.752797,-0.000000,9474.636058
1804.842100,995.924147,296.082377,9548.656652
1804.842417,842.705048,-0.000000,9474.636058
1804.842734,995.924147,-0.000000,9400.615463
1804.843051,459.657299,-0.000000,9548.656652
1804.843368,766.095498,148.041188,9474.636058
1804.843686,766.095498,148.041188,9622.677246
1804.844003,919.314598,222.061783,9474.636058
1804.844320,612.876398,-0.000000,9548.656652
1804.844637,1149.143247,-0.000000,9622.677246
1804.844954,842.705048,148.041188,9622.677246
1804.845271,842.705048,-74.020594,9696.697840
1804.845588,689.485948,-0.000000,9622.677246
1804.845906,766.095498,148.041188,9474.636058
1804.846223,995.924147,-0.000000,9696.697840
1804.846540,612.876398,222.061783,9548.656652
1804.846857,919.314598,-74.020594,9696.697840
1804.847174,995.924147,222.061783,9548.656652
1804.847491,1225.752797,148.041188,9474.636058
1804.847808,1072.533697,370.102971,9474.636058
1804.848125,1225.752797,666.185348,9474.636058
1804.848443,1685.410096,-0.000000,9474.636058
1804.848760,1225.752797,222.061783,9474.636058
1804.849077,1072.533697,296.082377,9474.636058
1804.849394,1225.752797,296.082377,9400.615463
1804.849711,1302.362347,296.082377,9326.594869
1804.850028,1378.971896,222.061783,9474.636058
1804.850345,1072.533697,148.041188,9252.574275
1804.850663,1072.533697,222.061783,9474.636058
1804.850980,1149.143247,222.061783,9400.615463
1804.851297,995.924147,148.041188,9548.656652
1804.851614,1149.143247,370.102971,9104.533087
1804.851931,919.314598,370.102971,9326.594869
1804.852248,1149.143247,148.041188,9474.636058
1804.852565,766.095498,148.041188,9178.553681
1804.852883,1532.190996,296.082377,9400.615463
1804.853200,766.095498,296.082377,9474.636058
1804.853517,536.266849,74.020594,9400.615463
1804.853834,536.266849,222.061783,9400.615463
1804.854151,536.266849,74.020594,9400.615463
1804.854468,612.876398,370.102971,9252.574275
1804.854785,229.828649,-0.000000,9548.656652
1804.855103,306.438199,370.102971,9326.594869
1804.855420,689.485948,222.061783,9400.615463
1804.855737,612.876398,148.041188,9400.615463
1804.856054,612.876398,-0.000000,8956.491898
1804.856371,689.485948,222.061783,9178.553681
1804.856688,536.266849,444.123565,9252.574275
1804.857005,766.095498,296.082377,9474.636058
1804.857323,842.705048,666.185348,9178.553681
1804.857640,1072.533697,444.123565,9326.594869
1804.857957,766.095498,444.123565,9252.574275
1804.858274,1225.752797,444.123565,8882.471304
1804.858591,1072.533697,370.102971,9326.594869
1804.858908,919.314598,444.123565,9178.553681
1804.859225,1149.143247,222.061783,9104.533087
1804.859542,1149.143247,148.041188,9178.553681
1804.859860,1072.533697,370.102971,9178.553681
1804.860177,995.924147,370.102971,9252.574275
1804.860494,919.314598,518.144159,9474.636058
1804.860811,995.924147,148.041188,9030.512492
1804.861128,1302.362347,370.102971,9252.574275
1804.861445,766.095498,148.041188,9474.636058
1804.861762,919.314598,222.061783,9474.636058
1804.862080,689.485948,222.061783,9474.636058
1804.862397,383.047749,296.082377,9918.759623
1804.862714,612.876398,222.061783,9474.636058
1804.863031,612.876398,296.082377,9474.636058
1804.863348,459.657299,296.082377,9474.636058
1804.863665,919.314598,296.082377,9622.677246
1804.863982,766.095498,-0.000000,9178.553681
1804.864300,612.876398,-0.000000,9474.636058
1804.864617,383.047749,74.020594,9548.656652
1804.864934,229.828649,222.061783,9696.697840
1804.865251,229.828649,296.082377,9474.636058
1804.865568,306.438199,370.102971,9696.697840
1804.865885,383.047749,296.082377,9548.656652
1804.866202,306.438199,592.164754,9548.656652
1804.866520,459.657299,370.102971,9474.636058
1804.866837,459.657299,370.102971,9474.636058
1804.867154,1072.533697,518.144159,9770.718434
1804.867471,766.095498,222.061783,9474.636058
1804.867788,842.705048,518.144159,9548.656652
1804.868105,689.485948,518.144159,9548.656652
1804.868422,995.924147,518.144159,9474.636058
1804.868740,919.314598,666.185348,9474.636058
1804.869057,995.924147,592.164754,9400.615463
1804.869374,919.314598,518.144159,9326.594869
1804.869691,995.924147,814.226536,9400.615463
1804.870008,1225.752797,148.041188,9104.533087
1804.870325,919.314598,444.123565,9474.636058
1804.870642,689.485948,148.041188,9400.615463
1804.870960,842.705048,296.082377,9326.594869
1804.871277,766.095498,222.061783,9474.636058
1804.871594,383.047749,-0.000000,9474.636058
1804.871911,689.485948,222.061783,9474.636058
1804.872228,536.266849,370.102971,9474.636058
1804.872545,383.047749,296.082377,9474.636058
1804.872862,306.438199,148.041188,9548.656652
1804.873179,766.095498,148.041188,9548.656652
1804.873497,536.266849,-0.000000,9696.697840
1804.873814,536.266849,222.061783,9622.677246
1804.874131,536.266849,296.082377,9474.636058
1804.874448,306.438199,518.144159,9474.636058
1804.874765,383.047749,-0.000000,9400.615463
1804.875082,536.266849,296.082377,9622.677246
1804.875399,229.828649,-0.000000,9474.636058
1804.875717,229.828649,-0.000000,9474.636058
1804.876034,383.047749,518.144159,9474.636058
1804.876351,536.266849,222.061783,9474.636058
1804.876668,459.657299,370.102971,9474.636058
1804.876985,459.657299,296.082377,9326.594869
1804.877302,612.876398,444.123565,9400.615463
1804.877619,612.876398,444.123565,9474.636058
1804.877937,842.705048,518.144159,9326.594869
1804.878254,766.095498,592.164754,9178.553681
1804.878571,842.705048,444.123565,9030.512492
1804.878888,919.314598,444.123565,9104.533087
1804.879205,1378.971896,518.144159,9474.636058
1804.879522,842.705048,518.144159,9474.636058
1804.879839,995.924147,666.185348,8882.471304
1804.880157,919.314598,518.144159,9178.553681
1804.880474,459.657299,148.041188,9326.594869
1804.880791,766.095498,518.144159,9326.594869
1804.881108,689.485948,370.102971,9326.594869
1804.881425,612.876398,148.041188,9400.615463
1804.881742,689.485948,370.102971,9474.636058
1804.882059,306.438199,148.041188,9252.574275
1804.882377,612.876398,222.061783,9474.636058
1804.882694,536.266849,222.061783,9400.615463
1804.883011,383.047749,148.041188,9548.656652
1804.883328,842.705048,-0.000000,9474.636058
1804.883645,689.485948,-0.000000,9548.656652
1804.883962,383.047749,296.082377,9696.697840
1804.884279,612.876398,296.082377,9474.636058
1804.884596,689.485948,148.041188,9474.636058
1804.884914,766.095498,296.082377,9474.636058
1804.885231,766.095498,370.102971,9474.636058
1804.885548,842.705048,444.123565,9474.636058
1804.885865,842.705048,296.082377,9474.636058
1804.886182,766.095498,296.082377,9474.636058
1804.886499,1302.362347,-0.000000,9474.636058
1804.886816,919.314598,518.144159,9474.636058
1804.887134,766.095498,222.061783,9622.677246
1804.887451,842.705048,296.082377,9548.656652
1804.887768,842.705048,296.082377,9474.636058
1804.888085,689.485948,518.144159,9548.656652
1804.888402,919.314598,370.102971,9474.636058
1804.888719,1072.533697,518.144159,9474.636058
1804.889036,995.924147,444.123565,9474.636058
1804.889354,1225.752797,296.082377,9252.574275
1804.889671,995.924147,-0.000000,9252.574275
1804.889988,766.095498,74.020594,9400.615463
1804.890305,919.314598,148.041188,9400.615463
1804.890622,842.705048,-0.000000,9400.615463
1804.890939,919.314598,-0.000000,9474.636058
1804.891256,612.876398,296.082377,9326.594869
1804.891574,689.485948,-74.020594,9474.636058
1804.891891,536.266849,-74.020594,9474.636058
1804.892208,536.266849,-74.020594,9400.615463
1804.892525,153.219100,-0.000000,9622.677246
1804.892842,459.657299,-296.082377,9474.636058
1804.893159,153.219100,-74.020594,9474.636058
1804.893476,383.047749,-0.000000,9474.636058
1804.893794,383.047749,-0.000000,9474.636058
1804.894111,0.000000,74.020594,9918.759623
1804.894428,459.657299,-74.020594,9474.636058
1804.894745,383.047749,-0.000000,9474.636058
1804.895062,153.219100,-0.000000,9474.636058
1804.895379,383.047749,-74.020594,9400.615463
1804.895696,459.657299,-148.041188,9474.636058
1804.896013,306.438199,-74.020594,9178.553681
1804.896331,459.657299,-0.000000,9548.656652
1804.896648,612.876398,-0.000000,9474.636058
1804.896965,689.485948,-0.000000,9474.636058
1804.897282,842.705048,148.041188,9474.636058
1804.897599,842.705048,148.041188,9326.594869
1804.897916,1072.533697,-0.000000,9252.574275
1804.898233,1072.533697,370.102971,9326.594869
1804.898551,1149.143247,296.082377,9104.533087
1804.898868,995.924147,-0.000000,9104.533087
1804.899185,1225.752797,296.082377,9400.615463
1804.899502,1225.752797,-0.000000,9104.533087
1804.899819,1149.143247,222.061783,9252.574275
1804.900136,1608.800546,-148.041188,9474.636058
1804.900453,1072.533697,-0.000000,9252.574275
1804.900771,1149.143247,222.061783,9326.594869
1804.901088,995.924147,-0.000000,9104.533087
1804.901405,842.705048,-0.000000,9104.533087
1804.901722,919.314598,-0.000000,9252.574275
1804.902039,766.095498,74.020594,9178.553681
1804.902356,689.485948,296.082377,9474.636058
1804.902673,383.047749,-0.000000,9326.594869
1804.902991,306.438199,-0.000000,9474.636058
1804.903308,153.219100,-74.020594,9474.636058
1804.903625,306.438199,-0.000000,9548.656652
1804.903942,229.828649,-0.000000,9622.677246
1804.904259,76.609550,222.061783,9622.677246
1804.904576,459.657299,148.041188,9622.677246
1804.904893,229.828649,444.123565,9548.656652
1804.905211,0.000000,370.102971,9696.697840
1804.905528,229.828649,370.102971,9474.636058
1804.905845,229.828649,444.123565,9622.677246
1804.906162,306.438199,222.061783,9622.677246
1804.906479,459.657299,222.061783,9696.697840
1804.906796,459.657299,296.082377,9548.656652
1804.907113,536.266849,518.144159,9474.636058
1804.907430,689.485948,518.144159,9548.656652
1804.907748,612.876398,444.123565,9696.697840
1804.908065,536.266849,370.102971,9548.656652
1804.908382,995.924147,740.205942,9326.594869
1804.908699,1149.143247,518.144159,9474.636058
1804.909016,995.924147,666.185348,9696.697840
1804.909333,1149.143247,74.020594,9548.656652
1804.909650,1455.581446,370.102971,9474.636058
1804.909968,1378.971896,592.164754,9474.636058
1804.910285,1378.971896,444.123565,9474.636058
1804.910602,1762.019645,518.144159,9548.656652
1804.910919,1532.190996,370.102971,9326.594869
1804.911236,1608.800546,518.144159,9326.594869
1804.911553,1455.581446,222.061783,9252.574275
1804.911870,1225.752797,444.123565,9474.636058
1804.912188,1532.190996,-0.000000,9474.636058
1804.912505,1072.533697,-0.000000,9474.636058
1804.912822,1149.143247,-0.000000,9474.636058
1804.913139,995.924147,-0.000000,9474.636058
1804.913456,919.314598,-74.020594,9548.656652
1804.913773,919.314598,-370.102971,9696.697840
1804.914090,689.485948,-370.102971,9326.594869
1804.914408,689.485948,-0.000000,9696.697840
1804.914725,995.924147,-148.041188,9474.636058
1804.915042,76.609550,-222.061783,9474.636058
1804.915359,766.095498,-0.000000,9474.636058
1804.915676,536.266849,-148.041188,9548.656652
1804.915993,459.657299,-74.020594,9622.677246
1804.916310,536.266849,-74.020594,9474.636058
1804.916628,689.485948,-222.061783,9548.656652
1804.916945,919.314598,-148.041188,9252.574275
1804.917262,919.314598,-74.020594,9400.615463
1804.917579,919.314598,-74.020594,9252.574275
1804.917896,1072.533697,-222.061783,9326.594869
1804.918213,1149.143247,-0.000000,9104.533087
1804.918530,919.314598,-74.020594,9400.615463
1804.918848,1302.362347,-0.000000,9252.574275
1804.919165,1302.362347,-0.000000,9178.553681
1804.919482,1149.143247,-0.000000,9252.574275
1804.919799,1378.971896,-0.000000,9178.553681
1804.920116,1072.533697,-0.000000,9104.533087
1804.920433,1149.143247,-0.000000,9104.533087
1804.920750,1378.971896,-0.000000,9104.533087
1804.921067,766.095498,-74.020594,9178.553681
1804.921385,1225.752797,-74.020594,9104.533087
1804.921702,1302.362347,-0.000000,9326.594869
1804.922019,919.314598,-222.061783,8808.450710
1804.922336,612.876398,-0.000000,9252.574275
1804.922653,919.314598,-0.000000,9326.594869
1804.922970,689.485948,296.082377,9252.574275
1804.923287,536.266849,-0.000000,9474.636058
1804.923605,536.266849,-0.000000,9252.574275
1804.923922,612.876398,-0.000000,9252.574275
1804.924239,459.657299,-0.000000,9400.615463
1804.924556,995.924147,-444.123565,9104.533087
1804.924873,536.266849,296.082377,9548.656652
1804.925190,689.485948,-0.000000,9178.553681
1804.925507,383.047749,-0.000000,9474.636058
1804.925825,536.266849,-0.000000,9400.615463
1804.926142,459.657299,-0.000000,9622.677246
1804.926459,766.095498,296.082377,9474.636058
1804.926776,689.485948,296.082377,9474.636058
1804.927093,536.266849,518.144159,9474.636058
1804.927410,689.485948,592.164754,9474.636058
1804.927727,919.314598,-0.000000,9474.636058
1804.928045,1149.143247,444.123565,9548.656652
1804.928362,919.314598,518.144159,9400.615463
1804.928679,995.924147,518.144159,9400.615463
1804.928996,1072.533697,740.205942,9474.636058
1804.929313,1532.190996,592.164754,9326.594869
1804.929630,1149.143247,740.205942,9474.636058
1804.929947,1302.362347,740.205942,9474.636058
1804.930265,1149.143247,666.185348,9474.636058
1804.930582,1149.143247,666.185348,9770.718434
1804.930899,842.705048,148.041188,9252.574275
1804.931216,995.924147,518.144159,9770.718434
1804.931533,842.705048,518.144159,9548.656652
1804.931850,612.876398,370.102971,9696.697840
1804.932167,842.705048,592.164754,9474.636058
1804.932484,766.095498,370.102971,9770.718434
1804.932802,766.095498,370.102971,9474.636058
1804.933119,766.095498,518.144159,9548.656652
1804.933436,536.266849,518.144159,9622.677246
1804.933753,306.438199,370.102971,9696.697840
1804.934070,842.705048,-0.000000,9548.656652
1804.934387,459.657299,296.082377,9844.739029
1804.934704,229.828649,296.082377,9622.677246
1804.935022,459.657299,296.082377,9622.677246
1804.935339,0.000000,296.082377,9696.697840
1804.935656,689.485948,370.102971,9474.636058
1804.935973,536.266849,444.123565,9474.636058
1804.936290,536.266849,296.082377,9474.636058
1804.936607,153.219100,296.082377,9474.636058
1804.936924,306.438199,444.123565,9474.636058
1804.937242,76.609550,-0.000000,9548.656652
1804.937559,842.705048,296.082377,9326.594869
1804.937876,459.657299,370.102971,9474.636058
1804.938193,689.485948,370.102971,9252.574275
1804.938510,536.266849,-0.000000,9400.615463
1804.938828,689.485948,444.123565,9400.615463
1804.939145,842.705048,444.123565,9178.553681
1804.939462,995.924147,370.102971,9178.553681
1804.939779,995.924147,296.082377,9104.533087
1804.940097,229.828649,370.102971,9178.553681
1804.940414,1225.752797,518.144159,9178.553681
1804.940731,842.705048,148.041188,9252.574275
1804.941049,919.314598,148.041188,9178.553681
1804.941366,842.705048,444.123565,9252.574275
1804.941683,919.314598,444.123565,9400.615463
1804.942001,612.876398,296.082377,9252.574275
1804.942318,612.876398,222.061783,9178.553681
1804.942635,689.485948,296.082377,9326.594869
1804.942953,536.266849,-0.000000,9326.594869
1804.943270,612.876398,-0.000000,9400.615463
1804.943587,383.047749,222.061783,9400.615463
1804.943905,612.876398,148.041188,9400.615463
1804.944222,306.438199,-0.000000,9400.615463
1804.944539,459.657299,148.041188,9622.677246
1804.944856,306.438199,-0.000000,9474.636058
1804.945174,153.219100,296.082377,9474.636058
1804.945491,383.047749,-0.000000,9474.636058
1804.945808,76.609550,222.061783,9548.656652
1804.946126,306.438199,-0.000000,9400.615463
1804.946443,612.876398,148.041188,9548.656652
1804.946760,689.485948,370.102971,9474.636058
1804.947078,612.876398,148.041188,9696.697840
1804.947395,383.047749,296.082377,9474.636058
1804.947712,536.266849,-296.082377,9696.697840
1804.948030,689.485948,370.102971,9696.697840
1804.948347,842.705048,296.082377,9622.677246
1804.948664,842.705048,296.082377,9548.656652
1804.948982,995.924147,148.041188,9474.636058
1804.949299,1762.019645,148.041188,9474.636058
1804.949616,1072.533697,370.102971,9400.615463
1804.949934,1149.143247,370.102971,9474.636058
1804.950251,1072.533697,296.082377,9548.656652
1804.950568,1302.362347,-0.000000,9326.594869
1804.950885,995.924147,-0.000000,9474.636058
1804.951203,995.924147,222.061783,9400.615463
1804.951520,1149.143247,296.082377,9474.636058
1804.951837,1149.143247,296.082377,9400.615463
1804.952155,995.924147,370.102971,9474.636058
1804.952472,689.485948,-0.000000,9474.636058
1804.952789,1149.143247,222.061783,9548.656652
1804.953107,536.266849,-0.000000,9548.656652
1804.953424,689.485948,-0.000000,9474.636058
1804.953741,536.266849,-74.020594,9326.594869
1804.954059,689.485948,148.041188,9474.636058
1804.954376,766.095498,296.082377,9474.636058
1804.954693,842.705048,222.061783,9474.636058
1804.955011,612.876398,296.082377,9474.636058
1804.955328,383.047749,-0.000000,9400.615463
1804.955645,459.657299,-0.000000,9326.594869
1804.955963,383.047749,-0.000000,9178.553681
1804.956280,612.876398,-0.000000,9548.656652
1804.956597,383.047749,-0.000000,9400.615463
1804.956914,229.828649,222.061783,9326.594869
1804.957232,612.876398,296.082377,9252.574275
1804.957549,306.438199,444.123565,9104.533087
1804.957866,459.657299,296.082377,9326.594869
1804.958184,612.876398,296.082377,9178.553681
1804.958501,459.657299,296.082377,9252.574275
1804.958818,612.876398,518.144159,9178.553681
1804.959136,612.876398,370.102971,9326.594869
1804.959453,536.266849,296.082377,9104.533087
1804.959770,0.000000,222.061783,9104.533087
1804.960088,612.876398,370.102971,9104.533087
1804.960405,612.876398,518.144159,9178.553681
1804.960722,459.657299,444.123565,8956.491898
1804.961040,459.657299,222.061783,9030.512492
1804.961357,536.266849,296.082377,9474.636058
1804.961674,459.657299,296.082377,9252.574275
1804.961991,766.095498,-0.000000,9178.553681
1804.962309,689.485948,518.144159,9474.636058
1804.962626,766.095498,148.041188,9326.594869
1804.962943,536.266849,148.041188,9474.636058
1804.963261,536.266849,222.061783,9326.594869
1804.963578,459.657299,296.082377,9474.636058
1804.963895,229.828649,296.082377,9622.677246
1804.964213,612.876398,-148.041188,9770.718434
1804.964530,306.438199,148.041188,9548.656652
1804.964847,383.047749,-0.000000,9548.656652
1804.965165,536.266849,296.082377,9548.656652
1804.965482,842.705048,148.041188,9622.677246
1804.965799,76.609550,222.061783,9770.718434
1804.966117,842.705048,518.144159,9622.677246
1804.966434,612.876398,148.041188,9474.636058
1804.966751,383.047749,296.082377,9548.656652
1804.967069,612.876398,296.082377,9696.697840
1804.967386,306.438199,-0.000000,9918.759623
1804.967703,919.314598,444.123565,9622.677246
1804.968020,919.314598,296.082377,9770.718434
1804.968338,919.314598,222.061783,9548.656652
1804.968655,995.924147,444.123565,9770.718434
1804.968972,1532.190996,666.185348,9770.718434
1804.969290,995.924147,592.164754,9548.656652
1804.969607,1225.752797,222.061783,9548.656652
1804.969924,1225.752797,222.061783,9696.697840
1804.970242,1378.971896,370.102971,9548.656652
1804.970559,1225.752797,-0.000000,9844.739029
1804.970876,1149.143247,296.082377,9474.636058
1804.971194,1072.533697,222.061783,9548.656652
1804.971511,1072.533697,148.041188,9474.636058
1804.971828,842.705048,148.041188,9474.636058
1804.972146,1072.533697,592.164754,10066.800811
1804.972463,1302.362347,148.041188,9474.636058
1804.972780,689.485948,-148.041188,9474.636058
1804.973098,689.485948,-0.000000,9474.636058
1804.973415,766.095498,-0.000000,9474.636058
1804.973732,383.047749,-444.123565,9622.677246
1804.974049,536.266849,-0.000000,9474.636058
1804.974367,459.657299,-0.000000,9474.636058
1804.974684,459.657299,-222.061783,9474.636058
1804.975001,689.485948,-74.020594,9474.636058
1804.975319,306.438199,-592.164754,9474.636058
1804.975636,459.657299,-296.082377,9474.636058
1804.975953,383.047749,-222.061783,9548.656652
1804.976271,306.438199,-222.061783,9326.594869
1804.976588,536.266849,-0.000000,9474.636058
1804.976905,612.876398,-0.000000,9474.636058
1804.977223,689.485948,-74.020594,9400.615463
1804.977540,612.876398,-74.020594,9178.553681
1804.977857,612.876398,-74.020594,9178.553681
1804.978175,459.657299,-0.000000,9104.533087
1804.978492,766.095498,222.061783,9474.636058
1804.978809,1225.752797,148.041188,9178.553681
1804.979127,842.705048,-74.020594,9178.553681
1804.979444,842.705048,-0.000000,9400.615463
1804.979761,842.705048,-0.000000,9178.553681
1804.980078,1149.143247,296.082377,9104.533087
1804.980396,1072.533697,-0.000000,9030.512492
1804.980713,842.705048,222.061783,9178.553681
1804.981030,995.924147,222.061783,9178.553681
1804.981348,995.924147,148.041188,9178.553681
1804.981665,919.314598,-74.020594,9326.594869
1804.981982,919.314598,-0.000000,9400.615463
1804.982300,1149.143247,-0.000000,9252.574275
1804.982617,995.924147,-0.000000,9252.574275
1804.982934,766.095498,-0.000000,9252.574275
1804.983252,689.485948,-0.000000,9400.615463
1804.983569,689.485948,-0.000000,9400.615463
1804.983886,536.266849,-74.020594,9252.574275
1804.984204,536.266849,-0.000000,9252.574275
1804.984521,536.266849,148.041188,9474.636058
1804.984838,229.828649,-0.000000,9326.594869
1804.985155,842.705048,222.061783,9326.594869
1804.985473,612.876398,-0.000000,9622.677246
1804.985790,459.657299,148.041188,9326.594869
1804.986107,919.314598,370.102971,9474.636058
1804.986425,536.266849,148.041188,9696.697840
1804.986742,459.657299,444.123565,9548.656652
1804.987059,612.876398,296.082377,9622.677246
1804.987377,689.485948,296.082377,9548.656652
1804.987694,995.924147,444.123565,9474.636058
1804.988011,842.705048,444.123565,9400.615463
1804.988329,766.095498,518.144159,9252.574275
1804.988646,919.314598,592.164754,9622.677246
1804.988963,995.924147,444.123565,9474.636058
1804.989281,1225.752797,518.144159,9548.656652
1804.989598,1072.533697,518.144159,9474.636058
1804.989915,1149.143247,592.164754,9474.636058
1804.990233,1225.752797,518.144159,9474.636058
1804.990550,1455.581446,518.144159,9622.677246
1804.990867,1608.800546,444.123565,9474.636058
1804.991184,1378.971896,592.164754,9178.553681
1804.991502,995.924147,222.061783,9178.553681
1804.991819,995.924147,444.123565,9622.677246
1804.992136,1225.752797,370.102971,9474.636058
1804.992454,766.095498,-0.000000,9918.759623
1804.992771,842.705048,-0.000000,9548.656652
1804.993088,766.095498,148.041188,9548.656652
1804.993406,459.657299,-0.000000,9548.656652
1804.993723,1302.362347,74.020594,9622.677246
1804.994040,995.924147,-74.020594,9474.636058
1804.994358,229.828649,74.020594,9474.636058
1804.994675,459.657299,148.041188,9548.656652
1804.994992,612.876398,-0.000000,9474.636058
1804.995310,306.438199,-0.000000,9474.636058
1804.995627,689.485948,-148.041188,9770.718434
1804.995944,766.095498,-0.000000,9548.656652
1804.996262,689.485948,-0.000000,9400.615463
1804.996579,689.485948,222.061783,9622.677246
1804.996896,842.705048,-0.000000,9400.615463
1804.997213,689.485948,-0.000000,9622.677246
1804.997531,536.266849,-148.041188,9474.636058
1804.997848,919.314598,148.041188,9400.615463
1804.998165,919.314598,-0.000000,9252.574275
1804.998483,1302.362347,-74.020594,9252.574275
1804.998800,919.314598,-0.000000,9252.574275
1804.999117,766.095498,222.061783,9400.615463
1804.999435,995.924147,-0.000000,9252.574275
1804.999752,1072.533697,-0.000000,9326.594869
1805.000069,536.266849,-74.020594,9400.615463
1805.000387,995.924147,-0.000000,8882.471304
1805.000704,995.924147,222.061783,9178.553681
1805.001021,1378.971896,222.061783,9104.533087
1805.001339,1225.752797,-0.000000,9104.533087
1805.001656,1378.971896,-0.000000,8882.471304
1805.001973,842.705048,-0.000000,9030.512492
1805.002290,842.705048,-74.020594,9252.574275
1805.002608,842.705048,-0.000000,9030.512492
1805.002925,689.485948,-222.061783,9104.533087
1805.003242,689.485948,-0.000000,9474.636058
1805.003560,612.876398,-0.000000,9326.594869
1805.003877,612.876398,-0.000000,9104.533087
1805.004194,689.485948,-222.061783,9178.553681
1805.004512,0.000000,-0.000000,9326.594869
1805.004829,383.047749,148.041188,9252.574275
1805.005146,383.047749,-0.000000,9474.636058
1805.005464,229.828649,-0.000000,9474.636058
1805.005781,459.657299,-0.000000,9548.656652
1805.006098,383.047749,-74.020594,9474.636058
1805.006416,842.705048,296.082377,9474.636058
1805.006733,689.485948,370.102971,9474.636058
1805.007050,689.485948,370.102971,9474.636058
1805.007368,383.047749,518.144159,9326.594869
1805.007685,766.095498,-0.000000,9548.656652
1805.008002,689.485948,592.164754,9474.636058
1805.008319,689.485948,518.144159,9474.636058
1805.008637,689.485948,444.123565,9474.636058
1805.008954,1302.362347,444.123565,9400.615463
1805.009271,689.485948,222.061783,9474.636058
1805.009589,1149.143247,740.205942,9474.636058
1805.009906,689.485948,592.164754,9474.636058
1805.010223,1455.581446,666.185348,9474.636058
1805.010541,919.314598,740.205942,9474.636058
1805.010858,1149.143247,592.164754,9400.615463
1805.011175,1072.533697,740.205942,9474.636058
1805.011493,919.314598,740.205942,9696.697840
1805.011810,1225.752797,666.185348,9474.636058
1805.012127,995.924147,444.123565,9696.697840
1805.012445,995.924147,592.164754,9622.677246
1805.012762,842.705048,888.247130,9696.697840
1805.013079,842.705048,296.082377,9474.636058
1805.013397,995.924147,222.061783,9548.656652
1805.013714,766.095498,296.082377,9474.636058
1805.014031,842.705048,296.082377,9548.656652
1805.014348,766.095498,296.082377,9548.656652
1805.014666,766.095498,444.123565,9770.718434
1805.014983,766.095498,74.020594,9770.718434
1805.015300,383.047749,222.061783,9770.718434
1805.015618,306.438199,222.061783,9622.677246
1805.015935,383.047749,444.123565,9844.739029
1805.016252,612.876398,296.082377,9844.739029
1805.016570,766.095498,-0.000000,9622.677246
1805.016887,995.924147,-0.000000,9474.636058
1805.017204,536.266849,222.061783,9474.636058
1805.017522,689.485948,222.061783,9474.636058
1805.017839,612.876398,370.102971,9474.636058
1805.018156,766.095498,296.082377,9474.636058
1805.018474,919.314598,222.061783,9474.636058
1805.018791,842.705048,370.102971,9474.636058
1805.019108,919.314598,296.082377,9252.574275
1805.019425,995.924147,74.020594,9474.636058
1805.019743,1225.752797,296.082377,9474.636058
1805.020060,919.314598,222.061783,9474.636058
1805.020377,1302.362347,370.102971,9178.553681
1805.020695,1302.362347,370.102971,9178.553681
1805.021012,1149.143247,296.082377,9030.512492
1805.021329,1225.752797,222.061783,9030.512492
1805.021647,995.924147,296.082377,9104.533087
1805.021964,1072.533697,-0.000000,8882.471304
1805.022281,1072.533697,148.041188,9104.533087
1805.022599,1302.362347,-0.000000,9400.615463
1805.022916,995.924147,-0.000000,9178.553681
1805.023233,1149.143247,-0.000000,9178.553681
1805.023551,612.876398,-148.041188,9104.533087
1805.023868,842.705048,-148.041188,9326.594869
1805.024185,459.657299,-0.000000,9400.615463
1805.024503,229.828649,-148.041188,9622.677246
1805.024820,383.047749,-222.061783,9400.615463
1805.025137,459.657299,-148.041188,9252.574275
1805.025454,229.828649,-0.000000,9474.636058
1805.025772,383.047749,148.041188,9400.615463
1805.026089,153.219100,-0.000000,9474.636058
1805.026406,459.657299,-0.000000,9622.677246
1805.026724,383.047749,296.082377,9474.636058
1805.027041,383.047749,-0.000000,9474.636058
1805.027358,536.266849,222.061783,9548.656652
1805.027676,459.657299,148.041188,9252.574275
1805.027993,536.266849,296.082377,9474.636058
1805.028310,766.095498,296.082377,9474.636058
1805.028628,766.095498,296.082377,9474.636058
1805.028945,612.876398,296.082377,9474.636058
1805.029262,919.314598,148.041188,9178.553681
1805.029580,1149.143247,444.123565,9252.574275
1805.029897,842.705048,296.082377,9474.636058
1805.030214,842.705048,444.123565,9474.636058
1805.030532,1072.533697,444.123565,9474.636058
1805.030849,919.314598,444.123565,9474.636058
1805.031166,689.485948,370.102971,9400.615463
1805.031483,1072.533697,370.102971,9474.636058
1805.031801,689.485948,296.082377,9474.636058
1805.032118,995.924147,518.144159,9474.636058
1805.032435,689.485948,222.061783,9548.656652
1805.032753,612.876398,518.144159,9474.636058
1805.033070,612.876398,444.123565,9696.697840
1805.033387,766.095498,444.123565,9548.656652
1805.033705,459.657299,370.102971,9770.718434
1805.034022,306.438199,222.061783,9696.697840
1805.034339,229.828649,222.061783,9474.636058
1805.034657,459.657299,296.082377,9696.697840
1805.034974,383.047749,296.082377,9474.636058
1805.035291,306.438199,370.102971,9918.759623
1805.035609,536.266849,370.102971,9548.656652
1805.035926,153.219100,222.061783,9696.697840
1805.036243,229.828649,296.082377,9622.677246
1805.036561,306.438199,370.102971,9548.656652
1805.036878,612.876398,-0.000000,9918.759623
1805.037195,459.657299,370.102971,9548.656652
1805.037513,306.438199,444.123565,9474.636058
1805.037830,459.657299,296.082377,9474.636058
1805.038147,612.876398,444.123565,9400.615463
1805.038465,766.095498,148.041188,9548.656652
1805.038782,612.876398,740.205942,9400.615463
1805.039100,612.876398,444.123565,9326.594869
1805.039417,689.485948,518.144159,9326.594869
1805.039734,842.705048,444.123565,9252.574275
1805.040052,612.876398,518.144159,9474.636058
1805.040369,1225.752797,592.164754,9400.615463
1805.040687,919.314598,370.102971,9326.594869
1805.041004,766.095498,592.164754,9104.533087
1805.041321,1608.800546,370.102971,9252.574275
1805.041639,766.095498,148.041188,9400.615463
1805.041956,1149.143247,370.102971,9252.574275
1805.042273,1378.971896,592.164754,9030.512492
1805.042591,1072.533697,148.041188,9400.615463
1805.042908,1149.143247,370.102971,9326.594869
1805.043226,842.705048,-0.000000,9326.594869
1805.043543,842.705048,-0.000000,9400.615463
1805.043860,612.876398,148.041188,9474.636058
1805.044178,612.876398,296.082377,9474.636058
1805.044495,689.485948,-74.020594,9474.636058
1805.044813,306.438199,-74.020594,9474.636058
1805.045130,536.266849,-74.020594,9400.615463
1805.045447,612.876398,-148.041188,9474.636058
1805.045765,306.438199,-74.020594,9548.656652
1805.046082,459.657299,-0.000000,9696.697840
1805.046400,459.657299,-74.020594,9474.636058
1805.046717,536.266849,-0.000000,9474.636058
1805.047034,459.657299,-0.000000,9474.636058
1805.047352,995.924147,-148.041188,9400.615463
1805.047669,1149.143247,-0.000000,9400.615463
1805.047986,995.924147,-0.000000,9548.656652
1805.048304,689.485948,-0.000000,9400.615463
1805.048621,1072.533697,-0.000000,9474.636058
1805.048939,995.924147,-0.000000,9474.636058
1805.049256,995.924147,148.041188,9474.636058
1805.049573,919.314598,296.082377,9326.594869
1805.049891,1072.533697,-0.000000,9178.553681
1805.050208,1072.533697,222.061783,9474.636058
1805.050526,1072.533697,148.041188,9474.636058
1805.050843,1455.581446,296.082377,9548.656652
1805.051160,1225.752797,-0.000000,9400.615463
1805.051478,1072.533697,222.061783,9252.574275
1805.051795,1302.362347,-0.000000,9178.553681
1805.052112,1302.362347,148.041188,9474.636058
1805.052430,1149.143247,296.082377,9400.615463
1805.052747,1072.533697,-0.000000,9252.574275
1805.053065,1149.143247,222.061783,9326.594869
1805.053382,919.314598,370.102971,9474.636058
1805.053699,919.314598,-0.000000,9622.677246
1805.054017,689.485948,-0.000000,9400.615463
1805.054334,459.657299,-0.000000,9474.636058
1805.054652,995.924147,148.041188,9474.636058
1805.054969,612.876398,-0.000000,9474.636058
1805.055286,995.924147,-148.041188,9622.677246
1805.055604,612.876398,-148.041188,9548.656652
1805.055921,306.438199,-0.000000,9474.636058
1805.056239,459.657299,-148.041188,9474.636058
1805.056556,383.047749,-0.000000,9400.615463
1805.056873,536.266849,-0.000000,9326.594869
1805.057191,306.438199,-0.000000,9474.636058
1805.057508,919.314598,-0.000000,9326.594869
1805.057825,383.047749,222.061783,9474.636058
1805.058143,536.266849,-0.000000,9474.636058
1805.058460,459.657299,-0.000000,9474.636058
1805.058778,536.266849,-0.000000,9400.615463
1805.059095,536.266849,148.041188,9326.594869
1805.059412,536.266849,370.102971,9252.574275
1805.059730,919.314598,592.164754,9400.615463
1805.060047,689.485948,592.164754,9252.574275
1805.060365,1072.533697,444.123565,9326.594869
1805.060682,689.485948,222.061783,9400.615463
1805.060999,766.095498,296.082377,9178.553681
1805.061317,995.924147,-0.000000,9326.594869
1805.061634,766.095498,370.102971,9252.574275
1805.061952,689.485948,296.082377,9252.574275
1805.062269,1072.533697,518.144159,9252.574275
1805.062586,842.705048,370.102971,9030.512492
1805.062904,766.095498,370.102971,9178.553681
1805.063221,536.266849,296.082377,9326.594869
1805.063538,919.314598,518.144159,9474.636058
1805.063856,536.266849,222.061783,9474.636058
1805.064173,766.095498,-0.000000,9474.636058
1805.064491,536.266849,222.061783,9474.636058
1805.064808,612.876398,296.082377,9400.615463
1805.065125,383.047749,148.041188,9400.615463
1805.065443,612.876398,-0.000000,9400.615463
1805.065760,306.438199,222.061783,9474.636058
1805.066078,383.047749,296.082377,9474.636058
1805.066395,612.876398,296.082377,9696.697840
1805.066712,459.657299,370.102971,9548.656652
1805.067030,459.657299,222.061783,9474.636058
1805.067347,383.047749,444.123565,9548.656652
1805.067664,612.876398,592.164754,9548.656652
1805.067982,612.876398,444.123565,9696.697840
1805.068299,766.095498,740.205942,9622.677246
1805.068617,919.314598,740.205942,9548.656652
1805.068934,919.314598,444.123565,9474.636058
1805.069251,766.095498,518.144159,9474.636058
1805.069569,842.705048,444.123565,9474.636058
1805.069886,1149.143247,592.164754,9474.636058
1805.070204,1149.143247,518.144159,9696.697840
1805.070521,1302.362347,666.185348,9770.718434
1805.070838,1149.143247,592.164754,9400.615463
1805.071156,1225.752797,370.102971,9474.636058
1805.071473,1302.362347,370.102971,9326.594869
1805.071791,1225.752797,-0.000000,9400.615463
1805.072108,1455.581446,-0.000000,9326.594869
1805.072425,1608.800546,370.102971,9474.636058
1805.072743,1532.190996,296.082377,9400.615463
1805.073060,995.924147,-0.000000,9474.636058
1805.073377,1378.971896,-0.000000,9252.574275
1805.073695,1225.752797,-0.000000,9400.615463
1805.074012,1072.533697,148.041188,9474.636058
1805.074330,1149.143247,-0.000000,9474.636058
1805.074647,766.095498,-0.000000,9548.656652
1805.074964,1072.533697,-0.000000,9770.718434
1805.075282,612.876398,-148.041188,9548.656652
1805.075599,689.485948,-74.020594,9548.656652
1805.075917,536.266849,-0.000000,9474.636058
1805.076234,1072.533697,-148.041188,9622.677246
1805.076551,459.657299,-0.000000,9548.656652
1805.076869,306.438199,-0.000000,9474.636058
1805.077186,612.876398,-74.020594,9326.594869
1805.077504,612.876398,-0.000000,9474.636058
1805.077821,689.485948,-74.020594,9400.615463
1805.078138,459.657299,-0.000000,9326.594869
1805.078456,383.047749,-0.000000,9326.594869
1805.078773,689.485948,-0.000000,9474.636058
1805.079090,766.095498,-0.000000,9252.574275
1805.079408,842.705048,-0.000000,9326.594869
1805.079725,766.095498,222.061783,9474.636058
1805.080043,995.924147,222.061783,9178.553681
1805.080360,766.095498,296.082377,9104.533087
1805.080677,842.705048,148.041188,9178.553681
1805.080995,1378.971896,-0.000000,9474.636058
1805.081312,1225.752797,296.082377,8808.450710
1805.081630,1072.533697,518.144159,9104.533087
1805.081947,1225.752797,370.102971,9178.553681
1805.082264,689.485948,148.041188,9030.512492
1805.082582,1072.533697,444.123565,9252.574275
1805.082899,689.485948,148.041188,9104.533087
1805.083216,1072.533697,-0.000000,9178.553681
1805.083534,689.485948,-0.000000,9400.615463
1805.083851,612.876398,-0.000000,9104.533087
1805.084169,766.095498,-0.000000,9474.636058
1805.084486,689.485948,-0.000000,9326.594869
1805.084803,536.266849,148.041188,9474.636058
1805.085121,842.705048,222.061783,9326.594869
1805.085438,459.657299,-0.000000,9400.615463
1805.085756,612.876398,370.102971,9622.677246
1805.086073,459.657299,-0.000000,9400.615463
1805.086390,766.095498,-0.000000,9474.636058
1805.086708,612.876398,-0.000000,9548.656652
1805.087025,536.266849,-0.000000,9696.697840
1805.087343,459.657299,-0.000000,9696.697840
1805.087660,383.047749,-0.000000,9474.636058
1805.087977,612.876398,148.041188,9548.656652
1805.088295,612.876398,148.041188,9548.656652
1805.088612,612.876398,222.061783,9474.636058
1805.088929,919.314598,370.102971,9622.677246
1805.089247,842.705048,296.082377,9696.697840
1805.089564,1149.143247,370.102971,9474.636058
1805.089882,1302.362347,296.082377,9622.677246
1805.090199,919.314598,-0.000000,9400.615463
1805.090516,1149.143247,518.144159,9474.636058
1805.090834,1225.752797,518.144159,9548.656652
1805.091151,1072.533697,518.144159,9400.615463
1805.091469,1302.362347,444.123565,9252.574275
1805.091786,1302.362347,370.102971,9474.636058
1805.092103,1072.533697,518.144159,9400.615463
1805.092421,1149.143247,518.144159,9474.636058
1805.092738,1225.752797,296.082377,9474.636058
1805.093055,842.705048,-0.000000,9474.636058
1805.093373,766.095498,-0.000000,9548.656652
1805.093690,842.705048,296.082377,9474.636058
1805.094008,689.485948,296.082377,9474.636058
1805.094325,612.876398,222.061783,9474.636058
1805.094642,842.705048,74.020594,9548.656652
1805.094960,536.266849,148.041188,9622.677246
1805.095277,842.705048,222.061783,9548.656652
1805.095595,306.438199,-0.000000,9548.656652
1805.095912,153.219100,-0.000000,9474.636058
1805.096229,306.438199,148.041188,9474.636058
1805.096547,229.828649,370.102971,9548.656652
1805.096864,306.438199,296.082377,9548.656652
1805.097182,306.438199,222.061783,9400.615463
1805.097499,459.657299,148.041188,9474.636058
1805.097816,536.266849,148.041188,9474.636058
1805.098134,306.438199,222.061783,9474.636058
1805.098451,536.266849,-0.000000,9400.615463
1805.098768,612.876398,-0.000000,9400.615463
1805.099086,536.266849,814.226536,9622.677246
1805.099403,536.266849,296.082377,9178.553681
1805.099721,536.266849,148.041188,9400.615463
1805.100038,612.876398,444.123565,9178.553681
1805.100355,612.876398,370.102971,9400.615463
1805.100673,612.876398,518.144159,9696.697840
1805.100990,919.314598,370.102971,9326.594869
1805.101308,842.705048,148.041188,8956.491898
1805.101625,919.314598,444.123565,9252.574275
1805.101942,766.095498,370.102971,9252.574275
1805.102260,1072.533697,222.061783,9326.594869
1805.102577,919.314598,592.164754,9474.636058
1805.102895,766.095498,444.123565,9252.574275
1805.103212,919.314598,-0.000000,9252.574275
1805.103529,1072.533697,148.041188,9474.636058
1805.103847,459.657299,222.061783,9696.697840
1805.104164,689.485948,222.061783,9474.636058
1805.104481,612.876398,148.041188,9474.636058
1805.104799,459.657299,-0.000000,9474.636058
1805.105116,383.047749,370.102971,9548.656652
1805.105434,306.438199,592.164754,9548.656652
1805.105751,612.876398,296.082377,9474.636058
1805.106068,229.828649,-0.000000,9474.636058
1805.106386,383.047749,-0.000000,9474.636058
1805.106703,612.876398,222.061783,9622.677246
1805.107021,383.047749,222.061783,9622.677246
1805.107338,383.047749,296.082377,9844.739029
1805.107655,612.876398,148.041188,9474.636058
1805.107973,459.657299,370.102971,9696.697840
1805.108290,229.828649,296.082377,9400.615463
1805.108607,842.705048,296.082377,9474.636058
1805.108925,919.314598,370.102971,9326.594869
1805.109242,459.657299,444.123565,9548.656652
1805.109560,536.266849,592.164754,9548.656652
1805.109877,1149.143247,296.082377,9770.718434
1805.110194,919.314598,592.164754,9474.636058
1805.110512,842.705048,444.123565,9326.594869
1805.110829,995.924147,444.123565,9326.594869
1805.111147,1072.533697,592.164754,9326.594869
1805.111464,919.314598,444.123565,9326.594869
1805.111781,995.924147,370.102971,9252.574275
1805.112099,995.924147,370.102971,9326.594869
1805.112416,1302.362347,296.082377,9400.615463
1805.112734,1072.533697,444.123565,9474.636058
1805.113051,1532.190996,296.082377,9400.615463
1805.113368,995.924147,370.102971,9252.574275
1805.113686,689.485948,222.061783,9474.636058
1805.114003,842.705048,222.061783,9400.615463
1805.114320,689.485948,-0.000000,9400.615463
1805.114638,612.876398,-222.061783,9474.636058
1805.114955,459.657299,-148.041188,9548.656652
1805.115273,766.095498,-0.000000,9474.636058
1805.115590,612.876398,-0.000000,9622.677246
1805.115907,459.657299,-0.000000,9474.636058
1805.116225,153.219100,-0.000000,9622.677246
1805.116542,536.266849,-0.000000,9474.636058
1805.116860,536.266849,-0.000000,9474.636058
1805.117177,383.047749,-0.000000,9474.636058
1805.117494,459.657299,-222.061783,9474.636058
1805.117812,612.876398,-74.020594,9548.656652
1805.118129,459.657299,-0.000000,9770.718434
1805.118447,536.266849,-0.000000,9696.697840
1805.118764,383.047749,-74.020594,9474.636058
1805.119081,612.876398,148.041188,9474.636058
1805.119399,536.266849,-0.000000,9474.636058
1805.119716,689.485948,-0.000000,9252.574275
1805.120033,689.485948,296.082377,9400.615463
1805.120351,995.924147,-0.000000,9252.574275
1805.120668,1149.143247,-0.000000,9178.553681
1805.120986,1149.143247,-0.000000,9326.594869
1805.121303,1302.362347,-0.000000,9252.574275
1805.121620,1072.533697,296.082377,9104.533087
1805.121938,1149.143247,370.102971,9252.574275
1805.122255,459.657299,296.082377,9326.594869
1805.122573,1072.533697,148.041188,9178.553681
1805.122890,919.314598,370.102971,9326.594869
1805.123207,995.924147,370.102971,9252.574275
1805.123525,842.705048,222.061783,9178.553681
1805.123842,766.095498,-0.000000,9400.615463
1805.124159,1072.533697,222.061783,9474.636058
1805.124477,919.314598,-0.000000,9326.594869
1805.124794,536.266849,296.082377,9400.615463
1805.125112,766.095498,-0.000000,9326.594869
1805.125429,383.047749,-0.000000,9548.656652
1805.125746,612.876398,370.102971,9474.636058
1805.126064,536.266849,148.041188,9548.656652
1805.126381,459.657299,148.041188,9474.636058
1805.126699,689.485948,370.102971,9770.718434
1805.127016,383.047749,-0.000000,9474.636058
1805.127333,306.438199,370.102971,9474.636058
1805.127651,306.438199,148.041188,9474.636058
1805.127968,383.047749,-0.000000,9622.677246
1805.128286,766.095498,-0.000000,9696.697840
1805.128603,306.438199,148.041188,9474.636058
1805.128920,459.657299,370.102971,9474.636058
1805.129238,536.266849,296.082377,9622.677246
1805.129555,459.657299,518.144159,9696.697840
1805.129872,689.485948,370.102971,9696.697840
1805.130190,536.266849,370.102971,9844.739029
1805.130507,383.047749,592.164754,9770.718434
1805.130825,766.095498,666.185348,9622.677246
1805.131142,995.924147,666.185348,9474.636058
1805.131459,1149.143247,444.123565,9548.656652
1805.131777,766.095498,444.123565,9474.636058
1805.132094,842.705048,518.144159,9474.636058
1805.132412,842.705048,592.164754,9474.636058
1805.132729,1149.143247,592.164754,9548.656652
1805.133046,842.705048,666.185348,9622.677246
1805.133364,842.705048,518.144159,9474.636058
1805.133681,689.485948,444.123565,9844.739029
1805.133998,919.314598,444.123565,9548.656652
1805.134316,689.485948,148.041188,9548.656652
1805.134633,995.924147,222.061783,9474.636058
1805.134951,536.266849,-0.000000,9474.636058
1805.135268,689.485948,-0.000000,9548.656652
1805.135585,689.485948,-0.000000,9548.656652
1805.135903,536.266849,-0.000000,9474.636058
1805.136220,459.657299,-0.000000,9696.697840
1805.136538,766.095498,222.061783,9474.636058
1805.136855,536.266849,-0.000000,9474.636058
1805.137172,0.000000,-0.000000,9548.656652
1805.137490,459.657299,-0.000000,9474.636058
1805.137807,536.266849,148.041188,9326.594869
1805.138125,383.047749,148.041188,9474.636058
1805.138442,536.266849,-0.000000,9400.615463
1805.138759,306.438199,-0.000000,9474.636058
1805.139076,383.047749,444.123565,9474.636058
1805.139394,612.876398,148.041188,9326.594869
1805.139711,612.876398,148.041188,9178.553681
1805.140028,919.314598,296.082377,9252.574275
1805.140346,919.314598,296.082377,9104.533087
1805.140663,995.924147,-0.000000,8956.491898
1805.140980,766.095498,222.061783,9178.553681
1805.141298,842.705048,148.041188,9178.553681
1805.141615,689.485948,74.020594,9030.512492
1805.141932,842.705048,-0.000000,8956.491898
1805.142249,766.095498,-0.000000,9030.512492
1805.142567,919.314598,296.082377,9178.553681
1805.142884,689.485948,-0.000000,9178.553681
1805.143201,766.095498,370.102971,9400.615463
1805.143519,919.314598,-0.000000,9326.594869
1805.143836,689.485948,148.041188,9400.615463
1805.144153,689.485948,-0.000000,9400.615463
1805.144471,536.266849,148.041188,9326.594869
1805.144788,689.485948,-74.020594,9326.594869
1805.145105,842.705048,-74.020594,9474.636058
1805.145422,612.876398,-148.041188,9252.574275
1805.145740,766.095498,-74.020594,9474.636058
1805.146057,919.314598,-74.020594,9400.615463
1805.146374,689.485948,-0.000000,9474.636058
1805.146692,536.266849,-222.061783,9696.697840
1805.147009,919.314598,-0.000000,9474.636058
1805.147326,842.705048,-0.000000,9474.636058
1805.147644,919.314598,222.061783,9474.636058
1805.147961,995.924147,148.041188,9474.636058
1805.148278,842.705048,-0.000000,9474.636058
1805.148595,766.095498,296.082377,9474.636058
1805.148913,766.095498,-0.000000,9622.677246
1805.149230,766.095498,-0.000000,9400.615463
1805.149547,1072.533697,296.082377,9548.656652
1805.149865,919.314598,-0.000000,9548.656652
1805.150182,1072.533697,444.123565,9474.636058
1805.150499,1072.533697,444.123565,9474.636058
1805.150817,1149.143247,592.164754,9326.594869
1805.151134,1455.581446,444.123565,9400.615463
1805.151451,1149.143247,518.144159,9400.615463
1805.151768,1149.143247,518.144159,9400.615463
1805.152086,1225.752797,518.144159,9474.636058
1805.152403,1378.971896,370.102971,9178.553681
1805.152720,1225.752797,148.041188,9474.636058
1805.153038,1225.752797,444.123565,9400.615463
1805.153355,1302.362347,666.185348,9474.636058
1805.153672,1072.533697,370.102971,9400.615463
1805.153990,1072.533697,444.123565,9326.594869
1805.154307,459.657299,370.102971,9474.636058
1805.154624,689.485948,296.082377,9548.656652
1805.154941,766.095498,296.082377,9474.636058
1805.155259,842.705048,222.061783,9548.656652
1805.155576,919.314598,222.061783,9548.656652
1805.155893,1455.581446,-0.000000,9770.718434
1805.156211,536.266849,296.082377,9548.656652
1805.156528,536.266849,370.102971,9548.656652
1805.156845,459.657299,148.041188,9696.697840
1805.157163,459.657299,-0.000000,9548.656652
1805.157480,766.095498,222.061783,9548.656652
1805.157797,459.657299,222.061783,9548.656652
1805.158115,612.876398,222.061783,9696.697840
1805.158432,153.219100,-0.000000,9474.636058
1805.158749,536.266849,592.164754,9622.677246
1805.159066,766.095498,370.102971,9548.656652
1805.159384,459.657299,148.041188,9400.615463
1805.159701,766.095498,222.061783,9400.615463
1805.160018,766.095498,148.041188,9474.636058
1805.160336,612.876398,296.082377,9548.656652
1805.160653,536.266849,370.102971,9400.615463
1805.160970,612.876398,222.061783,9548.656652
1805.161288,459.657299,148.041188,9400.615463
1805.161605,766.095498,222.061783,9252.574275
1805.161922,919.314598,222.061783,9474.636058
1805.162239,919.314598,148.041188,9178.553681
1805.162557,842.705048,-0.000000,9252.574275
1805.162874,842.705048,222.061783,9400.615463
1805.163191,842.705048,222.061783,9252.574275
1805.163509,612.876398,-0.000000,9474.636058
1805.163826,766.095498,148.041188,9400.615463
1805.164143,842.705048,-0.000000,9326.594869
1805.164461,919.314598,-74.020594,9400.615463
1805.164778,1072.533697,-74.020594,9400.615463
1805.165095,842.705048,-74.020594,9474.636058
1805.165412,995.924147,-0.000000,9474.636058
1805.165730,612.876398,-74.020594,9474.636058
1805.166047,536.266849,-0.000000,9400.615463
1805.166364,842.705048,-74.020594,9326.594869
1805.166682,689.485948,-0.000000,9548.656652
1805.166999,536.266849,-0.000000,9474.636058
1805.167316,536.266849,-0.000000,9400.615463
1805.167634,536.266849,-0.000000,9548.656652
1805.167951,919.314598,-0.000000,9400.615463
1805.168268,459.657299,-0.000000,9400.615463
1805.168585,766.095498,296.082377,9178.553681
1805.168903,536.266849,-148.041188,9400.615463
1805.169220,766.095498,222.061783,9474.636058
1805.169537,536.266849,-0.000000,9400.615463
1805.169855,995.924147,148.041188,9326.594869
1805.170172,842.705048,444.123565,9474.636058
1805.170489,919.314598,370.102971,9400.615463
1805.170807,919.314598,296.082377,9400.615463
1805.171124,689.485948,444.123565,9252.574275
1805.171441,689.485948,222.061783,9326.594869
1805.171758,842.705048,444.123565,9326.594869
1805.172076,766.095498,296.082377,9326.594869
1805.172393,919.314598,444.123565,9104.533087
1805.172710,919.314598,370.102971,9326.594869
1805.173028,612.876398,370.102971,9252.574275
1805.173345,766.095498,518.144159,9400.615463
1805.173662,842.705048,222.061783,9326.594869
1805.173980,612.876398,296.082377,9252.574275
1805.174297,536.266849,370.102971,9400.615463
1805.174614,689.485948,740.205942,9400.615463
1805.174931,919.314598,666.185348,9400.615463
1805.175249,536.266849,592.164754,9548.656652
1805.175566,459.657299,370.102971,9474.636058
1805.175883,229.828649,222.061783,9326.594869
1805.176201,536.266849,444.123565,9548.656652
1805.176518,229.828649,370.102971,9400.615463
1805.176835,459.657299,592.164754,9548.656652
1805.177153,383.047749,296.082377,9622.677246
1805.177470,306.438199,444.123565,9696.697840
1805.177787,383.047749,444.123565,9622.677246
1805.178104,766.095498,222.061783,9252.574275
1805.178422,689.485948,444.123565,9622.677246
1805.178739,306.438199,296.082377,9474.636058
1805.179056,612.876398,444.123565,9622.677246
1805.179374,842.705048,592.164754,9474.636058
1805.179691,919.314598,518.144159,9474.636058
1805.180008,689.485948,296.082377,9918.759623
1805.180326,842.705048,444.123565,9474.636058
1805.180643,766.095498,444.123565,9548.656652
1805.180960,766.095498,370.102971,9474.636058
1805.181277,306.438199,148.041188,9474.636058
1805.181595,612.876398,296.082377,9696.697840
1805.181912,766.095498,296.082377,9474.636058
1805.182229,1149.143247,296.082377,9400.615463
1805.182547,919.314598,296.082377,9326.594869
1805.182864,919.314598,296.082377,9548.656652
1805.183181,1149.143247,222.061783,9474.636058
1805.183499,995.924147,222.061783,9400.615463
1805.183816,919.314598,-0.000000,9548.656652
1805.184133,919.314598,-0.000000,9474.636058
1805.184451,766.095498,-0.000000,9474.636058
1805.184768,536.266849,-0.000000,9548.656652
1805.185085,919.314598,222.061783,9326.594869
1805.185402,536.266849,-0.000000,9400.615463
1805.185720,689.485948,-0.000000,9474.636058
1805.186037,766.095498,-0.000000,9400.615463
1805.186354,842.705048,-0.000000,9918.759623
1805.186672,306.438199,-0.000000,9400.615463
1805.186989,459.657299,-0.000000,9400.615463
1805.187306,383.047749,-0.000000,9474.636058
1805.187624,689.485948,222.061783,9474.636058
1805.187941,306.438199,148.041188,9548.656652
1805.188258,536.266849,-74.020594,9326.594869
1805.188575,612.876398,-0.000000,9622.677246
1805.188893,536.266849,-0.000000,9326.594869
1805.189210,612.876398,-0.000000,9400.615463
1805.189527,459.657299,222.061783,9474.636058
1805.189845,612.876398,-0.000000,9400.615463
1805.190162,689.485948,-0.000000,9104.533087
1805.190479,689.485948,-0.000000,9326.594869
1805.190797,919.314598,222.061783,9474.636058
1805.191114,1072.533697,-0.000000,9326.594869
1805.191431,689.485948,-0.000000,9400.615463
1805.191748,1072.533697,296.082377,9104.533087
1805.192066,919.314598,222.061783,9178.553681
1805.192383,995.924147,-0.000000,9178.553681
1805.192700,995.924147,-0.000000,8956.491898
1805.193018,995.924147,-0.000000,9030.512492
1805.193335,919.314598,148.041188,9178.553681
1805.193652,919.314598,-0.000000,9252.574275
1805.193970,919.314598,148.041188,9326.594869
1805.194287,612.876398,148.041188,9326.594869
1805.194604,919.314598,-0.000000,9252.574275
1805.194921,536.266849,-148.041188,9252.574275
1805.195239,306.438199,-0.000000,9548.656652
1805.195556,536.266849,-0.000000,9548.656652
1805.195873,459.657299,-74.020594,9474.636058
1805.196191,383.047749,-0.000000,9548.656652
1805.196508,612.876398,148.041188,9622.677246
1805.196825,612.876398,148.041188,9474.636058
1805.197143,383.047749,148.041188,9400.615463
1805.197460,919.314598,-0.000000,9400.615463
1805.197777,689.485948,148.041188,9474.636058
1805.198094,383.047749,222.061783,9474.636058
1805.198412,536.266849,296.082377,9770.718434
1805.198729,536.266849,222.061783,9548.656652
1805.199046,536.266849,222.061783,9474.636058
1805.199364,612.876398,296.082377,9548.656652
1805.199681,842.705048,148.041188,9696.697840
1805.199998,612.876398,370.102971,9622.677246
1805.200316,919.314598,370.102971,9474.636058
1805.200633,842.705048,-0.000000,9548.656652
1805.200950,995.924147,296.082377,9474.636058
1805.201267,766.095498,444.123565,9326.594869
1805.201585,1149.143247,444.123565,9474.636058
1805.201902,1225.752797,666.185348,9622.677246
1805.202219,1072.533697,518.144159,9622.677246
1805.202537,995.924147,444.123565,9178.553681
1805.202854,1072.533697,592.164754,9400.615463
1805.203171,995.924147,592.164754,9326.594869
1805.203489,842.705048,592.164754,9622.677246
1805.203806,1149.143247,370.102971,9252.574275
1805.204123,842.705048,296.082377,9400.615463
1805.204440,766.095498,444.123565,9326.594869
1805.204758,919.314598,370.102971,9548.656652
1805.205075,1302.362347,-0.000000,9474.636058
1805.205392,842.705048,-0.000000,9474.636058
1805.205710,689.485948,-0.000000,9474.636058
1805.206027,536.266849,296.082377,9474.636058
1805.206344,612.876398,296.082377,9474.636058
1805.206662,612.876398,222.061783,9474.636058
1805.206979,612.876398,-0.000000,9474.636058
1805.207296,306.438199,-0.000000,9474.636058
1805.207613,306.438199,222.061783,9474.636058
1805.207931,536.266849,-0.000000,9326.594869
1805.208248,459.657299,-74.020594,9770.718434
1805.208565,306.438199,-0.000000,9622.677246
1805.208883,536.266849,148.041188,9474.636058
1805.209200,612.876398,-0.000000,9474.636058
1805.209517,306.438199,-0.000000,9400.615463
1805.209835,459.657299,-74.020594,9474.636058
1805.210152,1072.533697,296.082377,9326.594869
1805.210469,842.705048,148.041188,9326.594869
1805.210787,842.705048,370.102971,9400.615463
1805.211104,1072.533697,222.061783,9252.574275
1805.211421,1149.143247,518.144159,9474.636058
1805.211738,1149.143247,370.102971,9400.615463
1805.212056,1302.362347,370.102971,9178.553681
1805.212373,919.314598,148.041188,9178.553681
1805.212690,1149.143247,148.041188,9178.553681
1805.213008,1378.971896,-0.000000,9326.594869
1805.213325,1378.971896,-0.000000,9326.594869
1805.213642,1225.752797,-0.000000,9326.594869
1805.213960,1302.362347,-0.000000,9252.574275
1805.214277,1302.362347,-0.000000,9252.574275
1805.214594,842.705048,-0.000000,9474.636058
1805.214911,842.705048,-0.000000,9474.636058
1805.215229,766.095498,-0.000000,9474.636058
1805.215546,842.705048,-0.000000,9474.636058
1805.215863,766.095498,-222.061783,9474.636058
1805.216181,459.657299,-296.082377,9548.656652
1805.216498,459.657299,-148.041188,9400.615463
1805.216815,766.095498,-74.020594,9474.636058
1805.217133,459.657299,-0.000000,9474.636058
1805.217450,459.657299,-0.000000,9548.656652
1805.217767,612.876398,-74.020594,9474.636058
1805.218084,459.657299,-0.000000,9474.636058
1805.218402,459.657299,-0.000000,9474.636058
1805.218719,536.266849,-444.123565,9474.636058
1805.219036,459.657299,-0.000000,9474.636058
1805.219354,383.047749,-0.000000,9400.615463
1805.219671,766.095498,222.061783,9474.636058
1805.219988,689.485948,-74.020594,9474.636058
1805.220306,536.266849,-148.041188,9474.636058
1805.220623,919.314598,-0.000000,9474.636058
1805.220940,766.095498,-0.000000,9326.594869
1805.221257,919.314598,296.082377,9030.512492
1805.221575,995.924147,370.102971,9326.594869
1805.221892,995.924147,296.082377,9326.594869
1805.222209,689.485948,148.041188,9326.594869
1805.222527,919.314598,222.061783,9252.574275
1805.222844,536.266849,-0.000000,9474.636058
1805.223161,919.314598,444.123565,9400.615463
1805.223479,766.095498,222.061783,9474.636058
1805.223796,842.705048,370.102971,9326.594869
1805.224113,766.095498,370.102971,9326.594869
1805.224430,766.095498,148.041188,9400.615463
1805.224748,536.266849,148.041188,9474.636058
1805.225065,766.095498,222.061783,9696.697840
1805.225382,383.047749,-0.000000,9400.615463
1805.225700,842.705048,370.102971,9474.636058
1805.226017,536.266849,222.061783,9474.636058
1805.226334,536.266849,-0.000000,9326.594869
1805.226652,766.095498,222.061783,9548.656652
1805.226969,459.657299,222.061783,9400.615463
1805.227286,536.266849,296.082377,9400.615463
1805.227603,536.266849,222.061783,9400.615463
1805.227921,459.657299,222.061783,9548.656652
1805.228238,612.876398,370.102971,9548.656652
1805.228555,689.485948,444.123565,9622.677246
1805.228873,689.485948,296.082377,9400.615463
1805.229190,306.438199,444.123565,9474.636058
1805.229507,766.095498,444.123565,9474.636058
1805.229825,919.314598,518.144159,9252.574275
1805.230142,766.095498,592.164754,9400.615463
1805.230459,612.876398,518.144159,9474.636058
1805.230776,1149.143247,370.102971,9548.656652
1805.231094,842.705048,518.144159,9474.636058
1805.231411,1149.143247,518.144159,9400.615463
1805.231728,1225.752797,592.164754,9400.615463
1805.232046,1225.752797,592.164754,9474.636058
1805.232363,1685.410096,370.102971,9474.636058
1805.232680,1225.752797,518.144159,9548.656652
1805.232998,1149.143247,296.082377,9104.533087
1805.233315,1225.752797,592.164754,9400.615463
1805.233632,919.314598,370.102971,9474.636058
1805.233949,1072.533697,370.102971,9400.615463
1805.234267,1532.190996,370.102971,9326.594869
1805.234584,919.314598,74.020594,9326.594869
1805.234901,919.314598,148.041188,9548.656652
1805.235219,766.095498,-0.000000,9474.636058
1805.235536,459.657299,-0.000000,9474.636058
1805.235853,459.657299,-74.020594,9622.677246
1805.236171,306.438199,148.041188,9548.656652
1805.236488,383.047749,-0.000000,9548.656652
1805.236805,689.485948,-0.000000,9622.677246
1805.237123,383.047749,-74.020594,9622.677246
1805.237440,383.047749,-296.082377,9622.677246
1805.237757,536.266849,-0.000000,9548.656652
1805.238074,383.047749,148.041188,9548.656652
1805.238392,612.876398,-0.000000,9622.677246
1805.238709,612.876398,-0.000000,9474.636058
1805.239026,459.657299,-0.000000,9548.656652
1805.239344,536.266849,-0.000000,9548.656652
1805.239661,536.266849,148.041188,9474.636058
1805.239978,766.095498,-0.000000,9622.677246
1805.240296,919.314598,-0.000000,9400.615463
1805.240613,689.485948,148.041188,9474.636058
1805.240930,689.485948,296.082377,9400.615463
1805.241248,766.095498,444.123565,9474.636058
1805.241565,842.705048,370.102971,9474.636058
1805.241882,919.314598,592.164754,9252.574275
1805.242200,766.095498,-0.000000,9178.553681
1805.242517,1149.143247,592.164754,9400.615463
1805.242834,1149.143247,296.082377,9178.553681
1805.243152,1072.533697,148.041188,9400.615463
1805.243469,1072.533697,444.123565,9178.553681
1805.243787,1149.143247,518.144159,8956.491898
1805.244104,842.705048,592.164754,9326.594869
1805.244421,1225.752797,-0.000000,9474.636058
1805.244739,153.219100,518.144159,9400.615463
1805.245056,766.095498,296.082377,9326.594869
1805.245373,1072.533697,296.082377,9178.553681
1805.245691,766.095498,-0.000000,9178.553681
1805.246008,919.314598,296.082377,9326.594869
1805.246325,459.657299,222.061783,9474.636058
1805.246643,612.876398,222.061783,9474.636058
1805.246960,459.657299,296.082377,9474.636058
1805.247278,612.876398,592.164754,9474.636058
1805.247595,459.657299,370.102971,9474.636058
1805.247912,383.047749,-0.000000,9474.636058
1805.248230,536.266849,518.144159,9474.636058
1805.248547,459.657299,-0.000000,9548.656652
1805.248864,306.438199,296.082377,9474.636058
1805.249182,689.485948,-0.000000,9326.594869
1805.249499,306.438199,222.061783,9400.615463
1805.249816,383.047749,296.082377,9400.615463
1805.250134,383.047749,370.102971,9474.636058
1805.250451,536.266849,296.082377,9474.636058
1805.250768,612.876398,-0.000000,9474.636058
1805.251086,612.876398,370.102971,9474.636058
1805.251403,612.876398,222.061783,9400.615463
1805.251721,766.095498,296.082377,9474.636058
1805.252038,766.095498,296.082377,9548.656652
1805.252355,919.314598,296.082377,9548.656652
1805.252673,919.314598,518.144159,9474.636058
1805.252990,995.924147,370.102971,9474.636058
1805.253307,919.314598,444.123565,9400.615463
1805.253625,1149.143247,-0.000000,9474.636058
1805.253942,1302.362347,518.144159,9548.656652
1805.254259,919.314598,148.041188,9326.594869
1805.254577,1149.143247,148.041188,9548.656652
1805.254894,919.314598,-0.000000,9474.636058
1805.255211,842.705048,222.061783,9622.677246
1805.255529,919.314598,222.061783,9770.718434
1805.255846,842.705048,148.041188,9548.656652
1805.256164,919.314598,-0.000000,9696.697840
1805.256481,689.485948,-0.000000,9622.677246
1805.256798,919.314598,-0.000000,9548.656652
1805.257116,459.657299,-0.000000,9474.636058
1805.257433,536.266849,-0.000000,9622.677246
1805.257750,536.266849,-74.020594,9474.636058
1805.258068,612.876398,-0.000000,9622.677246
1805.258385,612.876398,-74.020594,9770.718434
1805.258702,842.705048,-0.000000,9474.636058
1805.259020,919.314598,148.041188,9548.656652
1805.259337,612.876398,-0.000000,9548.656652
1805.259654,689.485948,-0.000000,9548.656652
1805.259972,842.705048,-0.000000,9326.594869
1805.260289,536.266849,148.041188,9622.677246
1805.260607,766.095498,222.061783,9326.594869
1805.260924,995.924147,296.082377,9474.636058
1805.261241,1149.143247,-0.000000,9326.594869
1805.261559,919.314598,370.102971,9400.615463
1805.261876,995.924147,370.102971,9252.574275
1805.262193,766.095498,296.082377,9326.594869
1805.262511,919.314598,370.102971,9178.553681
1805.262828,1149.143247,222.061783,9400.615463
1805.263145,1072.533697,148.041188,9326.594869
1805.263463,995.924147,296.082377,9030.512492
1805.263780,919.314598,-0.000000,9178.553681
1805.264098,919.314598,148.041188,9104.533087
1805.264415,689.485948,222.061783,9030.512492
1805.264732,766.095498,296.082377,9252.574275
1805.265050,766.095498,444.123565,9104.533087
1805.265367,612.876398,444.123565,9252.574275
1805.265684,1225.752797,296.082377,9474.636058
1805.266002,153.219100,148.041188,9326.594869
1805.266319,306.438199,-0.000000,9474.636058
1805.266636,306.438199,-0.000000,9474.636058
1805.266954,229.828649,296.082377,9474.636058
1805.267271,383.047749,148.041188,9178.553681
1805.267588,229.828649,296.082377,9400.615463
1805.267906,229.828649,370.102971,9400.615463
1805.268223,306.438199,148.041188,9474.636058
1805.268541,459.657299,-0.000000,9474.636058
1805.268858,76.609550,444.123565,9474.636058
1805.269175,229.828649,296.082377,9622.677246
1805.269493,383.047749,148.041188,9474.636058
1805.269810,459.657299,370.102971,9548.656652
1805.270127,229.828649,370.102971,9326.594869
1805.270445,229.828649,296.082377,9622.677246
1805.270762,689.485948,592.164754,9474.636058
1805.271079,842.705048,444.123565,9474.636058
1805.271397,766.095498,370.102971,9474.636058
1805.271714,842.705048,296.082377,9252.574275
1805.272031,995.924147,518.144159,9474.636058
1805.272349,1225.752797,592.164754,9474.636058
1805.272666,1225.752797,518.144159,9474.636058
1805.272984,1225.752797,592.164754,9474.636058
1805.273301,1302.362347,444.123565,9400.615463
1805.273618,1455.581446,666.185348,9400.615463
1805.273936,1302.362347,518.144159,9548.656652
1805.274253,1225.752797,296.082377,9474.636058
1805.274570,1149.143247,296.082377,9326.594869
1805.274888,1149.143247,-0.000000,9548.656652
1805.275205,995.924147,-0.000000,9548.656652
1805.275522,612.876398,222.061783,9696.697840
1805.275840,842.705048,148.041188,9696.697840
1805.276157,689.485948,-148.041188,9696.697840
1805.276474,689.485948,-444.123565,9918.759623
1805.276792,689.485948,-0.000000,9474.636058
1805.277109,766.095498,-222.061783,9548.656652
1805.277427,383.047749,-0.000000,9696.697840
1805.277744,766.095498,-74.020594,9622.677246
1805.278061,459.657299,-444.123565,9696.697840
1805.278379,612.876398,-0.000000,9474.636058
1805.278696,612.876398,-0.000000,9474.636058
1805.279013,689.485948,-0.000000,9474.636058
1805.279331,766.095498,-74.020594,9548.656652
1805.279648,689.485948,-0.000000,9622.677246
1805.279965,612.876398,-0.000000,9252.574275
1805.280283,383.047749,-148.041188,9326.594869
1805.280600,612.876398,-74.020594,9400.615463
1805.280918,842.705048,-0.000000,9326.594869
1805.281235,766.095498,-0.000000,9326.594869
1805.281552,1072.533697,222.061783,9400.615463
1805.281870,689.485948,-0.000000,9030.512492
1805.282187,842.705048,222.061783,9104.533087
1805.282504,995.924147,148.041188,9030.512492
1805.282822,919.314598,-0.000000,9178.553681
1805.283139,919.314598,296.082377,9178.553681
1805.283456,919.314598,296.082377,8956.491898
1805.283774,919.314598,370.102971,9104.533087
1805.284091,766.095498,148.041188,8956.491898
1805.284408,689.485948,296.082377,8882.471304
1805.284726,766.095498,-0.000000,8808.450710
1805.285043,766.095498,222.061783,8956.491898
1805.285361,842.705048,370.102971,9030.512492
1805.285678,229.828649,370.102971,9400.615463
1805.285995,536.266849,296.082377,9400.615463
1805.286313,766.095498,296.082377,9030.512492
1805.286630,536.266849,-0.000000,9326.594869
1805.286947,153.219100,-0.000000,9252.574275
1805.287265,459.657299,222.061783,9474.636058
1805.287582,383.047749,222.061783,9326.594869
1805.287899,383.047749,148.041188,9326.594869
1805.288217,383.047749,296.082377,9474.636058
1805.288534,76.609550,-0.000000,9474.636058
1805.288851,536.266849,296.082377,9474.636058
1805.289169,306.438199,-0.000000,9622.677246
1805.289486,459.657299,296.082377,9474.636058
1805.289804,536.266849,370.102971,9474.636058
1805.290121,536.266849,296.082377,9770.718434
1805.290438,612.876398,444.123565,9696.697840
1805.290756,689.485948,296.082377,9696.697840
1805.291073,919.314598,444.123565,9622.677246
1805.291390,766.095498,296.082377,9622.677246
1805.291708,1455.581446,-0.000000,9696.697840
1805.292025,1225.752797,518.144159,9622.677246
1805.292342,1225.752797,370.102971,9622.677246
1805.292660,1072.533697,444.123565,9770.718434
1805.292977,1149.143247,592.164754,9622.677246
1805.293294,1302.362347,444.123565,9696.697840
1805.293612,1378.971896,444.123565,9622.677246
1805.293929,1455.581446,592.164754,9770.718434
1805.294247,1225.752797,296.082377,9474.636058
1805.294564,1072.533697,74.020594,9770.718434
1805.294881,1225.752797,222.061783,9622.677246
1805.295199,842.705048,444.123565,9696.697840
1805.295516,995.924147,148.041188,9622.677246
1805.295833,766.095498,222.061783,9622.677246
1805.296151,1225.752797,-0.000000,9770.718434
1805.296468,766.095498,-0.000000,9622.677246
1805.296785,689.485948,296.082377,9844.739029
1805.297103,612.876398,-0.000000,9548.656652
1805.297420,689.485948,148.041188,9622.677246
1805.297738,536.266849,222.061783,9474.636058
1805.298055,689.485948,-0.000000,9400.615463
1805.298372,306.438199,-0.000000,9622.677246
1805.298690,689.485948,-0.000000,9474.636058
1805.299007,919.314598,148.041188,9474.636058
1805.299324,689.485948,222.061783,9400.615463
1805.299642,459.657299,222.061783,9400.615463
1805.299959,689.485948,296.082377,9474.636058
1805.300276,1149.143247,222.061783,9474.636058
1805.300594,919.314598,-0.000000,9104.533087
1805.300911,536.266849,148.041188,9104.533087
1805.301228,766.095498,148.041188,9104.533087
1805.301546,612.876398,-0.000000,9178.553681
1805.301863,919.314598,148.041188,9030.512492
1805.302181,1072.533697,-296.082377,9030.512492
1805.302498,842.705048,-0.000000,9030.512492
1805.302815,1072.533697,-0.000000,8956.491898
1805.303133,919.314598,-0.000000,9030.512492
1805.303450,1149.143247,148.041188,9104.533087
1805.303767,919.314598,148.041188,9252.574275
1805.304085,1072.533697,-0.000000,9104.533087
1805.304402,766.095498,-0.000000,9030.512492
1805.304719,1225.752797,-0.000000,9104.533087
1805.305037,995.924147,-0.000000,9178.553681
1805.305354,459.657299,-0.000000,8882.471304
1805.305671,766.095498,-0.000000,9326.594869
1805.305989,766.095498,-0.000000,9178.553681
1805.306306,383.047749,-0.000000,9030.512492
1805.306624,689.485948,-148.041188,9400.615463
1805.306941,153.219100,-74.020594,9474.636058
1805.307258,383.047749,-74.020594,9326.594869
1805.307576,229.828649,-222.061783,9474.636058
1805.307893,306.438199,-296.082377,9474.636058
1805.308210,459.657299,-0.000000,9622.677246
1805.308528,306.438199,-0.000000,9548.656652
1805.308845,153.219100,-0.000000,9770.718434
1805.309162,306.438199,-0.000000,9548.656652
1805.309480,383.047749,148.041188,9622.677246
1805.309797,536.266849,-0.000000,9992.780217
1805.310115,383.047749,222.061783,9548.656652
1805.310432,689.485948,222.061783,9474.636058
1805.310749,766.095498,296.082377,9474.636058
1805.311067,689.485948,296.082377,9622.677246
1805.311384,689.485948,-0.000000,9474.636058
1805.311701,995.924147,-0.000000,9474.636058
1805.312019,1225.752797,296.082377,9548.656652
1805.312336,1455.581446,444.123565,9548.656652
1805.312653,1455.581446,444.123565,9548.656652
1805.312971,1378.971896,518.144159,9474.636058
1805.313288,1532.190996,666.185348,9474.636058
1805.313605,1608.800546,444.123565,9548.656652
1805.313923,1762.019645,740.205942,9400.615463
1805.314240,1685.410096,296.082377,9622.677246
1805.314558,1838.629195,296.082377,9918.759623
1805.314875,1378.971896,370.102971,9252.574275
1805.315192,1378.971896,518.144159,9474.636058
1805.315510,1149.143247,370.102971,9400.615463
1805.315827,1532.190996,296.082377,9474.636058
1805.316144,995.924147,444.123565,9474.636058
1805.316462,919.314598,148.041188,9474.636058
1805.316779,612.876398,148.041188,9474.636058
1805.317096,689.485948,222.061783,9622.677246
1805.317414,229.828649,296.082377,9474.636058
1805.317731,536.266849,-0.000000,9548.656652
1805.318048,229.828649,-0.000000,9696.697840
1805.318366,153.219100,296.082377,9474.636058
1805.318683,306.438199,222.061783,9622.677246
1805.319001,229.828649,-0.000000,9622.677246
1805.319318,153.219100,148.041188,9474.636058
1805.319635,306.438199,222.061783,9474.636058
1805.319953,153.219100,222.061783,9474.636058
1805.320270,536.266849,222.061783,9326.594869
1805.320587,153.219100,592.164754,9400.615463
1805.320905,0.000000,222.061783,9400.615463
1805.321222,229.828649,370.102971,9474.636058
1805.321539,306.438199,370.102971,9474.636058
1805.321857,383.047749,296.082377,9178.553681
1805.322174,536.266849,444.123565,9104.533087
1805.322491,766.095498,444.123565,9178.553681
1805.322809,612.876398,444.123565,9178.553681
1805.323126,536.266849,-0.000000,9030.512492
1805.323444,689.485948,296.082377,9104.533087
1805.323761,689.485948,296.082377,9252.574275
1805.324078,995.924147,370.102971,9326.594869
1805.324396,919.314598,444.123565,8956.491898
1805.324713,919.314598,444.123565,9252.574275
1805.325030,1225.752797,222.061783,9400.615463
1805.325348,919.314598,444.123565,9104.533087
1805.325665,919.314598,370.102971,9178.553681
1805.325982,842.705048,296.082377,9104.533087
1805.326300,919.314598,370.102971,9326.594869
1805.326617,1608.800546,-0.000000,9104.533087
1805.326935,995.924147,222.061783,9400.615463
1805.327252,766.095498,74.020594,9474.636058
1805.327569,919.314598,-0.000000,9252.574275
1805.327887,306.438199,-0.000000,9400.615463
1805.328204,612.876398,-0.000000,9474.636058
1805.328521,612.876398,-0.000000,9474.636058
1805.328839,536.266849,-0.000000,9548.656652
1805.329156,612.876398,-0.000000,9474.636058
1805.329473,842.705048,-74.020594,9770.718434
1805.329791,536.266849,222.061783,9696.697840
1805.330108,459.657299,74.020594,9474.636058
1805.330425,459.657299,148.041188,9474.636058
1805.330743,536.266849,222.061783,9474.636058
1805.331060,689.485948,148.041188,9548.656652
1805.331378,919.314598,518.144159,9548.656652
1805.331695,919.314598,222.061783,9474.636058
1805.332012,689.485948,370.102971,9548.656652
1805.332330,995.924147,222.061783,9474.636058
1805.332647,919.314598,444.123565,9474.636058
1805.332964,995.924147,296.082377,9400.615463
1805.333282,612.876398,518.144159,9474.636058
1805.333599,919.314598,444.123565,9548.656652
1805.333916,1608.800546,-0.000000,9474.636058
1805.334234,919.314598,74.020594,9474.636058
1805.334551,919.314598,148.041188,9696.697840
1805.334868,766.095498,222.061783,9696.697840
1805.335186,689.485948,370.102971,9622.677246
1805.335503,536.266849,-0.000000,9770.718434
1805.335821,766.095498,296.082377,9622.677246
1805.336138,842.705048,148.041188,9474.636058
1805.336455,842.705048,148.041188,9474.636058
1805.336773,766.095498,370.102971,9474.636058
1805.337090,1072.533697,370.102971,9696.697840
1805.337407,689.485948,-0.000000,9622.677246
1805.337725,766.095498,148.041188,9548.656652
1805.338042,766.095498,296.082377,9474.636058
1805.338359,766.095498,-0.000000,9548.656652
1805.338677,689.485948,222.061783,9474.636058
1805.338994,536.266849,-0.000000,9474.636058
1805.339311,536.266849,148.041188,9622.677246
1805.339629,536.266849,-0.000000,9474.636058
1805.339946,689.485948,-0.000000,9474.636058
1805.340264,919.314598,296.082377,9548.656652
1805.340581,612.876398,74.020594,9252.574275
1805.340898,689.485948,370.102971,9474.636058
1805.341216,919.314598,-0.000000,9252.574275
1805.341533,1149.143247,296.082377,9178.553681
1805.341850,995.924147,370.102971,9178.553681
1805.342168,919.314598,296.082377,9104.533087
1805.342485,1378.971896,370.102971,9178.553681
1805.342802,1302.362347,370.102971,9178.553681
1805.343119,1378.971896,444.123565,9252.574275
1805.343437,1302.362347,222.061783,9178.553681
1805.343754,1302.362347,296.082377,9178.553681
1805.344071,919.314598,370.102971,9178.553681
1805.344389,1072.533697,296.082377,9104.533087
1805.344706,995.924147,296.082377,8956.491898
1805.345023,995.924147,-0.000000,9252.574275
1805.345340,842.705048,222.061783,9326.594869
1805.345658,1149.143247,148.041188,9326.594869
1805.345975,459.657299,-0.000000,9252.574275
1805.346292,1532.190996,74.020594,9326.594869
1805.346610,766.095498,-0.000000,9252.574275
1805.346927,459.657299,-0.000000,9400.615463
1805.347244,612.876398,-0.000000,9400.615463
1805.347561,459.657299,-0.000000,9622.677246
1805.347879,76.609550,-0.000000,9770.718434
1805.348196,306.438199,-74.020594,9474.636058
1805.348513,536.266849,222.061783,9474.636058
1805.348831,383.047749,148.041188,9548.656652
1805.349148,153.219100,-0.000000,9622.677246
1805.349465,153.219100,148.041188,9400.615463
1805.349782,153.219100,-0.000000,9474.636058
1805.350100,153.219100,-0.000000,9400.615463
1805.350417,306.438199,296.082377,9474.636058
1805.350734,459.657299,-0.000000,9474.636058
1805.351052,383.047749,-296.082377,9474.636058
1805.351369,689.485948,148.041188,9548.656652
1805.351686,459.657299,296.082377,9474.636058
1805.352004,842.705048,518.144159,9548.656652
1805.352321,689.485948,444.123565,9548.656652
1805.352638,536.266849,222.061783,9178.553681
1805.352955,1149.143247,518.144159,9400.615463
1805.353273,842.705048,296.082377,9400.615463
1805.353590,995.924147,518.144159,9474.636058
1805.353907,1072.533697,444.123565,9400.615463
1805.354225,919.314598,296.082377,9474.636058
1805.354542,919.314598,370.102971,9326.594869
1805.354859,1072.533697,518.144159,9326.594869
1805.355176,995.924147,518.144159,9474.636058
1805.355494,1072.533697,444.123565,9474.636058
1805.355811,1378.971896,444.123565,9622.677246
1805.356128,1072.533697,370.102971,9474.636058
1805.356446,919.314598,444.123565,9474.636058
1805.356763,995.924147,222.061783,9548.656652
1805.357080,842.705048,222.061783,9474.636058
1805.357397,919.314598,-0.000000,9400.615463
1805.357715,612.876398,370.102971,9474.636058
1805.358032,612.876398,222.061783,9474.636058
1805.358349,919.314598,296.082377,9474.636058
1805.358667,612.876398,296.082377,9548.656652
1805.358984,536.266849,-0.000000,9400.615463
1805.359301,919.314598,222.061783,9548.656652
1805.359619,383.047749,-0.000000,9622.677246
1805.359936,306.438199,296.082377,9474.636058
1805.360253,612.876398,296.082377,9474.636058
1805.360570,383.047749,148.041188,9400.615463
1805.360888,459.657299,296.082377,9622.677246
1805.361205,383.047749,296.082377,9474.636058
1805.361522,612.876398,148.041188,9474.636058
1805.361840,689.485948,-0.000000,9474.636058
1805.362157,536.266849,-0.000000,9252.574275
1805.362474,842.705048,370.102971,9474.636058
1805.362791,536.266849,222.061783,9400.615463
1805.363109,842.705048,148.041188,9474.636058
1805.363426,842.705048,-0.000000,9474.636058
1805.363743,689.485948,296.082377,9400.615463
1805.364061,689.485948,222.061783,9252.574275
1805.364378,842.705048,222.061783,9178.553681
1805.364695,919.314598,-0.000000,9178.553681
1805.365012,1072.533697,148.041188,9252.574275
1805.365330,689.485948,-0.000000,9178.553681
1805.365647,689.485948,148.041188,9326.594869
1805.365964,842.705048,-0.000000,9474.636058
1805.366282,536.266849,148.041188,9400.615463
1805.366599,459.657299,148.041188,9474.636058
1805.366916,689.485948,222.061783,9326.594869
1805.367233,766.095498,222.061783,9326.594869
1805.367551,919.314598,-0.000000,9252.574275
1805.367868,689.485948,148.041188,9474.636058
1805.368185,612.876398,74.020594,9474.636058
1805.368503,842.705048,222.061783,9326.594869
1805.368820,766.095498,-0.000000,9400.615463
1805.369137,689.485948,-0.000000,9474.636058
1805.369455,995.924147,-148.041188,9400.615463
1805.369772,995.924147,296.082377,9400.615463
1805.370089,842.705048,222.061783,9474.636058
1805.370406,766.095498,222.061783,9326.594869
1805.370724,842.705048,-0.000000,9474.636058
1805.371041,919.314598,296.082377,9326.594869
1805.371358,383.047749,74.020594,9474.636058
1805.371676,766.095498,370.102971,9474.636058
1805.371993,842.705048,296.082377,9400.615463
1805.372310,995.924147,-0.000000,9474.636058
1805.372627,842.705048,370.102971,9474.636058
1805.372945,995.924147,296.082377,9474.636058
1805.373262,1378.971896,592.164754,9326.594869
1805.373579,1302.362347,296.082377,9178.553681
1805.373897,1225.752797,592.164754,9548.656652
1805.374214,1302.362347,-0.000000,9326.594869
1805.374531,1302.362347,592.164754,9326.594869
1805.374848,1072.533697,444.123565,9474.636058
1805.375166,536.266849,518.144159,9696.697840
1805.375483,1072.533697,148.041188,9474.636058
1805.375800,919.314598,-0.000000,9400.615463
1805.376118,536.266849,148.041188,9622.677246
1805.376435,612.876398,-0.000000,9622.677246
1805.376752,612.876398,-0.000000,9622.677246
1805.377070,536.266849,-74.020594,9622.677246
1805.377387,766.095498,-0.000000,9696.697840
1805.377704,536.266849,-0.000000,9548.656652
1805.378021,612.876398,-0.000000,9548.656652
1805.378339,459.657299,-0.000000,9474.636058
1805.378656,459.657299,-0.000000,9474.636058
1805.378973,612.876398,370.102971,9548.656652
1805.379291,536.266849,-0.000000,9474.636058
1805.379608,766.095498,-0.000000,9474.636058
1805.379925,689.485948,-0.000000,9474.636058
1805.380242,919.314598,370.102971,9474.636058
1805.380560,536.266849,148.041188,9548.656652
1805.380877,689.485948,148.041188,9400.615463
1805.381194,689.485948,-0.000000,9474.636058
1805.381512,766.095498,-0.000000,9326.594869
1805.381829,842.705048,370.102971,9326.594869
1805.382146,612.876398,148.041188,9400.615463
1805.382463,689.485948,370.102971,9400.615463
1805.382781,612.876398,-0.000000,9178.553681
1805.383098,1072.533697,-0.000000,9178.553681
1805.383415,919.314598,222.061783,9178.553681
1805.383733,1072.533697,222.061783,9104.533087
1805.384050,995.924147,444.123565,9030.512492
1805.384367,1225.752797,222.061783,9178.553681
1805.384684,1072.533697,222.061783,9326.594869
1805.385002,1072.533697,740.205942,9030.512492
1805.385319,995.924147,148.041188,9104.533087
1805.385636,766.095498,148.041188,9030.512492
1805.385954,612.876398,74.020594,9400.615463
1805.386271,612.876398,148.041188,9030.512492
1805.386588,766.095498,-0.000000,9252.574275
1805.386906,689.485948,-0.000000,9104.533087
1805.387223,383.047749,148.041188,9474.636058
1805.387540,689.485948,-0.000000,9474.636058
1805.387857,76.609550,-0.000000,9548.656652
1805.388175,536.266849,-0.000000,9474.636058
1805.388492,229.828649,-0.000000,9844.739029
1805.388809,306.438199,-0.000000,9548.656652
1805.389127,0.000000,-0.000000,9844.739029
1805.389444,0.000000,-0.000000,9548.656652
1805.389761,0.000000,148.041188,9622.677246
1805.390078,306.438199,222.061783,9548.656652
1805.390396,459.657299,296.082377,9474.636058
1805.390713,153.219100,370.102971,9770.718434
1805.391030,536.266849,222.061783,9474.636058
1805.391348,612.876398,444.123565,9622.677246
1805.391665,766.095498,370.102971,9474.636058
1805.391982,766.095498,296.082377,9474.636058
1805.392299,919.314598,444.123565,9474.636058
1805.392617,842.705048,296.082377,9548.656652
1805.392934,842.705048,296.082377,9474.636058
1805.393251,766.095498,518.144159,9696.697840
1805.393569,995.924147,518.144159,9474.636058
1805.393886,1455.581446,370.102971,9474.636058
1805.394203,1225.752797,444.123565,9548.656652
1805.394521,1302.362347,666.185348,9548.656652
1805.394838,1149.143247,444.123565,9474.636058
1805.395155,1378.971896,296.082377,9474.636058
1805.395472,1378.971896,518.144159,9474.636058
1805.395790,1302.362347,518.144159,9326.594869
1805.396107,1302.362347,518.144159,9474.636058
1805.396424,1149.143247,296.082377,9252.574275
1805.396742,1072.533697,-0.000000,9474.636058
1805.397059,995.924147,148.041188,9548.656652
1805.397376,1072.533697,148.041188,9400.615463
1805.397693,766.095498,-0.000000,9474.636058
1805.398011,536.266849,-0.000000,9548.656652
1805.398328,459.657299,-0.000000,9548.656652
1805.398645,536.266849,-0.000000,9622.677246
1805.398963,229.828649,222.061783,9696.697840
1805.399280,383.047749,-0.000000,9474.636058
1805.399597,536.266849,-296.082377,9548.656652
1805.399914,536.266849,-0.000000,9696.697840
1805.400232,842.705048,296.082377,9622.677246
1805.400549,842.705048,370.102971,9178.553681
1805.400866,612.876398,370.102971,9400.615463
1805.401184,995.924147,-0.000000,9400.615463
1805.401501,766.095498,222.061783,9400.615463
1805.401818,995.924147,-0.000000,9400.615463
1805.402135,995.924147,-0.000000,9104.533087
1805.402453,842.705048,-0.000000,9400.615463
1805.402770,995.924147,-0.000000,9326.594869
1805.403087,995.924147,148.041188,9400.615463
1805.403405,1302.362347,370.102971,9326.594869
1805.403722,919.314598,148.041188,9326.594869
1805.404039,1072.533697,-0.000000,9104.533087
1805.404357,1072.533697,296.082377,9474.636058
1805.404674,1072.533697,222.061783,9104.533087
1805.404991,1072.533697,222.061783,9326.594869
1805.405308,689.485948,-0.000000,9178.553681
1805.405626,766.095498,-0.000000,9252.574275
1805.405943,612.876398,-0.000000,9104.533087
1805.406260,919.314598,222.061783,9104.533087
1805.406578,766.095498,-148.041188,9178.553681
1805.406895,689.485948,-0.000000,9400.615463
1805.407212,766.095498,444.123565,9178.553681
1805.407529,766.095498,-0.000000,9326.594869
1805.407847,383.047749,-74.020594,9400.615463
1805.408164,612.876398,-0.000000,9104.533087
1805.408481,536.266849,74.020594,9474.636058
1805.408799,612.876398,-74.020594,9252.574275
1805.409116,612.876398,-0.000000,9474.636058
1805.409433,306.438199,-222.061783,9326.594869
1805.409750,383.047749,-0.000000,9474.636058
1805.410068,459.657299,-0.000000,9474.636058
1805.410385,689.485948,222.061783,9474.636058
1805.410702,536.266849,148.041188,9548.656652
1805.411020,919.314598,296.082377,9548.656652
1805.411337,689.485948,444.123565,9474.636058
1805.411654,612.876398,222.061783,9622.677246
1805.411972,842.705048,518.144159,9474.636058
1805.412289,995.924147,370.102971,9400.615463
1805.412606,919.314598,518.144159,9400.615463
1805.412923,842.705048,518.144159,9474.636058
1805.413241,1225.752797,296.082377,9326.594869
1805.413558,1072.533697,370.102971,9400.615463
1805.413875,1149.143247,518.144159,9400.615463
1805.414193,1225.752797,444.123565,9474.636058
1805.414510,766.095498,370.102971,9178.553681
1805.414827,919.314598,222.061783,9326.594869
1805.415144,995.924147,518.144159,9474.636058
1805.415462,1072.533697,148.041188,9474.636058
1805.415779,842.705048,222.061783,9474.636058
1805.416096,842.705048,296.082377,9696.697840
1805.416414,689.485948,296.082377,9622.677246
1805.416731,689.485948,444.123565,9696.697840
1805.417048,689.485948,222.061783,9548.656652
1805.417365,766.095498,222.061783,9474.636058
1805.417683,459.657299,444.123565,9548.656652
1805.418000,459.657299,148.041188,9622.677246
1805.418317,536.266849,148.041188,9622.677246
1805.418635,536.266849,74.020594,9474.636058
1805.418952,459.657299,-0.000000,9474.636058
1805.419269,383.047749,-74.020594,9918.759623
1805.419586,383.047749,-0.000000,9622.677246
1805.419904,153.219100,-0.000000,9622.677246
1805.420221,153.219100,74.020594,9622.677246
1805.420538,153.219100,-0.000000,9474.636058
1805.420856,306.438199,-0.000000,9548.656652
1805.421173,612.876398,222.061783,9474.636058
1805.421490,459.657299,148.041188,9474.636058
1805.421808,383.047749,-0.000000,9326.594869
1805.422125,766.095498,148.041188,9400.615463
1805.422442,1072.533697,296.082377,9696.697840
1805.422759,689.485948,518.144159,9474.636058
1805.423077,536.266849,296.082377,9400.615463
1805.423394,612.876398,222.061783,9104.533087
1805.423711,995.924147,592.164754,9400.615463
1805.424029,1378.971896,370.102971,9030.512492
1805.424346,1072.533697,444.123565,9178.553681
1805.424663,1072.533697,222.061783,9326.594869
1805.424980,919.314598,444.123565,9104.533087
1805.425298,1532.190996,222.061783,9104.533087
1805.425615,1608.800546,296.082377,9474.636058
