#time,accel_x,accel_y,accel_z
1014.859659,536.266849,444.123565,5995.668130
1014.859978,-689.485948,-740.205942,6957.935855
1014.860297,-1378.971896,-1702.473667,8142.265362
1014.860616,-2221.676944,-1776.494261,8882.471304
1014.860934,-2451.505594,-666.185348,8808.450710
1014.861253,-2604.724693,296.082377,9326.594869
1014.861572,-2757.943793,1184.329507,9474.636058
1014.861891,-2681.334243,888.247130,9030.512492
1014.862210,-2681.334243,888.247130,8956.491898
1014.862529,-2528.115143,740.205942,9326.594869
1014.862848,-2528.115143,370.102971,9474.636058
1014.863167,-2528.115143,-740.205942,9992.780217
1014.863485,-2604.724693,-1184.329507,10288.862594
1014.863804,-2528.115143,-1332.370696,11103.089130
1014.864123,-1915.238745,-370.102971,10658.965565
1014.864442,-1378.971896,-0.000000,10881.027347
1014.864761,-689.485948,962.267725,10732.986159
1014.865080,0.000000,962.267725,11325.150913
1014.865399,536.266849,1036.288319,11177.109724
1014.865718,1072.533697,592.164754,11325.150913
1014.866036,1225.752797,592.164754,11103.089130
1014.866355,1762.019645,-0.000000,11029.068536
1014.866674,1608.800546,-0.000000,10955.047942
1014.866993,1532.190996,222.061783,10584.944971
1014.867312,2145.067394,592.164754,10066.800811
1014.867631,2068.457845,1258.350101,10140.821405
1014.867950,1915.238745,1480.411884,10362.883188
1014.868269,2374.896044,1924.535449,10066.800811
1014.868588,1991.848295,1998.556043,10362.883188
1014.868906,1532.190996,2220.617826,10214.842000
1014.869225,1455.581446,2368.659014,10214.842000
1014.869544,919.314598,2072.576638,10066.800811
1014.869863,766.095498,2146.597232,9770.718434
1014.870182,153.219100,1850.514855,9474.636058
1014.870501,153.219100,1998.556043,9474.636058
1014.870820,0.000000,1850.514855,9326.594869
1014.871139,0.000000,1998.556043,9178.553681
1014.871457,-153.219100,2220.617826,9400.615463
1014.871776,0.000000,2516.700203,9622.677246
1014.872095,0.000000,2516.700203,9252.574275
1014.872414,-229.828649,2516.700203,9400.615463
1014.872733,-306.438199,2072.576638,9474.636058
1014.873052,-306.438199,1480.411884,9696.697840
1014.873371,-229.828649,370.102971,9696.697840
1014.873690,-229.828649,-370.102971,9918.759623
1014.874009,-306.438199,-740.205942,9844.739029
1014.874327,-76.609550,-518.144159,10140.821405
1014.874646,153.219100,-370.102971,9992.780217
1014.874965,459.657299,-74.020594,9844.739029
1014.875284,612.876398,-518.144159,9474.636058
1014.875603,1149.143247,-0.000000,9252.574275
1014.875922,1225.752797,-222.061783,8882.471304
1014.876241,1455.581446,-592.164754,8734.430116
1014.876560,1302.362347,-1258.350101,9252.574275
1014.876878,1455.581446,-1998.556043,9326.594869
1014.877197,995.924147,-2368.659014,9178.553681
1014.877516,1072.533697,-2220.617826,9474.636058
1014.877835,1225.752797,-2368.659014,9326.594869
1014.878154,1149.143247,-1998.556043,9178.553681
1014.878473,1302.362347,-1480.411884,9474.636058
1014.878792,689.485948,-1110.308913,9326.594869
1014.879111,383.047749,-1332.370696,8956.491898
1014.879429,536.266849,-1258.350101,8956.491898
1014.879748,153.219100,-1702.473667,8808.450710
1014.880067,-383.047749,-1924.535449,8734.430116
1014.880386,-459.657299,-1850.514855,8438.347739
1014.880705,-612.876398,-1628.453072,8660.409521
1014.881024,-766.095498,-1406.391290,8068.244768
1014.881343,0.000000,-962.267725,8068.244768
1014.881662,-536.266849,-370.102971,8068.244768
1014.881981,0.000000,-0.000000,7772.162391
1014.882299,-229.828649,-0.000000,7846.182985
1014.882618,-306.438199,-0.000000,7698.141797
1014.882937,-229.828649,-148.041188,7772.162391
1014.883256,-459.657299,-74.020594,7476.080014
1014.883575,-459.657299,-0.000000,7846.182985
1014.883894,-459.657299,-74.020594,7624.121203
1014.884213,229.828649,-148.041188,7698.141797
1014.884532,766.095498,-74.020594,7476.080014
1014.884850,383.047749,-0.000000,7920.203579
1014.885169,766.095498,222.061783,8068.244768
1014.885488,919.314598,370.102971,8290.306550
1014.885807,536.266849,444.123565,8438.347739
1014.886126,1455.581446,444.123565,8586.388927
1014.886445,612.876398,370.102971,8808.450710
1014.886764,459.657299,-0.000000,8808.450710
1014.887083,689.485948,-0.000000,9030.512492
1014.887402,689.485948,-0.000000,9474.636058
1014.887720,306.438199,-0.000000,9622.677246
1014.888039,306.438199,-0.000000,9844.739029
1014.888358,306.438199,370.102971,10288.862594
1014.888677,306.438199,222.061783,10510.924376
1014.888996,0.000000,370.102971,10510.924376
1014.889315,0.000000,740.205942,10436.903782
1014.889634,-229.828649,592.164754,10807.006753
1014.889953,-153.219100,518.144159,10510.924376
1014.890271,0.000000,518.144159,10584.944971
1014.890590,-229.828649,444.123565,10584.944971
1014.890909,0.000000,666.185348,10436.903782
1014.891228,0.000000,962.267725,10436.903782
1014.891547,0.000000,814.226536,10288.862594
1014.891866,-229.828649,1258.350101,10584.944971
1014.892185,0.000000,1036.288319,10584.944971
1014.892504,0.000000,1406.391290,10214.842000
1014.892822,-229.828649,1480.411884,9918.759623
1014.893141,0.000000,1628.453072,9918.759623
1014.893460,229.828649,1628.453072,9844.739029
1014.893779,459.657299,1332.370696,9622.677246
1014.894098,536.266849,1332.370696,9548.656652
1014.894417,229.828649,1332.370696,9622.677246
1014.894736,153.219100,962.267725,9474.636058
1014.895055,536.266849,1036.288319,9918.759623
1014.895374,383.047749,962.267725,9844.739029
1014.895692,459.657299,1036.288319,9696.697840
1014.896011,0.000000,962.267725,9548.656652
1014.896330,612.876398,740.205942,9326.594869
1014.896649,459.657299,518.144159,9400.615463
1014.896968,459.657299,222.061783,9252.574275
1014.897287,459.657299,-0.000000,9252.574275
1014.897606,383.047749,-444.123565,9178.553681
1014.897925,383.047749,-592.164754,9178.553681
1014.898243,383.047749,-740.205942,9252.574275
1014.898562,383.047749,-740.205942,9326.594869
1014.898881,689.485948,-888.247130,9252.574275
1014.899200,383.047749,-888.247130,9030.512492
1014.899519,536.266849,-888.247130,8808.450710
1014.899838,766.095498,-1036.288319,8660.409521
1014.900157,995.924147,-1036.288319,8660.409521
1014.900476,1072.533697,-1406.391290,8586.388927
1014.900794,1072.533697,-1480.411884,8882.471304
1014.901113,689.485948,-1406.391290,8364.327145
1014.901432,766.095498,-1332.370696,8364.327145
1014.901751,689.485948,-1184.329507,8512.368333
1014.902070,612.876398,-1258.350101,8512.368333
1014.902389,689.485948,-518.144159,8808.450710
1014.902708,459.657299,-888.247130,8808.450710
1014.903027,689.485948,-666.185348,8438.347739
1014.903346,459.657299,-592.164754,8734.430116
1014.903664,459.657299,-518.144159,8512.368333
1014.903983,536.266849,-888.247130,8586.388927
1014.904302,229.828649,-814.226536,8364.327145
1014.904621,306.438199,-370.102971,8586.388927
1014.904940,306.438199,-74.020594,8512.368333
1014.905259,76.609550,-222.061783,8364.327145
1014.905578,459.657299,-148.041188,8290.306550
1014.905897,153.219100,296.082377,8660.409521
1014.906215,306.438199,518.144159,8364.327145
1014.906534,306.438199,444.123565,8438.347739
1014.906853,536.266849,666.185348,8660.409521
1014.907172,459.657299,592.164754,8882.471304
1014.907491,919.314598,666.185348,8882.471304
1014.907810,919.314598,962.267725,8882.471304
1014.908129,919.314598,814.226536,9030.512492
1014.908448,1149.143247,888.247130,8956.491898
1014.908767,459.657299,1110.308913,9178.553681
1014.909085,1225.752797,1406.391290,9252.574275
1014.909404,842.705048,1036.288319,9548.656652
1014.909723,766.095498,1184.329507,9770.718434
1014.910042,689.485948,888.247130,10362.883188
1014.910361,383.047749,1184.329507,10140.821405
1014.910680,689.485948,1036.288319,10288.862594
1014.910999,689.485948,1480.411884,10288.862594
1014.911318,76.609550,1554.432478,10288.862594
1014.911636,842.705048,1628.453072,10362.883188
1014.911955,306.438199,1554.432478,10214.842000
1014.912274,766.095498,1776.494261,10066.800811
1014.912593,306.438199,1776.494261,10288.862594
1014.912912,383.047749,1554.432478,10140.821405
1014.913231,306.438199,1480.411884,10288.862594
1014.913550,229.828649,1628.453072,10362.883188
1014.913869,153.219100,1702.473667,10362.883188
1014.914188,153.219100,1628.453072,10066.800811
1014.914507,76.609550,1480.411884,9918.759623
1014.914826,229.828649,1924.535449,10066.800811
1014.915145,0.000000,1332.370696,9992.780217
1014.915464,153.219100,1332.370696,9918.759623
1014.915783,0.000000,962.267725,9770.718434
1014.916102,0.000000,814.226536,9696.697840
1014.916421,76.609550,888.247130,9992.780217
1014.916740,229.828649,666.185348,9918.759623
1014.917059,459.657299,518.144159,9770.718434
1014.917378,536.266849,518.144159,9622.677246
1014.917697,459.657299,296.082377,9548.656652
1014.918016,76.609550,518.144159,9400.615463
1014.918335,153.219100,222.061783,9400.615463
1014.918654,383.047749,148.041188,9104.533087
1014.918973,689.485948,-148.041188,9178.553681
1014.919292,536.266849,-222.061783,9104.533087
1014.919611,612.876398,-444.123565,8956.491898
1014.919930,536.266849,-370.102971,8808.450710
1014.920249,536.266849,-370.102971,8660.409521
1014.920568,536.266849,-666.185348,8586.388927
1014.920887,459.657299,-518.144159,8512.368333
1014.921206,536.266849,-148.041188,8512.368333
1014.921525,612.876398,-666.185348,8364.327145
1014.921844,459.657299,-518.144159,8068.244768
1014.922163,995.924147,-444.123565,8216.285956
1014.922482,842.705048,-740.205942,7994.224174
1014.922801,842.705048,-666.185348,8068.244768
1014.923120,842.705048,-814.226536,7994.224174
1014.923439,766.095498,-518.144159,8290.306550
1014.923758,766.095498,-370.102971,8068.244768
1014.924077,766.095498,-592.164754,7920.203579
1014.924396,766.095498,-444.123565,7846.182985
1014.924715,842.705048,-74.020594,8142.265362
1014.925034,766.095498,-148.041188,8142.265362
1014.925353,766.095498,-0.000000,8068.244768
1014.925672,536.266849,-0.000000,7994.224174
1014.925991,459.657299,-0.000000,8142.265362
1014.926310,919.314598,222.061783,8438.347739
1014.926629,612.876398,-0.000000,8586.388927
1014.926948,459.657299,148.041188,8586.388927
1014.927267,536.266849,444.123565,8734.430116
1014.927586,612.876398,296.082377,9030.512492
1014.927905,612.876398,518.144159,9104.533087
1014.928224,383.047749,592.164754,9030.512492
1014.928543,536.266849,962.267725,8956.491898
1014.928862,766.095498,888.247130,9252.574275
1014.929181,842.705048,1258.350101,9474.636058
1014.929500,1378.971896,1110.308913,9400.615463
1014.929819,842.705048,1036.288319,9622.677246
1014.930138,612.876398,1184.329507,9696.697840
1014.930457,612.876398,1480.411884,9770.718434
1014.930776,1149.143247,1480.411884,9844.739029
1014.931095,842.705048,1554.432478,9844.739029
1014.931414,766.095498,1628.453072,9992.780217
1014.931733,842.705048,1850.514855,10140.821405
1014.932052,842.705048,1924.535449,10510.924376
1014.932371,919.314598,1998.556043,10584.944971
1014.932690,995.924147,1998.556043,10510.924376
1014.933009,919.314598,2072.576638,10510.924376
1014.933328,919.314598,2220.617826,10436.903782
1014.933647,919.314598,2294.638420,10362.883188
1014.933966,612.876398,1998.556043,10584.944971
1014.934285,766.095498,2072.576638,10362.883188
1014.934604,689.485948,2072.576638,10288.862594
1014.934923,689.485948,2294.638420,10510.924376
1014.935242,459.657299,1998.556043,10436.903782
1014.935561,459.657299,1702.473667,10362.883188
1014.935879,612.876398,2072.576638,10362.883188
1014.936198,536.266849,1924.535449,10140.821405
1014.936517,536.266849,2072.576638,10066.800811
1014.936836,383.047749,1924.535449,9844.739029
1014.937155,766.095498,1702.473667,9918.759623
1014.937474,536.266849,1480.411884,9844.739029
1014.937793,459.657299,1480.411884,9548.656652
1014.938112,306.438199,1036.288319,9696.697840
1014.938431,229.828649,888.247130,9474.636058
1014.938750,459.657299,444.123565,9474.636058
1014.939069,229.828649,296.082377,9474.636058
1014.939388,153.219100,222.061783,9474.636058
1014.939707,383.047749,-0.000000,9326.594869
1014.940026,306.438199,-0.000000,9474.636058
1014.940345,459.657299,-74.020594,9104.533087
1014.940664,153.219100,-222.061783,9252.574275
1014.940983,459.657299,-444.123565,8882.471304
1014.941302,229.828649,-592.164754,8956.491898
1014.941621,229.828649,-740.205942,9326.594869
1014.941940,229.828649,-1110.308913,8586.388927
1014.942259,229.828649,-1036.288319,8808.450710
1014.942578,229.828649,-1036.288319,8734.430116
1014.942897,766.095498,-1110.308913,8216.285956
1014.943216,153.219100,-1258.350101,8586.388927
1014.943535,306.438199,-814.226536,8216.285956
1014.943854,459.657299,-740.205942,8068.244768
1014.944173,383.047749,-888.247130,8142.265362
1014.944492,1072.533697,-666.185348,7920.203579
1014.944811,536.266849,-814.226536,7846.182985
1014.945130,383.047749,-962.267725,7846.182985
1014.945449,536.266849,-888.247130,7698.141797
1014.945768,459.657299,-814.226536,7920.203579
1014.946087,536.266849,-814.226536,7920.203579
1014.946406,612.876398,-592.164754,7772.162391
1014.946725,536.266849,-296.082377,8068.244768
1014.947044,612.876398,-296.082377,7772.162391
1014.947363,536.266849,-74.020594,8142.265362
1014.947682,612.876398,-0.000000,8068.244768
1014.948001,536.266849,-0.000000,8290.306550
1014.948320,459.657299,-74.020594,8438.347739
1014.948639,536.266849,-0.000000,8438.347739
1014.948958,536.266849,-0.000000,8216.285956
1014.949277,383.047749,370.102971,8586.388927
1014.949596,229.828649,592.164754,8660.409521
1014.949915,383.047749,444.123565,8956.491898
1014.950234,459.657299,518.144159,9178.553681
1014.950553,383.047749,740.205942,9252.574275
1014.950872,689.485948,814.226536,9326.594869
1014.951191,612.876398,888.247130,9474.636058
1014.951510,459.657299,888.247130,9548.656652
1014.951829,383.047749,888.247130,9548.656652
1014.952148,229.828649,740.205942,9844.739029
1014.952467,536.266849,888.247130,9918.759623
1014.952786,306.438199,1036.288319,10140.821405
1014.953105,459.657299,1036.288319,10288.862594
1014.953424,612.876398,1184.329507,10510.924376
1014.953743,459.657299,962.267725,10584.944971
1014.954062,383.047749,1480.411884,10881.027347
1014.954381,153.219100,1258.350101,10510.924376
1014.954700,76.609550,1480.411884,10436.903782
1014.955019,383.047749,1258.350101,10807.006753
1014.955338,383.047749,1406.391290,10362.883188
1014.955657,536.266849,1702.473667,10362.883188
1014.955976,536.266849,1776.494261,10288.862594
1014.956295,306.438199,1480.411884,10362.883188
1014.956614,76.609550,1332.370696,10510.924376
1014.956933,383.047749,1850.514855,10362.883188
1014.957252,306.438199,1406.391290,10436.903782
1014.957571,383.047749,1628.453072,9992.780217
1014.957890,459.657299,1628.453072,9992.780217
1014.958209,459.657299,1554.432478,9918.759623
1014.958528,689.485948,1332.370696,9918.759623
1014.958847,306.438199,962.267725,9770.718434
1014.959166,459.657299,1184.329507,9918.759623
1014.959485,229.828649,888.247130,9696.697840
1014.959804,536.266849,1036.288319,9548.656652
1014.960123,612.876398,814.226536,9474.636058
1014.960442,306.438199,518.144159,9474.636058
1014.960761,536.266849,518.144159,9474.636058
1014.961080,536.266849,148.041188,9326.594869
1014.961399,689.485948,296.082377,9326.594869
1014.961718,383.047749,-0.000000,9252.574275
1014.962037,306.438199,-74.020594,9178.553681
1014.962356,229.828649,-148.041188,9104.533087
1014.962675,459.657299,-222.061783,9178.553681
1014.962994,153.219100,-592.164754,8586.388927
1014.963313,229.828649,-814.226536,8734.430116
1014.963632,153.219100,-740.205942,8586.388927
1014.963951,306.438199,-1036.288319,8586.388927
1014.964270,153.219100,-1184.329507,8808.450710
1014.964589,229.828649,-1110.308913,8660.409521
1014.964908,76.609550,-1184.329507,8660.409521
1014.965227,153.219100,-1184.329507,8734.430116
1014.965546,153.219100,-1110.308913,8586.388927
1014.965865,383.047749,-1036.288319,8660.409521
1014.966184,229.828649,-888.247130,8142.265362
1014.966503,76.609550,-888.247130,8438.347739
1014.966822,153.219100,-888.247130,8142.265362
1014.967141,229.828649,-1110.308913,8216.285956
1014.967460,229.828649,-1036.288319,8364.327145
1014.967779,229.828649,-740.205942,8068.244768
1014.968098,76.609550,-592.164754,8364.327145
1014.968417,0.000000,-592.164754,8216.285956
1014.968736,229.828649,-296.082377,8142.265362
1014.969055,0.000000,-592.164754,8290.306550
1014.969374,612.876398,-148.041188,8068.244768
1014.969693,229.828649,-222.061783,8438.347739
1014.970012,0.000000,-222.061783,8512.368333
1014.970331,76.609550,-222.061783,8586.388927
1014.970650,153.219100,-0.000000,8660.409521
1014.970969,306.438199,-0.000000,8956.491898
1014.971288,306.438199,-0.000000,8882.471304
1014.971607,229.828649,-0.000000,8734.430116
1014.971926,229.828649,296.082377,8956.491898
1014.972245,76.609550,370.102971,9326.594869
1014.972564,459.657299,444.123565,9030.512492
1014.972883,306.438199,740.205942,9400.615463
1014.973202,383.047749,444.123565,9474.636058
1014.973521,459.657299,518.144159,9474.636058
1014.973840,383.047749,740.205942,9474.636058
1014.974159,306.438199,444.123565,9696.697840
1014.974478,229.828649,814.226536,9770.718434
1014.974797,306.438199,962.267725,10140.821405
1014.975116,689.485948,962.267725,9696.697840
1014.975435,229.828649,740.205942,9992.780217
1014.975754,383.047749,814.226536,9844.739029
1014.976073,383.047749,814.226536,10288.862594
1014.976392,459.657299,592.164754,10066.800811
1014.976711,229.828649,814.226536,9992.780217
1014.977030,383.047749,740.205942,10362.883188
1014.977349,306.438199,888.247130,10362.883188
1014.977668,383.047749,814.226536,10140.821405
1014.977987,306.438199,814.226536,10288.862594
1014.978306,229.828649,962.267725,10066.800811
1014.978625,306.438199,740.205942,10140.821405
1014.978944,536.266849,888.247130,10066.800811
1014.979263,919.314598,592.164754,10214.842000
1014.979582,306.438199,888.247130,10066.800811
1014.979901,229.828649,888.247130,9918.759623
1014.980220,306.438199,814.226536,9992.780217
1014.980539,0.000000,666.185348,9696.697840
1014.980858,383.047749,666.185348,9548.656652
1014.981177,459.657299,740.205942,9548.656652
1014.981496,689.485948,666.185348,9474.636058
1014.981815,612.876398,444.123565,9400.615463
1014.982134,689.485948,444.123565,9252.574275
1014.982453,383.047749,518.144159,9474.636058
1014.982772,612.876398,148.041188,9030.512492
1014.983091,689.485948,148.041188,9178.553681
1014.983410,766.095498,222.061783,8956.491898
1014.983729,459.657299,-148.041188,8882.471304
1014.984048,919.314598,148.041188,8882.471304
1014.984367,612.876398,-74.020594,8956.491898
1014.984686,612.876398,-148.041188,8882.471304
1014.985005,842.705048,-222.061783,8808.450710
1014.985324,536.266849,-222.061783,8734.430116
1014.985643,383.047749,-592.164754,8364.327145
1014.985962,766.095498,-296.082377,8882.471304
1014.986281,459.657299,-296.082377,8586.388927
1014.986600,612.876398,-370.102971,8660.409521
1014.986919,459.657299,-592.164754,8734.430116
1014.987238,383.047749,-296.082377,8512.368333
1014.987557,536.266849,-296.082377,8512.368333
1014.987876,459.657299,-370.102971,8438.347739
1014.988195,383.047749,-222.061783,8586.388927
1014.988514,306.438199,-666.185348,8586.388927
1014.988833,383.047749,-444.123565,8438.347739
1014.989152,306.438199,-296.082377,8734.430116
1014.989471,229.828649,-370.102971,8586.388927
1014.989790,612.876398,-370.102971,8660.409521
1014.990109,536.266849,-222.061783,8660.409521
1014.990428,306.438199,-148.041188,8808.450710
1014.990747,383.047749,-148.041188,8734.430116
1014.991066,459.657299,-222.061783,8882.471304
1014.991385,383.047749,-222.061783,8956.491898
1014.991704,383.047749,-0.000000,8956.491898
1014.992023,383.047749,-0.000000,9178.553681
1014.992342,383.047749,148.041188,9178.553681
1014.992661,459.657299,222.061783,9104.533087
1014.992980,536.266849,222.061783,9326.594869
1014.993299,766.095498,666.185348,9326.594869
1014.993618,536.266849,666.185348,9252.574275
1014.993937,306.438199,666.185348,9178.553681
1014.994256,459.657299,740.205942,9326.594869
1014.994575,536.266849,592.164754,9548.656652
1014.994894,306.438199,740.205942,9696.697840
1014.995213,842.705048,1036.288319,9770.718434
1014.995532,459.657299,962.267725,9770.718434
1014.995851,459.657299,888.247130,9696.697840
1014.996170,612.876398,888.247130,9918.759623
1014.996489,536.266849,962.267725,9918.759623
1014.996808,383.047749,962.267725,9844.739029
1014.997127,383.047749,1110.308913,9992.780217
1014.997446,536.266849,1036.288319,10066.800811
1014.997765,612.876398,962.267725,9918.759623
1014.998084,536.266849,1036.288319,9844.739029
1014.998403,383.047749,1036.288319,9696.697840
1014.998722,153.219100,1110.308913,9992.780217
1014.999040,536.266849,814.226536,10066.800811
1014.999359,536.266849,1110.308913,9770.718434
1014.999678,536.266849,1258.350101,9770.718434
1014.999997,536.266849,1110.308913,9844.739029
1015.000316,76.609550,1110.308913,9844.739029
1015.000635,306.438199,888.247130,9770.718434
1015.000954,383.047749,962.267725,9622.677246
1015.001273,383.047749,592.164754,9918.759623
1015.001592,306.438199,814.226536,9622.677246
1015.001911,229.828649,888.247130,9770.718434
1015.002230,689.485948,666.185348,9622.677246
1015.002549,383.047749,666.185348,9474.636058
1015.002868,459.657299,592.164754,9474.636058
1015.003187,689.485948,444.123565,9252.574275
1015.003506,229.828649,222.061783,9622.677246
1015.003825,536.266849,370.102971,9400.615463
1015.004144,689.485948,518.144159,9104.533087
1015.004463,383.047749,148.041188,8956.491898
1015.004782,766.095498,-0.000000,9030.512492
1015.005101,766.095498,-74.020594,9104.533087
1015.005420,612.876398,-0.000000,8734.430116
1015.005739,842.705048,-0.000000,8808.450710
1015.006058,612.876398,-0.000000,8586.388927
1015.006377,919.314598,-0.000000,8586.388927
1015.006696,459.657299,-148.041188,8438.347739
1015.007015,766.095498,-0.000000,8364.327145
1015.007334,383.047749,-296.082377,8512.368333
1015.007653,689.485948,-74.020594,8586.388927
1015.007972,459.657299,-296.082377,8512.368333
1015.008291,919.314598,-74.020594,8438.347739
1015.008610,689.485948,-74.020594,8438.347739
1015.008929,842.705048,-0.000000,8586.388927
1015.009248,766.095498,296.082377,8438.347739
1015.009567,766.095498,-0.000000,8586.388927
1015.009886,612.876398,-0.000000,8364.327145
1015.010205,919.314598,-0.000000,8438.347739
1015.010524,766.095498,-0.000000,8290.306550
1015.010843,842.705048,-74.020594,8438.347739
1015.011162,766.095498,74.020594,8660.409521
1015.011481,842.705048,222.061783,8586.388927
1015.011800,612.876398,296.082377,8660.409521
1015.012119,612.876398,222.061783,8734.430116
1015.012438,919.314598,370.102971,8882.471304
1015.012757,536.266849,370.102971,8956.491898
1015.013076,459.657299,740.205942,9104.533087
1015.013395,383.047749,370.102971,9030.512492
1015.013714,383.047749,592.164754,9326.594869
1015.014033,306.438199,518.144159,9474.636058
1015.014351,842.705048,740.205942,9400.615463
1015.014670,459.657299,666.185348,9400.615463
1015.014989,536.266849,740.205942,9474.636058
1015.015308,459.657299,814.226536,9474.636058
1015.015627,383.047749,962.267725,9696.697840
1015.015946,153.219100,740.205942,9474.636058
1015.016265,153.219100,740.205942,9696.697840
1015.016584,306.438199,444.123565,9696.697840
1015.016902,0.000000,222.061783,9696.697840
1015.017221,153.219100,-222.061783,9696.697840
1015.017540,-383.047749,-0.000000,10066.800811
1015.017859,-306.438199,-0.000000,9844.739029
1015.018178,0.000000,222.061783,9992.780217
1015.018497,0.000000,296.082377,9548.656652
1015.018816,76.609550,-0.000000,9548.656652
1015.019135,-306.438199,148.041188,8882.471304
1015.019454,-459.657299,-0.000000,8660.409521
1015.019772,-842.705048,-370.102971,8512.368333
1015.020091,-766.095498,-740.205942,8808.450710
1015.020410,-1762.019645,-1110.308913,8882.471304
1015.020729,-2298.286494,-1110.308913,8956.491898
1015.021048,-2757.943793,-1406.391290,8808.450710
1015.021367,-3217.601092,-1332.370696,8956.491898
1015.021686,-3447.429741,-1702.473667,9030.512492
1015.022005,-3524.039291,-1554.432478,9326.594869
1015.022323,-3524.039291,-1554.432478,9474.636058
1015.022642,-3753.867940,-1628.453072,9252.574275
1015.022961,-3370.820191,-1554.432478,9326.594869
1015.023280,-3064.381992,-1850.514855,8882.471304
1015.023599,-2757.943793,-1628.453072,8956.491898
1015.023918,-3140.991542,-1998.556043,7846.182985
1015.024237,-2834.553343,-2146.597232,8438.347739
1015.024556,-2451.505594,-2664.741391,8290.306550
1015.024875,-2911.162892,-2738.761985,8586.388927
1015.025193,-2451.505594,-3182.885551,9030.512492
1015.025512,-2604.724693,-3108.864956,9252.574275
1015.025831,-2987.772442,-2960.823768,9400.615463
1015.026150,-2757.943793,-3256.906145,9474.636058
1015.026469,-2451.505594,-3478.967927,9474.636058
1015.026788,-3294.210641,-3923.091493,9992.780217
1015.027107,-2834.553343,-3923.091493,10732.986159
1015.027426,-3217.601092,-4293.194464,10955.047942
1015.027744,-2757.943793,-3997.112087,11177.109724
1015.028063,-2451.505594,-3701.029710,10807.006753
1015.028382,-2068.457845,-3404.947333,10584.944971
1015.028701,-1532.190996,-3330.926739,10510.924376
1015.029020,-1378.971896,-2886.803174,10214.842000
1015.029339,-919.314598,-2886.803174,9918.759623
1015.029658,-1608.800546,-2738.761985,9622.677246
1015.029977,-2068.457845,-3108.864956,9696.697840
1015.030295,-2451.505594,-3034.844362,9622.677246
1015.030614,-2451.505594,-3478.967927,9548.656652
1015.030933,-2911.162892,-4293.194464,10140.821405
1015.031252,-3524.039291,-4367.215058,11103.089130
1015.031571,-3983.696590,-4367.215058,11473.192101
1015.031890,-3677.258390,-4589.276840,12213.398043
1015.032209,-3064.381992,-3552.988522,12509.480420
1015.032528,-1685.410096,-2294.638420,12435.459826
1015.032847,-459.657299,-740.205942,11251.130318
1015.033165,919.314598,962.267725,9844.739029
1015.033484,2451.505594,2146.597232,7920.203579
1015.033803,2911.162892,3034.844362,6661.853478
1015.034122,3753.867940,3182.885551,5033.400406
1015.034441,3370.820191,3182.885551,2886.803174
1015.034760,2681.334243,2220.617826,2738.761985
1015.035079,1149.143247,-0.000000,4515.256246
1015.035398,-306.438199,-1776.494261,5551.544565
1015.035716,-2681.334243,-2664.741391,6957.935855
1015.036035,-4979.620737,-3330.926739,9104.533087
1015.036354,-7277.907231,-3330.926739,10288.862594
1015.036673,-8656.879127,-3182.885551,11029.068536
1015.036992,-10035.851024,-2960.823768,12139.377449
1015.037311,-10572.117872,-2738.761985,12657.521608
1015.037630,-10035.851024,-2590.720797,12583.501014
1015.037949,-8733.488677,-2146.597232,13397.727550
1015.038267,-7277.907231,-1332.370696,12731.542202
1015.038586,-5362.668486,-814.226536,11695.253884
1015.038905,-2604.724693,-0.000000,10658.965565
1015.039224,0.000000,888.247130,7994.224174
1015.039543,2221.676944,296.082377,6661.853478
1015.039862,4060.306139,-0.000000,5255.462188
1015.040181,4519.963438,-222.061783,5181.441594
1015.040500,4060.306139,-1776.494261,4367.215058
1015.040819,2757.943793,-2738.761985,5329.482782
1015.041137,536.266849,-4885.359217,6809.894666
1015.041456,-1915.238745,-5847.626942,7994.224174
1015.041775,-4136.915689,-7402.059420,9770.718434
1015.042094,-5362.668486,-8734.430116,13693.809927
1015.042413,-5439.278036,-9696.697840,17394.839637
1015.042732,-4673.182538,-9104.533087,18949.272115
1015.043051,-3140.991542,-6365.771101,20207.622217
1015.043370,-766.095498,-2738.761985,18061.024985
1015.043688,2145.067394,2294.638420,12879.583391
1015.044007,5515.887586,6439.791695,6587.832884
1015.044326,7431.126331,7476.080014,2368.659014
1015.044645,9193.145976,6809.894666,148.041188
1015.044964,8886.707777,3997.112087,-518.144159
1015.045283,7737.564530,-0.000000,3034.844362
1015.045602,5209.449386,-3552.988522,5773.606348
1015.045921,2221.676944,-4293.194464,8290.306550
1015.046239,-229.828649,-4071.132681,9770.718434
1015.046558,-2987.772442,-2368.659014,10066.800811
1015.046877,-4903.011187,-1850.514855,10362.883188
1015.047196,-6435.202183,-518.144159,11325.150913
1015.047515,-6894.859482,-444.123565,12139.377449
1015.047834,-7584.345430,-1036.288319,12139.377449
1015.048153,-7354.516781,-962.267725,12657.521608
1015.048472,-6281.983084,-1554.432478,12731.542202
1015.048791,-4596.572988,-1110.308913,11177.109724
1015.049109,-1915.238745,444.123565,8364.327145
1015.049428,459.657299,2886.803174,7328.038826
1015.049747,2681.334243,4367.215058,5625.565159
1015.050066,4213.525239,4663.297435,5033.400406
1015.050385,4979.620737,4367.215058,5477.523971
1015.050704,4596.572988,3997.112087,5181.441594
1015.051023,3370.820191,2516.700203,5477.523971
1015.051342,1915.238745,-0.000000,7994.224174
1015.051660,-612.876398,-1998.556043,9992.780217
1015.051979,-2451.505594,-3404.947333,11399.171507
1015.052298,-3447.429741,-3256.906145,12361.439231
1015.052617,-3600.648841,-3627.009116,13767.830521
1015.052936,-3447.429741,-3034.844362,14211.954086
1015.053255,-2374.896044,-1850.514855,13175.665768
1015.053574,0.000000,-814.226536,10066.800811
1015.053893,995.924147,962.267725,8586.388927
1015.054211,2374.896044,1850.514855,7624.121203
1015.054530,3294.210641,1998.556043,6069.688724
1015.054849,2911.162892,2664.741391,4885.359217
1015.055168,2834.553343,2516.700203,5181.441594
1015.055487,2298.286494,1258.350101,6291.750507
1015.055806,1762.019645,-370.102971,8512.368333
1015.056125,689.485948,-888.247130,11991.336260
1015.056444,-766.095498,-1776.494261,13619.789333
1015.056763,-1762.019645,-1406.391290,14211.954086
1015.057081,-1762.019645,-222.061783,15100.201217
1015.057400,-1685.410096,1036.288319,13619.789333
1015.057719,-842.705048,1702.473667,10732.986159
1015.058038,-153.219100,2220.617826,7994.224174
1015.058357,383.047749,1332.370696,7402.059420
1015.058676,459.657299,-1110.308913,7254.018232
1015.058995,995.924147,-2146.597232,7624.121203
1015.059314,842.705048,-2590.720797,8142.265362
1015.059632,766.095498,-1628.453072,8512.368333
1015.059951,1072.533697,-518.144159,8438.347739
1015.060270,1072.533697,888.247130,8586.388927
1015.060589,383.047749,1776.494261,8364.327145
1015.060908,0.000000,1406.391290,8734.430116
1015.061227,-1149.143247,370.102971,9696.697840
1015.061546,-2451.505594,-1702.473667,11695.253884
1015.061865,-3064.381992,-3701.029710,12657.521608
1015.062184,-3140.991542,-4145.153275,13471.748144
1015.062502,-2528.115143,-4293.194464,12657.521608
1015.062821,-1608.800546,-3108.864956,11843.295072
1015.063140,-229.828649,-1332.370696,10658.965565
1015.063459,1149.143247,1036.288319,8142.265362
1015.063778,2451.505594,3701.029710,4885.359217
1015.064097,3447.429741,4071.132681,3923.091493
1015.064416,3140.991542,2664.741391,3849.070898
1015.064735,2451.505594,-0.000000,4441.235652
1015.065053,995.924147,-1628.453072,5921.647536
1015.065372,-612.876398,-3034.844362,8290.306550
1015.065691,-1302.362347,-3701.029710,10214.842000
1015.066010,-2221.676944,-3256.906145,11843.295072
1015.066329,-2145.067394,-1258.350101,12731.542202
1015.066648,-1378.971896,592.164754,11399.171507
1015.066967,-919.314598,1702.473667,9992.780217
1015.067286,229.828649,2072.576638,10066.800811
1015.067604,1608.800546,1480.411884,9696.697840
1015.067923,2681.334243,740.205942,8660.409521
1015.068242,3217.601092,518.144159,8290.306550
1015.068561,4060.306139,-0.000000,7624.121203
1015.068880,4903.011187,814.226536,6143.709319
1015.069199,4903.011187,1924.535449,4737.318029
1015.069518,4519.963438,2886.803174,3997.112087
1015.069837,3907.087040,2442.679609,3627.009116
1015.070156,2451.505594,1110.308913,6365.771101
1015.070474,1302.362347,-148.041188,8956.491898
1015.070793,-536.266849,-1036.288319,10436.903782
1015.071112,-1838.629195,-1924.535449,11695.253884
1015.071431,-2834.553343,-2738.761985,13545.768739
1015.071750,-3140.991542,-2368.659014,13249.686362
1015.072069,-3064.381992,-1702.473667,12361.439231
1015.072388,-2451.505594,-148.041188,11029.068536
1015.072707,-1685.410096,518.144159,9770.718434
1015.073025,-459.657299,592.164754,9400.615463
1015.073344,229.828649,222.061783,9400.615463
1015.073663,612.876398,-0.000000,8438.347739
1015.073982,1149.143247,740.205942,7846.182985
1015.074301,1532.190996,1110.308913,8290.306550
1015.074620,1302.362347,962.267725,8808.450710
1015.074939,612.876398,666.185348,9104.533087
1015.075258,-153.219100,1184.329507,8438.347739
1015.075576,-842.705048,-0.000000,9178.553681
1015.075895,-2145.067394,-592.164754,10140.821405
1015.076214,-1302.362347,-1776.494261,12435.459826
1015.076533,-2145.067394,-1110.308913,11769.274478
1015.076852,-1225.752797,-814.226536,11695.253884
1015.077171,-766.095498,-814.226536,11917.315666
1015.077490,306.438199,592.164754,11769.274478
1015.077809,1532.190996,1924.535449,9844.739029
1015.078128,2681.334243,3330.926739,7476.080014
1015.078446,2987.772442,3701.029710,6439.791695
1015.078765,3217.601092,2960.823768,6143.709319
1015.079084,2987.772442,1924.535449,7105.977043
1015.079403,2451.505594,370.102971,8734.430116
1015.079722,995.924147,-74.020594,10066.800811
1015.080041,536.266849,222.061783,11029.068536
1015.080360,306.438199,-74.020594,12657.521608
1015.080679,-766.095498,666.185348,12287.418637
1015.080997,-919.314598,1554.432478,11325.150913
1015.081316,-1072.533697,1850.514855,9770.718434
1015.081635,-229.828649,1332.370696,10214.842000
1015.081954,995.924147,-0.000000,10140.821405
1015.082273,1225.752797,222.061783,9030.512492
1015.082592,1991.848295,148.041188,8364.327145
1015.082911,2834.553343,148.041188,7476.080014
1015.083230,3217.601092,1110.308913,7254.018232
1015.083548,3753.867940,2368.659014,6365.771101
1015.083867,2681.334243,3923.091493,5551.544565
1015.084186,2068.457845,3404.947333,5403.503377
1015.084505,919.314598,2812.782580,7105.977043
1015.084824,229.828649,1406.391290,9326.594869
1015.085143,-1149.143247,148.041188,10510.924376
1015.085462,-2451.505594,-0.000000,11769.274478
1015.085781,-2757.943793,-666.185348,12657.521608
1015.086100,-2604.724693,-148.041188,13027.624579
1015.086418,-2298.286494,962.267725,12583.501014
1015.086737,-1378.971896,2516.700203,10436.903782
1015.087056,0.000000,3330.926739,8734.430116
1015.087375,1302.362347,3330.926739,7846.182985
1015.087694,3294.210641,2664.741391,7920.203579
1015.088013,3447.429741,2072.576638,7031.956449
1015.088332,3524.039291,1554.432478,6439.791695
1015.088651,3524.039291,962.267725,6513.812290
1015.088969,3294.210641,740.205942,7105.977043
1015.089288,2757.943793,518.144159,7105.977043
1015.089607,1685.410096,1332.370696,6587.832884
1015.089926,612.876398,740.205942,7179.997637
1015.090245,-842.705048,-444.123565,8882.471304
1015.090564,-1608.800546,-2072.576638,10881.027347
1015.090883,-2987.772442,-2960.823768,13027.624579
1015.091202,-3677.258390,-2664.741391,13915.871710
1015.091520,-2911.162892,-1998.556043,14211.954086
1015.091839,-1915.238745,-1258.350101,13989.892304
1015.092158,-383.047749,-370.102971,13249.686362
1015.092477,919.314598,1628.453072,10288.862594
1015.092796,2911.162892,2664.741391,7772.162391
1015.093115,3983.696590,2664.741391,6809.894666
1015.093434,4443.353888,1850.514855,7105.977043
1015.093753,4749.792088,1258.350101,7105.977043
1015.094072,4366.744339,962.267725,6735.874072
1015.094390,3600.648841,222.061783,7550.100608
1015.094709,2528.115143,-296.082377,8882.471304
1015.095028,1225.752797,-370.102971,9474.636058
1015.095347,383.047749,-0.000000,8882.471304
1015.095666,-995.924147,-74.020594,8956.491898
1015.095985,-1915.238745,-666.185348,9770.718434
1015.096304,-2374.896044,-1332.370696,10881.027347
1015.096623,-2068.457845,-1554.432478,11029.068536
1015.096941,-1378.971896,-1554.432478,11695.253884
1015.097260,-229.828649,-222.061783,10955.047942
1015.097579,153.219100,1184.329507,10362.883188
1015.097898,1838.629195,2590.720797,9474.636058
1015.098217,2757.943793,4515.256246,7698.141797
1015.098536,4213.525239,5625.565159,5699.585753
1015.098855,4366.744339,5181.441594,5403.503377
1015.099174,4213.525239,3701.029710,6291.750507
1015.099493,3907.087040,2294.638420,7105.977043
1015.099811,2528.115143,1184.329507,7105.977043
1015.100130,1455.581446,518.144159,8512.368333
1015.100449,0.000000,-444.123565,9696.697840
1015.100768,-766.095498,-0.000000,9918.759623
1015.101087,-1455.581446,888.247130,9326.594869
1015.101406,-995.924147,1332.370696,8586.388927
1015.101725,-1762.019645,888.247130,9178.553681
1015.102044,-1685.410096,148.041188,10288.862594
1015.102362,-1225.752797,-0.000000,10510.924376
1015.102681,-383.047749,-74.020594,9918.759623
1015.103000,306.438199,444.123565,10510.924376
1015.103319,1532.190996,1406.391290,10288.862594
1015.103638,2068.457845,2072.576638,9400.615463
1015.103957,2911.162892,3775.050304,8068.244768
1015.104276,3140.991542,4293.194464,6513.812290
1015.104595,2987.772442,3478.967927,7105.977043
1015.104913,2681.334243,1850.514855,8438.347739
1015.105232,1838.629195,962.267725,9474.636058
1015.105551,1072.533697,-0.000000,10288.862594
1015.105870,459.657299,-962.267725,10807.006753
1015.106189,-536.266849,-1332.370696,11769.274478
1015.106508,-766.095498,-740.205942,11325.150913
1015.106827,-1225.752797,-0.000000,10584.944971
1015.107146,-1378.971896,888.247130,8660.409521
1015.107465,-1225.752797,814.226536,8290.306550
1015.107783,-612.876398,222.061783,9178.553681
1015.108102,-612.876398,-370.102971,9696.697840
1015.108421,-689.485948,-592.164754,9918.759623
1015.108740,-383.047749,-296.082377,10066.800811
1015.109059,0.000000,296.082377,10881.027347
1015.109378,459.657299,1332.370696,10510.924376
1015.109697,842.705048,1850.514855,9326.594869
1015.110016,1149.143247,2516.700203,7624.121203
1015.110334,1225.752797,2294.638420,7698.141797
1015.110653,1149.143247,1110.308913,8438.347739
1015.110972,842.705048,296.082377,8808.450710
1015.111291,766.095498,-370.102971,9400.615463
1015.111610,229.828649,-518.144159,9252.574275
1015.111929,153.219100,-814.226536,9992.780217
1015.112248,0.000000,-0.000000,9696.697840
1015.112567,0.000000,814.226536,9326.594869
1015.112885,0.000000,1480.411884,7328.038826
1015.113204,536.266849,1110.308913,7254.018232
1015.113523,76.609550,370.102971,8660.409521
1015.113842,0.000000,-518.144159,9622.677246
1015.114161,-153.219100,-740.205942,9770.718434
1015.114480,0.000000,-740.205942,9992.780217
1015.114799,306.438199,-74.020594,10658.965565
1015.115118,689.485948,888.247130,10288.862594
1015.115437,1378.971896,1628.453072,9252.574275
1015.115756,1762.019645,2368.659014,7698.141797
1015.116075,2451.505594,2220.617826,7105.977043
1015.116394,2834.553343,1406.391290,7920.203579
1015.116713,2145.067394,370.102971,8216.285956
1015.117032,2298.286494,-0.000000,7920.203579
1015.117351,1608.800546,-148.041188,8216.285956
1015.117670,1608.800546,-814.226536,9178.553681
1015.117989,1072.533697,-740.205942,9178.553681
1015.118308,459.657299,444.123565,8586.388927
1015.118627,0.000000,1184.329507,8142.265362
1015.118946,-612.876398,1184.329507,7994.224174
1015.119265,-612.876398,-0.000000,9178.553681
1015.119584,-1378.971896,-222.061783,10584.944971
1015.119903,-1685.410096,-518.144159,11177.109724
1015.120222,-1302.362347,-370.102971,11103.089130
1015.120541,-1149.143247,148.041188,11769.274478
1015.120860,-612.876398,592.164754,11399.171507
1015.121179,229.828649,1628.453072,10436.903782
1015.121498,842.705048,2590.720797,8586.388927
1015.121817,1532.190996,2294.638420,7772.162391
1015.122136,1762.019645,1480.411884,7550.100608
1015.122455,1762.019645,370.102971,8142.265362
1015.122774,1685.410096,-518.144159,8364.327145
1015.123093,1072.533697,-1036.288319,9252.574275
1015.123412,766.095498,-1554.432478,9474.636058
1015.123731,76.609550,-1480.411884,10510.924376
1015.124050,-766.095498,-1332.370696,9992.780217
1015.124370,-919.314598,-0.000000,9030.512492
1015.124689,-1072.533697,370.102971,8956.491898
1015.125008,-1225.752797,-0.000000,9918.759623
1015.125327,-1302.362347,-740.205942,10510.924376
1015.125646,-1072.533697,-1110.308913,10807.006753
1015.125965,-766.095498,-962.267725,11473.192101
1015.126284,-536.266849,-296.082377,11547.212695
1015.126603,229.828649,518.144159,11103.089130
1015.126922,153.219100,1702.473667,10214.842000
1015.127241,1455.581446,2738.761985,8290.306550
1015.127560,2068.457845,2738.761985,7328.038826
1015.127879,2451.505594,2072.576638,7402.059420
1015.128198,2911.162892,1036.288319,8216.285956
1015.128517,2374.896044,-74.020594,8364.327145
1015.128836,1915.238745,-518.144159,8808.450710
1015.129155,1838.629195,-1850.514855,9622.677246
1015.129474,0.000000,-148.041188,8512.368333
1015.129793,1685.410096,-666.185348,9252.574275
1015.130112,229.828649,1258.350101,6513.812290
1015.130431,689.485948,1184.329507,7994.224174
1015.130750,229.828649,-444.123565,7772.162391
1015.131069,-842.705048,-0.000000,8734.430116
1015.131388,76.609550,-2516.700203,11399.171507
1015.131707,-612.876398,-74.020594,9400.615463
1015.132026,-306.438199,-666.185348,10362.883188
1015.132345,-459.657299,-1258.350101,11473.192101
1015.132664,-459.657299,1702.473667,10066.800811
1015.132983,0.000000,2368.659014,7328.038826
1015.133302,536.266849,1998.556043,7698.141797
1015.133621,153.219100,1998.556043,8586.388927
1015.133940,153.219100,-0.000000,8660.409521
1015.134259,-1072.533697,-518.144159,8660.409521
1015.134578,-612.876398,-1776.494261,10584.944971
1015.134897,-536.266849,-1776.494261,10214.842000
1015.135216,-995.924147,-1036.288319,9548.656652
1015.135535,-612.876398,-1702.473667,10066.800811
1015.135854,-689.485948,-296.082377,8512.368333
1015.136173,-995.924147,-370.102971,7328.038826
1015.136492,-153.219100,-740.205942,7920.203579
1015.136811,-612.876398,-814.226536,8882.471304
1015.137130,-842.705048,-1924.535449,9474.636058
1015.137449,-766.095498,-1850.514855,9622.677246
1015.137768,-689.485948,-1850.514855,10732.986159
1015.138087,-612.876398,-592.164754,10584.944971
1015.138406,-383.047749,296.082377,9844.739029
1015.138725,76.609550,518.144159,10066.800811
1015.139044,383.047749,1776.494261,8438.347739
1015.139363,1072.533697,1554.432478,8364.327145
1015.139682,1532.190996,444.123565,9252.574275
1015.140001,1532.190996,-148.041188,9474.636058
1015.140320,1072.533697,-1036.288319,9178.553681
1015.140639,1225.752797,-814.226536,9474.636058
1015.140958,1072.533697,-888.247130,9696.697840
1015.141277,1072.533697,-148.041188,9326.594869
1015.141596,919.314598,370.102971,7772.162391
1015.141915,383.047749,-74.020594,7328.038826
1015.142234,383.047749,-222.061783,8142.265362
1015.142553,0.000000,-814.226536,9178.553681
1015.142872,76.609550,-1702.473667,10140.821405
1015.143191,0.000000,-1628.453072,10362.883188
1015.143510,0.000000,-1480.411884,10658.965565
1015.143829,0.000000,-370.102971,11029.068536
1015.144148,383.047749,740.205942,10140.821405
1015.144467,1149.143247,1776.494261,8882.471304
1015.144787,1149.143247,2590.720797,7624.121203
1015.145106,1225.752797,2220.617826,7846.182985
1015.145425,1838.629195,1332.370696,8586.388927
1015.145744,1532.190996,2294.638420,8068.244768
1015.146063,1455.581446,1258.350101,8290.306550
1015.146382,1455.581446,1110.308913,8660.409521
1015.146701,612.876398,814.226536,9326.594869
1015.147020,76.609550,1332.370696,8956.491898
1015.147339,-229.828649,1998.556043,7994.224174
1015.147658,-689.485948,1554.432478,7846.182985
1015.147977,-1685.410096,1036.288319,8808.450710
1015.148296,-2221.676944,-740.205942,9992.780217
1015.148615,-2451.505594,-1554.432478,11103.089130
1015.148934,-2451.505594,-1036.288319,11621.233289
1015.149253,-1608.800546,-296.082377,11325.150913
1015.149572,-1225.752797,-0.000000,12139.377449
1015.149891,-612.876398,518.144159,11473.192101
1015.150210,383.047749,1554.432478,9622.677246
1015.150529,1302.362347,2738.761985,7698.141797
1015.150848,2145.067394,2368.659014,7550.100608
1015.151167,3064.381992,962.267725,7328.038826
1015.151486,2528.115143,-370.102971,8216.285956
1015.151805,2374.896044,-962.267725,8808.450710
1015.152124,1685.410096,-1406.391290,9178.553681
1015.152443,1302.362347,-1702.473667,10140.821405
1015.152762,689.485948,-1110.308913,10362.883188
1015.153081,-306.438199,-444.123565,9696.697840
1015.153400,-229.828649,-0.000000,8956.491898
1015.153719,-766.095498,-148.041188,9400.615463
1015.154038,-1072.533697,-1406.391290,11325.150913
1015.154357,-766.095498,-1924.535449,11325.150913
1015.154676,-1378.971896,-1406.391290,11251.130318
1015.154995,-229.828649,-1628.453072,10955.047942
1015.155314,0.000000,-666.185348,10955.047942
1015.155633,1685.410096,-1110.308913,11473.192101
1015.155952,1685.410096,518.144159,9548.656652
1015.156271,2221.676944,2072.576638,8290.306550
1015.156590,2987.772442,2516.700203,7031.956449
1015.156909,3064.381992,2368.659014,7179.997637
1015.157228,2834.553343,592.164754,7550.100608
1015.157547,2374.896044,-666.185348,7846.182985
1015.157866,1532.190996,-814.226536,7698.141797
1015.158185,995.924147,-1184.329507,9178.553681
1015.158504,383.047749,-962.267725,9474.636058
1015.158823,-229.828649,444.123565,8586.388927
1015.159142,-1072.533697,666.185348,7328.038826
1015.159461,-1302.362347,-0.000000,7476.080014
1015.159780,-766.095498,-814.226536,9252.574275
1015.160099,-1149.143247,-962.267725,9548.656652
1015.160418,-1149.143247,-666.185348,9548.656652
1015.160737,-1149.143247,296.082377,10066.800811
1015.161056,-536.266849,370.102971,10362.883188
1015.161375,0.000000,1110.308913,9770.718434
1015.161694,995.924147,2146.597232,8438.347739
1015.162013,689.485948,3108.864956,6365.771101
1015.162332,766.095498,2516.700203,6439.791695
1015.162651,1302.362347,1406.391290,7772.162391
1015.162970,919.314598,-0.000000,9178.553681
1015.163289,383.047749,-74.020594,8956.491898
1015.163608,459.657299,-888.247130,9844.739029
1015.163927,76.609550,-1554.432478,10510.924376
1015.164246,383.047749,-666.185348,9992.780217
1015.164565,919.314598,148.041188,9474.636058
1015.164885,0.000000,962.267725,7624.121203
1015.165204,76.609550,518.144159,7846.182985
1015.165523,229.828649,-148.041188,8808.450710
1015.165842,306.438199,-444.123565,9474.636058
1015.166161,383.047749,-962.267725,9696.697840
1015.166480,306.438199,-148.041188,10066.800811
1015.166799,995.924147,222.061783,11029.068536
1015.167118,1225.752797,814.226536,11399.171507
1015.167437,1532.190996,1776.494261,11029.068536
1015.167756,1838.629195,2886.803174,9326.594869
1015.168075,1915.238745,3256.906145,8586.388927
1015.168394,2145.067394,2294.638420,8660.409521
1015.168713,2298.286494,1036.288319,9474.636058
1015.169032,1532.190996,-0.000000,9474.636058
1015.169351,1072.533697,-296.082377,10288.862594
1015.169670,766.095498,-444.123565,11029.068536
1015.169989,459.657299,-74.020594,10955.047942
1015.170308,153.219100,1184.329507,10066.800811
1015.170627,229.828649,1628.453072,8882.471304
1015.170946,383.047749,1702.473667,7994.224174
1015.171265,306.438199,740.205942,8808.450710
1015.171584,0.000000,-0.000000,9474.636058
1015.171903,-229.828649,-222.061783,9622.677246
1015.172222,-842.705048,-370.102971,10066.800811
1015.172541,-383.047749,-370.102971,11029.068536
1015.172860,-383.047749,222.061783,10881.027347
1015.173179,-153.219100,1554.432478,9992.780217
1015.173498,229.828649,2368.659014,8512.368333
1015.173817,383.047749,2812.782580,7994.224174
1015.174136,1302.362347,2368.659014,8364.327145
1015.174455,1532.190996,1480.411884,8882.471304
1015.174774,995.924147,1110.308913,8364.327145
1015.175093,919.314598,740.205942,8142.265362
1015.175412,536.266849,444.123565,9474.636058
1015.175731,153.219100,370.102971,9474.636058
1015.176050,0.000000,888.247130,9178.553681
1015.176369,0.000000,1776.494261,8216.285956
1015.176688,76.609550,1480.411884,8290.306550
1015.177007,0.000000,592.164754,8882.471304
1015.177326,76.609550,-0.000000,9548.656652
1015.177645,76.609550,-222.061783,9992.780217
1015.177964,383.047749,-222.061783,9844.739029
1015.178283,842.705048,-0.000000,10288.862594
1015.178602,1685.410096,296.082377,10140.821405
1015.178921,2374.896044,1036.288319,9104.533087
1015.179240,2451.505594,1924.535449,7402.059420
1015.179559,3140.991542,1998.556043,6513.812290
1015.179878,3140.991542,1850.514855,7105.977043
1015.180197,3370.820191,740.205942,7624.121203
1015.180516,2757.943793,370.102971,8142.265362
1015.180835,2451.505594,-0.000000,8734.430116
1015.181154,2145.067394,-296.082377,9474.636058
1015.181473,1532.190996,-444.123565,10066.800811
1015.181792,842.705048,-296.082377,9622.677246
1015.182111,0.000000,518.144159,8956.491898
1015.182430,-306.438199,518.144159,8660.409521
1015.182749,-919.314598,-370.102971,9178.553681
1015.183068,-766.095498,-1332.370696,10288.862594
1015.183387,-995.924147,-1480.411884,11029.068536
1015.183706,-1225.752797,-1258.350101,11029.068536
1015.184025,-842.705048,-740.205942,10881.027347
1015.184344,-306.438199,-0.000000,10436.903782
1015.184663,0.000000,1332.370696,9622.677246
1015.184983,919.314598,2368.659014,7920.203579
1015.185302,1302.362347,2590.720797,6735.874072
1015.185621,1608.800546,1924.535449,7105.977043
1015.185940,2221.676944,888.247130,7624.121203
1015.186259,1608.800546,-0.000000,8438.347739
1015.186578,919.314598,-148.041188,8808.450710
1015.186897,459.657299,-222.061783,9548.656652
1015.187216,-153.219100,-148.041188,9696.697840
1015.187535,-536.266849,592.164754,9622.677246
1015.187854,-459.657299,1850.514855,8808.450710
1015.188173,-689.485948,2442.679609,8142.265362
1015.188492,-842.705048,1480.411884,8808.450710
1015.188811,-459.657299,222.061783,10066.800811
1015.189130,-689.485948,-74.020594,10436.903782
1015.189449,-689.485948,-74.020594,10658.965565
1015.189768,-383.047749,296.082377,11251.130318
1015.190087,689.485948,740.205942,11103.089130
1015.190406,1455.581446,2220.617826,9918.759623
1015.190725,2298.286494,3627.009116,8216.285956
1015.191044,2681.334243,3775.050304,7105.977043
1015.191363,3064.381992,2664.741391,7179.997637
1015.191682,2911.162892,1258.350101,7994.224174
1015.192001,2604.724693,148.041188,8364.327145
1015.192320,2145.067394,-370.102971,8512.368333
1015.192639,1608.800546,-814.226536,9474.636058
1015.192958,995.924147,-666.185348,9696.697840
1015.193277,536.266849,444.123565,9548.656652
1015.193596,459.657299,1332.370696,8956.491898
1015.193915,229.828649,1776.494261,8290.306550
1015.194234,-153.219100,1036.288319,9030.512492
1015.194553,-766.095498,-444.123565,10436.903782
1015.194872,-1685.410096,-740.205942,11177.109724
1015.195191,-1455.581446,-74.020594,11251.130318
1015.195510,-1225.752797,296.082377,11621.233289
1015.195829,-229.828649,1110.308913,11769.274478
1015.196148,0.000000,2146.597232,10658.965565
1015.196467,306.438199,2960.823768,8956.491898
1015.196786,1149.143247,3256.906145,7920.203579
1015.197105,1378.971896,2886.803174,7550.100608
1015.197424,1378.971896,1480.411884,8364.327145
1015.197743,1149.143247,296.082377,8734.430116
1015.198062,536.266849,148.041188,8216.285956
1015.198381,612.876398,-222.061783,9030.512492
1015.198700,229.828649,-148.041188,9622.677246
1015.199019,-229.828649,-222.061783,9548.656652
1015.199338,-1225.752797,296.082377,8660.409521
1015.199657,-612.876398,962.267725,7624.121203
1015.199976,-766.095498,222.061783,8956.491898
1015.200295,-919.314598,-444.123565,9622.677246
1015.200614,-766.095498,-1110.308913,10140.821405
1015.200933,-919.314598,-814.226536,10510.924376
1015.201252,-153.219100,-370.102971,10955.047942
1015.201571,306.438199,-0.000000,11325.150913
1015.201890,766.095498,1110.308913,10288.862594
1015.202209,1149.143247,1702.473667,8956.491898
1015.202528,1915.238745,2368.659014,7254.018232
1015.202847,1991.848295,2220.617826,7624.121203
1015.203166,2298.286494,1258.350101,7994.224174
1015.203485,2221.676944,-0.000000,9178.553681
1015.203804,1072.533697,-0.000000,8808.450710
1015.204123,1378.971896,-814.226536,9326.594869
1015.204442,689.485948,-888.247130,9696.697840
1015.204761,306.438199,-222.061783,9844.739029
1015.205080,153.219100,-444.123565,8438.347739
1015.205400,229.828649,-0.000000,7105.977043
1015.205719,0.000000,-740.205942,9844.739029
1015.206038,-76.609550,-370.102971,9104.533087
1015.206357,-459.657299,-888.247130,9326.594869
1015.206676,-383.047749,-1036.288319,9844.739029
1015.206995,76.609550,-1036.288319,11177.109724
1015.207314,-306.438199,-148.041188,9844.739029
1015.207633,0.000000,592.164754,9844.739029
1015.207952,229.828649,1850.514855,9252.574275
1015.208271,1378.971896,2442.679609,8142.265362
1015.208590,995.924147,2738.761985,7328.038826
1015.208909,1608.800546,1554.432478,8512.368333
1015.209228,1302.362347,222.061783,8512.368333
1015.209547,1608.800546,-370.102971,8882.471304
1015.209866,1532.190996,-444.123565,9474.636058
1015.210185,919.314598,-0.000000,9696.697840
1015.210504,229.828649,666.185348,9474.636058
1015.210823,383.047749,666.185348,8956.491898
1015.211142,306.438199,962.267725,7698.141797
1015.211461,229.828649,888.247130,7994.224174
1015.211780,-153.219100,-0.000000,9030.512492
1015.212099,-612.876398,-1110.308913,9918.759623
1015.212418,-689.485948,-1332.370696,10658.965565
1015.212737,-459.657299,-888.247130,10807.006753
1015.213056,-459.657299,-370.102971,11473.192101
1015.213375,0.000000,-0.000000,11103.089130
1015.213694,766.095498,962.267725,9474.636058
1015.214013,919.314598,2368.659014,7624.121203
1015.214332,1685.410096,1998.556043,7328.038826
1015.214651,1378.971896,1184.329507,8882.471304
1015.214970,1378.971896,370.102971,9104.533087
1015.215289,842.705048,-444.123565,8882.471304
1015.215608,842.705048,-0.000000,9696.697840
1015.215927,459.657299,-370.102971,9992.780217
1015.216246,-229.828649,148.041188,9474.636058
1015.216565,76.609550,444.123565,10140.821405
1015.216884,0.000000,1110.308913,8586.388927
1015.217203,-229.828649,888.247130,8364.327145
1015.217522,-689.485948,-592.164754,9622.677246
1015.217841,-995.924147,-962.267725,10881.027347
1015.218160,-1378.971896,-1258.350101,10436.903782
1015.218479,-612.876398,-1406.391290,11029.068536
1015.218798,-536.266849,-1554.432478,11769.274478
1015.219117,-459.657299,-592.164754,11029.068536
1015.219436,383.047749,444.123565,9474.636058
1015.219755,995.924147,1480.411884,7920.203579
1015.220074,1915.238745,1258.350101,7550.100608
1015.220393,2068.457845,1332.370696,7550.100608
1015.220712,2068.457845,296.082377,8216.285956
1015.221031,1225.752797,-148.041188,8142.265362
1015.221350,1072.533697,-148.041188,8438.347739
1015.221669,612.876398,-74.020594,9252.574275
1015.221988,306.438199,-370.102971,9696.697840
1015.222307,-153.219100,-444.123565,9474.636058
1015.222626,-842.705048,-444.123565,8734.430116
1015.222945,-1072.533697,-370.102971,8734.430116
1015.223264,-995.924147,-74.020594,9548.656652
1015.223583,-1455.581446,-444.123565,10658.965565
1015.223902,-689.485948,-222.061783,10584.944971
1015.224221,-842.705048,148.041188,9992.780217
1015.224540,0.000000,666.185348,9770.718434
1015.224859,153.219100,370.102971,9918.759623
1015.225178,536.266849,814.226536,9622.677246
1015.225497,842.705048,1184.329507,7550.100608
1015.225816,1225.752797,1184.329507,7328.038826
1015.226135,1302.362347,1036.288319,8068.244768
1015.226454,1685.410096,370.102971,8364.327145
1015.226773,1455.581446,370.102971,7550.100608
1015.227092,1149.143247,-370.102971,8216.285956
1015.227411,842.705048,-740.205942,9400.615463
1015.227730,153.219100,-592.164754,9252.574275
1015.228049,76.609550,-592.164754,9104.533087
1015.228368,-153.219100,296.082377,8364.327145
1015.228687,-1072.533697,740.205942,8216.285956
1015.229006,-1149.143247,-0.000000,9178.553681
1015.229325,-1149.143247,-740.205942,9696.697840
1015.229644,-1225.752797,-888.247130,10584.944971
1015.229963,-842.705048,-740.205942,10658.965565
1015.230282,-383.047749,-0.000000,10881.027347
1015.230601,153.219100,518.144159,10807.006753
1015.230920,842.705048,1332.370696,9992.780217
1015.231239,612.876398,1850.514855,8216.285956
1015.231558,1608.800546,2220.617826,7846.182985
1015.231877,1608.800546,1480.411884,8216.285956
1015.232196,1608.800546,592.164754,8882.471304
1015.232515,1838.629195,-222.061783,9474.636058
1015.232834,1302.362347,-888.247130,8956.491898
1015.233153,1149.143247,-1184.329507,9844.739029
1015.233472,459.657299,-1110.308913,10066.800811
1015.233791,612.876398,-222.061783,9104.533087
1015.234110,153.219100,-0.000000,7698.141797
1015.234429,229.828649,-0.000000,8290.306550
1015.234748,-459.657299,-1036.288319,9696.697840
1015.235067,-766.095498,-1332.370696,10362.883188
1015.235386,-536.266849,-1480.411884,10436.903782
1015.235705,-229.828649,-1110.308913,10807.006753
1015.236024,-153.219100,-296.082377,10955.047942
1015.236343,-229.828649,296.082377,11029.068536
1015.236662,306.438199,1480.411884,9770.718434
1015.236981,1455.581446,2812.782580,8734.430116
1015.237300,1838.629195,2072.576638,7624.121203
1015.237619,2068.457845,1110.308913,8142.265362
1015.237938,2145.067394,-222.061783,9622.677246
1015.238257,1838.629195,-296.082377,9030.512492
1015.238576,2374.896044,-592.164754,8956.491898
1015.238895,1532.190996,-740.205942,9326.594869
1015.239214,1225.752797,-0.000000,9622.677246
1015.239533,842.705048,444.123565,8734.430116
1015.239852,459.657299,1184.329507,7105.977043
1015.240171,842.705048,1110.308913,6883.915261
1015.240490,229.828649,518.144159,7624.121203
1015.240809,-612.876398,-666.185348,9104.533087
1015.241128,-1072.533697,-1702.473667,10214.842000
1015.241447,-1302.362347,-1998.556043,11103.089130
1015.241766,-1149.143247,-888.247130,11177.109724
1015.242085,0.000000,-222.061783,11177.109724
1015.242404,306.438199,1776.494261,9622.677246
1015.242723,842.705048,3182.885551,8142.265362
1015.243042,1225.752797,3330.926739,7402.059420
1015.243361,1991.848295,2590.720797,7476.080014
1015.243680,1915.238745,1332.370696,8216.285956
1015.243999,1838.629195,518.144159,8438.347739
1015.244318,1302.362347,-222.061783,9030.512492
1015.244637,612.876398,-666.185348,9696.697840
1015.244956,459.657299,-740.205942,9992.780217
1015.245275,383.047749,-592.164754,10140.821405
1015.245594,153.219100,-74.020594,9178.553681
1015.245913,153.219100,-0.000000,8142.265362
1015.246232,153.219100,-296.082377,8882.471304
1015.246551,0.000000,-1480.411884,10140.821405
1015.246870,-689.485948,-1702.473667,10066.800811
1015.247189,-306.438199,-1776.494261,10140.821405
1015.247508,-459.657299,-1406.391290,10584.944971
1015.247827,76.609550,-666.185348,10732.986159
1015.248146,766.095498,296.082377,10140.821405
1015.248465,995.924147,1554.432478,8808.450710
1015.248784,1378.971896,2294.638420,7179.997637
1015.249103,1532.190996,1184.329507,7550.100608
1015.249422,1225.752797,740.205942,8512.368333
1015.249741,1072.533697,444.123565,8512.368333
1015.250060,919.314598,296.082377,8586.388927
1015.250379,842.705048,-74.020594,9474.636058
1015.250698,76.609550,-518.144159,10288.862594
1015.251017,-229.828649,-74.020594,10362.883188
1015.251336,-1072.533697,1036.288319,9178.553681
1015.251655,-1072.533697,1628.453072,8364.327145
1015.251974,-1685.410096,1702.473667,8216.285956
1015.252293,-459.657299,-0.000000,9548.656652
1015.252612,-919.314598,-1332.370696,10510.924376
1015.252931,-612.876398,-1332.370696,10955.047942
1015.253250,766.095498,-296.082377,10807.006753
1015.253569,842.705048,296.082377,9696.697840
1015.253888,1685.410096,814.226536,9992.780217
1015.254206,1762.019645,1628.453072,8438.347739
1015.254525,2221.676944,2294.638420,6661.853478
1015.254844,2068.457845,1850.514855,6809.894666
1015.255163,2834.553343,962.267725,8364.327145
1015.255482,2451.505594,1258.350101,8216.285956
1015.255801,1991.848295,962.267725,8290.306550
1015.256120,842.705048,296.082377,9178.553681
1015.256439,842.705048,-296.082377,10066.800811
1015.256758,459.657299,-0.000000,9844.739029
1015.257077,0.000000,666.185348,8882.471304
1015.257396,-536.266849,1776.494261,8734.430116
1015.257715,-1149.143247,1258.350101,9474.636058
1015.258034,-459.657299,592.164754,10658.965565
1015.258353,-536.266849,370.102971,10955.047942
1015.258672,-229.828649,666.185348,10436.903782
1015.258991,-459.657299,888.247130,10288.862594
1015.259310,153.219100,592.164754,11399.171507
1015.259629,536.266849,814.226536,10732.986159
1015.259948,1149.143247,2368.659014,9178.553681
1015.260267,1532.190996,2812.782580,7254.018232
1015.260586,2145.067394,2442.679609,7328.038826
1015.260905,2451.505594,814.226536,7772.162391
1015.261224,2374.896044,518.144159,8364.327145
1015.261543,1685.410096,-0.000000,8364.327145
1015.261862,1225.752797,-222.061783,9104.533087
1015.262181,689.485948,-666.185348,9992.780217
1015.262500,153.219100,-74.020594,10066.800811
1015.262819,-536.266849,740.205942,9992.780217
1015.263138,-1072.533697,1406.391290,8438.347739
1015.263457,-766.095498,444.123565,8808.450710
1015.263776,-689.485948,222.061783,10436.903782
1015.264095,-1149.143247,-1036.288319,10881.027347
1015.264414,-1225.752797,-1110.308913,11473.192101
1015.264733,-919.314598,-370.102971,11325.150913
1015.265052,-229.828649,296.082377,11177.109724
1015.265371,153.219100,1036.288319,10658.965565
1015.265690,1378.971896,2146.597232,9030.512492
1015.266009,1838.629195,3108.864956,7550.100608
1015.266328,2145.067394,2590.720797,7624.121203
1015.266647,2451.505594,1406.391290,8068.244768
1015.266966,2145.067394,296.082377,8808.450710
1015.267285,2145.067394,-814.226536,8586.388927
1015.267604,1532.190996,-1036.288319,9326.594869
1015.267923,1532.190996,-1110.308913,9770.718434
1015.268242,919.314598,-1184.329507,9178.553681
1015.268561,995.924147,-296.082377,8808.450710
1015.268880,536.266849,444.123565,8068.244768
1015.269199,919.314598,962.267725,8068.244768
1015.269518,306.438199,296.082377,8290.306550
1015.269837,229.828649,-148.041188,9400.615463
1015.270156,153.219100,-222.061783,9326.594869
1015.270475,76.609550,-370.102971,10362.883188
1015.270794,459.657299,-148.041188,11029.068536
1015.271113,995.924147,148.041188,10881.027347
1015.271432,1302.362347,1924.535449,9178.553681
1015.271751,1455.581446,2590.720797,7179.997637
1015.272070,2298.286494,3034.844362,7031.956449
1015.272389,2068.457845,2368.659014,7772.162391
1015.272708,2528.115143,1480.411884,8068.244768
1015.273027,1915.238745,962.267725,7920.203579
1015.273346,1532.190996,-370.102971,8956.491898
1015.273665,383.047749,-592.164754,9770.718434
1015.273984,-306.438199,-444.123565,9918.759623
1015.274303,-689.485948,592.164754,8808.450710
1015.274622,-919.314598,962.267725,8142.265362
1015.274941,-995.924147,592.164754,7994.224174
1015.275260,-995.924147,-148.041188,9400.615463
1015.275579,-842.705048,-370.102971,10214.842000
1015.275898,-1225.752797,-740.205942,10066.800811
1015.276217,-919.314598,-814.226536,10510.924376
1015.276536,-229.828649,-74.020594,10807.006753
1015.276855,153.219100,666.185348,10362.883188
1015.277174,459.657299,1628.453072,9474.636058
1015.277493,842.705048,2516.700203,7920.203579
1015.277812,1685.410096,2664.741391,7550.100608
1015.278131,1455.581446,1702.473667,8364.327145
1015.278450,1838.629195,740.205942,9030.512492
1015.278769,689.485948,148.041188,9326.594869
1015.279088,842.705048,-148.041188,9548.656652
1015.279407,306.438199,-222.061783,10066.800811
1015.279726,-153.219100,-148.041188,10288.862594
1015.280045,-229.828649,-0.000000,9992.780217
1015.280364,-536.266849,814.226536,9030.512492
1015.280683,-306.438199,-0.000000,8808.450710
1015.281002,-306.438199,-0.000000,9548.656652
1015.281321,-689.485948,-518.144159,10584.944971
1015.281640,-536.266849,-444.123565,10214.842000
1015.281959,0.000000,222.061783,10362.883188
1015.282278,153.219100,814.226536,11621.233289
1015.282597,1225.752797,888.247130,11325.150913
1015.282916,1149.143247,1258.350101,9918.759623
1015.283235,1762.019645,2146.597232,8586.388927
1015.283554,2145.067394,1998.556043,7920.203579
1015.283873,2221.676944,1554.432478,7772.162391
1015.284192,2221.676944,740.205942,8734.430116
1015.284511,1915.238745,518.144159,8586.388927
1015.284830,1302.362347,296.082377,8882.471304
1015.285149,536.266849,-74.020594,9548.656652
1015.285468,689.485948,370.102971,9548.656652
1015.285787,0.000000,1184.329507,8956.491898
1015.286106,-536.266849,2146.597232,7698.141797
1015.286425,-689.485948,1184.329507,8216.285956
1015.286744,-1302.362347,370.102971,9474.636058
1015.287063,-1302.362347,-74.020594,10362.883188
1015.287382,-1378.971896,-592.164754,10362.883188
1015.287701,-1302.362347,-222.061783,10807.006753
1015.288020,-995.924147,222.061783,10881.027347
1015.288339,-383.047749,296.082377,10362.883188
1015.288658,-153.219100,1406.391290,9252.574275
1015.288977,612.876398,2072.576638,7772.162391
1015.289296,1072.533697,1924.535449,6735.874072
1015.289615,1302.362347,740.205942,7031.956449
1015.289934,1455.581446,-444.123565,8068.244768
1015.290253,1532.190996,-814.226536,7920.203579
1015.290572,1072.533697,-444.123565,8216.285956
1015.290891,612.876398,-296.082377,8882.471304
1015.291210,306.438199,-370.102971,8882.471304
1015.291529,842.705048,444.123565,8438.347739
1015.291848,229.828649,1258.350101,7994.224174
1015.292167,-153.219100,1110.308913,7846.182985
1015.292486,0.000000,370.102971,9104.533087
1015.292805,0.000000,-518.144159,10362.883188
1015.293124,0.000000,-296.082377,11029.068536
1015.293443,0.000000,296.082377,10658.965565
1015.293762,153.219100,740.205942,10881.027347
1015.294081,1149.143247,1406.391290,11103.089130
1015.294400,1532.190996,1702.473667,9696.697840
1015.294719,1915.238745,2294.638420,8290.306550
1015.295038,2068.457845,2146.597232,7698.141797
1015.295357,1991.848295,1702.473667,7846.182985
1015.295676,2681.334243,444.123565,8660.409521
1015.295995,2145.067394,-1110.308913,8882.471304
1015.296314,1302.362347,-1184.329507,9548.656652
1015.296633,842.705048,-1702.473667,10436.903782
1015.296952,536.266849,-1480.411884,10584.944971
1015.297271,229.828649,-1110.308913,10140.821405
1015.297590,229.828649,-444.123565,9178.553681
1015.297909,-459.657299,-370.102971,8586.388927
1015.298228,-306.438199,-740.205942,9326.594869
1015.298547,-766.095498,-1184.329507,10436.903782
1015.298866,-1149.143247,-1184.329507,10584.944971
1015.299185,-766.095498,-888.247130,11029.068536
1015.299504,-766.095498,-740.205942,11473.192101
1015.299823,-536.266849,-222.061783,11177.109724
1015.300142,-383.047749,740.205942,10584.944971
1015.300461,0.000000,1776.494261,9400.615463
1015.300780,306.438199,2886.803174,8290.306550
1015.301099,842.705048,2368.659014,7920.203579
1015.301418,766.095498,1184.329507,8882.471304
1015.301737,689.485948,296.082377,8956.491898
1015.302056,689.485948,-0.000000,8956.491898
1015.302375,0.000000,-74.020594,9252.574275
1015.302694,-229.828649,-370.102971,9548.656652
1015.303013,-306.438199,-0.000000,9326.594869
1015.303332,-689.485948,444.123565,8142.265362
1015.303651,-459.657299,740.205942,7698.141797
1015.303970,-229.828649,-0.000000,7920.203579
1015.304289,-306.438199,-814.226536,8882.471304
1015.304608,-76.609550,-1110.308913,9622.677246
1015.304927,0.000000,-666.185348,9696.697840
1015.305246,306.438199,-74.020594,9696.697840
1015.305565,842.705048,444.123565,9992.780217
1015.305884,1302.362347,1406.391290,9770.718434
1015.306203,1378.971896,2368.659014,8142.265362
1015.306522,1685.410096,2516.700203,6809.894666
1015.306841,2374.896044,1628.453072,7846.182985
1015.307160,2145.067394,222.061783,8364.327145
1015.307479,1608.800546,-592.164754,8734.430116
1015.307798,1149.143247,-666.185348,8660.409521
1015.308117,766.095498,-592.164754,9252.574275
1015.308436,612.876398,-370.102971,9548.656652
1015.308755,229.828649,-222.061783,9474.636058
1015.309074,0.000000,-0.000000,8586.388927
1015.309393,-459.657299,444.123565,7624.121203
1015.309712,-383.047749,-370.102971,8956.491898
1015.310031,-1072.533697,-1480.411884,9918.759623
1015.310350,-689.485948,-2072.576638,10362.883188
1015.310669,-1225.752797,-1850.514855,10658.965565
1015.310988,-612.876398,-1480.411884,11547.212695
1015.311307,0.000000,-222.061783,10732.986159
1015.311626,383.047749,888.247130,9696.697840
1015.311945,1149.143247,2146.597232,8512.368333
1015.312264,1378.971896,2368.659014,7476.080014
1015.312583,2068.457845,1702.473667,7328.038826
1015.312902,2298.286494,740.205942,8290.306550
1015.313221,1455.581446,-0.000000,9104.533087
1015.313540,919.314598,-444.123565,9104.533087
1015.313859,995.924147,-296.082377,9326.594869
1015.314178,459.657299,-0.000000,9918.759623
1015.314497,0.000000,296.082377,10140.821405
1015.314816,-383.047749,1184.329507,9178.553681
1015.315135,-612.876398,1628.453072,8290.306550
1015.315454,-612.876398,814.226536,8438.347739
1015.315773,-919.314598,-148.041188,9770.718434
1015.316092,-1072.533697,-1110.308913,10510.924376
1015.316411,-1149.143247,-1036.288319,10658.965565
1015.316730,-842.705048,-518.144159,10807.006753
1015.317049,-536.266849,-74.020594,11029.068536
1015.317368,383.047749,1258.350101,10140.821405
1015.317687,689.485948,1998.556043,8808.450710
1015.318005,1225.752797,2664.741391,7105.977043
1015.318324,1225.752797,1554.432478,7402.059420
1015.318643,1608.800546,148.041188,8660.409521
1015.318962,919.314598,-518.144159,9030.512492
1015.319281,766.095498,-740.205942,9474.636058
1015.319600,76.609550,-814.226536,9992.780217
1015.319919,0.000000,-888.247130,10732.986159
1015.320238,0.000000,-444.123565,10436.903782
1015.320557,-459.657299,740.205942,9548.656652
1015.320876,0.000000,1332.370696,7994.224174
1015.321195,0.000000,1036.288319,8438.347739
1015.321514,536.266849,-74.020594,9474.636058
1015.321833,0.000000,-518.144159,10140.821405
1015.322152,-153.219100,-814.226536,10140.821405
1015.322471,76.609550,-592.164754,10658.965565
1015.322790,995.924147,-74.020594,10732.986159
1015.323109,1532.190996,962.267725,10066.800811
1015.323428,2145.067394,1850.514855,9030.512492
1015.323747,1991.848295,2664.741391,7328.038826
1015.324066,2451.505594,2738.761985,7105.977043
1015.324384,2528.115143,1406.391290,7846.182985
1015.324703,1915.238745,-0.000000,8364.327145
1015.325022,1378.971896,-814.226536,8734.430116
1015.325341,1072.533697,-518.144159,9326.594869
1015.325660,919.314598,-1258.350101,9992.780217
1015.325979,383.047749,-1332.370696,10288.862594
1015.326298,229.828649,-148.041188,9104.533087
1015.326617,306.438199,962.267725,7846.182985
1015.326936,0.000000,1184.329507,8142.265362
1015.327255,383.047749,-0.000000,9030.512492
1015.327574,536.266849,-0.000000,9474.636058
1015.327893,383.047749,-148.041188,9770.718434
1015.328212,306.438199,-518.144159,10288.862594
1015.328531,612.876398,-296.082377,10584.944971
1015.328850,766.095498,296.082377,10066.800811
1015.329169,1072.533697,1332.370696,9474.636058
1015.329488,1072.533697,1998.556043,7920.203579
1015.329807,1225.752797,2146.597232,7698.141797
1015.330126,1072.533697,962.267725,8216.285956
1015.330445,919.314598,-74.020594,8660.409521
1015.330764,76.609550,-814.226536,9030.512492
1015.331082,-459.657299,-962.267725,9696.697840
1015.331401,-383.047749,-888.247130,9918.759623
1015.331720,-689.485948,-666.185348,9844.739029
1015.332039,-919.314598,-444.123565,9474.636058
1015.332358,-919.314598,296.082377,8290.306550
1015.332677,-919.314598,444.123565,8142.265362
1015.332996,-306.438199,-0.000000,8808.450710
1015.333315,-383.047749,-518.144159,9548.656652
1015.333634,-229.828649,-592.164754,9844.739029
1015.333953,0.000000,-296.082377,10510.924376
1015.334272,153.219100,-148.041188,11251.130318
1015.334591,612.876398,222.061783,11029.068536
1015.334910,919.314598,1406.391290,9844.739029
1015.335229,1302.362347,2220.617826,8512.368333
1015.335548,1685.410096,2146.597232,7328.038826
1015.335867,1608.800546,1480.411884,8290.306550
1015.336186,1991.848295,444.123565,8734.430116
1015.336505,2221.676944,-148.041188,8512.368333
1015.336824,1149.143247,-222.061783,9030.512492
1015.337143,766.095498,-74.020594,9548.656652
1015.337461,612.876398,-74.020594,9622.677246
1015.337780,76.609550,518.144159,8956.491898
1015.338099,0.000000,296.082377,8512.368333
1015.338418,-612.876398,-148.041188,8068.244768
1015.338737,-689.485948,-592.164754,9474.636058
1015.339056,-766.095498,-1258.350101,10066.800811
1015.339375,-536.266849,-740.205942,10288.862594
1015.339694,-612.876398,-592.164754,10584.944971
1015.340013,-459.657299,370.102971,11177.109724
1015.340332,459.657299,962.267725,10288.862594
1015.340651,1302.362347,1924.535449,9770.718434
1015.340970,1991.848295,2738.761985,8512.368333
1015.341289,2221.676944,3034.844362,7402.059420
1015.341608,2451.505594,2146.597232,7476.080014
1015.341927,2528.115143,1258.350101,8512.368333
1015.342246,2298.286494,222.061783,8734.430116
1015.342565,1991.848295,518.144159,8586.388927
1015.342884,1225.752797,222.061783,8882.471304
1015.343203,1149.143247,518.144159,9770.718434
1015.343522,153.219100,1110.308913,9030.512492
1015.343840,0.000000,1480.411884,8216.285956
1015.344159,-306.438199,1332.370696,8216.285956
1015.344478,-766.095498,814.226536,8660.409521
1015.344797,-689.485948,-0.000000,9844.739029
1015.345116,-1225.752797,-222.061783,10658.965565
1015.345435,-1225.752797,-0.000000,10436.903782
1015.345754,-536.266849,296.082377,10955.047942
1015.346073,0.000000,740.205942,10955.047942
1015.346392,76.609550,1184.329507,9844.739029
1015.346711,842.705048,2738.761985,7994.224174
1015.347030,1225.752797,3034.844362,7105.977043
1015.347349,2068.457845,2146.597232,7920.203579
1015.347668,1991.848295,1184.329507,8364.327145
1015.347987,1378.971896,-0.000000,8734.430116
1015.348306,919.314598,-740.205942,9474.636058
1015.348625,612.876398,-1480.411884,10584.944971
1015.348944,0.000000,-740.205942,10881.027347
1015.349263,-229.828649,-444.123565,10066.800811
1015.349582,-842.705048,-74.020594,9400.615463
1015.349901,-842.705048,444.123565,8956.491898
1015.350219,-229.828649,-148.041188,9178.553681
1015.350538,-306.438199,-888.247130,10214.842000
1015.350857,-612.876398,-1184.329507,10214.842000
1015.351176,-459.657299,-1110.308913,10066.800811
1015.351495,-229.828649,-370.102971,10510.924376
1015.351814,459.657299,-370.102971,10140.821405
1015.352133,766.095498,1184.329507,9770.718434
1015.352452,919.314598,1628.453072,8660.409521
1015.352771,1532.190996,2220.617826,7031.956449
1015.353090,1838.629195,1702.473667,7624.121203
1015.353409,1685.410096,148.041188,8438.347739
1015.353728,1685.410096,-148.041188,9104.533087
1015.354047,1455.581446,-222.061783,8808.450710
1015.354366,1225.752797,-370.102971,9474.636058
1015.354685,1532.190996,-518.144159,10066.800811
1015.355004,995.924147,-74.020594,8882.471304
1015.355323,995.924147,1110.308913,7994.224174
1015.355642,383.047749,1184.329507,7402.059420
1015.355961,842.705048,518.144159,8216.285956
1015.356280,536.266849,-666.185348,9474.636058
1015.356599,306.438199,-740.205942,9474.636058
1015.356917,0.000000,-222.061783,9400.615463
1015.357236,229.828649,296.082377,9992.780217
1015.357555,842.705048,666.185348,9844.739029
1015.357874,1302.362347,1628.453072,9400.615463
1015.358193,1225.752797,2590.720797,7994.224174
1015.358512,1225.752797,2738.761985,7031.956449
1015.358831,1608.800546,2146.597232,7476.080014
1015.359150,1838.629195,1184.329507,8734.430116
1015.359469,1302.362347,888.247130,8660.409521
1015.359788,689.485948,370.102971,8808.450710
1015.360107,459.657299,-0.000000,9696.697840
1015.360426,1225.752797,-0.000000,10066.800811
1015.360745,153.219100,592.164754,9474.636058
1015.361064,383.047749,1406.391290,8438.347739
1015.361383,-306.438199,1258.350101,7772.162391
1015.361702,0.000000,1258.350101,8290.306550
1015.362021,-383.047749,-0.000000,9622.677246
1015.362340,-459.657299,-370.102971,10362.883188
1015.362659,-919.314598,-666.185348,11029.068536
1015.362978,-612.876398,-370.102971,11029.068536
1015.363296,-306.438199,-148.041188,11547.212695
1015.363615,-153.219100,444.123565,10881.027347
1015.363934,0.000000,1332.370696,9474.636058
1015.364253,229.828649,1554.432478,8068.244768
1015.364572,1072.533697,1480.411884,8290.306550
1015.364891,1225.752797,962.267725,8586.388927
1015.365210,1378.971896,148.041188,8734.430116
1015.365529,536.266849,-370.102971,9178.553681
1015.365848,0.000000,-666.185348,9992.780217
1015.366167,-229.828649,-740.205942,10807.006753
1015.366486,-306.438199,-444.123565,10214.842000
1015.366805,-842.705048,222.061783,9622.677246
1015.367124,-919.314598,1036.288319,8660.409521
1015.367443,-919.314598,1036.288319,9178.553681
1015.367762,-766.095498,-0.000000,10288.862594
1015.368081,-612.876398,-814.226536,10955.047942
1015.368400,-612.876398,-370.102971,10807.006753
1015.368719,0.000000,-74.020594,11473.192101
1015.369038,306.438199,296.082377,11325.150913
1015.369357,1072.533697,1480.411884,10584.944971
1015.369675,1455.581446,1998.556043,8882.471304
1015.369994,2298.286494,2960.823768,7105.977043
1015.370313,2681.334243,2220.617826,6957.935855
1015.370632,2528.115143,1258.350101,7772.162391
1015.370951,2528.115143,814.226536,7772.162391
1015.371270,1991.848295,296.082377,7846.182985
1015.371589,1302.362347,-370.102971,8586.388927
1015.371908,612.876398,-1110.308913,9696.697840
1015.372227,153.219100,-592.164754,9770.718434
1015.372546,-383.047749,444.123565,8808.450710
1015.372865,-383.047749,1110.308913,7994.224174
1015.373184,-766.095498,1110.308913,8216.285956
1015.373503,-689.485948,222.061783,9474.636058
1015.373822,-766.095498,-222.061783,9918.759623
1015.374141,-842.705048,-592.164754,10362.883188
1015.374460,-306.438199,-222.061783,10362.883188
1015.374779,306.438199,592.164754,10066.800811
1015.375098,842.705048,1776.494261,9696.697840
1015.375417,1455.581446,2590.720797,8068.244768
1015.375736,2145.067394,3182.885551,6809.894666
1015.376055,2451.505594,3034.844362,6365.771101
1015.376373,2604.724693,1776.494261,7105.977043
1015.376692,1915.238745,592.164754,7846.182985
1015.377011,1378.971896,-0.000000,8438.347739
1015.377330,689.485948,-222.061783,9104.533087
1015.377649,0.000000,-444.123565,9622.677246
1015.377968,-1149.143247,-518.144159,10362.883188
1015.378287,-1225.752797,-0.000000,9696.697840
1015.378606,-1532.190996,518.144159,8660.409521
1015.378925,-1225.752797,518.144159,8660.409521
1015.379244,-1762.019645,-222.061783,10066.800811
1015.379563,-1455.581446,-1036.288319,10732.986159
1015.379882,-1532.190996,-1258.350101,10807.006753
1015.380201,-995.924147,-814.226536,10881.027347
1015.380520,0.000000,-296.082377,11251.130318
1015.380839,766.095498,518.144159,10955.047942
1015.381158,919.314598,1258.350101,9844.739029
1015.381477,1532.190996,2220.617826,8142.265362
1015.381796,2068.457845,1702.473667,7920.203579
1015.382115,2374.896044,740.205942,8882.471304
1015.382434,2221.676944,-0.000000,9474.636058
1015.382752,2145.067394,222.061783,8882.471304
1015.383071,2068.457845,-222.061783,9400.615463
1015.383390,1532.190996,-444.123565,10066.800811
1015.383709,1302.362347,-518.144159,9992.780217
1015.384028,536.266849,-148.041188,9252.574275
1015.384347,0.000000,148.041188,8438.347739
1015.384666,-306.438199,148.041188,8882.471304
1015.384985,-459.657299,-592.164754,9178.553681
1015.385304,-995.924147,-814.226536,10140.821405
1015.385623,-689.485948,-1332.370696,11177.109724
1015.385942,-995.924147,-1110.308913,11029.068536
1015.386261,-689.485948,-444.123565,11177.109724
1015.386580,-995.924147,518.144159,11473.192101
1015.386899,76.609550,1554.432478,9992.780217
1015.387218,919.314598,2368.659014,7994.224174
1015.387537,1302.362347,2368.659014,7402.059420
1015.387856,2068.457845,1702.473667,7994.224174
1015.388175,2145.067394,962.267725,7994.224174
1015.388494,1991.848295,666.185348,7846.182985
1015.388813,1455.581446,-0.000000,8216.285956
1015.389131,1072.533697,-222.061783,9030.512492
1015.389450,1225.752797,-148.041188,9474.636058
1015.389769,766.095498,-0.000000,8808.450710
1015.390088,76.609550,1036.288319,7698.141797
1015.390407,-612.876398,592.164754,7846.182985
1015.390726,-689.485948,-148.041188,8734.430116
1015.391045,-1072.533697,-666.185348,9696.697840
1015.391364,-1455.581446,-1332.370696,10288.862594
1015.391683,-1532.190996,-1406.391290,10584.944971
1015.392002,-1149.143247,-518.144159,10881.027347
1015.392321,-459.657299,222.061783,10584.944971
1015.392640,153.219100,1110.308913,9474.636058
1015.392959,995.924147,1850.514855,7846.182985
1015.393278,1302.362347,2220.617826,6957.935855
1015.393597,1838.629195,1258.350101,7476.080014
1015.393916,1838.629195,-0.000000,7624.121203
1015.394235,1838.629195,-370.102971,8142.265362
1015.394554,1378.971896,-148.041188,7994.224174
1015.394873,995.924147,-444.123565,8438.347739
1015.395192,536.266849,-370.102971,9252.574275
1015.395510,306.438199,444.123565,8586.388927
1015.395829,0.000000,814.226536,7846.182985
1015.396148,-536.266849,148.041188,8216.285956
1015.396467,-383.047749,-148.041188,9474.636058
1015.396786,-612.876398,-740.205942,10436.903782
1015.397105,-766.095498,-1554.432478,10881.027347
1015.397424,-306.438199,-1110.308913,11473.192101
1015.397743,0.000000,-518.144159,11325.150913
1015.398062,842.705048,592.164754,10881.027347
1015.398381,1455.581446,1332.370696,9696.697840
1015.398700,2374.896044,2738.761985,7846.182985
1015.399019,2451.505594,2886.803174,6883.915261
1015.399338,3140.991542,2146.597232,7105.977043
1015.399657,3447.429741,666.185348,8142.265362
1015.399976,1838.629195,-148.041188,8882.471304
1015.400295,1378.971896,-222.061783,9104.533087
1015.400614,459.657299,-814.226536,9474.636058
1015.400933,76.609550,-814.226536,10214.842000
1015.401252,0.000000,-666.185348,10510.924376
1015.401571,-1302.362347,-0.000000,8882.471304
1015.401890,-1302.362347,148.041188,8586.388927
1015.402208,-1149.143247,-74.020594,9992.780217
1015.402527,-1149.143247,-888.247130,10584.944971
1015.402846,-1302.362347,-962.267725,10881.027347
1015.403165,-842.705048,-444.123565,10955.047942
1015.403484,0.000000,-0.000000,11177.109724
1015.403803,536.266849,1036.288319,10584.944971
1015.404122,1225.752797,2072.576638,9696.697840
1015.404441,1608.800546,2812.782580,7994.224174
1015.404760,1762.019645,3034.844362,7105.977043
1015.405079,2528.115143,2072.576638,7328.038826
1015.405398,2451.505594,888.247130,7994.224174
1015.405717,1608.800546,-74.020594,8290.306550
1015.406036,842.705048,-740.205942,8734.430116
1015.406355,229.828649,-740.205942,9622.677246
1015.406674,-459.657299,-888.247130,10288.862594
1015.406993,-842.705048,-222.061783,10066.800811
1015.407312,-1302.362347,1036.288319,9030.512492
1015.407631,-1225.752797,592.164754,8882.471304
1015.407950,-1532.190996,-148.041188,9474.636058
1015.408269,-1149.143247,-740.205942,10436.903782
1015.408587,-766.095498,-1036.288319,10584.944971
1015.408906,-842.705048,-296.082377,11029.068536
1015.409225,153.219100,-0.000000,10807.006753
1015.409544,1072.533697,740.205942,10584.944971
1015.409863,1991.848295,1776.494261,9474.636058
1015.410182,2221.676944,2442.679609,7846.182985
1015.410501,1915.238745,3182.885551,6957.935855
1015.410820,2987.772442,2294.638420,7328.038826
1015.411139,2604.724693,814.226536,7920.203579
1015.411458,1838.629195,-296.082377,8512.368333
1015.411777,1072.533697,-962.267725,9326.594869
1015.412096,919.314598,-1184.329507,9770.718434
1015.412415,459.657299,-1480.411884,10658.965565
1015.412734,76.609550,-1184.329507,9844.739029
1015.413053,-536.266849,-148.041188,9474.636058
1015.413372,-459.657299,296.082377,8364.327145
1015.413691,-383.047749,-0.000000,8808.450710
1015.414010,-612.876398,-518.144159,9474.636058
1015.414328,-689.485948,-444.123565,9918.759623
1015.414647,-383.047749,-444.123565,9992.780217
1015.414966,-229.828649,-592.164754,9992.780217
1015.415285,536.266849,148.041188,10510.924376
1015.415604,1532.190996,1258.350101,9622.677246
1015.415923,919.314598,1628.453072,8438.347739
1015.416241,1838.629195,2220.617826,7476.080014
1015.416560,2221.676944,1924.535449,7402.059420
1015.416879,2374.896044,962.267725,7994.224174
1015.417198,1915.238745,222.061783,8290.306550
1015.417517,1762.019645,-370.102971,8808.450710
1015.417836,919.314598,-222.061783,9030.512492
1015.418155,1072.533697,-1184.329507,10214.842000
1015.418473,-383.047749,-814.226536,9326.594869
1015.418792,-919.314598,-444.123565,8290.306550
1015.419111,-919.314598,-518.144159,8068.244768
1015.419430,-76.609550,-148.041188,8512.368333
1015.419749,-306.438199,-1850.514855,9548.656652
1015.420068,-689.485948,-1850.514855,9548.656652
1015.420386,-612.876398,-1628.453072,10732.986159
1015.420705,-153.219100,-1110.308913,10584.944971
1015.421024,306.438199,-0.000000,9474.636058
1015.421343,689.485948,1184.329507,9104.533087
1015.421662,1149.143247,2146.597232,8512.368333
1015.421981,1378.971896,2886.803174,6661.853478
1015.422299,2221.676944,2072.576638,6513.812290
1015.422618,1991.848295,1554.432478,7846.182985
1015.422937,2221.676944,1184.329507,8586.388927
1015.423256,1685.410096,444.123565,8290.306550
1015.423575,1608.800546,-0.000000,9474.636058
1015.423894,1149.143247,-0.000000,9844.739029
1015.424212,689.485948,444.123565,9770.718434
1015.424531,459.657299,1258.350101,9326.594869
1015.424850,76.609550,1924.535449,8216.285956
1015.425169,0.000000,1998.556043,7994.224174
1015.425488,-383.047749,296.082377,9474.636058
1015.425807,-612.876398,-296.082377,10510.924376
1015.426125,-459.657299,-592.164754,10510.924376
1015.426444,-842.705048,-0.000000,10732.986159
1015.426763,-383.047749,222.061783,11769.274478
1015.427082,76.609550,666.185348,10955.047942
1015.427401,306.438199,1850.514855,9326.594869
1015.427720,995.924147,1998.556043,8068.244768
1015.428038,995.924147,2146.597232,8142.265362
1015.428357,1685.410096,1554.432478,8438.347739
1015.428676,766.095498,740.205942,9326.594869
1015.428995,76.609550,-0.000000,9252.574275
1015.429314,153.219100,-0.000000,9992.780217
1015.429633,-536.266849,-296.082377,10732.986159
1015.429951,-995.924147,-0.000000,10807.006753
1015.430270,-919.314598,888.247130,10732.986159
1015.430589,-766.095498,1480.411884,9252.574275
1015.430908,-612.876398,888.247130,9918.759623
1015.431227,-536.266849,-296.082377,11029.068536
1015.431546,0.000000,-888.247130,11325.150913
1015.431864,383.047749,-370.102971,11029.068536
1015.432183,76.609550,444.123565,10362.883188
1015.432502,1149.143247,740.205942,11177.109724
1015.432821,1991.848295,1554.432478,9918.759623
1015.433140,2757.943793,1776.494261,8734.430116
1015.433459,2987.772442,1776.494261,7550.100608
1015.433777,2604.724693,1554.432478,7994.224174
1015.434096,3140.991542,740.205942,8216.285956
1015.434415,2757.943793,-148.041188,8438.347739
1015.434734,1991.848295,-666.185348,8586.388927
1015.435053,1685.410096,-592.164754,9178.553681
1015.435372,766.095498,-370.102971,9326.594869
1015.435690,842.705048,-222.061783,9474.636058
1015.436009,-153.219100,-74.020594,9326.594869
1015.436328,-1072.533697,814.226536,8068.244768
1015.436647,-1149.143247,666.185348,8142.265362
1015.436966,-1149.143247,-148.041188,9252.574275
1015.437285,-1378.971896,-1332.370696,10362.883188
1015.437603,-1302.362347,-666.185348,10140.821405
1015.437922,-536.266849,148.041188,10140.821405
1015.438241,0.000000,962.267725,9696.697840
1015.438560,0.000000,740.205942,9400.615463
1015.438879,766.095498,1776.494261,8586.388927
1015.439198,229.828649,2294.638420,6957.935855
1015.439517,1225.752797,2072.576638,6143.709319
1015.439835,1302.362347,888.247130,7550.100608
1015.440154,1072.533697,-74.020594,8586.388927
1015.440473,383.047749,-74.020594,8216.285956
1015.440792,0.000000,-0.000000,8586.388927
1015.441111,0.000000,-222.061783,9178.553681
1015.441430,-536.266849,-666.185348,9400.615463
1015.441748,-383.047749,-74.020594,8734.430116
1015.442067,-459.657299,666.185348,8290.306550
1015.442386,-536.266849,148.041188,9178.553681
1015.442705,76.609550,-148.041188,9252.574275
1015.443024,0.000000,-0.000000,9770.718434
1015.443343,229.828649,-444.123565,9918.759623
1015.443661,383.047749,296.082377,9696.697840
1015.443980,1838.629195,-518.144159,11177.109724
1015.444299,1991.848295,370.102971,10288.862594
1015.444618,2221.676944,1776.494261,10362.883188
1015.444937,2068.457845,2812.782580,8216.285956
1015.445256,2987.772442,3034.844362,6883.915261
1015.445574,2834.553343,518.144159,8142.265362
1015.445893,2451.505594,-888.247130,9918.759623
1015.446212,919.314598,-518.144159,9104.533087
1015.446531,766.095498,-518.144159,9178.553681
1015.446850,766.095498,-296.082377,10510.924376
1015.447169,536.266849,148.041188,10955.047942
1015.447487,76.609550,148.041188,9474.636058
1015.447806,-995.924147,-0.000000,9326.594869
1015.448125,-919.314598,-444.123565,9474.636058
1015.448444,-766.095498,-592.164754,9844.739029
1015.448763,-689.485948,-666.185348,10288.862594
1015.449082,-842.705048,-370.102971,11399.171507
1015.449400,-766.095498,-444.123565,11251.130318
1015.449719,76.609550,-0.000000,11251.130318
1015.450038,919.314598,666.185348,10288.862594
1015.450357,842.705048,1998.556043,8882.471304
1015.450676,766.095498,3182.885551,6883.915261
1015.450995,1225.752797,2516.700203,6809.894666
1015.451313,1608.800546,1332.370696,8068.244768
1015.451632,1225.752797,1184.329507,8438.347739
1015.451951,306.438199,370.102971,8882.471304
1015.452270,383.047749,-222.061783,9400.615463
1015.452589,-383.047749,-592.164754,9474.636058
1015.452908,-766.095498,-0.000000,9918.759623
1015.453226,-1532.190996,518.144159,9474.636058
1015.453545,-1838.629195,1628.453072,8290.306550
1015.453864,-1302.362347,1924.535449,7846.182985
1015.454183,-612.876398,1924.535449,8734.430116
1015.454502,-842.705048,740.205942,9400.615463
1015.454821,-919.314598,592.164754,9252.574275
1015.455139,-919.314598,-148.041188,9992.780217
1015.455458,0.000000,-148.041188,11103.089130
1015.455777,306.438199,-0.000000,10584.944971
1015.456096,842.705048,814.226536,10066.800811
1015.456415,1378.971896,1850.514855,8734.430116
1015.456734,2221.676944,2368.659014,7105.977043
1015.457052,2834.553343,1702.473667,6957.935855
1015.457371,2604.724693,518.144159,8290.306550
1015.457690,1838.629195,-370.102971,8364.327145
1015.458009,1072.533697,-1036.288319,8808.450710
1015.458328,995.924147,-1406.391290,9844.739029
1015.458647,536.266849,-1702.473667,10288.862594
1015.458965,153.219100,-1332.370696,10584.944971
1015.459284,-229.828649,-222.061783,9104.533087
1015.459603,0.000000,370.102971,8586.388927
1015.459922,76.609550,-0.000000,9326.594869
1015.460241,0.000000,-962.267725,10140.821405
1015.460560,0.000000,-1110.308913,10658.965565
1015.460879,0.000000,-370.102971,10436.903782
1015.461197,383.047749,222.061783,10436.903782
1015.461516,536.266849,592.164754,10288.862594
1015.461835,1455.581446,666.185348,10362.883188
1015.462154,766.095498,1998.556043,8808.450710
1015.462473,1072.533697,2072.576638,7476.080014
1015.462792,1838.629195,1480.411884,7772.162391
1015.463110,1991.848295,1036.288319,8216.285956
1015.463429,1378.971896,666.185348,7550.100608
1015.463748,1455.581446,-518.144159,8512.368333
1015.464067,459.657299,-1036.288319,9696.697840
1015.464386,76.609550,-814.226536,9474.636058
1015.464705,-153.219100,-296.082377,8808.450710
1015.465023,-1149.143247,444.123565,8438.347739
1015.465342,-1455.581446,888.247130,8142.265362
1015.465661,-1532.190996,666.185348,8068.244768
1015.465980,-1149.143247,518.144159,9400.615463
1015.466299,-1455.581446,-0.000000,9844.739029
1015.466618,-1762.019645,740.205942,9548.656652
1015.466936,-1378.971896,518.144159,10584.944971
1015.467255,-689.485948,740.205942,10362.883188
1015.467574,229.828649,1258.350101,9918.759623
1015.467893,919.314598,1628.453072,9104.533087
1015.468212,995.924147,1998.556043,7846.182985
1015.468531,1608.800546,1924.535449,7254.018232
1015.468849,1991.848295,1332.370696,8216.285956
1015.469168,2145.067394,518.144159,8734.430116
1015.469487,1455.581446,-222.061783,8660.409521
1015.469806,1225.752797,-74.020594,9326.594869
1015.470125,612.876398,-444.123565,10214.842000
1015.470444,842.705048,-370.102971,9918.759623
1015.470762,612.876398,-0.000000,8956.491898
1015.471081,383.047749,518.144159,8734.430116
1015.471400,383.047749,-74.020594,9474.636058
1015.471719,459.657299,-888.247130,10807.006753
1015.472038,995.924147,-1184.329507,10881.027347
1015.472357,919.314598,-444.123565,11029.068536
1015.472675,689.485948,-0.000000,11029.068536
1015.472994,1149.143247,1110.308913,10658.965565
1015.473313,1378.971896,1480.411884,10214.842000
1015.473632,1302.362347,2516.700203,8882.471304
1015.473951,1608.800546,2664.741391,7550.100608
1015.474270,1608.800546,1480.411884,7698.141797
1015.474588,1532.190996,370.102971,8882.471304
1015.474907,995.924147,-296.082377,9252.574275
1015.475226,229.828649,-888.247130,9474.636058
1015.475545,-383.047749,-740.205942,10066.800811
1015.475864,-459.657299,-518.144159,10362.883188
1015.476183,-766.095498,296.082377,10066.800811
1015.476501,-1149.143247,1036.288319,9326.594869
1015.476820,-1225.752797,1184.329507,7772.162391
1015.477139,-1149.143247,370.102971,7994.224174
1015.477458,-1302.362347,-666.185348,9178.553681
1015.477777,-1072.533697,-1776.494261,9992.780217
1015.478096,-1225.752797,-1480.411884,10362.883188
1015.478414,-919.314598,-1110.308913,10658.965565
1015.478733,0.000000,-148.041188,10584.944971
1015.479052,306.438199,888.247130,10140.821405
1015.479371,842.705048,2072.576638,8438.347739
1015.479690,1302.362347,2368.659014,6735.874072
1015.480009,1685.410096,2146.597232,7105.977043
1015.480328,1991.848295,814.226536,7994.224174
1015.480646,1532.190996,-444.123565,8364.327145
1015.480965,1149.143247,-666.185348,8808.450710
1015.481284,689.485948,-1406.391290,9400.615463
1015.481603,689.485948,-888.247130,9400.615463
1015.481922,229.828649,-666.185348,9326.594869
1015.482241,0.000000,222.061783,8808.450710
1015.482559,-229.828649,962.267725,7698.141797
1015.482878,0.000000,592.164754,8290.306550
1015.483197,-536.266849,-444.123565,9622.677246
1015.483516,-383.047749,-740.205942,10214.842000
1015.483835,-689.485948,-962.267725,10214.842000
1015.484154,-689.485948,-1110.308913,10732.986159
1015.484472,229.828649,-592.164754,10807.006753
1015.484791,1149.143247,222.061783,10362.883188
1015.485110,1532.190996,1702.473667,8734.430116
1015.485429,1915.238745,2368.659014,7254.018232
1015.485748,2604.724693,2368.659014,6883.915261
1015.486067,3064.381992,1406.391290,7328.038826
1015.486385,2374.896044,666.185348,7846.182985
1015.486704,1991.848295,592.164754,7994.224174
1015.487023,1532.190996,518.144159,8734.430116
1015.487342,1378.971896,-0.000000,8956.491898
1015.487661,536.266849,148.041188,9770.718434
1015.487980,0.000000,296.082377,9030.512492
1015.488298,-689.485948,1036.288319,8290.306550
1015.488617,-919.314598,740.205942,8882.471304
1015.488936,-1225.752797,-74.020594,9918.759623
1015.489255,-1608.800546,-296.082377,10584.944971
1015.489574,-1378.971896,-370.102971,11029.068536
1015.489893,-1302.362347,296.082377,11177.109724
1015.490211,-689.485948,-0.000000,11621.233289
1015.490530,-612.876398,666.185348,11399.171507
1015.490849,0.000000,1850.514855,9696.697840
1015.491168,842.705048,1628.453072,8142.265362
1015.491487,1302.362347,1924.535449,7624.121203
1015.491806,1838.629195,1258.350101,8586.388927
1015.492124,2451.505594,148.041188,9252.574275
1015.492443,1762.019645,-0.000000,8512.368333
1015.492762,1072.533697,-592.164754,9622.677246
1015.493081,995.924147,-518.144159,9548.656652
1015.493400,612.876398,148.041188,10066.800811
1015.493719,153.219100,-0.000000,9474.636058
1015.494037,0.000000,370.102971,8586.388927
1015.494356,-536.266849,-148.041188,9696.697840
1015.494675,-306.438199,-0.000000,10140.821405
1015.494994,-612.876398,-296.082377,10214.842000
1015.495313,-459.657299,-518.144159,9992.780217
1015.495632,0.000000,-666.185348,12139.377449
1015.495950,0.000000,296.082377,10881.027347
1015.496269,689.485948,1406.391290,10362.883188
1015.496588,1762.019645,1850.514855,9696.697840
1015.496907,1608.800546,2960.823768,7994.224174
1015.497226,2374.896044,2590.720797,6809.894666
1015.497545,2298.286494,1554.432478,7698.141797
1015.497863,2145.067394,370.102971,8364.327145
1015.498182,1685.410096,-1184.329507,8586.388927
1015.498501,1225.752797,-1110.308913,9474.636058
1015.498820,1302.362347,-740.205942,9992.780217
1015.499139,842.705048,-296.082377,9696.697840
1015.499458,842.705048,-74.020594,9400.615463
1015.499776,612.876398,370.102971,8216.285956
1015.500095,612.876398,962.267725,7476.080014
1015.500414,536.266849,814.226536,7846.182985
1015.500733,536.266849,-666.185348,9178.553681
1015.501052,612.876398,-962.267725,9622.677246
1015.501371,459.657299,-296.082377,9770.718434
1015.501690,459.657299,222.061783,10362.883188
1015.502008,1149.143247,740.205942,10066.800811
1015.502327,1302.362347,1554.432478,8808.450710
1015.502646,1149.143247,2664.741391,7254.018232
1015.502965,1149.143247,2368.659014,6883.915261
1015.503284,766.095498,1850.514855,7402.059420
1015.503603,842.705048,148.041188,8808.450710
1015.503921,0.000000,-740.205942,9178.553681
1015.504240,-689.485948,-666.185348,9918.759623
1015.504559,-766.095498,-666.185348,10140.821405
1015.504878,-1225.752797,-888.247130,9844.739029
1015.505197,-842.705048,-1110.308913,10807.006753
1015.505516,-1685.410096,-148.041188,9104.533087
1015.505834,-1149.143247,370.102971,8364.327145
1015.506153,-229.828649,-370.102971,9326.594869
1015.506472,76.609550,-222.061783,9992.780217
1015.506791,536.266849,-1258.350101,9400.615463
1015.507110,842.705048,-962.267725,9400.615463
1015.507429,1072.533697,-1406.391290,11177.109724
1015.507747,1225.752797,148.041188,9474.636058
1015.508066,2145.067394,1036.288319,8956.491898
1015.508385,1608.800546,1850.514855,7402.059420
1015.508704,1838.629195,1702.473667,7994.224174
1015.509023,1302.362347,888.247130,8068.244768
1015.509342,1608.800546,370.102971,9104.533087
1015.509660,919.314598,296.082377,8734.430116
1015.509979,383.047749,222.061783,9918.759623
1015.510298,229.828649,-0.000000,10288.862594
1015.510617,-306.438199,-0.000000,10510.924376
1015.510936,-612.876398,-0.000000,9844.739029
1015.511255,-995.924147,592.164754,9696.697840
1015.511573,-689.485948,296.082377,8512.368333
1015.511892,-995.924147,222.061783,9326.594869
1015.512211,-1225.752797,-296.082377,10658.965565
1015.512530,-842.705048,-0.000000,10362.883188
1015.512849,0.000000,592.164754,10066.800811
1015.513168,459.657299,814.226536,10288.862594
1015.513486,919.314598,962.267725,10436.903782
1015.513805,995.924147,1110.308913,9548.656652
1015.514124,1685.410096,1850.514855,7920.203579
1015.514443,1608.800546,2368.659014,6957.935855
1015.514762,2145.067394,1554.432478,7476.080014
1015.515081,1991.848295,888.247130,8660.409521
1015.515399,1762.019645,666.185348,8216.285956
1015.515718,1149.143247,296.082377,8660.409521
1015.516037,919.314598,370.102971,9696.697840
1015.516356,76.609550,296.082377,9992.780217
1015.516675,-153.219100,1184.329507,9844.739029
1015.516994,-536.266849,1628.453072,9030.512492
1015.517313,-919.314598,2368.659014,8142.265362
1015.517632,-383.047749,1776.494261,8882.471304
1015.517951,-612.876398,370.102971,9622.677246
1015.518269,-689.485948,-222.061783,10436.903782
1015.518588,-919.314598,-296.082377,10955.047942
1015.518907,-459.657299,222.061783,11029.068536
1015.519226,612.876398,592.164754,11103.089130
1015.519545,612.876398,1406.391290,10066.800811
1015.519864,919.314598,2294.638420,8438.347739
1015.520183,1762.019645,1850.514855,7624.121203
1015.520502,2374.896044,1406.391290,7698.141797
1015.520821,3064.381992,666.185348,8512.368333
1015.521139,3140.991542,-444.123565,8882.471304
1015.521458,2068.457845,-740.205942,8734.430116
1015.521777,2145.067394,-518.144159,9104.533087
1015.522096,1991.848295,-888.247130,9548.656652
1015.522415,919.314598,-740.205942,9548.656652
1015.522734,612.876398,740.205942,8290.306550
1015.523053,0.000000,814.226536,8142.265362
1015.523372,-306.438199,-0.000000,9400.615463
1015.523691,-459.657299,-740.205942,10436.903782
1015.524010,-1455.581446,-962.267725,10658.965565
1015.524328,-1072.533697,-666.185348,10140.821405
1015.524647,-1378.971896,-370.102971,10955.047942
1015.524966,-1149.143247,-0.000000,10807.006753
1015.525285,-383.047749,740.205942,10140.821405
1015.525604,-229.828649,1850.514855,8660.409521
1015.525923,0.000000,2368.659014,7179.997637
1015.526242,766.095498,1184.329507,7476.080014
1015.526561,1302.362347,296.082377,8068.244768
1015.526880,1072.533697,-148.041188,8290.306550
1015.527199,842.705048,-740.205942,8142.265362
1015.527517,919.314598,-444.123565,8512.368333
1015.527836,842.705048,-370.102971,9178.553681
1015.528155,842.705048,-222.061783,9326.594869
1015.528474,612.876398,222.061783,7846.182985
1015.528793,0.000000,592.164754,7105.977043
1015.529112,229.828649,592.164754,7772.162391
1015.529431,306.438199,296.082377,8808.450710
1015.529750,689.485948,-518.144159,9474.636058
1015.530069,153.219100,-592.164754,10658.965565
1015.530388,0.000000,-370.102971,11177.109724
1015.530706,842.705048,-0.000000,11029.068536
1015.531025,1455.581446,1110.308913,10214.842000
1015.531344,1532.190996,2220.617826,8882.471304
1015.531663,1915.238745,3034.844362,7402.059420
1015.531982,2451.505594,2812.782580,7105.977043
1015.532301,2757.943793,1702.473667,7846.182985
1015.532620,2298.286494,222.061783,9030.512492
1015.532939,1455.581446,-0.000000,9104.533087
1015.533258,536.266849,-814.226536,9918.759623
1015.533577,0.000000,-740.205942,10955.047942
1015.533895,0.000000,-740.205942,10955.047942
1015.534214,-612.876398,-444.123565,10140.821405
1015.534533,-995.924147,-0.000000,9474.636058
1015.534852,-1072.533697,-518.144159,9548.656652
1015.535171,-842.705048,-1036.288319,10288.862594
1015.535490,-842.705048,-1554.432478,11029.068536
1015.535809,-689.485948,-1628.453072,10584.944971
1015.536128,-536.266849,-666.185348,10510.924376
1015.536447,153.219100,222.061783,10955.047942
1015.536766,536.266849,1554.432478,9918.759623
1015.537084,1149.143247,3034.844362,8586.388927
1015.537403,1378.971896,3330.926739,7031.956449
1015.537722,995.924147,2664.741391,6957.935855
1015.538041,995.924147,1258.350101,8364.327145
1015.538360,459.657299,296.082377,8808.450710
1015.538679,76.609550,-296.082377,9400.615463
1015.538998,-766.095498,-666.185348,9992.780217
1015.539317,-919.314598,-814.226536,10436.903782
1015.539636,-689.485948,-296.082377,10807.006753
1015.539954,-1149.143247,740.205942,9548.656652
1015.540273,-1149.143247,1406.391290,8660.409521
1015.540592,-1378.971896,1924.535449,7624.121203
1015.540911,-766.095498,1406.391290,8586.388927
1015.541230,0.000000,-444.123565,9844.739029
1015.541549,-153.219100,-370.102971,9992.780217
1015.541868,153.219100,-592.164754,10658.965565
1015.542187,1225.752797,444.123565,9548.656652
1015.542506,1991.848295,1184.329507,9844.739029
1015.542825,2757.943793,1554.432478,8216.285956
1015.543143,2451.505594,2368.659014,6883.915261
1015.543462,2681.334243,1332.370696,7179.997637
1015.543781,2451.505594,962.267725,7994.224174
1015.544100,2221.676944,666.185348,7920.203579
1015.544419,1532.190996,-0.000000,8660.409521
1015.544738,536.266849,-0.000000,8956.491898
1015.545057,76.609550,-222.061783,9548.656652
1015.545376,0.000000,-740.205942,9844.739029
1015.545695,-766.095498,-148.041188,9252.574275
1015.546014,-766.095498,370.102971,9030.512492
1015.546332,-842.705048,296.082377,8882.471304
1015.546651,-842.705048,-148.041188,9992.780217
1015.546970,-842.705048,-888.247130,10436.903782
1015.547289,-689.485948,-0.000000,9918.759623
1015.547608,-459.657299,-74.020594,10288.862594
1015.547927,306.438199,444.123565,10658.965565
1015.548246,612.876398,1628.453072,10066.800811
1015.548565,919.314598,2590.720797,8734.430116
1015.548884,995.924147,2294.638420,7624.121203
1015.549203,1302.362347,1480.411884,7328.038826
1015.549521,1685.410096,518.144159,8142.265362
1015.549840,1532.190996,-148.041188,8734.430116
1015.550159,1072.533697,-1036.288319,9104.533087
1015.550478,1072.533697,-592.164754,9252.574275
1015.550797,766.095498,-592.164754,10140.821405
1015.551116,459.657299,-444.123565,10288.862594
1015.551435,-229.828649,296.082377,9326.594869
1015.551754,-459.657299,814.226536,8142.265362
1015.552073,-689.485948,518.144159,8364.327145
1015.552392,-1225.752797,-0.000000,9696.697840
1015.552710,-1225.752797,-962.267725,10288.862594
1015.553029,-1225.752797,-222.061783,10510.924376
1015.553348,-1072.533697,-296.082377,10955.047942
1015.553667,-229.828649,-0.000000,11843.295072
1015.553986,0.000000,666.185348,11769.274478
1015.554305,306.438199,1554.432478,9770.718434
1015.554624,1149.143247,1850.514855,8290.306550
1015.554943,1302.362347,1850.514855,7846.182985
1015.555262,2681.334243,296.082377,8734.430116
1015.555581,2068.457845,-222.061783,8956.491898
1015.555899,1685.410096,-444.123565,9104.533087
1015.556218,1838.629195,-444.123565,9178.553681
1015.556537,1608.800546,-74.020594,9622.677246
1015.556856,1608.800546,-518.144159,9178.553681
1015.557175,919.314598,370.102971,8808.450710
1015.557494,536.266849,962.267725,7920.203579
1015.557813,153.219100,740.205942,7920.203579
1015.558132,306.438199,-222.061783,8660.409521
1015.558451,0.000000,-666.185348,9844.739029
1015.558769,-612.876398,-888.247130,10140.821405
1015.559088,-919.314598,-888.247130,10584.944971
1015.559407,-612.876398,-0.000000,11103.089130
1015.559726,0.000000,-0.000000,11029.068536
1015.560045,0.000000,1628.453072,9696.697840
1015.560364,76.609550,2960.823768,7994.224174
1015.560683,1149.143247,3404.947333,7031.956449
1015.561002,1608.800546,2516.700203,7105.977043
1015.561321,1991.848295,1628.453072,7402.059420
1015.561640,1685.410096,814.226536,8068.244768
1015.561958,1455.581446,-0.000000,8438.347739
1015.562277,1378.971896,-444.123565,9104.533087
1015.562596,1225.752797,-814.226536,9474.636058
1015.562915,689.485948,-370.102971,8882.471304
1015.563234,459.657299,296.082377,7846.182985
1015.563553,76.609550,592.164754,7402.059420
1015.563872,0.000000,-0.000000,8438.347739
1015.564191,-229.828649,-1258.350101,9844.739029
1015.564510,-536.266849,-962.267725,10214.842000
1015.564829,-153.219100,-1036.288319,10362.883188
1015.565147,0.000000,-1258.350101,10732.986159
1015.565466,153.219100,-222.061783,11103.089130
1015.565785,612.876398,814.226536,9770.718434
1015.566104,612.876398,1480.411884,8364.327145
1015.566423,1149.143247,1924.535449,7402.059420
1015.566742,1455.581446,1258.350101,8142.265362
1015.567061,1532.190996,222.061783,8734.430116
1015.567380,1455.581446,-222.061783,8734.430116
1015.567699,766.095498,-444.123565,9326.594869
1015.568018,612.876398,-518.144159,9918.759623
1015.568336,229.828649,-592.164754,10436.903782
1015.568655,153.219100,-74.020594,9770.718434
1015.568974,-689.485948,222.061783,9104.533087
1015.569293,-612.876398,666.185348,8512.368333
1015.569612,-536.266849,74.020594,9474.636058
1015.569931,-766.095498,-518.144159,9548.656652
1015.570250,-842.705048,-518.144159,10140.821405
1015.570569,-229.828649,-370.102971,10214.842000
1015.570888,306.438199,222.061783,10214.842000
1015.571207,842.705048,888.247130,9844.739029
1015.571525,1149.143247,1776.494261,9474.636058
1015.571844,1608.800546,2368.659014,8290.306550
1015.572163,1838.629195,2590.720797,7105.977043
1015.572482,2145.067394,2072.576638,7920.203579
1015.572801,1532.190996,962.267725,8512.368333
1015.573120,995.924147,518.144159,8808.450710
1015.573439,459.657299,-666.185348,9104.533087
1015.573758,0.000000,-222.061783,9992.780217
1015.574077,-306.438199,-148.041188,10140.821405
1015.574396,-306.438199,518.144159,9918.759623
1015.574714,-459.657299,1184.329507,9030.512492
1015.575033,-153.219100,1332.370696,8808.450710
1015.575352,-536.266849,370.102971,8882.471304
1015.575671,-689.485948,-740.205942,10214.842000
1015.575990,-536.266849,-962.267725,10584.944971
1015.576309,-612.876398,-740.205942,10140.821405
1015.576628,0.000000,-444.123565,10732.986159
1015.576947,536.266849,222.061783,10732.986159
1015.577266,1225.752797,1110.308913,9992.780217
1015.577585,1608.800546,2072.576638,8364.327145
1015.577903,1608.800546,2886.803174,7105.977043
1015.578222,2298.286494,1850.514855,7476.080014
1015.578541,2451.505594,740.205942,8734.430116
1015.578860,2068.457845,-222.061783,9104.533087
1015.579179,1608.800546,-666.185348,9474.636058
1015.579498,612.876398,-296.082377,10140.821405
1015.579817,995.924147,-666.185348,10362.883188
1015.580136,766.095498,-0.000000,9918.759623
1015.580455,383.047749,740.205942,8660.409521
1015.580773,0.000000,1110.308913,7994.224174
1015.581092,76.609550,592.164754,8660.409521
1015.581411,0.000000,-370.102971,9474.636058
1015.581730,-76.609550,-592.164754,10066.800811
1015.582049,-612.876398,-740.205942,10510.924376
1015.582368,-536.266849,-444.123565,10436.903782
1015.582687,153.219100,370.102971,10732.986159
1015.583006,842.705048,1332.370696,9770.718434
1015.583325,1149.143247,2664.741391,8364.327145
1015.583644,1455.581446,3182.885551,7105.977043
1015.583962,1991.848295,2368.659014,7698.141797
1015.584281,1685.410096,888.247130,8586.388927
1015.584600,1685.410096,-148.041188,8808.450710
1015.584919,995.924147,-444.123565,9400.615463
1015.585238,689.485948,-740.205942,9474.636058
1015.585557,689.485948,-814.226536,9992.780217
1015.585876,153.219100,-148.041188,9992.780217
1015.586195,-153.219100,518.144159,8808.450710
1015.586514,-536.266849,740.205942,7920.203579
1015.586833,-306.438199,-74.020594,8586.388927
1015.587151,-536.266849,-1036.288319,9622.677246
1015.587470,-229.828649,-1332.370696,10288.862594
1015.587789,-306.438199,-1406.391290,10288.862594
1015.588108,-153.219100,-1110.308913,10510.924376
1015.588427,383.047749,-666.185348,10584.944971
1015.588746,919.314598,888.247130,9474.636058
1015.589065,1225.752797,2072.576638,8068.244768
1015.589384,1455.581446,2590.720797,7105.977043
1015.589703,1991.848295,2294.638420,6883.915261
1015.590022,1762.019645,1110.308913,7920.203579
1015.590340,1378.971896,-222.061783,8808.450710
1015.590659,612.876398,-888.247130,9326.594869
1015.590978,536.266849,-370.102971,9844.739029
1015.591297,306.438199,-518.144159,10140.821405
1015.591616,229.828649,-0.000000,9918.759623
1015.591935,153.219100,888.247130,9326.594869
1015.592254,0.000000,1628.453072,8068.244768
1015.592573,0.000000,740.205942,8512.368333
1015.592892,229.828649,-592.164754,9474.636058
1015.593211,229.828649,-814.226536,10066.800811
1015.593529,0.000000,-74.020594,9622.677246
1015.593848,76.609550,-0.000000,9918.759623
1015.594167,919.314598,-0.000000,10510.924376
1015.594486,1762.019645,592.164754,9696.697840
1015.594805,1532.190996,1480.411884,8290.306550
1015.595124,1532.190996,2072.576638,7402.059420
1015.595443,1685.410096,1258.350101,7624.121203
1015.595762,1608.800546,148.041188,8438.347739
1015.596081,995.924147,-370.102971,9030.512492
1015.596400,0.000000,-740.205942,9474.636058
1015.596718,-306.438199,-444.123565,9992.780217
1015.597037,-229.828649,-74.020594,10510.924376
1015.597356,-612.876398,-74.020594,10510.924376
1015.597675,-612.876398,1258.350101,9770.718434
1015.597994,-612.876398,1036.288319,8956.491898
1015.598313,-306.438199,518.144159,9178.553681
1015.598632,153.219100,-222.061783,9548.656652
1015.598951,0.000000,-518.144159,10584.944971
1015.599270,0.000000,-370.102971,10214.842000
1015.599588,0.000000,-0.000000,9918.759623
1015.599907,536.266849,444.123565,10140.821405
1015.600226,995.924147,1036.288319,9992.780217
1015.600545,919.314598,1036.288319,8512.368333
1015.600864,995.924147,2072.576638,7179.997637
1015.601183,842.705048,2072.576638,7402.059420
1015.601502,1302.362347,1258.350101,8068.244768
1015.601821,919.314598,74.020594,9326.594869
1015.602140,459.657299,-0.000000,9622.677246
1015.602459,383.047749,-222.061783,9548.656652
1015.602777,229.828649,-74.020594,9770.718434
1015.603096,459.657299,222.061783,10140.821405
1015.603415,-306.438199,962.267725,9178.553681
1015.603734,-153.219100,1924.535449,7031.956449
1015.604053,0.000000,1924.535449,7994.224174
1015.604372,76.609550,518.144159,8734.430116
1015.604691,0.000000,-74.020594,9178.553681
1015.605010,0.000000,-0.000000,10288.862594
1015.605329,-459.657299,-0.000000,10658.965565
1015.605648,0.000000,888.247130,10807.006753
1015.605966,306.438199,962.267725,10510.924376
1015.606285,612.876398,1702.473667,9770.718434
1015.606604,612.876398,2220.617826,8216.285956
1015.606923,1302.362347,1850.514855,7846.182985
1015.607242,1685.410096,740.205942,8660.409521
1015.607561,1302.362347,-666.185348,9326.594869
1015.607880,1225.752797,-1406.391290,9252.574275
1015.608199,919.314598,-1258.350101,9474.636058
1015.608518,1378.971896,-1110.308913,10066.800811
1015.608837,1225.752797,-296.082377,9474.636058
1015.609155,1455.581446,370.102971,8808.450710
1015.609474,1378.971896,888.247130,7254.018232
1015.609793,919.314598,1110.308913,7550.100608
1015.610112,689.485948,-0.000000,8438.347739
1015.610431,383.047749,-666.185348,9474.636058
1015.610750,-536.266849,-1258.350101,9844.739029
1015.611069,-1378.971896,-1110.308913,10732.986159
1015.611388,-919.314598,-370.102971,11473.192101
1015.611707,-229.828649,444.123565,10955.047942
1015.612026,76.609550,1628.453072,9918.759623
1015.612344,0.000000,2368.659014,8068.244768
1015.612663,306.438199,2886.803174,7624.121203
1015.612982,1532.190996,2146.597232,7772.162391
1015.613301,1149.143247,1036.288319,8512.368333
1015.613620,1225.752797,444.123565,8660.409521
1015.613939,842.705048,444.123565,9030.512492
1015.614258,536.266849,-0.000000,9474.636058
1015.614577,229.828649,-148.041188,9770.718434
1015.614896,-229.828649,740.205942,9178.553681
1015.615214,-459.657299,1702.473667,7920.203579
1015.615533,-383.047749,1036.288319,8142.265362
1015.615852,-459.657299,-0.000000,9104.533087
1015.616171,-459.657299,-1036.288319,9770.718434
1015.616490,-383.047749,-1480.411884,10436.903782
1015.616809,-383.047749,-1554.432478,10584.944971
1015.617127,0.000000,-1850.514855,11029.068536
1015.617446,383.047749,-518.144159,10807.006753
1015.617765,1072.533697,518.144159,9918.759623
1015.618084,1455.581446,1924.535449,7698.141797
1015.618403,2451.505594,2368.659014,6809.894666
1015.618722,2681.334243,1998.556043,7698.141797
1015.619041,2451.505594,1110.308913,7698.141797
1015.619359,2068.457845,-0.000000,7994.224174
1015.619678,1685.410096,-148.041188,8882.471304
1015.619997,1149.143247,-666.185348,9178.553681
1015.620316,766.095498,-740.205942,10214.842000
1015.620635,0.000000,-0.000000,9770.718434
1015.620954,-536.266849,740.205942,9178.553681
1015.621272,-1072.533697,962.267725,8586.388927
1015.621591,-842.705048,518.144159,9474.636058
1015.621910,-995.924147,-444.123565,10658.965565
1015.622229,-1302.362347,-962.267725,10955.047942
1015.622548,-995.924147,-444.123565,11029.068536
1015.622867,-766.095498,-592.164754,11029.068536
1015.623185,0.000000,-370.102971,10436.903782
1015.623504,995.924147,740.205942,9770.718434
1015.623823,1225.752797,2072.576638,7994.224174
1015.624142,1762.019645,2368.659014,6587.832884
1015.624461,2834.553343,1332.370696,7402.059420
1015.624780,2374.896044,518.144159,8142.265362
1015.625098,1991.848295,-0.000000,8290.306550
1015.625417,995.924147,-148.041188,8438.347739
1015.625736,766.095498,-518.144159,9400.615463
1015.626055,0.000000,-1184.329507,9992.780217
1015.626374,-766.095498,-0.000000,9770.718434
1015.626693,-1149.143247,814.226536,8882.471304
1015.627012,-1532.190996,444.123565,9030.512492
1015.627330,-1455.581446,-0.000000,9474.636058
1015.627649,-1608.800546,-222.061783,10436.903782
1015.627968,-1991.848295,-296.082377,9918.759623
1015.628287,-1455.581446,-148.041188,10881.027347
1015.628606,-995.924147,222.061783,10807.006753
1015.628925,-306.438199,962.267725,10066.800811
1015.629243,0.000000,1406.391290,10288.862594
1015.629562,612.876398,2294.638420,8956.491898
1015.629881,1455.581446,2368.659014,7550.100608
1015.630200,1991.848295,1332.370696,7254.018232
1015.630519,2451.505594,370.102971,8586.388927
1015.630838,1838.629195,-0.000000,8438.347739
1015.631156,1685.410096,-148.041188,8512.368333
1015.631475,1685.410096,-518.144159,9326.594869
1015.631794,1532.190996,-0.000000,9622.677246
1015.632113,1072.533697,592.164754,9104.533087
1015.632432,842.705048,1184.329507,8586.388927
1015.632751,612.876398,888.247130,8364.327145
1015.633069,76.609550,814.226536,8290.306550
1015.633388,0.000000,-0.000000,9622.677246
1015.633707,-459.657299,-814.226536,10881.027347
1015.634026,-612.876398,-666.185348,10807.006753
1015.634345,-306.438199,-0.000000,11177.109724
1015.634664,153.219100,814.226536,11103.089130
1015.634983,-306.438199,1554.432478,10214.842000
1015.635301,459.657299,2442.679609,8882.471304
1015.635620,612.876398,2960.823768,7624.121203
1015.635939,1838.629195,2220.617826,8290.306550
1015.636258,1608.800546,740.205942,9104.533087
1015.636577,1532.190996,-0.000000,9474.636058
1015.636896,1149.143247,-592.164754,9326.594869
1015.637214,1149.143247,-444.123565,9474.636058
1015.637533,1302.362347,-962.267725,9696.697840
1015.637852,842.705048,-740.205942,9474.636058
1015.638171,153.219100,222.061783,8364.327145
1015.638490,306.438199,888.247130,7550.100608
1015.638809,0.000000,-0.000000,8290.306550
1015.639127,-229.828649,-1036.288319,9474.636058
1015.639446,-919.314598,-1554.432478,10214.842000
1015.639765,-1302.362347,-1036.288319,10807.006753
1015.640084,-1225.752797,-740.205942,10955.047942
1015.640403,-612.876398,148.041188,11325.150913
1015.640722,-229.828649,962.267725,10658.965565
1015.641040,0.000000,1702.473667,9252.574275
1015.641359,459.657299,2738.761985,7624.121203
1015.641678,1455.581446,2294.638420,7624.121203
1015.641997,1838.629195,1184.329507,7846.182985
1015.642316,1762.019645,370.102971,8068.244768
1015.642635,1608.800546,148.041188,8364.327145
1015.642953,1302.362347,148.041188,8882.471304
1015.643272,1149.143247,222.061783,9104.533087
1015.643591,1225.752797,222.061783,9252.574275
1015.643910,153.219100,-0.000000,8364.327145
1015.644229,0.000000,296.082377,7994.224174
1015.644548,-306.438199,-0.000000,8438.347739
1015.644867,-229.828649,-888.247130,9474.636058
1015.645185,-383.047749,-1628.453072,10732.986159
1015.645504,-229.828649,-1628.453072,11029.068536
1015.645823,76.609550,-592.164754,10955.047942
1015.646142,612.876398,-0.000000,10436.903782
1015.646461,1072.533697,1258.350101,9770.718434
1015.646780,1762.019645,2294.638420,8290.306550
1015.647098,1532.190996,3034.844362,7105.977043
1015.647417,2451.505594,2590.720797,6809.894666
1015.647736,2528.115143,1184.329507,7476.080014
1015.648055,1991.848295,296.082377,8290.306550
1015.648374,1838.629195,-370.102971,8734.430116
1015.648693,1608.800546,-888.247130,9548.656652
1015.649011,306.438199,-1036.288319,10066.800811
1015.649330,-459.657299,-1036.288319,10732.986159
1015.649649,-1072.533697,-0.000000,9992.780217
1015.649968,-1762.019645,296.082377,8882.471304
1015.650287,-1762.019645,370.102971,9474.636058
1015.650606,-1608.800546,-1036.288319,10658.965565
1015.650924,-1608.800546,-1480.411884,10881.027347
1015.651243,-1532.190996,-1036.288319,10510.924376
1015.651562,-1225.752797,-888.247130,11029.068536
1015.651881,459.657299,-222.061783,11103.089130
1015.652200,1455.581446,444.123565,10066.800811
1015.652519,1762.019645,1480.411884,8364.327145
1015.652838,2604.724693,2368.659014,7105.977043
1015.653156,2834.553343,2072.576638,6513.812290
1015.653475,2987.772442,1184.329507,7402.059420
1015.653794,2604.724693,222.061783,8216.285956
1015.654113,1685.410096,-0.000000,8438.347739
1015.654432,766.095498,-74.020594,8882.471304
1015.654751,306.438199,-518.144159,10066.800811
1015.655069,-229.828649,-370.102971,10214.842000
1015.655388,-995.924147,1036.288319,8882.471304
1015.655707,-1838.629195,1258.350101,8438.347739
1015.656026,-1455.581446,740.205942,8956.491898
1015.656345,-1225.752797,-74.020594,10140.821405
1015.656664,-1149.143247,-814.226536,10732.986159
1015.656982,-1378.971896,-370.102971,11177.109724
1015.657301,-1149.143247,-296.082377,11103.089130
1015.657620,306.438199,444.123565,11103.089130
1015.657939,995.924147,1258.350101,10362.883188
1015.658258,1455.581446,2812.782580,8290.306550
1015.658577,1838.629195,3330.926739,6883.915261
1015.658895,2451.505594,2960.823768,6513.812290
1015.659214,3524.039291,1184.329507,7698.141797
1015.659533,2451.505594,-0.000000,7846.182985
1015.659852,1915.238745,-1110.308913,8808.450710
1015.660171,1378.971896,-1480.411884,9474.636058
1015.660490,919.314598,-1036.288319,9474.636058
1015.660809,766.095498,-814.226536,9548.656652
1015.661127,0.000000,296.082377,9400.615463
1015.661446,-612.876398,1184.329507,8142.265362
1015.661765,-459.657299,962.267725,8512.368333
1015.662084,-995.924147,-0.000000,9474.636058
1015.662403,-1225.752797,-296.082377,10214.842000
1015.662722,-1762.019645,-814.226536,10510.924376
1015.663040,-1685.410096,-222.061783,11103.089130
1015.663359,-612.876398,-0.000000,11103.089130
1015.663678,76.609550,1480.411884,10955.047942
1015.663997,919.314598,2146.597232,9622.677246
1015.664316,842.705048,2738.761985,8142.265362
1015.664635,1685.410096,3330.926739,7476.080014
1015.664953,1762.019645,1554.432478,7772.162391
