#time,accel_x,accel_y,accel_z
1548.776580,1455.581446,-370.102971,7846.182985
1548.776897,1302.362347,370.102971,7179.997637
1548.777215,1455.581446,666.185348,6957.935855
1548.777533,1225.752797,518.144159,7254.018232
1548.777850,766.095498,-0.000000,8364.327145
1548.778168,-229.828649,-0.000000,9252.574275
1548.778485,-766.095498,-222.061783,9844.739029
1548.778803,-1302.362347,-148.041188,10140.821405
1548.779120,-1225.752797,148.041188,10288.862594
1548.779438,-842.705048,666.185348,9770.718434
1548.779755,-919.314598,962.267725,9696.697840
1548.780073,-689.485948,1332.370696,9474.636058
1548.780391,-842.705048,1554.432478,9622.677246
1548.780708,-919.314598,1332.370696,9770.718434
1548.781026,-995.924147,1258.350101,10140.821405
1548.781343,-1149.143247,592.164754,10658.965565
1548.781661,-1838.629195,-0.000000,11769.274478
1548.781978,-1608.800546,148.041188,11917.315666
1548.782296,-1149.143247,370.102971,12065.356855
1548.782613,-842.705048,1184.329507,11843.295072
1548.782931,-459.657299,1332.370696,11399.171507
1548.783249,-229.828649,1998.556043,11103.089130
1548.783566,76.609550,2072.576638,11177.109724
1548.783884,383.047749,1850.514855,11029.068536
1548.784201,306.438199,1924.535449,11103.089130
1548.784519,383.047749,1998.556043,11325.150913
1548.784836,0.000000,1628.453072,11251.130318
1548.785154,0.000000,1184.329507,11251.130318
1548.785471,0.000000,1628.453072,11695.253884
1548.785789,459.657299,962.267725,10881.027347
1548.786107,612.876398,962.267725,10140.821405
1548.786424,919.314598,888.247130,9992.780217
1548.786742,1072.533697,-74.020594,9696.697840
1548.787059,766.095498,-148.041188,9474.636058
1548.787377,459.657299,-592.164754,9326.594869
1548.787694,76.609550,-370.102971,9104.533087
1548.788012,-383.047749,-148.041188,8956.491898
1548.788329,-536.266849,-0.000000,8512.368333
1548.788647,-612.876398,296.082377,8438.347739
1548.788965,-842.705048,-0.000000,7772.162391
1548.789282,-1302.362347,-666.185348,7920.203579
1548.789600,-1685.410096,-814.226536,7920.203579
1548.789917,-1991.848295,-2516.700203,7994.224174
1548.790235,-2145.067394,-2886.803174,8290.306550
1548.790552,-2681.334243,-3552.988522,9104.533087
1548.790870,-3140.991542,-4071.132681,9548.656652
1548.791187,-3447.429741,-4219.173869,9770.718434
1548.791505,-3677.258390,-4367.215058,10214.842000
1548.791823,-3983.696590,-4071.132681,10288.862594
1548.792140,-3753.867940,-3923.091493,10214.842000
1548.792458,-3217.601092,-3775.050304,9844.739029
1548.792775,-2834.553343,-4071.132681,9474.636058
1548.793093,-2221.676944,-4293.194464,9178.553681
1548.793410,-1762.019645,-3997.112087,8068.244768
1548.793728,-1455.581446,-4367.215058,8438.347739
1548.794045,-995.924147,-5181.441594,8290.306550
1548.794363,-306.438199,-5551.544565,8660.409521
1548.794681,-1149.143247,-5847.626942,9474.636058
1548.794998,-1838.629195,-6291.750507,9696.697840
1548.795316,-2145.067394,-5847.626942,10214.842000
1548.795633,-2911.162892,-5033.400406,9770.718434
1548.795951,-2681.334243,-4737.318029,10066.800811
1548.796268,-3447.429741,-4589.276840,9696.697840
1548.796586,-3524.039291,-4367.215058,9622.677246
1548.796903,-3907.087040,-4441.235652,9474.636058
1548.797221,-3447.429741,-4811.338623,10214.842000
1548.797539,-2911.162892,-5847.626942,10658.965565
1548.797856,-2987.772442,-6439.791695,11103.089130
1548.798174,-2221.676944,-6587.832884,12065.356855
1548.798491,-1378.971896,-5921.647536,12657.521608
1548.798809,153.219100,-4737.318029,12139.377449
1548.799126,1608.800546,-2072.576638,10066.800811
1548.799444,2528.115143,-0.000000,7402.059420
1548.799761,2757.943793,1850.514855,5033.400406
1548.800079,2987.772442,1924.535449,2812.782580
1548.800397,2604.724693,740.205942,2664.741391
1548.800714,306.438199,-2368.659014,4737.318029
1548.801032,-1455.581446,-4737.318029,7105.977043
1548.801349,-3830.477490,-6439.791695,9400.615463
1548.801667,-5439.278036,-7402.059420,11769.274478
1548.801984,-7431.126331,-7031.956449,11769.274478
1548.802302,-8197.221829,-5625.565159,11843.295072
1548.802619,-8503.660028,-3552.988522,11473.192101
1548.802937,-7814.174080,-2590.720797,10955.047942
1548.803255,-7354.516781,-2516.700203,11399.171507
1548.803572,-7354.516781,-2368.659014,10881.027347
1548.803890,-6741.640382,-2960.823768,11251.130318
1548.804207,-6511.811733,-3034.844362,11325.150913
1548.804525,-5362.668486,-2886.803174,11251.130318
1548.804842,-3983.696590,-2146.597232,9992.780217
1548.805160,-2298.286494,-1998.556043,9918.759623
1548.805477,-1225.752797,-1776.494261,9474.636058
1548.805795,153.219100,-1850.514855,9252.574275
1548.806113,1072.533697,-1036.288319,8512.368333
1548.806430,2221.676944,-1110.308913,7920.203579
1548.806748,1685.410096,-1036.288319,7772.162391
1548.807065,1991.848295,-1406.391290,8290.306550
1548.807383,689.485948,-1998.556043,8216.285956
1548.807700,76.609550,-2812.782580,9844.739029
1548.808018,-383.047749,-3182.885551,10362.883188
1548.808335,-995.924147,-1406.391290,9992.780217
1548.808653,-1072.533697,-888.247130,8956.491898
1548.808971,-919.314598,-1406.391290,10066.800811
1548.809288,0.000000,-2368.659014,12361.439231
1548.809606,1225.752797,-2294.638420,12731.542202
1548.809923,2528.115143,-1332.370696,12953.603985
1548.810241,4673.182538,148.041188,14063.912898
1548.810558,6205.373534,2812.782580,12657.521608
1548.810876,6971.469032,5329.482782,9178.553681
1548.811193,8197.221829,7105.977043,5773.606348
1548.811511,8273.831378,8438.347739,2886.803174
1548.811829,8273.831378,7772.162391,3404.947333
1548.812146,8044.002729,5403.503377,2442.679609
1548.812464,7890.783629,1776.494261,6069.688724
1548.812781,6128.763984,-1036.288319,8364.327145
1548.813099,4290.134789,-3478.967927,10584.944971
1548.813416,2451.505594,-2812.782580,9622.677246
1548.813734,1915.238745,-518.144159,10288.862594
1548.814051,1072.533697,2442.679609,8068.244768
1548.814369,-919.314598,4737.318029,6365.771101
1548.814687,-2068.457845,4367.215058,6957.935855
1548.815004,-3370.820191,3330.926739,8512.368333
1548.815322,-3907.087040,2072.576638,10955.047942
1548.815639,-4060.306139,222.061783,11843.295072
1548.815957,-4060.306139,-740.205942,13101.645173
1548.816274,-4060.306139,-592.164754,12583.501014
1548.816592,-2757.943793,-0.000000,13249.686362
1548.816909,-2145.067394,962.267725,12139.377449
1548.817227,-766.095498,3701.029710,10658.965565
1548.817545,229.828649,5773.606348,8142.265362
1548.817862,612.876398,5773.606348,7105.977043
1548.818180,229.828649,3256.906145,7772.162391
1548.818497,-995.924147,-222.061783,8734.430116
1548.818814,-2221.676944,-2220.617826,10658.965565
1548.819131,-3217.601092,-3330.926739,11917.315666
1548.819449,-2834.553343,-3478.967927,12953.603985
1548.819766,-2221.676944,-1850.514855,12731.542202
1548.820083,-1072.533697,-296.082377,12287.418637
1548.820400,-383.047749,962.267725,11029.068536
1548.820718,0.000000,888.247130,10510.924376
1548.821035,306.438199,814.226536,10436.903782
1548.821352,-383.047749,296.082377,10288.862594
1548.821670,-689.485948,-1628.453072,10955.047942
1548.821987,-1149.143247,-2960.823768,12435.459826
1548.822304,-1225.752797,-2886.803174,12509.480420
1548.822621,-1072.533697,-2072.576638,12287.418637
1548.822939,-229.828649,-1036.288319,11843.295072
1548.823256,689.485948,370.102971,10732.986159
1548.823573,1608.800546,962.267725,9400.615463
1548.823890,1915.238745,-370.102971,8512.368333
1548.824208,1455.581446,-1702.473667,8956.491898
1548.824525,995.924147,-3182.885551,9178.553681
1548.824842,995.924147,-2960.823768,7772.162391
1548.825159,612.876398,-3034.844362,8512.368333
1548.825477,306.438199,-3256.906145,10066.800811
1548.825794,153.219100,-3330.926739,9696.697840
1548.826111,306.438199,-3182.885551,9474.636058
1548.826428,1072.533697,-2960.823768,9474.636058
1548.826746,1608.800546,-1702.473667,8660.409521
1548.827063,3217.601092,-592.164754,6883.915261
1548.827380,4366.744339,-0.000000,6217.729913
1548.827698,4596.572988,-814.226536,7328.038826
1548.828015,4443.353888,-740.205942,7476.080014
1548.828332,3983.696590,-814.226536,7105.977043
1548.828649,3830.477490,-296.082377,7179.997637
1548.828967,2834.553343,296.082377,7772.162391
1548.829284,2681.334243,-222.061783,7402.059420
1548.829601,2834.553343,-666.185348,7920.203579
1548.829918,2528.115143,-1036.288319,7254.018232
1548.830236,2834.553343,-1776.494261,7105.977043
1548.830553,3830.477490,-1850.514855,6365.771101
1548.830870,3447.429741,-1184.329507,6439.791695
1548.831187,2681.334243,-1258.350101,7328.038826
1548.831505,1532.190996,-888.247130,8438.347739
1548.831822,842.705048,-1258.350101,7920.203579
1548.832139,0.000000,592.164754,8142.265362
1548.832456,76.609550,1480.411884,8364.327145
1548.832774,-383.047749,1332.370696,8142.265362
1548.833091,-383.047749,1480.411884,7624.121203
1548.833408,0.000000,518.144159,8364.327145
1548.833726,-153.219100,-222.061783,8512.368333
1548.834043,0.000000,592.164754,8512.368333
1548.834360,153.219100,444.123565,8068.244768
1548.834677,-842.705048,444.123565,8660.409521
1548.834995,-995.924147,444.123565,9622.677246
1548.835312,-2068.457845,1554.432478,9326.594869
1548.835629,-2604.724693,2664.741391,8882.471304
1548.835946,-2987.772442,2812.782580,9474.636058
1548.836264,-3217.601092,2368.659014,9326.594869
1548.836581,-3370.820191,814.226536,9548.656652
1548.836898,-3217.601092,-148.041188,10288.862594
1548.837215,-2987.772442,-222.061783,10732.986159
1548.837533,-2681.334243,-0.000000,10955.047942
1548.837850,-1685.410096,740.205942,10881.027347
1548.838167,-1532.190996,1702.473667,10881.027347
1548.838484,-1302.362347,2442.679609,11103.089130
1548.838802,-1149.143247,2516.700203,11103.089130
1548.839119,-612.876398,2960.823768,11177.109724
1548.839436,0.000000,3330.926739,11177.109724
1548.839754,459.657299,3701.029710,10288.862594
1548.840071,842.705048,2886.803174,10881.027347
1548.840388,1455.581446,2146.597232,11251.130318
1548.840705,2221.676944,1850.514855,11251.130318
1548.841023,2681.334243,2294.638420,11251.130318
1548.841340,3140.991542,2368.659014,11251.130318
1548.841657,4213.525239,2368.659014,11547.212695
1548.841974,4443.353888,2146.597232,11251.130318
1548.842292,4136.915689,1776.494261,11843.295072
1548.842609,4213.525239,1480.411884,12139.377449
1548.842926,4366.744339,2146.597232,11177.109724
1548.843243,4749.792088,2590.720797,10658.965565
1548.843561,4903.011187,2590.720797,10510.924376
1548.843878,4903.011187,2368.659014,10510.924376
1548.844195,5056.230287,1628.453072,10066.800811
1548.844512,4979.620737,1554.432478,10140.821405
1548.844830,4979.620737,1110.308913,10584.944971
1548.845147,4060.306139,888.247130,10362.883188
1548.845464,3064.381992,296.082377,10214.842000
1548.845782,2528.115143,148.041188,10955.047942
1548.846099,2068.457845,-74.020594,11177.109724
1548.846416,1762.019645,1258.350101,10732.986159
1548.846733,1455.581446,1332.370696,9918.759623
1548.847051,842.705048,1036.288319,9622.677246
1548.847368,306.438199,-0.000000,9474.636058
1548.847685,383.047749,-666.185348,9400.615463
1548.848002,0.000000,-1480.411884,9030.512492
1548.848320,-229.828649,-1480.411884,9400.615463
1548.848637,-536.266849,-1036.288319,8586.388927
1548.848954,-229.828649,-296.082377,8216.285956
1548.849271,-229.828649,-222.061783,8142.265362
1548.849589,-612.876398,-0.000000,8290.306550
1548.849906,-766.095498,740.205942,7920.203579
1548.850223,-612.876398,1480.411884,7031.956449
1548.850540,-229.828649,1554.432478,6365.771101
1548.850858,-229.828649,1406.391290,6513.812290
1548.851175,-459.657299,888.247130,5995.668130
1548.851492,229.828649,222.061783,5921.647536
1548.851810,-842.705048,-296.082377,7031.956449
1548.852127,-1225.752797,-592.164754,7772.162391
1548.852444,-1149.143247,74.020594,7920.203579
1548.852761,-1149.143247,-0.000000,7846.182985
1548.853079,-919.314598,-148.041188,8364.327145
1548.853396,-842.705048,370.102971,8438.347739
1548.853713,-229.828649,962.267725,7698.141797
1548.854030,766.095498,1702.473667,6957.935855
1548.854348,1225.752797,1480.411884,7254.018232
1548.854665,1608.800546,1036.288319,7550.100608
1548.854982,1455.581446,962.267725,7254.018232
1548.855299,1991.848295,666.185348,7254.018232
1548.855617,1991.848295,518.144159,8068.244768
1548.855934,1915.238745,740.205942,8586.388927
1548.856251,2145.067394,592.164754,9326.594869
1548.856568,1838.629195,-0.000000,9622.677246
1548.856886,1608.800546,-74.020594,10140.821405
1548.857203,1455.581446,-0.000000,10288.862594
1548.857520,1455.581446,296.082377,9844.739029
1548.857838,766.095498,-0.000000,9992.780217
1548.858155,612.876398,370.102971,10658.965565
1548.858472,306.438199,-0.000000,10881.027347
1548.858789,0.000000,-296.082377,11547.212695
1548.859107,0.000000,-296.082377,11917.315666
1548.859424,-383.047749,-444.123565,12213.398043
1548.859741,-153.219100,-222.061783,12213.398043
1548.860058,0.000000,-444.123565,11843.295072
1548.860376,306.438199,-74.020594,11251.130318
1548.860693,842.705048,518.144159,11547.212695
1548.861010,1072.533697,1110.308913,10881.027347
1548.861327,1302.362347,1998.556043,9696.697840
1548.861645,1302.362347,1332.370696,9474.636058
1548.861962,1302.362347,1258.350101,9474.636058
1548.862279,1378.971896,666.185348,10584.944971
1548.862596,459.657299,-0.000000,10436.903782
1548.862914,689.485948,-0.000000,10362.883188
1548.863231,612.876398,518.144159,10436.903782
1548.863548,1149.143247,370.102971,10658.965565
1548.863866,1455.581446,518.144159,10510.924376
1548.864183,1455.581446,740.205942,10658.965565
1548.864500,1455.581446,1850.514855,9548.656652
1548.864817,2068.457845,2368.659014,9030.512492
1548.865135,2451.505594,2516.700203,8734.430116
1548.865452,2451.505594,2146.597232,8364.327145
1548.865769,1991.848295,1702.473667,8142.265362
1548.866086,1532.190996,1554.432478,8142.265362
1548.866404,1838.629195,666.185348,8586.388927
1548.866721,1915.238745,-0.000000,8364.327145
1548.867038,1455.581446,222.061783,8660.409521
1548.867355,1302.362347,-74.020594,8956.491898
1548.867673,995.924147,-0.000000,9326.594869
1548.867990,1608.800546,-0.000000,9104.533087
1548.868307,1225.752797,962.267725,8660.409521
1548.868625,1532.190996,1480.411884,8512.368333
1548.868942,1378.971896,1332.370696,8216.285956
1548.869259,1072.533697,592.164754,8216.285956
1548.869576,766.095498,-0.000000,8734.430116
1548.869894,459.657299,-0.000000,8956.491898
1548.870211,842.705048,222.061783,8734.430116
1548.870528,1149.143247,370.102971,8660.409521
1548.870845,1532.190996,296.082377,8586.388927
1548.871163,995.924147,296.082377,8586.388927
1548.871480,995.924147,-0.000000,9030.512492
1548.871797,766.095498,370.102971,8734.430116
1548.872114,612.876398,148.041188,8142.265362
1548.872432,-383.047749,592.164754,7846.182985
1548.872749,-536.266849,-0.000000,9104.533087
1548.873066,-1225.752797,-592.164754,8734.430116
1548.873383,-1225.752797,-888.247130,9474.636058
1548.873701,-1225.752797,-1406.391290,10214.842000
1548.874018,-1149.143247,-740.205942,9770.718434
1548.874335,-153.219100,-666.185348,9770.718434
1548.874653,-383.047749,-444.123565,9400.615463
1548.874970,0.000000,-962.267725,9918.759623
1548.875287,229.828649,-222.061783,9474.636058
1548.875604,153.219100,-0.000000,9030.512492
1548.875922,536.266849,814.226536,9474.636058
1548.876239,1072.533697,888.247130,9474.636058
1548.876556,1072.533697,740.205942,9252.574275
1548.876873,995.924147,-0.000000,9400.615463
1548.877191,1225.752797,-666.185348,10066.800811
1548.877508,1302.362347,-222.061783,10658.965565
1548.877825,1608.800546,-148.041188,10288.862594
1548.878142,2221.676944,148.041188,10362.883188
1548.878460,1991.848295,-518.144159,10584.944971
1548.878777,1762.019645,-148.041188,11251.130318
1548.879094,2221.676944,148.041188,10807.006753
1548.879411,2451.505594,666.185348,10288.862594
1548.879729,2451.505594,666.185348,10362.883188
1548.880046,2604.724693,1110.308913,9992.780217
1548.880363,2374.896044,-148.041188,9622.677246
1548.880681,2221.676944,-592.164754,10214.842000
1548.880998,2451.505594,-1332.370696,10436.903782
1548.881315,1608.800546,-370.102971,10362.883188
1548.881632,1762.019645,-592.164754,10214.842000
1548.881950,842.705048,-962.267725,10955.047942
1548.882267,459.657299,-1258.350101,11325.150913
1548.882584,76.609550,-888.247130,11769.274478
1548.882901,-536.266849,-74.020594,10510.924376
1548.883219,-383.047749,296.082377,10510.924376
1548.883536,-383.047749,-0.000000,9918.759623
1548.883853,-383.047749,-296.082377,9918.759623
1548.884170,-919.314598,-0.000000,9474.636058
1548.884488,-612.876398,-666.185348,9474.636058
1548.884805,-1072.533697,-296.082377,8956.491898
1548.885122,-536.266849,-740.205942,8734.430116
1548.885439,-766.095498,-148.041188,8956.491898
1548.885757,-459.657299,-296.082377,9326.594869
1548.886074,-995.924147,-148.041188,9474.636058
1548.886391,-1072.533697,296.082377,8734.430116
1548.886709,-842.705048,814.226536,8438.347739
1548.887026,-1072.533697,1258.350101,7772.162391
1548.887343,-689.485948,666.185348,7994.224174
1548.887660,-1225.752797,-74.020594,7179.997637
1548.887978,-1608.800546,148.041188,8290.306550
1548.888295,-689.485948,-370.102971,8216.285956
1548.888612,-1072.533697,-370.102971,8142.265362
1548.888929,-536.266849,-518.144159,8734.430116
1548.889247,-459.657299,-1036.288319,9104.533087
1548.889564,-306.438199,-814.226536,8808.450710
1548.889881,0.000000,-666.185348,9178.553681
1548.890198,0.000000,-222.061783,8364.327145
1548.890516,536.266849,-0.000000,8734.430116
1548.890833,459.657299,222.061783,8142.265362
1548.891150,612.876398,-888.247130,9252.574275
1548.891467,995.924147,-888.247130,8660.409521
1548.891785,1532.190996,-814.226536,9030.512492
1548.892102,1608.800546,-518.144159,8734.430116
1548.892419,2451.505594,-592.164754,8734.430116
1548.892737,1915.238745,-814.226536,8956.491898
1548.893054,2298.286494,-888.247130,9474.636058
1548.893371,2068.457845,-814.226536,9252.574275
1548.893688,2451.505594,-296.082377,9252.574275
1548.894006,2757.943793,444.123565,8882.471304
1548.894323,2374.896044,444.123565,9030.512492
1548.894640,1991.848295,-0.000000,8734.430116
1548.894957,1532.190996,-0.000000,9030.512492
1548.895275,1455.581446,-962.267725,9696.697840
1548.895592,842.705048,-666.185348,10362.883188
1548.895909,306.438199,-814.226536,9992.780217
1548.896226,383.047749,-666.185348,10362.883188
1548.896544,459.657299,-666.185348,10658.965565
1548.896861,153.219100,-666.185348,11103.089130
1548.897178,0.000000,-296.082377,9622.677246
1548.897495,0.000000,518.144159,9548.656652
1548.897813,459.657299,-0.000000,9918.759623
1548.898130,383.047749,296.082377,9992.780217
1548.898447,306.438199,-0.000000,8956.491898
1548.898765,229.828649,-296.082377,9252.574275
1548.899082,0.000000,-296.082377,9474.636058
1548.899399,229.828649,-222.061783,9992.780217
1548.899716,229.828649,-518.144159,10066.800811
1548.900034,-229.828649,-1332.370696,10807.006753
1548.900351,-459.657299,-1184.329507,10881.027347
1548.900668,306.438199,-814.226536,11695.253884
1548.900985,383.047749,592.164754,9548.656652
1548.901303,689.485948,296.082377,9622.677246
1548.901620,612.876398,518.144159,9326.594869
1548.901937,612.876398,-148.041188,9770.718434
1548.902254,612.876398,-74.020594,9326.594869
1548.902572,612.876398,-666.185348,10436.903782
1548.902889,842.705048,74.020594,10066.800811
1548.903206,1532.190996,444.123565,9696.697840
1548.903523,995.924147,518.144159,9326.594869
1548.903841,1072.533697,-962.267725,10584.944971
1548.904158,536.266849,-1110.308913,11325.150913
1548.904475,1225.752797,444.123565,11177.109724
1548.904793,1685.410096,1480.411884,8956.491898
1548.905110,1072.533697,1184.329507,9326.594869
1548.905427,842.705048,-296.082377,10140.821405
1548.905744,459.657299,-296.082377,9696.697840
1548.906062,995.924147,-148.041188,9844.739029
1548.906379,766.095498,1110.308913,9252.574275
1548.906696,1149.143247,1036.288319,9252.574275
1548.907013,1608.800546,962.267725,9178.553681
1548.907331,1532.190996,-444.123565,9622.677246
1548.907648,1608.800546,-666.185348,9622.677246
1548.907965,1378.971896,740.205942,8734.430116
1548.908282,1378.971896,1998.556043,7698.141797
1548.908600,1838.629195,2368.659014,7254.018232
1548.908917,1532.190996,888.247130,7550.100608
1548.909234,229.828649,-0.000000,7920.203579
1548.909551,-306.438199,-1036.288319,9104.533087
1548.909869,-766.095498,-296.082377,8290.306550
1548.910186,0.000000,-0.000000,9030.512492
1548.910503,383.047749,592.164754,9252.574275
1548.910821,-995.924147,296.082377,8290.306550
1548.911138,-1149.143247,-74.020594,8586.388927
1548.911455,-459.657299,-222.061783,9474.636058
1548.911772,383.047749,740.205942,9252.574275
1548.912090,1072.533697,2368.659014,7920.203579
1548.912407,383.047749,1924.535449,7624.121203
1548.912724,842.705048,1406.391290,7179.997637
1548.913041,612.876398,592.164754,8068.244768
1548.913359,1378.971896,-0.000000,9104.533087
1548.913676,1072.533697,222.061783,8068.244768
1548.913993,1532.190996,1258.350101,7772.162391
1548.914310,1532.190996,592.164754,9178.553681
1548.914628,1072.533697,-296.082377,9770.718434
1548.914945,1149.143247,-518.144159,10140.821405
1548.915262,766.095498,-148.041188,9844.739029
1548.915579,919.314598,962.267725,9400.615463
1548.915897,383.047749,814.226536,9252.574275
1548.916214,459.657299,370.102971,9770.718434
1548.916531,76.609550,-148.041188,10140.821405
1548.916849,0.000000,-0.000000,10066.800811
1548.917166,-383.047749,-296.082377,10510.924376
1548.917483,-153.219100,-0.000000,10066.800811
1548.917800,-306.438199,-666.185348,10584.944971
1548.918118,-153.219100,-1332.370696,11547.212695
1548.918435,-766.095498,-1332.370696,11177.109724
1548.918752,0.000000,-74.020594,10436.903782
1548.919069,0.000000,1036.288319,10066.800811
1548.919387,0.000000,1110.308913,9992.780217
1548.919704,229.828649,740.205942,10288.862594
1548.920021,76.609550,370.102971,9770.718434
1548.920339,0.000000,-222.061783,9992.780217
1548.920656,-229.828649,-222.061783,9992.780217
1548.920973,383.047749,-148.041188,10436.903782
1548.921291,919.314598,-0.000000,9918.759623
1548.921608,995.924147,-74.020594,9844.739029
1548.921926,766.095498,-222.061783,10436.903782
1548.922243,1149.143247,148.041188,10066.800811
1548.922560,1685.410096,1184.329507,9770.718434
1548.922878,2221.676944,1702.473667,9252.574275
1548.923195,1762.019645,1850.514855,9030.512492
1548.923512,1608.800546,1258.350101,9178.553681
1548.923830,1532.190996,740.205942,8956.491898
1548.924147,1532.190996,518.144159,8956.491898
1548.924465,1608.800546,962.267725,9252.574275
1548.924782,1455.581446,1184.329507,9326.594869
1548.925099,1378.971896,814.226536,9030.512492
1548.925417,1149.143247,-74.020594,9622.677246
1548.925734,766.095498,-888.247130,10288.862594
1548.926052,1149.143247,-74.020594,10362.883188
1548.926369,1149.143247,814.226536,9474.636058
1548.926686,1455.581446,1184.329507,8956.491898
1548.927004,1685.410096,666.185348,9474.636058
1548.927321,1532.190996,444.123565,9178.553681
1548.927638,1915.238745,370.102971,8438.347739
1548.927956,2145.067394,814.226536,8290.306550
1548.928273,2987.772442,1036.288319,8660.409521
1548.928591,2681.334243,1406.391290,8512.368333
1548.928908,2604.724693,962.267725,8512.368333
1548.929225,2145.067394,444.123565,9252.574275
1548.929543,2374.896044,518.144159,9104.533087
1548.929860,2451.505594,1406.391290,8808.450710
1548.930178,2298.286494,1998.556043,8512.368333
1548.930495,2374.896044,1184.329507,8512.368333
1548.930812,1685.410096,1184.329507,9030.512492
1548.931130,1302.362347,444.123565,8586.388927
1548.931447,1072.533697,962.267725,8068.244768
1548.931764,536.266849,962.267725,8364.327145
1548.932082,306.438199,1036.288319,8808.450710
1548.932399,0.000000,740.205942,9104.533087
1548.932717,-383.047749,444.123565,9400.615463
1548.933034,-383.047749,222.061783,9992.780217
1548.933351,-229.828649,962.267725,9474.636058
1548.933669,306.438199,1850.514855,9474.636058
1548.933986,383.047749,1480.411884,8956.491898
1548.934304,-306.438199,1554.432478,8512.368333
1548.934621,0.000000,740.205942,9030.512492
1548.934938,-459.657299,814.226536,9104.533087
1548.935256,-383.047749,296.082377,9474.636058
1548.935573,-306.438199,1036.288319,9326.594869
1548.935890,-459.657299,1110.308913,9548.656652
1548.936208,-459.657299,814.226536,9992.780217
1548.936525,-459.657299,222.061783,10066.800811
1548.936843,0.000000,296.082377,10362.883188
1548.937160,153.219100,814.226536,10362.883188
1548.937477,536.266849,1998.556043,9696.697840
1548.937795,919.314598,2294.638420,9326.594869
1548.938112,995.924147,1554.432478,9178.553681
1548.938430,1149.143247,1184.329507,9696.697840
1548.938747,1149.143247,518.144159,9918.759623
1548.939064,766.095498,-0.000000,10214.842000
1548.939382,459.657299,-444.123565,10881.027347
1548.939699,842.705048,-296.082377,12065.356855
1548.940016,1072.533697,370.102971,10881.027347
1548.940334,1149.143247,1110.308913,10362.883188
1548.940651,1378.971896,1258.350101,9474.636058
1548.940969,1302.362347,814.226536,9992.780217
1548.941286,1685.410096,-0.000000,10658.965565
1548.941603,1608.800546,-148.041188,10214.842000
1548.941921,1225.752797,-370.102971,10140.821405
1548.942238,1149.143247,-444.123565,10436.903782
1548.942555,1762.019645,-296.082377,10362.883188
1548.942873,995.924147,-444.123565,9696.697840
1548.943190,1149.143247,-222.061783,9622.677246
1548.943508,1302.362347,-0.000000,9622.677246
1548.943825,1378.971896,-444.123565,10362.883188
1548.944142,1532.190996,-814.226536,9474.636058
1548.944460,1225.752797,-148.041188,9178.553681
1548.944777,1072.533697,-0.000000,9104.533087
1548.945095,1455.581446,370.102971,8586.388927
1548.945412,1302.362347,370.102971,7846.182985
1548.945729,612.876398,-74.020594,8142.265362
1548.946047,459.657299,-888.247130,9326.594869
1548.946364,306.438199,-888.247130,9178.553681
1548.946681,689.485948,-296.082377,8216.285956
1548.946999,153.219100,-74.020594,8142.265362
1548.947316,0.000000,-444.123565,8734.430116
1548.947634,306.438199,-1110.308913,9918.759623
1548.947951,766.095498,-592.164754,9030.512492
1548.948268,842.705048,518.144159,8882.471304
1548.948586,1072.533697,888.247130,8586.388927
1548.948903,1455.581446,1258.350101,7846.182985
1548.949221,1685.410096,962.267725,6883.915261
1548.949538,1762.019645,222.061783,7698.141797
1548.949855,995.924147,-0.000000,7698.141797
1548.950173,766.095498,444.123565,8734.430116
1548.950490,2145.067394,518.144159,8216.285956
1548.950807,2298.286494,740.205942,8512.368333
1548.951125,1838.629195,296.082377,8216.285956
1548.951442,1378.971896,-148.041188,8882.471304
1548.951760,2068.457845,-0.000000,8734.430116
1548.952077,1838.629195,592.164754,8734.430116
1548.952394,919.314598,666.185348,8660.409521
1548.952712,766.095498,222.061783,9326.594869
1548.953029,0.000000,-296.082377,9030.512492
1548.953347,-153.219100,-666.185348,9696.697840
1548.953664,-229.828649,-222.061783,10140.821405
1548.953981,-536.266849,74.020594,9918.759623
1548.954299,-689.485948,370.102971,10288.862594
1548.954616,-383.047749,-0.000000,10214.842000
1548.954933,0.000000,-888.247130,11177.109724
1548.955251,-306.438199,-222.061783,11177.109724
1548.955568,229.828649,-0.000000,10510.924376
1548.955886,536.266849,1110.308913,9474.636058
1548.956203,689.485948,814.226536,9696.697840
1548.956520,1378.971896,1184.329507,9844.739029
1548.956838,459.657299,666.185348,9992.780217
1548.957155,995.924147,814.226536,9622.677246
1548.957473,995.924147,740.205942,9918.759623
1548.957790,612.876398,592.164754,10140.821405
1548.958107,1225.752797,740.205942,10510.924376
1548.958425,919.314598,444.123565,10288.862594
1548.958742,459.657299,740.205942,10066.800811
1548.959059,612.876398,740.205942,9992.780217
1548.959377,1072.533697,962.267725,10288.862594
1548.959694,842.705048,1332.370696,10140.821405
1548.960012,919.314598,666.185348,10140.821405
1548.960329,0.000000,1036.288319,10214.842000
1548.960646,0.000000,592.164754,10881.027347
1548.960964,-383.047749,518.144159,10140.821405
1548.961281,0.000000,518.144159,10510.924376
1548.961598,0.000000,-0.000000,10881.027347
1548.961916,76.609550,-74.020594,10658.965565
1548.962233,459.657299,-370.102971,10807.006753
1548.962551,842.705048,518.144159,10955.047942
1548.962868,1608.800546,814.226536,9474.636058
1548.963185,1378.971896,444.123565,8956.491898
1548.963503,1302.362347,-0.000000,9178.553681
1548.963820,1608.800546,-666.185348,9770.718434
1548.964138,1532.190996,-592.164754,9474.636058
1548.964455,1991.848295,-0.000000,9474.636058
1548.964772,2068.457845,518.144159,8290.306550
1548.965090,2757.943793,-148.041188,9104.533087
1548.965407,2604.724693,-592.164754,8586.388927
1548.965724,2834.553343,-1184.329507,9326.594869
1548.966042,2298.286494,-1110.308913,8586.388927
1548.966359,1762.019645,-666.185348,8290.306550
1548.966677,1915.238745,-592.164754,8586.388927
1548.966994,1838.629195,-370.102971,8956.491898
1548.967311,1072.533697,-666.185348,8438.347739
1548.967629,153.219100,-518.144159,7254.018232
1548.967946,0.000000,-518.144159,8364.327145
1548.968264,-766.095498,-962.267725,8290.306550
1548.968581,-1225.752797,-1776.494261,8882.471304
1548.968898,-2221.676944,-2294.638420,9252.574275
1548.969216,-2374.896044,-2442.679609,10436.903782
1548.969533,-2374.896044,-1702.473667,9770.718434
1548.969850,-1455.581446,-1184.329507,8956.491898
1548.970168,-1378.971896,-370.102971,8438.347739
1548.970485,-1532.190996,-518.144159,8216.285956
1548.970803,-1762.019645,-740.205942,8290.306550
1548.971120,-1532.190996,-1110.308913,8290.306550
1548.971437,-919.314598,-1332.370696,8660.409521
1548.971755,-766.095498,-0.000000,7994.224174
1548.972072,-536.266849,-0.000000,8512.368333
1548.972390,383.047749,-1184.329507,8882.471304
1548.972707,76.609550,-1998.556043,8956.491898
1548.973024,-306.438199,-2072.576638,9992.780217
1548.973342,229.828649,-1036.288319,9622.677246
1548.973659,612.876398,-0.000000,8142.265362
1548.973976,1455.581446,222.061783,9030.512492
1548.974294,1072.533697,-74.020594,8956.491898
1548.974611,612.876398,-222.061783,9104.533087
1548.974929,383.047749,-666.185348,8438.347739
1548.975246,612.876398,-518.144159,10288.862594
1548.975563,1378.971896,-74.020594,9474.636058
1548.975881,919.314598,296.082377,9252.574275
1548.976198,1302.362347,-962.267725,9548.656652
1548.976516,1072.533697,-1998.556043,11621.233289
1548.976833,1838.629195,-1776.494261,11325.150913
1548.977150,2681.334243,444.123565,10066.800811
1548.977468,1991.848295,1258.350101,9252.574275
1548.977785,2145.067394,1036.288319,9548.656652
1548.978102,1915.238745,962.267725,9400.615463
1548.978420,1915.238745,370.102971,9918.759623
1548.978737,1532.190996,518.144159,9622.677246
1548.979055,1378.971896,-74.020594,10140.821405
1548.979372,1685.410096,592.164754,10140.821405
1548.979689,2757.943793,-0.000000,10288.862594
1548.980007,2221.676944,-0.000000,9844.739029
1548.980324,2221.676944,-370.102971,10288.862594
1548.980641,1991.848295,518.144159,9844.739029
1548.980959,2528.115143,1628.453072,9252.574275
1548.981276,2528.115143,2442.679609,9104.533087
1548.981594,1838.629195,2072.576638,8808.450710
1548.981911,1072.533697,1628.453072,8734.430116
1548.982228,612.876398,1258.350101,9252.574275
1548.982546,459.657299,888.247130,9770.718434
1548.982863,153.219100,814.226536,10510.924376
1548.983181,76.609550,962.267725,10288.862594
1548.983498,229.828649,592.164754,9992.780217
1548.983815,76.609550,1110.308913,9918.759623
1548.984133,153.219100,1036.288319,10288.862594
1548.984450,536.266849,1628.453072,9474.636058
1548.984767,689.485948,2146.597232,8660.409521
1548.985085,612.876398,2368.659014,8882.471304
1548.985402,153.219100,1850.514855,8364.327145
1548.985720,0.000000,1998.556043,8808.450710
1548.986037,-612.876398,962.267725,8956.491898
1548.986354,-383.047749,814.226536,8956.491898
1548.986672,-229.828649,296.082377,9548.656652
1548.986989,-536.266849,296.082377,9918.759623
1548.987307,-229.828649,-222.061783,9622.677246
1548.987624,0.000000,-0.000000,9696.697840
1548.987941,-306.438199,1036.288319,9252.574275
1548.988259,0.000000,814.226536,8956.491898
1548.988576,-689.485948,1036.288319,9030.512492
1548.988893,-153.219100,370.102971,9474.636058
1548.989211,-919.314598,666.185348,9252.574275
1548.989528,-383.047749,-0.000000,9548.656652
1548.989846,-612.876398,-0.000000,9474.636058
1548.990163,-76.609550,-0.000000,9474.636058
1548.990480,153.219100,-888.247130,9548.656652
1548.990798,383.047749,-1480.411884,9770.718434
1548.991115,612.876398,-1406.391290,10362.883188
1548.991433,1072.533697,-148.041188,9474.636058
1548.991750,1225.752797,518.144159,8808.450710
1548.992067,1072.533697,592.164754,8882.471304
1548.992385,536.266849,-0.000000,9104.533087
1548.992702,383.047749,-444.123565,9474.636058
1548.993019,229.828649,-814.226536,10140.821405
1548.993337,766.095498,-962.267725,9844.739029
1548.993654,1072.533697,-962.267725,9844.739029
1548.993972,1149.143247,-1110.308913,10214.842000
1548.994289,1915.238745,-1554.432478,9474.636058
1548.994606,1991.848295,-1554.432478,9844.739029
1548.994924,2145.067394,-1258.350101,9548.656652
1548.995241,1838.629195,-148.041188,9474.636058
1548.995558,2374.896044,814.226536,9400.615463
1548.995876,1685.410096,444.123565,8956.491898
1548.996193,1378.971896,-222.061783,8882.471304
1548.996511,766.095498,-518.144159,8882.471304
1548.996828,1225.752797,-592.164754,9252.574275
1548.997145,1378.971896,-814.226536,9548.656652
1548.997463,1838.629195,-740.205942,9252.574275
1548.997780,2068.457845,-518.144159,9178.553681
1548.998098,1762.019645,-592.164754,8956.491898
1548.998415,1915.238745,-962.267725,9474.636058
1548.998732,1608.800546,-666.185348,9400.615463
1548.999050,1532.190996,444.123565,8882.471304
1548.999367,1225.752797,1258.350101,8956.491898
1548.999684,1225.752797,1258.350101,9104.533087
1549.000002,1072.533697,444.123565,8882.471304
1549.000319,995.924147,-370.102971,8734.430116
1549.000637,1072.533697,-592.164754,9178.553681
1549.000954,1608.800546,-222.061783,9474.636058
1549.001271,1532.190996,222.061783,9252.574275
1549.001589,1532.190996,222.061783,9548.656652
1549.001906,995.924147,370.102971,9548.656652
1549.002224,842.705048,518.144159,9326.594869
1549.002541,689.485948,1332.370696,8660.409521
1549.002858,459.657299,1554.432478,8734.430116
1549.003176,0.000000,1628.453072,8882.471304
1549.003493,76.609550,1480.411884,8438.347739
1549.003810,-536.266849,1036.288319,8438.347739
1549.004128,-383.047749,518.144159,9030.512492
1549.004445,-536.266849,296.082377,9326.594869
1549.004763,-383.047749,-0.000000,9326.594869
1549.005080,-995.924147,370.102971,9696.697840
1549.005397,-1149.143247,444.123565,9992.780217
1549.005715,-1532.190996,1036.288319,9992.780217
1549.006032,-1225.752797,1554.432478,9696.697840
1549.006350,-1149.143247,2368.659014,9326.594869
1549.006667,-1225.752797,2442.679609,9252.574275
1549.006984,-536.266849,2368.659014,9400.615463
1549.007302,-306.438199,1480.411884,9326.594869
1549.007619,-383.047749,1184.329507,9474.636058
1549.007936,459.657299,1332.370696,9326.594869
1549.008254,459.657299,1480.411884,9178.553681
1549.008571,1072.533697,1406.391290,9326.594869
1549.008889,1685.410096,962.267725,9696.697840
1549.009206,1378.971896,1406.391290,9622.677246
1549.009523,1532.190996,1850.514855,9770.718434
1549.009841,1532.190996,2220.617826,9474.636058
1549.010158,1532.190996,2442.679609,9400.615463
1549.010476,1302.362347,2146.597232,9474.636058
1549.010793,1532.190996,2146.597232,9326.594869
1549.011110,1608.800546,1332.370696,9770.718434
1549.011428,1685.410096,814.226536,9548.656652
1549.011745,1762.019645,814.226536,10140.821405
1549.012062,1838.629195,222.061783,10807.006753
1549.012380,1532.190996,-370.102971,10658.965565
1549.012697,1225.752797,-370.102971,11103.089130
1549.013015,1608.800546,-74.020594,11769.274478
1549.013332,1915.238745,1258.350101,10436.903782
1549.013649,1685.410096,1554.432478,10066.800811
1549.013967,2298.286494,1480.411884,9918.759623
1549.014284,2298.286494,1258.350101,9622.677246
1549.014601,2451.505594,592.164754,9400.615463
1549.014919,2221.676944,370.102971,8882.471304
1549.015236,2145.067394,-0.000000,9474.636058
1549.015554,2145.067394,-148.041188,9696.697840
1549.015871,1915.238745,-518.144159,10140.821405
1549.016188,1608.800546,-1036.288319,10584.944971
1549.016506,1762.019645,-1110.308913,10732.986159
1549.016823,1302.362347,-222.061783,10362.883188
1549.017141,1532.190996,592.164754,9622.677246
1549.017458,1838.629195,1184.329507,9178.553681
1549.017775,1685.410096,444.123565,9104.533087
1549.018093,2298.286494,-0.000000,8290.306550
1549.018410,1378.971896,148.041188,8290.306550
1549.018727,1532.190996,-0.000000,8660.409521
1549.019045,1302.362347,-74.020594,8586.388927
1549.019362,1302.362347,-148.041188,8734.430116
1549.019680,689.485948,-296.082377,8660.409521
1549.019997,76.609550,-666.185348,8734.430116
1549.020314,76.609550,-518.144159,9400.615463
1549.020632,-306.438199,-0.000000,8512.368333
1549.020949,-459.657299,518.144159,8512.368333
1549.021267,-689.485948,222.061783,8438.347739
1549.021584,-689.485948,-444.123565,8290.306550
1549.021901,-842.705048,-888.247130,8364.327145
1549.022219,-919.314598,-814.226536,8512.368333
1549.022536,-766.095498,-962.267725,8808.450710
1549.022853,-536.266849,-518.144159,8734.430116
1549.023171,-153.219100,-518.144159,8882.471304
1549.023488,-153.219100,-592.164754,9104.533087
1549.023806,153.219100,-0.000000,9474.636058
1549.024123,383.047749,222.061783,9030.512492
1549.024440,612.876398,740.205942,8216.285956
1549.024758,766.095498,814.226536,7994.224174
1549.025075,612.876398,518.144159,8438.347739
1549.025393,459.657299,222.061783,8290.306550
1549.025710,842.705048,-370.102971,8808.450710
1549.026027,383.047749,-370.102971,9622.677246
1549.026345,76.609550,-296.082377,9992.780217
1549.026662,153.219100,-0.000000,9992.780217
1549.026979,153.219100,-0.000000,9918.759623
1549.027297,229.828649,-222.061783,10510.924376
1549.027614,536.266849,444.123565,10140.821405
1549.027932,919.314598,1110.308913,9400.615463
1549.028249,1225.752797,1406.391290,8956.491898
1549.028566,1455.581446,1406.391290,9104.533087
1549.028884,1225.752797,1480.411884,9178.553681
1549.029201,1378.971896,518.144159,9474.636058
1549.029519,1225.752797,-148.041188,9474.636058
1549.029836,766.095498,-74.020594,10510.924376
1549.030153,842.705048,-222.061783,10584.944971
1549.030471,995.924147,-444.123565,10436.903782
1549.030788,995.924147,-148.041188,10807.006753
1549.031105,1225.752797,-0.000000,10658.965565
1549.031423,1225.752797,888.247130,9696.697840
1549.031740,1685.410096,1406.391290,9326.594869
1549.032058,1608.800546,1258.350101,9400.615463
1549.032375,1532.190996,740.205942,9400.615463
1549.032692,1532.190996,666.185348,9474.636058
1549.033010,1762.019645,296.082377,9622.677246
1549.033327,1378.971896,-0.000000,9992.780217
1549.033645,1302.362347,-0.000000,10214.842000
1549.033962,1378.971896,-0.000000,10288.862594
1549.034279,1225.752797,222.061783,10140.821405
1549.034597,1532.190996,444.123565,10658.965565
1549.034914,1532.190996,1110.308913,9992.780217
1549.035231,1378.971896,1406.391290,9474.636058
1549.035549,1378.971896,1628.453072,9548.656652
1549.035866,842.705048,740.205942,9844.739029
1549.036184,689.485948,740.205942,9622.677246
1549.036501,459.657299,-0.000000,9622.677246
1549.036818,842.705048,-74.020594,9474.636058
1549.037136,995.924147,-370.102971,10066.800811
1549.037453,1225.752797,-222.061783,9770.718434
1549.037771,1302.362347,-296.082377,9030.512492
1549.038088,995.924147,-0.000000,9474.636058
1549.038405,842.705048,296.082377,9474.636058
1549.038723,919.314598,740.205942,8808.450710
1549.039040,1072.533697,1332.370696,8290.306550
1549.039357,459.657299,740.205942,8734.430116
1549.039675,306.438199,370.102971,8586.388927
1549.039992,-383.047749,-74.020594,8882.471304
1549.040310,-383.047749,-592.164754,9474.636058
1549.040627,-153.219100,-814.226536,9252.574275
1549.040944,-919.314598,-1184.329507,9622.677246
1549.041262,-842.705048,-1184.329507,9474.636058
1549.041579,-689.485948,-888.247130,9474.636058
1549.041897,-306.438199,-444.123565,9770.718434
1549.042214,-536.266849,222.061783,8956.491898
1549.042531,-229.828649,666.185348,8660.409521
1549.042849,76.609550,1258.350101,8290.306550
1549.043166,229.828649,888.247130,8438.347739
1549.043483,459.657299,444.123565,8808.450710
1549.043801,612.876398,-0.000000,8142.265362
1549.044118,536.266849,-0.000000,8364.327145
1549.044436,1149.143247,-518.144159,9030.512492
1549.044753,995.924147,-666.185348,9474.636058
1549.045070,1455.581446,-1036.288319,9696.697840
1549.045388,842.705048,-1258.350101,9696.697840
1549.045705,842.705048,-518.144159,9844.739029
1549.046023,995.924147,-0.000000,9104.533087
1549.046340,995.924147,518.144159,9178.553681
1549.046657,1072.533697,370.102971,9400.615463
1549.046975,766.095498,-0.000000,9326.594869
1549.047292,1072.533697,-444.123565,8956.491898
1549.047609,1149.143247,-962.267725,9548.656652
1549.047927,689.485948,-1258.350101,9474.636058
1549.048244,1072.533697,-888.247130,9918.759623
1549.048562,995.924147,-1110.308913,9696.697840
1549.048879,383.047749,-888.247130,10436.903782
1549.049196,459.657299,-888.247130,10362.883188
1549.049514,689.485948,-148.041188,10140.821405
1549.049831,766.095498,296.082377,9622.677246
1549.050149,1225.752797,-0.000000,9252.574275
1549.050466,995.924147,-74.020594,9474.636058
1549.050783,1149.143247,-74.020594,9474.636058
1549.051101,1149.143247,-74.020594,9474.636058
1549.051418,766.095498,-592.164754,9548.656652
1549.051735,1302.362347,148.041188,10066.800811
1549.052053,1455.581446,74.020594,9548.656652
1549.052370,1302.362347,-370.102971,9474.636058
1549.052688,1072.533697,-370.102971,9474.636058
1549.053005,995.924147,-0.000000,9474.636058
1549.053322,995.924147,444.123565,8956.491898
1549.053640,919.314598,962.267725,8808.450710
1549.053957,919.314598,1036.288319,9030.512492
1549.054274,459.657299,740.205942,8882.471304
1549.054592,76.609550,444.123565,9030.512492
1549.054909,0.000000,148.041188,9252.574275
1549.055227,0.000000,-74.020594,9770.718434
1549.055544,-383.047749,296.082377,9474.636058
1549.055861,-229.828649,-0.000000,9474.636058
1549.056179,-689.485948,-444.123565,10510.924376
1549.056496,-612.876398,-444.123565,9992.780217
1549.056814,-306.438199,-0.000000,9474.636058
1549.057131,-153.219100,444.123565,9252.574275
1549.057448,76.609550,296.082377,9178.553681
1549.057766,306.438199,814.226536,9326.594869
1549.058083,229.828649,222.061783,8364.327145
1549.058400,383.047749,444.123565,8660.409521
1549.058718,689.485948,222.061783,8956.491898
1549.059035,766.095498,370.102971,8808.450710
1549.059353,919.314598,-0.000000,9252.574275
1549.059670,842.705048,-296.082377,9696.697840
1549.059987,459.657299,-296.082377,10140.821405
1549.060305,306.438199,-0.000000,9696.697840
1549.060622,766.095498,888.247130,9252.574275
1549.060940,842.705048,1480.411884,9030.512492
1549.061257,842.705048,1702.473667,8882.471304
1549.061574,536.266849,1406.391290,8660.409521
1549.061892,536.266849,740.205942,9030.512492
1549.062209,306.438199,148.041188,9548.656652
1549.062526,383.047749,-0.000000,9918.759623
1549.062844,383.047749,-222.061783,9918.759623
1549.063161,306.438199,-74.020594,9770.718434
1549.063479,153.219100,-444.123565,10140.821405
1549.063796,766.095498,-148.041188,10436.903782
1549.064113,842.705048,222.061783,9622.677246
1549.064431,689.485948,666.185348,9178.553681
1549.064748,1149.143247,592.164754,9178.553681
1549.065066,919.314598,-0.000000,8734.430116
1549.065383,1072.533697,-148.041188,9104.533087
1549.065700,1072.533697,-666.185348,9400.615463
1549.066018,1072.533697,-518.144159,9844.739029
1549.066335,612.876398,-518.144159,9918.759623
1549.066652,1225.752797,-592.164754,10362.883188
1549.066970,1378.971896,-518.144159,10584.944971
1549.067287,1455.581446,-222.061783,10288.862594
1549.067605,1532.190996,-74.020594,9992.780217
1549.067922,1915.238745,740.205942,9104.533087
1549.068239,2298.286494,1110.308913,8882.471304
1549.068557,2145.067394,1036.288319,8734.430116
1549.068874,1685.410096,592.164754,8512.368333
1549.069192,1532.190996,-0.000000,9030.512492
1549.069509,1302.362347,-222.061783,8956.491898
1549.069826,1225.752797,-518.144159,9770.718434
1549.070144,919.314598,-518.144159,9770.718434
1549.070461,842.705048,-740.205942,9992.780217
1549.070778,1149.143247,-814.226536,9844.739029
1549.071096,612.876398,-444.123565,9918.759623
1549.071413,1378.971896,370.102971,9474.636058
1549.071731,919.314598,1332.370696,8882.471304
1549.072048,1072.533697,962.267725,9030.512492
1549.072365,1072.533697,1036.288319,9252.574275
1549.072683,842.705048,666.185348,9030.512492
1549.073000,689.485948,666.185348,8734.430116
1549.073318,766.095498,370.102971,9104.533087
1549.073635,1072.533697,148.041188,9326.594869
1549.073952,689.485948,-296.082377,9400.615463
1549.074270,766.095498,-296.082377,9770.718434
1549.074587,153.219100,296.082377,9770.718434
1549.074904,766.095498,592.164754,8956.491898
1549.075222,459.657299,888.247130,8808.450710
1549.075539,0.000000,962.267725,9030.512492
1549.075857,0.000000,814.226536,8734.430116
1549.076174,-459.657299,518.144159,8882.471304
1549.076491,-536.266849,296.082377,9104.533087
1549.076809,-459.657299,148.041188,9844.739029
1549.077126,-153.219100,-0.000000,9548.656652
1549.077444,-229.828649,148.041188,9844.739029
1549.077761,-153.219100,-0.000000,9992.780217
1549.078078,-153.219100,-0.000000,10214.842000
1549.078396,-76.609550,518.144159,9844.739029
1549.078713,153.219100,1628.453072,9474.636058
1549.079030,229.828649,1924.535449,8956.491898
1549.079348,153.219100,1702.473667,8734.430116
1549.079665,153.219100,1406.391290,9104.533087
1549.079983,383.047749,962.267725,8956.491898
1549.080300,536.266849,444.123565,8956.491898
1549.080617,306.438199,148.041188,9622.677246
1549.080935,459.657299,-148.041188,9696.697840
1549.081252,919.314598,-222.061783,9548.656652
1549.081570,689.485948,-296.082377,9844.739029
1549.081887,842.705048,-74.020594,9992.780217
1549.082204,995.924147,888.247130,9252.574275
1549.082522,919.314598,1628.453072,8734.430116
1549.082839,766.095498,1258.350101,9400.615463
1549.083156,612.876398,1036.288319,9474.636058
1549.083474,612.876398,518.144159,9474.636058
1549.083791,229.828649,-0.000000,9696.697840
1549.084109,536.266849,-148.041188,10288.862594
1549.084426,689.485948,-296.082377,10584.944971
1549.084743,919.314598,-296.082377,10214.842000
1549.085061,1685.410096,-740.205942,10807.006753
1549.085378,1302.362347,-370.102971,10658.965565
1549.085696,1762.019645,370.102971,10066.800811
1549.086013,2068.457845,1184.329507,9474.636058
1549.086330,2451.505594,1406.391290,9252.574275
1549.086648,2374.896044,1184.329507,9030.512492
1549.086965,2221.676944,666.185348,8364.327145
1549.087282,2298.286494,888.247130,8586.388927
1549.087600,2681.334243,222.061783,8512.368333
1549.087917,2374.896044,-0.000000,8956.491898
1549.088235,2221.676944,-296.082377,9326.594869
1549.088552,1991.848295,-592.164754,9252.574275
1549.088869,1302.362347,-666.185348,9918.759623
1549.089187,842.705048,-370.102971,10436.903782
1549.089504,995.924147,222.061783,9696.697840
1549.089822,842.705048,740.205942,9844.739029
1549.090139,76.609550,962.267725,9548.656652
1549.090456,0.000000,740.205942,9474.636058
1549.090774,0.000000,444.123565,8808.450710
1549.091091,-76.609550,74.020594,8808.450710
1549.091408,306.438199,-0.000000,9030.512492
1549.091726,0.000000,-222.061783,9178.553681
1549.092043,-153.219100,-518.144159,9104.533087
1549.092361,-229.828649,-296.082377,9400.615463
1549.092678,-536.266849,-0.000000,9400.615463
1549.092995,-383.047749,296.082377,9104.533087
1549.093313,-612.876398,962.267725,9030.512492
1549.093630,-383.047749,1036.288319,9178.553681
1549.093948,-612.876398,1258.350101,9178.553681
1549.094265,0.000000,666.185348,8956.491898
1549.094582,0.000000,740.205942,9030.512492
1549.094900,612.876398,740.205942,9178.553681
1549.095217,612.876398,666.185348,9252.574275
1549.095534,1225.752797,222.061783,9474.636058
1549.095852,1225.752797,296.082377,9696.697840
1549.096169,1608.800546,148.041188,10066.800811
1549.096487,2221.676944,592.164754,9844.739029
1549.096804,2374.896044,1554.432478,8808.450710
1549.097121,2528.115143,1702.473667,8512.368333
1549.097439,2298.286494,1480.411884,8586.388927
1549.097756,1991.848295,1110.308913,8290.306550
1549.098074,1608.800546,740.205942,8290.306550
1549.098391,1608.800546,222.061783,9178.553681
1549.098708,1225.752797,-592.164754,10140.821405
1549.099026,1072.533697,-666.185348,10584.944971
1549.099343,229.828649,-740.205942,10658.965565
1549.099660,612.876398,-1258.350101,10955.047942
1549.099978,536.266849,-814.226536,11547.212695
1549.100295,1378.971896,-0.000000,10732.986159
1549.100613,1455.581446,1258.350101,9844.739029
1549.100930,1762.019645,1258.350101,9696.697840
1549.101247,2068.457845,1258.350101,9178.553681
1549.101565,2374.896044,1480.411884,8808.450710
1549.101882,2221.676944,1184.329507,8734.430116
1549.102200,2374.896044,1036.288319,8808.450710
1549.102517,2068.457845,370.102971,9252.574275
1549.102834,1838.629195,-0.000000,9992.780217
1549.103152,1838.629195,-222.061783,9992.780217
1549.103469,1532.190996,-0.000000,10510.924376
1549.103786,1302.362347,296.082377,9918.759623
1549.104104,995.924147,1110.308913,9252.574275
1549.104421,842.705048,1332.370696,8956.491898
1549.104739,229.828649,740.205942,9104.533087
1549.105056,-153.219100,518.144159,8734.430116
1549.105373,-459.657299,444.123565,8586.388927
1549.105691,-536.266849,-0.000000,9400.615463
1549.106008,-689.485948,-370.102971,9474.636058
1549.106326,-536.266849,-740.205942,9918.759623
1549.106643,-612.876398,-296.082377,9770.718434
1549.106960,-536.266849,-296.082377,9474.636058
1549.107278,-612.876398,-296.082377,9696.697840
1549.107595,-229.828649,222.061783,9622.677246
1549.107912,-306.438199,740.205942,9030.512492
1549.108230,-229.828649,888.247130,8882.471304
1549.108547,-383.047749,518.144159,8808.450710
1549.108865,-306.438199,370.102971,8808.450710
1549.109182,0.000000,-444.123565,9030.512492
1549.109499,76.609550,-518.144159,9548.656652
1549.109817,76.609550,-1110.308913,9696.697840
1549.110134,76.609550,-1184.329507,9548.656652
1549.110452,383.047749,-1110.308913,9696.697840
1549.110769,766.095498,-370.102971,9622.677246
1549.111086,1149.143247,518.144159,9252.574275
1549.111404,1302.362347,1258.350101,9104.533087
1549.111721,1302.362347,1554.432478,8808.450710
1549.112038,1225.752797,1406.391290,8586.388927
1549.112356,1378.971896,814.226536,8586.388927
1549.112673,1302.362347,962.267725,8586.388927
1549.112991,1149.143247,222.061783,9548.656652
1549.113308,995.924147,-370.102971,9844.739029
1549.113625,1072.533697,-518.144159,9844.739029
1549.113943,766.095498,-666.185348,10140.821405
1549.114260,612.876398,-888.247130,10214.842000
1549.114578,995.924147,-370.102971,10066.800811
1549.114895,995.924147,370.102971,9400.615463
1549.115212,1302.362347,888.247130,9104.533087
1549.115530,1225.752797,740.205942,9104.533087
1549.115847,536.266849,888.247130,8808.450710
1549.116164,842.705048,444.123565,8808.450710
1549.116482,536.266849,-0.000000,8956.491898
1549.116799,536.266849,-592.164754,9400.615463
1549.117117,766.095498,-592.164754,9622.677246
1549.117434,919.314598,-962.267725,10140.821405
1549.117751,842.705048,-814.226536,10362.883188
1549.118069,536.266849,-74.020594,10362.883188
1549.118386,919.314598,148.041188,10066.800811
1549.118703,766.095498,888.247130,9104.533087
1549.119021,1149.143247,1110.308913,9326.594869
1549.119338,919.314598,962.267725,9252.574275
1549.119656,689.485948,444.123565,8808.450710
1549.119973,689.485948,-296.082377,9178.553681
1549.120290,995.924147,-592.164754,9696.697840
1549.120608,1149.143247,-592.164754,10066.800811
1549.120925,1302.362347,-740.205942,9844.739029
1549.121242,1455.581446,-74.020594,9770.718434
1549.121560,1532.190996,-296.082377,9992.780217
1549.121877,1532.190996,296.082377,9696.697840
1549.122194,1685.410096,1110.308913,9252.574275
1549.122512,1378.971896,888.247130,9030.512492
1549.122829,1149.143247,666.185348,9104.533087
1549.123146,919.314598,-0.000000,9252.574275
1549.123464,919.314598,222.061783,8808.450710
1549.123781,689.485948,-296.082377,9104.533087
1549.124098,995.924147,-740.205942,9474.636058
1549.124416,1149.143247,-666.185348,9622.677246
1549.124733,1378.971896,-740.205942,9252.574275
1549.125050,766.095498,-518.144159,9696.697840
1549.125367,995.924147,-74.020594,9918.759623
1549.125685,842.705048,444.123565,9104.533087
1549.126002,766.095498,1406.391290,8512.368333
1549.126319,612.876398,1332.370696,8586.388927
1549.126637,459.657299,962.267725,8660.409521
1549.126954,229.828649,814.226536,8660.409521
1549.127271,383.047749,-0.000000,8808.450710
1549.127589,153.219100,-370.102971,9326.594869
1549.127906,536.266849,-370.102971,9474.636058
1549.128223,383.047749,-370.102971,9252.574275
1549.128541,76.609550,-222.061783,9696.697840
1549.128858,-306.438199,-74.020594,10140.821405
1549.129175,-612.876398,148.041188,9992.780217
1549.129493,0.000000,1332.370696,9474.636058
1549.129810,0.000000,1776.494261,9252.574275
1549.130127,229.828649,1628.453072,8734.430116
1549.130445,612.876398,1406.391290,8808.450710
1549.130762,919.314598,518.144159,8808.450710
1549.131079,842.705048,370.102971,8734.430116
1549.131397,1378.971896,-0.000000,8808.450710
1549.131714,1532.190996,-0.000000,9400.615463
1549.132031,1302.362347,-296.082377,9474.636058
1549.132349,1225.752797,-444.123565,9770.718434
1549.132666,689.485948,-74.020594,9844.739029
1549.132983,383.047749,740.205942,9622.677246
1549.133301,536.266849,1332.370696,9474.636058
1549.133618,536.266849,1332.370696,9548.656652
1549.133935,536.266849,592.164754,9474.636058
1549.134253,0.000000,-222.061783,9178.553681
1549.134570,153.219100,-444.123565,9696.697840
1549.134887,76.609550,-888.247130,9844.739029
1549.135205,229.828649,-666.185348,10140.821405
1549.135522,76.609550,-962.267725,10288.862594
1549.135839,0.000000,-962.267725,10881.027347
1549.136156,0.000000,-666.185348,10881.027347
1549.136474,229.828649,-0.000000,10288.862594
1549.136791,229.828649,666.185348,9474.636058
1549.137108,536.266849,1036.288319,9548.656652
1549.137426,766.095498,888.247130,9030.512492
1549.137743,842.705048,592.164754,8808.450710
1549.138060,1072.533697,296.082377,8956.491898
1549.138378,1378.971896,-0.000000,9104.533087
1549.138695,1225.752797,-0.000000,9252.574275
1549.139012,1378.971896,-444.123565,9622.677246
1549.139330,1225.752797,-814.226536,10066.800811
1549.139647,536.266849,-592.164754,10362.883188
1549.139964,919.314598,-296.082377,10214.842000
1549.140282,1225.752797,370.102971,9326.594869
1549.140599,1072.533697,1036.288319,9030.512492
1549.140916,1149.143247,888.247130,8956.491898
1549.141234,612.876398,740.205942,8882.471304
1549.141551,1072.533697,370.102971,8512.368333
1549.141868,766.095498,-0.000000,8586.388927
1549.142186,689.485948,-740.205942,9104.533087
1549.142503,536.266849,-1036.288319,9400.615463
1549.142820,153.219100,-962.267725,9622.677246
1549.143138,0.000000,-1628.453072,9770.718434
1549.143455,-459.657299,-1406.391290,10436.903782
1549.143772,0.000000,-444.123565,10066.800811
1549.144090,383.047749,370.102971,8882.471304
1549.144407,383.047749,888.247130,9104.533087
1549.144724,536.266849,518.144159,8734.430116
1549.145042,536.266849,518.144159,8512.368333
1549.145359,1532.190996,-0.000000,8586.388927
1549.145676,1455.581446,-0.000000,8660.409521
1549.145994,1608.800546,296.082377,8882.471304
1549.146311,1762.019645,296.082377,9178.553681
1549.146628,1685.410096,-74.020594,9178.553681
1549.146946,1685.410096,-370.102971,9548.656652
1549.147263,2298.286494,-0.000000,9992.780217
1549.147580,1762.019645,814.226536,9030.512492
1549.147897,1915.238745,1554.432478,8660.409521
1549.148215,1455.581446,1110.308913,8586.388927
1549.148532,1685.410096,1110.308913,8660.409521
1549.148849,1149.143247,814.226536,8586.388927
1549.149167,842.705048,888.247130,8956.491898
1549.149484,612.876398,666.185348,9474.636058
1549.149801,536.266849,518.144159,9770.718434
1549.150119,306.438199,-74.020594,10140.821405
1549.150436,76.609550,-148.041188,10955.047942
1549.150753,-306.438199,-444.123565,11251.130318
1549.151071,76.609550,370.102971,10658.965565
1549.151388,383.047749,962.267725,9918.759623
1549.151705,306.438199,814.226536,9696.697840
1549.152023,459.657299,1258.350101,9252.574275
1549.152340,459.657299,1110.308913,9104.533087
1549.152657,536.266849,370.102971,9104.533087
1549.152975,306.438199,148.041188,9474.636058
1549.153292,919.314598,-0.000000,9474.636058
1549.153609,229.828649,-518.144159,9992.780217
1549.153927,0.000000,-666.185348,10807.006753
1549.154244,306.438199,-444.123565,11029.068536
1549.154561,306.438199,148.041188,10510.924376
1549.154879,689.485948,1184.329507,9918.759623
1549.155196,1149.143247,1480.411884,9252.574275
1549.155513,1608.800546,1480.411884,9030.512492
1549.155831,1225.752797,1480.411884,8512.368333
1549.156148,766.095498,1258.350101,8808.450710
1549.156465,689.485948,592.164754,9104.533087
1549.156783,459.657299,74.020594,9770.718434
1549.157100,536.266849,-74.020594,10066.800811
1549.157417,383.047749,-592.164754,10214.842000
1549.157735,229.828649,-444.123565,10362.883188
1549.158052,612.876398,-444.123565,10436.903782
1549.158369,766.095498,444.123565,9474.636058
1549.158686,612.876398,962.267725,8882.471304
1549.159004,995.924147,1110.308913,8808.450710
1549.159321,612.876398,962.267725,8734.430116
1549.159638,689.485948,518.144159,8808.450710
1549.159956,766.095498,222.061783,8882.471304
1549.160273,612.876398,-222.061783,9400.615463
1549.160590,842.705048,-518.144159,9696.697840
1549.160908,1532.190996,-888.247130,9474.636058
1549.161225,1149.143247,-518.144159,9992.780217
1549.161542,1072.533697,-222.061783,9992.780217
1549.161860,1532.190996,370.102971,9474.636058
1549.162177,1455.581446,1184.329507,9104.533087
1549.162494,1378.971896,1258.350101,8734.430116
1549.162812,1378.971896,1036.288319,8660.409521
1549.163129,766.095498,814.226536,8586.388927
1549.163446,1149.143247,518.144159,8660.409521
1549.163764,919.314598,222.061783,9030.512492
1549.164081,1149.143247,222.061783,9474.636058
1549.164398,1302.362347,148.041188,9252.574275
1549.164716,1302.362347,-148.041188,9252.574275
1549.165033,1149.143247,-296.082377,9770.718434
1549.165350,919.314598,222.061783,9474.636058
1549.165668,1149.143247,962.267725,8956.491898
1549.165985,1149.143247,1702.473667,8586.388927
1549.166302,766.095498,1998.556043,8956.491898
1549.166620,459.657299,1332.370696,9104.533087
1549.166937,383.047749,888.247130,8734.430116
1549.167254,766.095498,296.082377,9178.553681
1549.167572,689.485948,222.061783,9178.553681
1549.167889,919.314598,-0.000000,9548.656652
1549.168206,919.314598,-0.000000,9474.636058
1549.168524,766.095498,-148.041188,9474.636058
1549.168841,766.095498,-148.041188,9992.780217
1549.169158,383.047749,370.102971,9474.636058
1549.169475,536.266849,1406.391290,9178.553681
1549.169793,536.266849,1480.411884,8956.491898
1549.170110,383.047749,888.247130,9030.512492
1549.170427,153.219100,740.205942,8808.450710
1549.170745,459.657299,518.144159,9030.512492
1549.171062,536.266849,-0.000000,9178.553681
1549.171379,229.828649,-0.000000,9474.636058
1549.171697,612.876398,-296.082377,9844.739029
1549.172014,689.485948,-592.164754,10214.842000
1549.172331,0.000000,-518.144159,10436.903782
1549.172649,536.266849,-0.000000,10807.006753
1549.172966,306.438199,962.267725,10066.800811
1549.173283,536.266849,1628.453072,9400.615463
1549.173601,612.876398,1332.370696,9548.656652
1549.173918,689.485948,1036.288319,9400.615463
1549.174235,1072.533697,592.164754,9400.615463
1549.174553,1072.533697,444.123565,9104.533087
1549.174870,1532.190996,-0.000000,9252.574275
1549.175187,1225.752797,-370.102971,9918.759623
1549.175505,1072.533697,-592.164754,10140.821405
1549.175822,919.314598,-962.267725,10140.821405
1549.176139,612.876398,-592.164754,10362.883188
1549.176457,306.438199,-0.000000,9770.718434
1549.176774,842.705048,814.226536,9400.615463
1549.177091,536.266849,888.247130,9252.574275
1549.177409,459.657299,296.082377,9252.574275
1549.177726,76.609550,444.123565,8808.450710
1549.178043,689.485948,222.061783,9030.512492
1549.178361,689.485948,-222.061783,9252.574275
1549.178678,689.485948,-444.123565,9400.615463
1549.178995,612.876398,-814.226536,9696.697840
1549.179313,459.657299,-962.267725,10140.821405
1549.179630,306.438199,-962.267725,9918.759623
1549.179947,842.705048,-74.020594,9992.780217
1549.180265,995.924147,592.164754,9696.697840
1549.180582,1072.533697,1036.288319,9030.512492
1549.180899,1225.752797,1258.350101,8808.450710
1549.181216,1532.190996,1110.308913,8364.327145
1549.181534,1685.410096,1258.350101,8216.285956
1549.181851,2221.676944,814.226536,8290.306550
1549.182168,2068.457845,296.082377,8586.388927
1549.182486,2221.676944,-0.000000,9252.574275
1549.182803,2068.457845,-518.144159,9400.615463
1549.183120,1838.629195,-518.144159,9844.739029
1549.183438,1685.410096,-296.082377,9844.739029
1549.183755,1532.190996,518.144159,9400.615463
1549.184072,1762.019645,1258.350101,8882.471304
1549.184390,1455.581446,1554.432478,8660.409521
1549.184707,1225.752797,1184.329507,8364.327145
1549.185024,1225.752797,740.205942,8660.409521
1549.185342,1149.143247,296.082377,8882.471304
1549.185659,689.485948,-296.082377,9252.574275
1549.185976,229.828649,-592.164754,9696.697840
1549.186294,0.000000,-888.247130,10066.800811
1549.186611,-689.485948,-1184.329507,10140.821405
1549.186928,-842.705048,-814.226536,10510.924376
1549.187246,-842.705048,-296.082377,10140.821405
1549.187563,-612.876398,666.185348,9400.615463
1549.187880,-689.485948,962.267725,9252.574275
1549.188198,-689.485948,1110.308913,9400.615463
1549.188515,-612.876398,666.185348,9030.512492
1549.188832,-229.828649,518.144159,8956.491898
1549.189150,0.000000,296.082377,8956.491898
1549.189467,0.000000,222.061783,9252.574275
1549.189784,459.657299,-0.000000,10066.800811
1549.190102,459.657299,-222.061783,9992.780217
1549.190419,536.266849,-148.041188,10066.800811
1549.190736,842.705048,370.102971,9918.759623
1549.191054,689.485948,1036.288319,9252.574275
1549.191371,919.314598,1184.329507,8660.409521
1549.191688,1225.752797,1406.391290,8808.450710
1549.192005,919.314598,962.267725,8734.430116
1549.192323,689.485948,740.205942,8734.430116
1549.192640,995.924147,222.061783,9400.615463
1549.192957,689.485948,-370.102971,9770.718434
1549.193275,689.485948,-814.226536,10510.924376
1549.193592,459.657299,-1184.329507,10732.986159
1549.193909,0.000000,-1554.432478,11251.130318
1549.194227,76.609550,-1036.288319,11399.171507
1549.194544,-229.828649,-592.164754,10436.903782
1549.194861,0.000000,370.102971,10066.800811
1549.195179,383.047749,518.144159,9844.739029
1549.195496,689.485948,518.144159,9474.636058
1549.195813,919.314598,666.185348,9326.594869
1549.196131,1149.143247,-0.000000,9474.636058
1549.196448,1302.362347,-296.082377,9548.656652
1549.196765,1532.190996,-740.205942,9992.780217
1549.197083,1685.410096,-888.247130,10140.821405
1549.197400,1915.238745,-1036.288319,9992.780217
1549.197717,1838.629195,-666.185348,9992.780217
1549.198035,1838.629195,-222.061783,9696.697840
1549.198352,1915.238745,1036.288319,8956.491898
1549.198669,1762.019645,1332.370696,8808.450710
1549.198987,1378.971896,1332.370696,8956.491898
1549.199304,1532.190996,666.185348,8364.327145
1549.199621,1685.410096,370.102971,8364.327145
1549.199939,1455.581446,-222.061783,8956.491898
1549.200256,1455.581446,-740.205942,9400.615463
1549.200573,612.876398,-370.102971,9326.594869
1549.200891,766.095498,-0.000000,9178.553681
1549.201208,842.705048,-0.000000,9474.636058
1549.201525,689.485948,-0.000000,9622.677246
1549.201843,76.609550,370.102971,9178.553681
1549.202160,459.657299,1184.329507,8808.450710
1549.202477,612.876398,1036.288319,8808.450710
1549.202794,306.438199,666.185348,8586.388927
1549.203112,383.047749,370.102971,8512.368333
1549.203429,842.705048,222.061783,8290.306550
1549.203746,1149.143247,-0.000000,8142.265362
1549.204064,1608.800546,-0.000000,8808.450710
1549.204381,1302.362347,-370.102971,8734.430116
1549.204698,1532.190996,-148.041188,9474.636058
1549.205016,1149.143247,-370.102971,9474.636058
1549.205333,766.095498,296.082377,9548.656652
1549.205650,612.876398,962.267725,9104.533087
1549.205968,153.219100,1554.432478,8882.471304
1549.206285,306.438199,1184.329507,8882.471304
1549.206602,76.609550,888.247130,9104.533087
1549.206920,0.000000,296.082377,9474.636058
1549.207237,0.000000,-0.000000,9770.718434
1549.207554,-229.828649,-888.247130,9918.759623
1549.207872,0.000000,-1184.329507,10288.862594
1549.208189,-383.047749,-1036.288319,10658.965565
1549.208506,-383.047749,-444.123565,10584.944971
1549.208824,-459.657299,148.041188,10584.944971
1549.209141,-229.828649,814.226536,9770.718434
1549.209458,306.438199,1184.329507,9326.594869
1549.209776,459.657299,1776.494261,8660.409521
1549.210093,306.438199,1036.288319,8808.450710
1549.210410,383.047749,592.164754,8290.306550
1549.210728,766.095498,-518.144159,8808.450710
1549.211045,459.657299,-370.102971,9400.615463
1549.211362,612.876398,-814.226536,10214.842000
1549.211680,0.000000,-1184.329507,10510.924376
1549.211997,0.000000,-962.267725,10732.986159
1549.212314,0.000000,-370.102971,10955.047942
1549.212632,0.000000,370.102971,10288.862594
1549.212949,536.266849,1184.329507,9696.697840
1549.213266,689.485948,1554.432478,9474.636058
1549.213584,919.314598,1332.370696,9326.594869
1549.213901,919.314598,1110.308913,8290.306550
1549.214218,1532.190996,592.164754,8438.347739
1549.214535,1455.581446,-74.020594,9104.533087
1549.214853,1302.362347,-296.082377,9400.615463
1549.215170,1302.362347,-444.123565,9474.636058
1549.215487,1072.533697,-592.164754,10140.821405
1549.215805,689.485948,-740.205942,10510.924376
1549.216122,459.657299,-148.041188,10140.821405
1549.216439,689.485948,814.226536,9622.677246
1549.216757,1225.752797,1406.391290,9400.615463
1549.217074,1149.143247,1110.308913,8956.491898
1549.217391,1378.971896,1110.308913,9104.533087
1549.217709,1378.971896,1184.329507,9104.533087
1549.218026,1455.581446,592.164754,9178.553681
1549.218343,1762.019645,444.123565,9474.636058
1549.218661,1685.410096,-74.020594,9474.636058
1549.218978,1685.410096,-0.000000,9770.718434
1549.219295,1378.971896,-148.041188,9696.697840
1549.219613,1455.581446,-222.061783,9844.739029
1549.219930,1532.190996,592.164754,9400.615463
1549.220247,1302.362347,962.267725,9030.512492
1549.220565,1532.190996,888.247130,9030.512492
1549.220882,1072.533697,370.102971,8808.450710
1549.221199,689.485948,296.082377,8734.430116
1549.221517,306.438199,296.082377,9030.512492
1549.221834,0.000000,-0.000000,9104.533087
1549.222151,459.657299,-370.102971,9400.615463
1549.222468,0.000000,-518.144159,9474.636058
1549.222786,-612.876398,-888.247130,9770.718434
1549.223103,-153.219100,-1110.308913,10510.924376
1549.223420,0.000000,-296.082377,10510.924376
1549.223737,76.609550,-0.000000,9918.759623
1549.224055,0.000000,1184.329507,9104.533087
1549.224372,0.000000,1258.350101,8660.409521
1549.224689,0.000000,1184.329507,8512.368333
1549.225006,306.438199,296.082377,8808.450710
1549.225324,306.438199,148.041188,9178.553681
1549.225641,76.609550,-296.082377,9030.512492
1549.225958,383.047749,-370.102971,9326.594869
1549.226275,536.266849,-740.205942,9326.594869
1549.226593,842.705048,-814.226536,10066.800811
1549.226910,76.609550,-814.226536,9696.697840
1549.227227,0.000000,-296.082377,9622.677246
1549.227544,153.219100,296.082377,9400.615463
1549.227862,612.876398,518.144159,9252.574275
1549.228179,842.705048,518.144159,9030.512492
1549.228496,612.876398,222.061783,9178.553681
1549.228813,0.000000,-0.000000,8882.471304
1549.229131,459.657299,-740.205942,9252.574275
1549.229448,766.095498,-370.102971,9918.759623
1549.229765,842.705048,-814.226536,10584.944971
1549.230082,153.219100,-222.061783,9770.718434
1549.230400,459.657299,-962.267725,10510.924376
1549.230717,842.705048,-666.185348,10510.924376
1549.231034,1225.752797,370.102971,9622.677246
1549.231351,1302.362347,1184.329507,8882.471304
1549.231669,1225.752797,1036.288319,8808.450710
1549.231986,2451.505594,592.164754,8586.388927
1549.232303,2068.457845,370.102971,8808.450710
1549.232620,1762.019645,-0.000000,9178.553681
1549.232938,1991.848295,222.061783,8882.471304
1549.233255,2298.286494,740.205942,8882.471304
1549.233572,1915.238745,444.123565,8808.450710
1549.233889,1838.629195,592.164754,9252.574275
1549.234207,1685.410096,370.102971,9844.739029
1549.234524,1455.581446,814.226536,9104.533087
1549.234841,1302.362347,1554.432478,8956.491898
1549.235158,766.095498,1702.473667,9400.615463
1549.235476,689.485948,1258.350101,8734.430116
1549.235793,766.095498,1110.308913,8512.368333
1549.236110,306.438199,592.164754,9622.677246
1549.236427,383.047749,-0.000000,9548.656652
1549.236745,459.657299,296.082377,9622.677246
1549.237062,306.438199,-0.000000,10066.800811
1549.237379,612.876398,-0.000000,10288.862594
1549.237696,0.000000,444.123565,9770.718434
1549.238014,0.000000,666.185348,9696.697840
1549.238331,-229.828649,1332.370696,9326.594869
1549.238648,0.000000,1776.494261,9326.594869
1549.238965,76.609550,1036.288319,9474.636058
1549.239283,76.609550,666.185348,9474.636058
1549.239600,-229.828649,592.164754,8956.491898
1549.239917,306.438199,-74.020594,9770.718434
1549.240234,229.828649,222.061783,9696.697840
1549.240552,766.095498,-0.000000,10214.842000
1549.240869,612.876398,-0.000000,10510.924376
1549.241186,536.266849,222.061783,10658.965565
1549.241503,919.314598,592.164754,10066.800811
1549.241821,995.924147,1850.514855,9400.615463
1549.242138,1149.143247,2368.659014,9030.512492
1549.242455,1608.800546,1924.535449,8290.306550
1549.242772,1762.019645,1480.411884,8290.306550
1549.243090,1455.581446,740.205942,8290.306550
1549.243407,1378.971896,-0.000000,8734.430116
1549.243724,1225.752797,148.041188,9326.594869
1549.244041,1685.410096,-222.061783,9548.656652
1549.244359,919.314598,-444.123565,9178.553681
1549.244676,383.047749,-296.082377,9992.780217
1549.244993,0.000000,-666.185348,10732.986159
1549.245310,306.438199,148.041188,10214.842000
1549.245628,536.266849,1036.288319,10140.821405
1549.245945,-153.219100,962.267725,9474.636058
1549.246262,153.219100,592.164754,10066.800811
1549.246579,842.705048,666.185348,9474.636058
1549.246897,1532.190996,-296.082377,9030.512492
1549.247214,1149.143247,-222.061783,9178.553681
1549.247531,1225.752797,-222.061783,8956.491898
1549.247848,1915.238745,-148.041188,9030.512492
1549.248166,1532.190996,-518.144159,9178.553681
1549.248483,919.314598,-888.247130,9992.780217
1549.248800,76.609550,-740.205942,9770.718434
1549.249117,842.705048,370.102971,9400.615463
1549.249435,1225.752797,1184.329507,8734.430116
1549.249752,766.095498,592.164754,9104.533087
1549.250069,383.047749,666.185348,8512.368333
1549.250386,229.828649,-0.000000,8512.368333
1549.250704,459.657299,-518.144159,9400.615463
1549.251021,536.266849,-1480.411884,9770.718434
1549.251338,383.047749,-296.082377,9696.697840
1549.251655,766.095498,-592.164754,10140.821405
1549.251973,229.828649,-0.000000,9696.697840
1549.252290,306.438199,-222.061783,9548.656652
1549.252607,689.485948,296.082377,9474.636058
1549.252924,229.828649,444.123565,8882.471304
1549.253242,459.657299,962.267725,8808.450710
1549.253559,459.657299,740.205942,8512.368333
1549.253876,842.705048,962.267725,8882.471304
1549.254193,689.485948,-0.000000,8734.430116
1549.254511,919.314598,-444.123565,9400.615463
1549.254828,842.705048,-666.185348,9400.615463
1549.255145,689.485948,-666.185348,9844.739029
1549.255462,919.314598,-444.123565,10362.883188
1549.255780,842.705048,-0.000000,9918.759623
1549.256097,1225.752797,-0.000000,10066.800811
1549.256414,1302.362347,518.144159,10066.800811
1549.256731,1149.143247,1036.288319,8882.471304
1549.257049,1762.019645,1554.432478,8586.388927
1549.257366,1378.971896,1924.535449,7772.162391
1549.257683,1608.800546,962.267725,8290.306550
1549.258000,1149.143247,888.247130,8882.471304
1549.258318,766.095498,-666.185348,9992.780217
1549.258635,76.609550,-222.061783,9548.656652
1549.258952,229.828649,-0.000000,10436.903782
1549.259270,-383.047749,592.164754,10214.842000
1549.259587,0.000000,370.102971,9992.780217
1549.259904,-842.705048,740.205942,9326.594869
1549.260221,-306.438199,-0.000000,10510.924376
1549.260539,0.000000,888.247130,9770.718434
1549.260856,612.876398,1332.370696,9104.533087
1549.261173,1072.533697,1184.329507,8364.327145
1549.261490,536.266849,1184.329507,8438.347739
1549.261808,1685.410096,592.164754,8512.368333
1549.262125,1378.971896,-222.061783,9252.574275
1549.262442,1072.533697,148.041188,9178.553681
1549.262759,1685.410096,-222.061783,9918.759623
1549.263077,1072.533697,370.102971,9918.759623
1549.263394,1838.629195,296.082377,10066.800811
1549.263711,1072.533697,888.247130,8512.368333
1549.264028,612.876398,740.205942,9178.553681
1549.264346,842.705048,888.247130,8956.491898
1549.264663,1532.190996,-0.000000,9252.574275
1549.264980,229.828649,-444.123565,9474.636058
1549.265297,459.657299,-1258.350101,10881.027347
1549.265615,306.438199,-592.164754,10658.965565
1549.265932,612.876398,-222.061783,9252.574275
1549.266249,536.266849,-518.144159,9844.739029
1549.266566,383.047749,-1258.350101,10510.924376
1549.266884,536.266849,-222.061783,10732.986159
1549.267201,1608.800546,-222.061783,10066.800811
1549.267518,919.314598,592.164754,9030.512492
1549.267835,1149.143247,1258.350101,9474.636058
1549.268153,2374.896044,814.226536,9326.594869
1549.268470,1532.190996,222.061783,8216.285956
1549.268787,2068.457845,-370.102971,9104.533087
1549.269104,766.095498,-370.102971,8660.409521
1549.269422,1455.581446,-296.082377,9696.697840
1549.269739,1378.971896,-222.061783,9696.697840
1549.270056,1302.362347,-1406.391290,10066.800811
1549.270373,383.047749,-1036.288319,10732.986159
1549.270691,153.219100,-592.164754,9844.739029
1549.271008,766.095498,1258.350101,9030.512492
1549.271325,1685.410096,962.267725,8734.430116
1549.271642,1072.533697,740.205942,9252.574275
1549.271960,536.266849,-296.082377,8882.471304
1549.272277,76.609550,-0.000000,8586.388927
1549.272594,689.485948,-148.041188,8512.368333
1549.272911,995.924147,592.164754,9548.656652
1549.273229,459.657299,518.144159,8290.306550
1549.273546,76.609550,-0.000000,9326.594869
1549.273863,-689.485948,-1480.411884,9992.780217
1549.274180,0.000000,-1702.473667,11621.233289
1549.274498,383.047749,-0.000000,9844.739029
1549.274815,689.485948,1332.370696,9030.512492
1549.275132,153.219100,2442.679609,7031.956449
1549.275449,766.095498,1332.370696,7920.203579
1549.275767,306.438199,592.164754,8216.285956
1549.276084,919.314598,-962.267725,9622.677246
1549.276401,-229.828649,592.164754,8438.347739
1549.276718,1149.143247,370.102971,9696.697840
1549.277036,76.609550,1554.432478,8956.491898
1549.277353,1149.143247,-222.061783,10510.924376
1549.277670,0.000000,-222.061783,9696.697840
1549.277987,0.000000,-666.185348,9770.718434
1549.278305,76.609550,666.185348,10066.800811
1549.278622,1378.971896,962.267725,9474.636058
1549.278939,1149.143247,1850.514855,8734.430116
1549.279256,383.047749,1924.535449,8438.347739
1549.279574,842.705048,444.123565,8882.471304
1549.279891,842.705048,370.102971,8290.306550
1549.280208,1225.752797,-444.123565,9770.718434
1549.280525,612.876398,-518.144159,10288.862594
1549.280843,689.485948,-444.123565,10807.006753
1549.281160,995.924147,-222.061783,10214.842000
1549.281477,1072.533697,-222.061783,10214.842000
1549.281794,306.438199,888.247130,9622.677246
1549.282112,612.876398,1332.370696,9030.512492
1549.282429,1149.143247,518.144159,8956.491898
1549.282746,919.314598,296.082377,9622.677246
1549.283063,306.438199,-74.020594,10140.821405
1549.283381,0.000000,-222.061783,9992.780217
1549.283698,842.705048,-444.123565,10436.903782
1549.284015,1302.362347,-592.164754,10510.924376
1549.284332,1149.143247,-296.082377,9918.759623
1549.284650,1149.143247,-222.061783,10214.842000
1549.284967,842.705048,-0.000000,9992.780217
1549.285284,1991.848295,-0.000000,9918.759623
1549.285601,1838.629195,1406.391290,9030.512492
1549.285919,1838.629195,962.267725,9178.553681
1549.286236,1302.362347,1406.391290,7476.080014
1549.286553,1838.629195,518.144159,7550.100608
1549.286870,1608.800546,-592.164754,9252.574275
1549.287188,995.924147,-1258.350101,9622.677246
1549.287505,0.000000,-1036.288319,9548.656652
1549.287822,229.828649,-1332.370696,10140.821405
1549.288139,459.657299,-888.247130,10362.883188
1549.288457,689.485948,-1258.350101,10066.800811
1549.288774,459.657299,-74.020594,10214.842000
1549.289091,0.000000,666.185348,9326.594869
1549.289408,383.047749,666.185348,9326.594869
1549.289726,919.314598,518.144159,9696.697840
1549.290043,995.924147,-0.000000,8882.471304
1549.290360,995.924147,740.205942,8142.265362
1549.290677,1378.971896,-0.000000,8216.285956
1549.290995,1378.971896,370.102971,8438.347739
1549.291312,1915.238745,-0.000000,9178.553681
1549.291629,1608.800546,-74.020594,9030.512492
1549.291946,1072.533697,-444.123565,9474.636058
1549.292264,612.876398,-518.144159,9474.636058
1549.292581,766.095498,-0.000000,9252.574275
1549.292898,383.047749,962.267725,8808.450710
1549.293215,459.657299,962.267725,9252.574275
1549.293533,0.000000,370.102971,8438.347739
1549.293850,-229.828649,-0.000000,8290.306550
1549.294167,-306.438199,-296.082377,9474.636058
1549.294484,-153.219100,-296.082377,9770.718434
1549.294802,0.000000,-370.102971,9474.636058
1549.295119,0.000000,-0.000000,9030.512492
1549.295436,-383.047749,-148.041188,9918.759623
1549.295753,-306.438199,-74.020594,9992.780217
1549.296071,306.438199,296.082377,9622.677246
1549.296388,689.485948,814.226536,9104.533087
1549.296705,536.266849,1924.535449,8290.306550
1549.297022,612.876398,2146.597232,8142.265362
1549.297340,919.314598,1776.494261,8438.347739
1549.297657,1685.410096,740.205942,8512.368333
1549.297974,842.705048,296.082377,8660.409521
1549.298291,536.266849,-148.041188,9474.636058
1549.298609,459.657299,-296.082377,9770.718434
1549.298926,459.657299,-444.123565,10288.862594
1549.299243,459.657299,-1258.350101,11103.089130
1549.299560,383.047749,-74.020594,11177.109724
1549.299878,153.219100,592.164754,9918.759623
1549.300195,1149.143247,2072.576638,9474.636058
1549.300512,1455.581446,1776.494261,8956.491898
1549.300829,1378.971896,1628.453072,9252.574275
1549.301147,1072.533697,1406.391290,8660.409521
1549.301464,1608.800546,888.247130,9326.594869
1549.301781,1072.533697,-0.000000,9474.636058
1549.302099,689.485948,-148.041188,10066.800811
1549.302416,842.705048,-444.123565,10658.965565
1549.302733,919.314598,-296.082377,11177.109724
1549.303050,689.485948,-518.144159,10955.047942
1549.303368,536.266849,-222.061783,10066.800811
1549.303685,0.000000,814.226536,9474.636058
1549.304002,766.095498,888.247130,9844.739029
1549.304319,1149.143247,1036.288319,9474.636058
1549.304637,842.705048,592.164754,9548.656652
1549.304954,919.314598,444.123565,9104.533087
1549.305271,766.095498,-0.000000,9030.512492
1549.305588,1532.190996,222.061783,9770.718434
1549.305906,1915.238745,-740.205942,10362.883188
1549.306223,1225.752797,-740.205942,10066.800811
1549.306540,689.485948,-740.205942,10140.821405
1549.306857,689.485948,740.205942,9696.697840
1549.307175,1838.629195,296.082377,9918.759623
1549.307492,1762.019645,1110.308913,9326.594869
1549.307809,1225.752797,1110.308913,9104.533087
1549.308126,1149.143247,888.247130,7994.224174
1549.308444,1302.362347,518.144159,8586.388927
1549.308761,1149.143247,222.061783,9844.739029
1549.309078,1072.533697,-666.185348,9104.533087
1549.309395,76.609550,-740.205942,9252.574275
1549.309713,0.000000,-740.205942,9918.759623
1549.310030,76.609550,-962.267725,10214.842000
1549.310347,689.485948,-444.123565,10140.821405
1549.310664,306.438199,-74.020594,9400.615463
1549.310982,0.000000,296.082377,9474.636058
1549.311299,766.095498,666.185348,9474.636058
1549.311616,612.876398,814.226536,8808.450710
1549.311933,1225.752797,1110.308913,8660.409521
1549.312251,1149.143247,1406.391290,7698.141797
1549.312568,1149.143247,1036.288319,7994.224174
1549.312885,1225.752797,370.102971,8956.491898
1549.313202,1225.752797,-592.164754,9104.533087
1549.313520,612.876398,-1332.370696,9622.677246
1549.313837,842.705048,-148.041188,10140.821405
1549.314154,1302.362347,296.082377,9252.574275
1549.314471,1149.143247,1554.432478,8216.285956
1549.314789,1378.971896,1998.556043,8216.285956
1549.315106,306.438199,1332.370696,7846.182985
1549.315423,229.828649,740.205942,7846.182985
1549.315740,689.485948,370.102971,8808.450710
1549.316058,229.828649,-148.041188,9400.615463
1549.316375,0.000000,74.020594,9030.512492
1549.316692,153.219100,-444.123565,9474.636058
1549.317009,-153.219100,-370.102971,9992.780217
1549.317327,0.000000,-1184.329507,11103.089130
1549.317644,0.000000,-444.123565,10288.862594
1549.317961,-306.438199,296.082377,10066.800811
1549.318278,612.876398,1480.411884,9104.533087
1549.318596,306.438199,1332.370696,9252.574275
1549.318913,459.657299,1258.350101,8882.471304
1549.319230,689.485948,222.061783,8882.471304
1549.319547,459.657299,518.144159,8290.306550
1549.319865,1532.190996,-0.000000,10140.821405
1549.320182,1532.190996,-74.020594,10066.800811
1549.320499,1608.800546,-370.102971,10214.842000
1549.320816,1455.581446,-518.144159,9696.697840
1549.321134,1225.752797,-0.000000,10288.862594
1549.321451,1302.362347,666.185348,9992.780217
1549.321768,1838.629195,1554.432478,9326.594869
1549.322085,1149.143247,1628.453072,9252.574275
1549.322403,1149.143247,1480.411884,9474.636058
1549.322720,612.876398,296.082377,9474.636058
1549.323037,766.095498,-0.000000,9992.780217
1549.323354,689.485948,-1110.308913,9918.759623
1549.323672,995.924147,-0.000000,10436.903782
1549.323989,1072.533697,-0.000000,9548.656652
1549.324306,612.876398,-0.000000,9696.697840
1549.324623,459.657299,-740.205942,10362.883188
1549.324941,383.047749,-592.164754,10584.944971
1549.325258,153.219100,-0.000000,10066.800811
1549.325575,536.266849,1110.308913,9474.636058
1549.325892,153.219100,888.247130,9252.574275
1549.326210,229.828649,1184.329507,9326.594869
1549.326527,689.485948,666.185348,9178.553681
1549.326844,919.314598,-0.000000,9178.553681
1549.327161,995.924147,-0.000000,9326.594869
1549.327479,995.924147,-740.205942,9992.780217
1549.327796,612.876398,-592.164754,9474.636058
1549.328113,1455.581446,-222.061783,10066.800811
1549.328430,995.924147,444.123565,9474.636058
1549.328748,995.924147,444.123565,9400.615463
1549.329065,842.705048,1554.432478,8512.368333
1549.329382,1302.362347,1554.432478,8882.471304
1549.329699,995.924147,1332.370696,8586.388927
1549.330016,689.485948,592.164754,8512.368333
1549.330334,689.485948,222.061783,8438.347739
1549.330651,459.657299,-222.061783,8956.491898
1549.330968,612.876398,-444.123565,9178.553681
1549.331285,536.266849,-888.247130,9400.615463
1549.331603,76.609550,-444.123565,9918.759623
1549.331920,0.000000,-296.082377,9474.636058
1549.332237,-153.219100,222.061783,9474.636058
1549.332554,-306.438199,370.102971,9474.636058
1549.332872,-536.266849,518.144159,9326.594869
1549.333189,-153.219100,444.123565,9178.553681
1549.333506,229.828649,518.144159,8660.409521
1549.333823,536.266849,444.123565,8512.368333
1549.334141,459.657299,518.144159,8438.347739
1549.334458,766.095498,-0.000000,8216.285956
1549.334775,919.314598,-444.123565,9400.615463
1549.335092,919.314598,-666.185348,9696.697840
1549.335410,1072.533697,-962.267725,10288.862594
1549.335727,919.314598,296.082377,9770.718434
1549.336044,919.314598,740.205942,9400.615463
1549.336361,919.314598,1258.350101,8808.450710
1549.336679,1378.971896,1184.329507,8734.430116
1549.336996,689.485948,1258.350101,8216.285956
1549.337313,919.314598,666.185348,8660.409521
1549.337630,1302.362347,518.144159,9030.512492
1549.337948,1072.533697,-148.041188,9548.656652
1549.338265,1225.752797,-592.164754,9770.718434
1549.338582,689.485948,-518.144159,9992.780217
1549.338899,0.000000,-1036.288319,9918.759623
1549.339217,612.876398,-814.226536,10881.027347
1549.339534,766.095498,-0.000000,10362.883188
1549.339851,612.876398,592.164754,9918.759623
1549.340168,995.924147,1184.329507,9548.656652
1549.340486,1149.143247,740.205942,9104.533087
1549.340803,1378.971896,444.123565,9030.512492
1549.341120,1915.238745,222.061783,9918.759623
1549.341437,1455.581446,-222.061783,9326.594869
1549.341755,1455.581446,-148.041188,9548.656652
1549.342072,1762.019645,-592.164754,9696.697840
1549.342389,1532.190996,-518.144159,10288.862594
1549.342706,1378.971896,-592.164754,10436.903782
1549.343023,995.924147,-444.123565,10214.842000
1549.343341,995.924147,518.144159,9844.739029
1549.343658,1455.581446,1036.288319,9622.677246
1549.343975,995.924147,1258.350101,9326.594869
1549.344292,995.924147,1258.350101,9326.594869
1549.344610,995.924147,666.185348,9178.553681
1549.344927,1225.752797,-74.020594,9178.553681
1549.345244,995.924147,-0.000000,9326.594869
1549.345561,766.095498,-370.102971,9918.759623
1549.345879,536.266849,-222.061783,9992.780217
1549.346196,536.266849,-296.082377,10066.800811
1549.346513,-153.219100,-222.061783,10066.800811
1549.346830,0.000000,296.082377,9474.636058
1549.347148,229.828649,1554.432478,8660.409521
1549.347465,459.657299,1110.308913,8512.368333
1549.347782,689.485948,1332.370696,8364.327145
1549.348099,842.705048,814.226536,8438.347739
1549.348417,153.219100,666.185348,8142.265362
1549.348734,766.095498,-0.000000,8808.450710
1549.349051,536.266849,-0.000000,8808.450710
1549.349368,689.485948,-444.123565,9400.615463
1549.349686,0.000000,-222.061783,9548.656652
1549.350003,0.000000,-74.020594,10066.800811
1549.350320,76.609550,-74.020594,9696.697840
1549.350637,76.609550,296.082377,9326.594869
1549.350955,0.000000,814.226536,9030.512492
1549.351272,76.609550,814.226536,9178.553681
1549.351589,383.047749,666.185348,8512.368333
1549.351906,459.657299,296.082377,8660.409521
1549.352224,459.657299,-0.000000,9030.512492
1549.352541,0.000000,-0.000000,9104.533087
1549.352858,306.438199,-444.123565,9548.656652
1549.353175,536.266849,-222.061783,10140.821405
1549.353493,76.609550,-148.041188,10288.862594
1549.353810,229.828649,-0.000000,10214.842000
1549.354127,689.485948,370.102971,9918.759623
1549.354444,995.924147,1110.308913,9474.636058
1549.354762,612.876398,740.205942,9252.574275
1549.355079,919.314598,888.247130,9104.533087
1549.355396,766.095498,814.226536,8808.450710
1549.355713,1072.533697,296.082377,9400.615463
1549.356030,842.705048,-592.164754,9252.574275
1549.356348,1149.143247,-740.205942,9918.759623
1549.356665,919.314598,-814.226536,10066.800811
1549.356982,1532.190996,-1110.308913,10214.842000
1549.357299,1532.190996,-740.205942,10436.903782
1549.357617,1685.410096,-0.000000,9770.718434
1549.357934,1608.800546,888.247130,8660.409521
1549.358251,2145.067394,1036.288319,8364.327145
1549.358568,2221.676944,814.226536,8734.430116
1549.358886,1685.410096,814.226536,7994.224174
1549.359203,1915.238745,444.123565,8142.265362
1549.359520,1225.752797,-148.041188,9400.615463
1549.359837,383.047749,-1110.308913,9844.739029
1549.360155,689.485948,-888.247130,10140.821405
1549.360472,306.438199,-814.226536,10807.006753
1549.360789,0.000000,-666.185348,10881.027347
1549.361106,0.000000,-370.102971,10658.965565
1549.361424,0.000000,370.102971,10436.903782
1549.361741,383.047749,962.267725,9844.739029
1549.362058,459.657299,1184.329507,9622.677246
1549.362375,536.266849,888.247130,9252.574275
1549.362693,919.314598,962.267725,8512.368333
1549.363010,919.314598,-0.000000,8660.409521
1549.363327,842.705048,-0.000000,9252.574275
1549.363644,1455.581446,-444.123565,9474.636058
1549.363962,1455.581446,-592.164754,9474.636058
1549.364279,1149.143247,-1036.288319,9548.656652
1549.364596,766.095498,-814.226536,9326.594869
1549.364913,995.924147,-148.041188,9400.615463
1549.365231,459.657299,592.164754,8734.430116
1549.365548,536.266849,1036.288319,8512.368333
1549.365865,229.828649,1258.350101,8586.388927
1549.366182,0.000000,962.267725,8438.347739
1549.366500,0.000000,370.102971,8586.388927
1549.366817,0.000000,-0.000000,9474.636058
1549.367134,-153.219100,-518.144159,9844.739029
1549.367451,-383.047749,-1036.288319,9918.759623
1549.367769,76.609550,-518.144159,10362.883188
1549.368086,-306.438199,-74.020594,10288.862594
1549.368403,0.000000,222.061783,9992.780217
1549.368720,0.000000,1110.308913,9474.636058
1549.369037,766.095498,1850.514855,9030.512492
1549.369355,689.485948,1924.535449,8512.368333
1549.369672,612.876398,2072.576638,7994.224174
1549.369989,766.095498,1480.411884,8068.244768
1549.370306,306.438199,666.185348,8438.347739
1549.370624,306.438199,-0.000000,9474.636058
1549.370941,383.047749,-222.061783,9400.615463
1549.371258,459.657299,-518.144159,9918.759623
1549.371575,536.266849,-888.247130,10658.965565
1549.371893,0.000000,-666.185348,10584.944971
1549.372210,459.657299,-148.041188,10436.903782
1549.372527,229.828649,740.205942,9918.759623
1549.372844,842.705048,1036.288319,9622.677246
1549.373162,1072.533697,1554.432478,9178.553681
1549.373479,995.924147,1628.453072,8956.491898
1549.373796,1302.362347,1110.308913,9030.512492
1549.374113,1378.971896,370.102971,9474.636058
1549.374431,1225.752797,-0.000000,9326.594869
1549.374748,1762.019645,-518.144159,9918.759623
1549.375065,1302.362347,-518.144159,10140.821405
1549.375382,1225.752797,-1332.370696,10436.903782
1549.375700,842.705048,-740.205942,10510.924376
1549.376017,766.095498,-148.041188,9992.780217
1549.376334,842.705048,296.082377,9918.759623
1549.376651,766.095498,592.164754,9400.615463
1549.376969,766.095498,370.102971,9474.636058
1549.377286,995.924147,444.123565,9178.553681
1549.377603,995.924147,-0.000000,9104.533087
1549.377920,1149.143247,-370.102971,9622.677246
1549.378238,1532.190996,-444.123565,9992.780217
1549.378555,1608.800546,-814.226536,10214.842000
1549.378872,1532.190996,-518.144159,10362.883188
1549.379189,1685.410096,-370.102971,10214.842000
1549.379507,1762.019645,444.123565,9474.636058
1549.379824,2068.457845,1258.350101,8956.491898
1549.380141,1915.238745,1702.473667,8438.347739
1549.380458,1991.848295,1406.391290,8142.265362
1549.380775,1838.629195,1110.308913,7920.203579
1549.381093,1838.629195,592.164754,7846.182985
1549.381410,1225.752797,-148.041188,8586.388927
1549.381727,919.314598,-370.102971,9326.594869
1549.382044,383.047749,-592.164754,9474.636058
1549.382362,306.438199,-814.226536,9918.759623
1549.382679,0.000000,-740.205942,10288.862594
1549.382996,0.000000,-74.020594,9918.759623
1549.383313,-153.219100,666.185348,9474.636058
1549.383631,0.000000,1036.288319,9030.512492
1549.383948,153.219100,888.247130,9030.512492
1549.384265,459.657299,1110.308913,8290.306550
1549.384582,153.219100,1184.329507,8660.409521
1549.384900,153.219100,814.226536,8438.347739
1549.385217,995.924147,148.041188,8882.471304
1549.385534,459.657299,222.061783,9030.512492
1549.385851,1072.533697,-296.082377,9030.512492
1549.386169,229.828649,444.123565,9400.615463
1549.386486,0.000000,740.205942,9548.656652
1549.386803,306.438199,1110.308913,9326.594869
1549.387120,383.047749,1110.308913,9252.574275
1549.387438,229.828649,888.247130,9400.615463
1549.387755,459.657299,1036.288319,8660.409521
1549.388072,153.219100,814.226536,8734.430116
1549.388389,229.828649,370.102971,9104.533087
1549.388707,153.219100,222.061783,9622.677246
1549.389024,229.828649,148.041188,9844.739029
1549.389341,76.609550,-0.000000,9992.780217
1549.389658,0.000000,-0.000000,10362.883188
1549.389976,0.000000,-74.020594,10362.883188
1549.390293,229.828649,222.061783,10214.842000
1549.390610,306.438199,1110.308913,10066.800811
1549.390927,612.876398,1480.411884,9474.636058
1549.391245,612.876398,1332.370696,9326.594869
1549.391562,1302.362347,1110.308913,8956.491898
1549.391879,1378.971896,592.164754,8734.430116
1549.392196,1455.581446,-148.041188,9326.594869
1549.392514,1455.581446,-444.123565,9548.656652
1549.392831,1149.143247,-814.226536,10066.800811
1549.393148,766.095498,-1036.288319,10436.903782
1549.393465,766.095498,-740.205942,11029.068536
1549.393782,766.095498,-222.061783,10732.986159
1549.394100,689.485948,444.123565,10066.800811
1549.394417,689.485948,1036.288319,9548.656652
1549.394734,1532.190996,1110.308913,9326.594869
1549.395051,766.095498,1110.308913,9252.574275
1549.395369,1149.143247,962.267725,8882.471304
1549.395686,1072.533697,-0.000000,9252.574275
1549.396003,919.314598,-296.082377,9548.656652
1549.396320,1149.143247,-962.267725,10214.842000
1549.396638,842.705048,-1036.288319,10584.944971
1549.396955,766.095498,-1110.308913,10955.047942
1549.397272,689.485948,-666.185348,10510.924376
1549.397589,536.266849,370.102971,9844.739029
1549.397907,1302.362347,1184.329507,9622.677246
1549.398224,1455.581446,814.226536,8586.388927
1549.398541,1302.362347,814.226536,8512.368333
1549.398858,1532.190996,888.247130,8142.265362
1549.399176,1532.190996,518.144159,8216.285956
1549.399493,1762.019645,-148.041188,8512.368333
1549.399810,1685.410096,-296.082377,9104.533087
1549.400127,1762.019645,-740.205942,9400.615463
1549.400445,1302.362347,-1036.288319,9622.677246
1549.400762,1225.752797,-814.226536,9844.739029
1549.401079,1225.752797,-0.000000,9844.739029
1549.401396,1225.752797,592.164754,8882.471304
1549.401714,919.314598,814.226536,8586.388927
1549.402031,842.705048,962.267725,8808.450710
1549.402348,842.705048,962.267725,8512.368333
1549.402665,612.876398,888.247130,8142.265362
1549.402983,459.657299,222.061783,8734.430116
1549.403300,383.047749,-148.041188,9548.656652
1549.403617,229.828649,-444.123565,9548.656652
1549.403934,0.000000,-814.226536,9474.636058
1549.404252,-153.219100,-888.247130,10066.800811
1549.404569,-383.047749,-740.205942,9696.697840
1549.404886,0.000000,222.061783,9178.553681
1549.405203,0.000000,962.267725,9104.533087
1549.405521,-76.609550,1036.288319,8882.471304
1549.405838,-153.219100,1110.308913,8956.491898
1549.406155,0.000000,1258.350101,8586.388927
1549.406472,0.000000,592.164754,8808.450710
1549.406789,0.000000,740.205942,9178.553681
1549.407107,229.828649,592.164754,9104.533087
1549.407424,229.828649,-0.000000,9696.697840
1549.407741,459.657299,-296.082377,9918.759623
1549.408058,536.266849,-222.061783,10214.842000
1549.408376,536.266849,222.061783,9696.697840
1549.408693,842.705048,740.205942,9622.677246
1549.409010,766.095498,814.226536,9326.594869
1549.409327,612.876398,1036.288319,9030.512492
1549.409645,689.485948,962.267725,8438.347739
1549.409962,612.876398,888.247130,8956.491898
1549.410279,536.266849,444.123565,9178.553681
1549.410596,612.876398,-296.082377,9400.615463
1549.410914,306.438199,-148.041188,10214.842000
1549.411231,383.047749,-592.164754,10732.986159
1549.411548,153.219100,-814.226536,10881.027347
1549.411865,0.000000,-148.041188,11029.068536
1549.412183,536.266849,740.205942,10288.862594
1549.412500,842.705048,1258.350101,9992.780217
1549.412817,1149.143247,1406.391290,9474.636058
1549.413134,1762.019645,1480.411884,9400.615463
1549.413452,2221.676944,1258.350101,8734.430116
1549.413769,1532.190996,222.061783,9252.574275
1549.414086,2068.457845,-0.000000,9400.615463
1549.414403,2145.067394,-370.102971,10066.800811
1549.414721,1915.238745,-518.144159,10140.821405
1549.415038,1838.629195,-592.164754,10732.986159
1549.415355,1685.410096,-740.205942,10362.883188
1549.415672,1532.190996,296.082377,9992.780217
1549.415990,1915.238745,740.205942,9178.553681
1549.416307,1915.238745,814.226536,9326.594869
1549.416624,1608.800546,888.247130,8512.368333
1549.416941,1685.410096,592.164754,8512.368333
1549.417259,1685.410096,444.123565,8660.409521
1549.417576,1455.581446,-0.000000,9104.533087
1549.417893,1378.971896,-962.267725,9548.656652
1549.418210,1072.533697,-666.185348,9770.718434
1549.418528,1072.533697,-814.226536,10140.821405
1549.418845,766.095498,-814.226536,10066.800811
1549.419162,689.485948,-666.185348,10214.842000
1549.419479,689.485948,-0.000000,9474.636058
1549.419796,689.485948,592.164754,9030.512492
1549.420114,536.266849,1258.350101,8586.388927
1549.420431,536.266849,1184.329507,8512.368333
1549.420748,536.266849,962.267725,7920.203579
1549.421065,383.047749,518.144159,8142.265362
1549.421383,383.047749,148.041188,8808.450710
1549.421700,383.047749,-296.082377,9104.533087
1549.422017,383.047749,-592.164754,9252.574275
1549.422334,76.609550,-666.185348,9548.656652
1549.422652,76.609550,-370.102971,9400.615463
1549.422969,0.000000,296.082377,9104.533087
1549.423286,0.000000,888.247130,8882.471304
1549.423603,0.000000,1184.329507,8882.471304
1549.423921,0.000000,1702.473667,8364.327145
1549.424238,76.609550,1110.308913,8290.306550
1549.424555,76.609550,666.185348,8586.388927
1549.424872,229.828649,-148.041188,9104.533087
1549.425190,0.000000,-592.164754,9474.636058
1549.425507,0.000000,-1036.288319,9696.697840
1549.425824,0.000000,-1258.350101,10140.821405
1549.426141,0.000000,-1332.370696,10140.821405
1549.426459,-459.657299,-814.226536,9918.759623
1549.426776,153.219100,-0.000000,9770.718434
1549.427093,0.000000,-0.000000,9548.656652
1549.427410,229.828649,518.144159,9030.512492
1549.427727,229.828649,592.164754,8808.450710
1549.428045,153.219100,296.082377,8882.471304
1549.428362,153.219100,296.082377,9030.512492
1549.428679,536.266849,-296.082377,9696.697840
1549.428996,842.705048,-370.102971,10362.883188
1549.429314,1072.533697,-814.226536,10288.862594
1549.429631,919.314598,-962.267725,10658.965565
1549.429948,1225.752797,-1184.329507,10881.027347
1549.430265,995.924147,-0.000000,10140.821405
1549.430582,1072.533697,592.164754,9474.636058
1549.430900,1072.533697,1332.370696,9178.553681
1549.431217,1225.752797,1332.370696,9030.512492
1549.431534,1149.143247,962.267725,8882.471304
1549.431851,995.924147,814.226536,8956.491898
1549.432169,1302.362347,592.164754,9326.594869
1549.432486,1455.581446,-0.000000,9622.677246
1549.432803,2145.067394,-518.144159,9474.636058
1549.433120,1532.190996,-740.205942,9992.780217
1549.433438,1302.362347,-518.144159,10362.883188
1549.433755,1455.581446,-74.020594,10140.821405
1549.434072,1149.143247,592.164754,9622.677246
1549.434389,1608.800546,1036.288319,9474.636058
1549.434706,1302.362347,1258.350101,8956.491898
1549.435024,1072.533697,1332.370696,8734.430116
1549.435341,1455.581446,962.267725,8734.430116
1549.435658,1838.629195,296.082377,8882.471304
1549.435975,1762.019645,-370.102971,9474.636058
1549.436293,1685.410096,-296.082377,9992.780217
1549.436610,1532.190996,-814.226536,9992.780217
1549.436927,1455.581446,-592.164754,10436.903782
1549.437244,1072.533697,-148.041188,10510.924376
1549.437562,612.876398,666.185348,9918.759623
1549.437879,689.485948,1406.391290,9178.553681
1549.438196,842.705048,1406.391290,9104.533087
1549.438513,229.828649,1480.411884,9030.512492
1549.438830,383.047749,962.267725,8882.471304
1549.439148,459.657299,296.082377,8660.409521
1549.439465,76.609550,-0.000000,9178.553681
1549.439782,383.047749,-222.061783,9474.636058
1549.440099,0.000000,-222.061783,9548.656652
1549.440417,-306.438199,-74.020594,9844.739029
1549.440734,-229.828649,-148.041188,10066.800811
1549.441051,-536.266849,444.123565,9696.697840
1549.441368,-459.657299,814.226536,9474.636058
1549.441686,-689.485948,962.267725,9326.594869
1549.442003,-383.047749,666.185348,8438.347739
1549.442320,-536.266849,888.247130,7994.224174
1549.442637,0.000000,518.144159,8290.306550
1549.442954,76.609550,222.061783,8364.327145
1549.443272,536.266849,-148.041188,8734.430116
1549.443589,306.438199,-444.123565,9104.533087
1549.443906,536.266849,-814.226536,9474.636058
1549.444223,536.266849,-666.185348,9474.636058
1549.444541,536.266849,-296.082377,9474.636058
1549.444858,995.924147,518.144159,9252.574275
1549.445175,383.047749,814.226536,9326.594869
1549.445492,459.657299,1258.350101,8660.409521
1549.445810,919.314598,1332.370696,8364.327145
1549.446127,536.266849,740.205942,8216.285956
1549.446444,1225.752797,370.102971,9104.533087
1549.446761,995.924147,-148.041188,9400.615463
1549.447078,995.924147,-222.061783,9844.739029
1549.447396,842.705048,-296.082377,10362.883188
1549.447713,766.095498,-370.102971,10881.027347
1549.448030,612.876398,-740.205942,11029.068536
1549.448347,842.705048,-74.020594,10881.027347
1549.448665,842.705048,888.247130,10066.800811
1549.448982,919.314598,1184.329507,10214.842000
1549.449299,1149.143247,592.164754,9696.697840
1549.449616,1991.848295,222.061783,9474.636058
1549.449933,1685.410096,444.123565,9178.553681
1549.450251,1915.238745,-296.082377,9400.615463
1549.450568,2068.457845,-592.164754,9326.594869
1549.450885,2145.067394,-888.247130,9918.759623
1549.451202,1991.848295,-962.267725,10510.924376
1549.451520,1915.238745,-888.247130,10288.862594
1549.451837,1685.410096,-296.082377,10362.883188
1549.452154,1685.410096,666.185348,9770.718434
1549.452471,1532.190996,1110.308913,9252.574275
1549.452789,1225.752797,1184.329507,9178.553681
1549.453106,1149.143247,1036.288319,8808.450710
1549.453423,689.485948,592.164754,8512.368333
1549.453740,766.095498,148.041188,8882.471304
1549.454057,689.485948,-740.205942,9622.677246
1549.454375,229.828649,-962.267725,9696.697840
1549.454692,536.266849,-740.205942,10214.842000
1549.455009,-153.219100,-740.205942,10140.821405
1549.455326,229.828649,-222.061783,10288.862594
1549.455644,229.828649,666.185348,9474.636058
1549.455961,459.657299,1480.411884,8660.409521
1549.456278,536.266849,1628.453072,8512.368333
1549.456595,459.657299,1628.453072,7994.224174
1549.456913,612.876398,1258.350101,7772.162391
1549.457230,766.095498,740.205942,7772.162391
1549.457547,612.876398,148.041188,8808.450710
1549.457864,459.657299,-0.000000,8956.491898
1549.458181,766.095498,-518.144159,9548.656652
1549.458499,1149.143247,-444.123565,9770.718434
1549.458816,919.314598,-370.102971,9844.739029
1549.459133,919.314598,444.123565,9474.636058
1549.459450,842.705048,1332.370696,8512.368333
1549.459768,1302.362347,1702.473667,8216.285956
1549.460085,536.266849,1776.494261,8216.285956
1549.460402,842.705048,1258.350101,8216.285956
1549.460719,689.485948,814.226536,8290.306550
1549.461037,306.438199,370.102971,8660.409521
1549.461354,153.219100,-148.041188,9474.636058
1549.461671,766.095498,-814.226536,10140.821405
1549.461988,0.000000,-592.164754,10362.883188
1549.462305,0.000000,-888.247130,10584.944971
1549.462623,0.000000,-518.144159,10510.924376
1549.462940,0.000000,222.061783,10140.821405
1549.463257,229.828649,666.185348,9622.677246
1549.463574,229.828649,962.267725,9474.636058
1549.463892,383.047749,888.247130,9252.574275
1549.464209,536.266849,1184.329507,8882.471304
1549.464526,842.705048,962.267725,9030.512492
1549.464843,1149.143247,518.144159,9178.553681
1549.465161,1455.581446,222.061783,9918.759623
1549.465478,1455.581446,-0.000000,10066.800811
1549.465795,1915.238745,-296.082377,10066.800811
1549.466112,1532.190996,-296.082377,10066.800811
1549.466429,1378.971896,222.061783,9770.718434
1549.466747,1532.190996,888.247130,9400.615463
1549.467064,1302.362347,1332.370696,9104.533087
1549.467381,766.095498,1332.370696,9104.533087
1549.467698,766.095498,814.226536,9326.594869
1549.468016,536.266849,444.123565,9326.594869
1549.468333,612.876398,-0.000000,9474.636058
1549.468650,612.876398,-592.164754,10066.800811
1549.468967,689.485948,-814.226536,10288.862594
1549.469284,229.828649,-1036.288319,10510.924376
1549.469602,459.657299,-814.226536,10510.924376
1549.469919,306.438199,-518.144159,10881.027347
1549.470236,612.876398,370.102971,9844.739029
1549.470553,612.876398,1332.370696,9400.615463
1549.470871,459.657299,1332.370696,9252.574275
1549.471188,995.924147,1332.370696,9104.533087
1549.471505,919.314598,962.267725,8512.368333
1549.471822,842.705048,518.144159,8956.491898
1549.472140,1149.143247,-962.267725,10066.800811
1549.472457,689.485948,-814.226536,10140.821405
1549.472774,995.924147,-814.226536,9992.780217
1549.473091,536.266849,-592.164754,10066.800811
1549.473408,919.314598,-148.041188,10510.924376
1549.473726,842.705048,444.123565,9696.697840
1549.474043,536.266849,1184.329507,9178.553681
1549.474360,919.314598,1258.350101,9030.512492
1549.474677,612.876398,1110.308913,8808.450710
1549.474995,766.095498,888.247130,8586.388927
1549.475312,1072.533697,592.164754,8438.347739
1549.475629,612.876398,-0.000000,9030.512492
1549.475946,766.095498,-592.164754,9400.615463
1549.476264,842.705048,-592.164754,9400.615463
1549.476581,536.266849,-518.144159,9622.677246
1549.476898,919.314598,-296.082377,10288.862594
1549.477215,536.266849,296.082377,9622.677246
1549.477532,459.657299,814.226536,8808.450710
1549.477850,612.876398,1480.411884,8734.430116
1549.478167,612.876398,1702.473667,8364.327145
1549.478484,842.705048,1406.391290,8216.285956
1549.478801,766.095498,1036.288319,8364.327145
1549.479119,919.314598,-0.000000,8808.450710
1549.479436,689.485948,-74.020594,9178.553681
1549.479753,612.876398,-814.226536,9548.656652
1549.480070,1072.533697,-592.164754,9844.739029
1549.480388,536.266849,-666.185348,9992.780217
1549.480705,689.485948,-74.020594,9918.759623
1549.481022,612.876398,296.082377,9474.636058
1549.481339,919.314598,592.164754,8882.471304
1549.481656,459.657299,888.247130,9030.512492
1549.481974,536.266849,962.267725,8956.491898
1549.482291,459.657299,888.247130,8438.347739
1549.482608,306.438199,444.123565,9030.512492
1549.482925,536.266849,-0.000000,9474.636058
1549.483243,459.657299,-666.185348,10140.821405
1549.483560,383.047749,-962.267725,10140.821405
1549.483877,153.219100,-1184.329507,10436.903782
1549.484194,153.219100,-1036.288319,10881.027347
1549.484511,229.828649,-666.185348,10066.800811
1549.484829,306.438199,-0.000000,9844.739029
1549.485146,612.876398,814.226536,9326.594869
1549.485463,459.657299,962.267725,9474.636058
1549.485780,919.314598,444.123565,8956.491898
1549.486098,1072.533697,888.247130,8586.388927
1549.486415,1225.752797,148.041188,9178.553681
1549.486732,1532.190996,-74.020594,9474.636058
1549.487049,1608.800546,-592.164754,9770.718434
1549.487367,1685.410096,-814.226536,9918.759623
1549.487684,1685.410096,-222.061783,10362.883188
1549.488001,1762.019645,-0.000000,10288.862594
1549.488318,1685.410096,444.123565,9844.739029
1549.488635,1762.019645,1036.288319,9400.615463
1549.488953,1455.581446,1406.391290,8882.471304
1549.489270,1455.581446,1554.432478,8512.368333
1549.489587,1378.971896,1110.308913,8586.388927
1549.489904,1608.800546,888.247130,8734.430116
1549.490222,1302.362347,518.144159,9400.615463
1549.490539,1378.971896,-148.041188,10140.821405
1549.490856,919.314598,-592.164754,10066.800811
1549.491173,995.924147,-666.185348,10732.986159
1549.491491,995.924147,-370.102971,10881.027347
1549.491808,1072.533697,-0.000000,10510.924376
1549.492125,1532.190996,1036.288319,9474.636058
1549.492442,1608.800546,1332.370696,8956.491898
1549.492759,1378.971896,1924.535449,8512.368333
1549.493077,1915.238745,1406.391290,7772.162391
1549.493394,1685.410096,1110.308913,8142.265362
1549.493711,1072.533697,148.041188,8364.327145
1549.494028,1072.533697,-518.144159,9400.615463
1549.494346,995.924147,-740.205942,9622.677246
1549.494663,766.095498,-962.267725,9918.759623
1549.494980,229.828649,-1184.329507,10584.944971
1549.495297,76.609550,-0.000000,9844.739029
1549.495615,153.219100,444.123565,9030.512492
1549.495932,229.828649,1184.329507,8734.430116
1549.496249,766.095498,1332.370696,8808.450710
1549.496566,0.000000,1332.370696,8068.244768
1549.496883,0.000000,1332.370696,8068.244768
1549.497201,-306.438199,740.205942,8808.450710
1549.497518,-229.828649,-0.000000,9696.697840
1549.497835,-612.876398,-444.123565,9770.718434
1549.498152,-536.266849,-666.185348,9992.780217
1549.498470,-383.047749,-814.226536,10288.862594
1549.498787,-612.876398,-740.205942,10584.944971
1549.499104,0.000000,148.041188,9844.739029
1549.499421,0.000000,962.267725,9030.512492
1549.499739,229.828649,1110.308913,8512.368333
1549.500056,0.000000,1110.308913,8734.430116
1549.500373,229.828649,1036.288319,8438.347739
1549.500690,306.438199,666.185348,8290.306550
1549.501007,383.047749,-0.000000,9400.615463
1549.501325,536.266849,-592.164754,9992.780217
1549.501642,689.485948,-962.267725,10214.842000
1549.501959,1149.143247,-1258.350101,10584.944971
1549.502276,1378.971896,-1110.308913,10807.006753
1549.502594,1302.362347,-888.247130,9918.759623
1549.502911,1608.800546,222.061783,9474.636058
1549.503228,1685.410096,518.144159,9104.533087
1549.503545,1762.019645,444.123565,8956.491898
1549.503862,1532.190996,444.123565,9252.574275
1549.504180,1608.800546,666.185348,8956.491898
1549.504497,1762.019645,-0.000000,9474.636058
1549.504814,1838.629195,-592.164754,9770.718434
1549.505131,1762.019645,-1110.308913,10066.800811
1549.505449,1762.019645,-1480.411884,10436.903782
1549.505766,1455.581446,-1258.350101,10584.944971
1549.506083,1608.800546,-740.205942,10362.883188
1549.506400,1685.410096,-0.000000,9844.739029
1549.506718,1532.190996,962.267725,9548.656652
1549.507035,1532.190996,962.267725,9548.656652
1549.507352,1072.533697,888.247130,8956.491898
1549.507669,1072.533697,814.226536,8586.388927
1549.507986,842.705048,666.185348,8438.347739
1549.508304,1149.143247,370.102971,9030.512492
1549.508621,689.485948,-518.144159,9474.636058
1549.508938,383.047749,-1110.308913,9696.697840
1549.509255,383.047749,-814.226536,10140.821405
1549.509573,0.000000,-740.205942,10140.821405
1549.509890,153.219100,-0.000000,9622.677246
1549.510207,0.000000,740.205942,9400.615463
1549.510524,-306.438199,1332.370696,8734.430116
1549.510842,-383.047749,1850.514855,8290.306550
1549.511159,-306.438199,1998.556043,7476.080014
1549.511476,0.000000,1702.473667,7624.121203
1549.511793,459.657299,666.185348,8364.327145
1549.512110,-383.047749,148.041188,8956.491898
1549.512428,76.609550,-370.102971,9474.636058
1549.512745,-689.485948,-888.247130,9696.697840
1549.513062,0.000000,-518.144159,10584.944971
1549.513379,-383.047749,-0.000000,10362.883188
1549.513697,-306.438199,814.226536,9622.677246
1549.514014,-536.266849,1110.308913,9178.553681
1549.514331,-459.657299,1184.329507,9252.574275
1549.514648,-76.609550,1480.411884,9104.533087
1549.514966,0.000000,962.267725,8290.306550
1549.515283,229.828649,592.164754,9178.553681
1549.515600,306.438199,-0.000000,9548.656652
1549.515917,842.705048,-296.082377,10140.821405
1549.516234,1532.190996,-222.061783,10288.862594
1549.516552,1532.190996,-296.082377,10732.986159
1549.516869,1378.971896,-74.020594,10510.924376
1549.517186,1608.800546,592.164754,9844.739029
1549.517503,1685.410096,518.144159,9400.615463
1549.517821,1915.238745,1110.308913,9400.615463
1549.518138,1762.019645,888.247130,9030.512492
1549.518455,1762.019645,814.226536,8882.471304
1549.518772,1608.800546,370.102971,8808.450710
1549.519090,1302.362347,-370.102971,9696.697840
1549.519407,1225.752797,-888.247130,9844.739029
1549.519724,1302.362347,-888.247130,10066.800811
1549.520041,1149.143247,-814.226536,10066.800811
1549.520358,1072.533697,-814.226536,10362.883188
1549.520676,1608.800546,-148.041188,10288.862594
1549.520993,1608.800546,814.226536,9400.615463
1549.521310,1838.629195,740.205942,8660.409521
1549.521627,1532.190996,1110.308913,8808.450710
1549.521945,1762.019645,888.247130,8438.347739
1549.522262,1608.800546,740.205942,8586.388927
1549.522579,1225.752797,518.144159,8586.388927
1549.522896,1455.581446,-0.000000,9474.636058
1549.523213,1302.362347,-592.164754,9844.739029
1549.523531,1302.362347,-1110.308913,10584.944971
1549.523848,689.485948,-1110.308913,10436.903782
1549.524165,766.095498,-592.164754,10436.903782
1549.524482,1072.533697,222.061783,9918.759623
1549.524800,689.485948,1184.329507,9178.553681
1549.525117,995.924147,1036.288319,9326.594869
1549.525434,842.705048,1332.370696,8956.491898
1549.525751,995.924147,1184.329507,7994.224174
1549.526069,995.924147,444.123565,8216.285956
1549.526386,689.485948,-222.061783,9030.512492
1549.526703,536.266849,-1258.350101,9770.718434
1549.527021,0.000000,-1332.370696,9992.780217
1549.527338,0.000000,-1406.391290,10584.944971
1549.527655,-459.657299,-1110.308913,10881.027347
1549.527973,306.438199,-296.082377,10288.862594
1549.528290,0.000000,962.267725,9104.533087
1549.528607,0.000000,1480.411884,8808.450710
1549.528925,0.000000,1554.432478,8438.347739
1549.529242,306.438199,1554.432478,8142.265362
1549.529559,76.609550,1110.308913,7772.162391
1549.529877,459.657299,666.185348,8216.285956
1549.530194,459.657299,-0.000000,8808.450710
1549.530511,459.657299,-222.061783,9548.656652
1549.530829,76.609550,-222.061783,9992.780217
1549.531146,383.047749,-74.020594,10140.821405
1549.531464,612.876398,370.102971,9696.697840
1549.531781,612.876398,1406.391290,9326.594869
1549.532098,842.705048,1776.494261,8586.388927
1549.532416,842.705048,1776.494261,8438.347739
1549.532733,536.266849,1628.453072,8142.265362
1549.533050,995.924147,1480.411884,8142.265362
1549.533368,689.485948,1110.308913,8142.265362
1549.533685,689.485948,592.164754,9104.533087
1549.534002,842.705048,-148.041188,9918.759623
1549.534320,612.876398,-444.123565,10510.924376
1549.534637,689.485948,-740.205942,10807.006753
1549.534954,536.266849,-740.205942,11029.068536
1549.535272,766.095498,-222.061783,10436.903782
1549.535589,919.314598,444.123565,9696.697840
1549.535906,1072.533697,1110.308913,9474.636058
1549.536224,1378.971896,1332.370696,9178.553681
1549.536541,1455.581446,1258.350101,8660.409521
1549.536858,1149.143247,962.267725,8734.430116
1549.537176,1915.238745,370.102971,9104.533087
1549.537493,1225.752797,-296.082377,10288.862594
1549.537810,1149.143247,-962.267725,10807.006753
1549.538128,919.314598,-1628.453072,11103.089130
1549.538445,842.705048,-1480.411884,11177.109724
1549.538762,995.924147,-1406.391290,11103.089130
1549.539080,1072.533697,-0.000000,10214.842000
1549.539397,1225.752797,888.247130,9770.718434
1549.539714,842.705048,1184.329507,9400.615463
1549.540032,842.705048,1184.329507,8660.409521
1549.540349,842.705048,740.205942,8734.430116
1549.540666,689.485948,666.185348,9474.636058
1549.540984,383.047749,-296.082377,9622.677246
1549.541301,612.876398,-370.102971,9474.636058
1549.541618,229.828649,-1110.308913,10066.800811
1549.541936,-229.828649,-1184.329507,10214.842000
1549.542253,-153.219100,-888.247130,10584.944971
1549.542571,0.000000,-222.061783,10066.800811
1549.542888,0.000000,222.061783,9474.636058
1549.543205,0.000000,666.185348,8808.450710
1549.543523,0.000000,962.267725,8512.368333
1549.543840,0.000000,1036.288319,8142.265362
1549.544157,383.047749,814.226536,7994.224174
1549.544475,306.438199,222.061783,8586.388927
1549.544792,383.047749,-148.041188,9178.553681
1549.545109,1072.533697,-370.102971,9400.615463
1549.545427,1225.752797,-444.123565,9474.636058
1549.545744,1302.362347,-592.164754,10140.821405
1549.546061,1455.581446,-0.000000,9548.656652
1549.546379,1608.800546,1258.350101,8660.409521
1549.546696,1838.629195,1628.453072,8216.285956
1549.547013,1532.190996,1258.350101,8290.306550
1549.547331,1225.752797,1184.329507,7920.203579
1549.547648,1149.143247,1406.391290,7550.100608
1549.547965,1225.752797,740.205942,8364.327145
1549.548283,995.924147,-0.000000,9252.574275
1549.548600,919.314598,-444.123565,9770.718434
1549.548917,689.485948,-666.185348,9992.780217
1549.549235,383.047749,-1036.288319,10362.883188
1549.549552,229.828649,-1036.288319,10510.924376
1549.549869,459.657299,-148.041188,10140.821405
1549.550187,153.219100,1036.288319,9548.656652
1549.550504,76.609550,1258.350101,9030.512492
1549.550821,76.609550,1480.411884,9030.512492
1549.551139,229.828649,1332.370696,8808.450710
1549.551456,689.485948,1110.308913,8290.306550
1549.551773,229.828649,888.247130,8734.430116
1549.552091,536.266849,-0.000000,9696.697840
1549.552408,383.047749,-148.041188,10066.800811
1549.552726,76.609550,-740.205942,10362.883188
1549.553043,536.266849,-1258.350101,11029.068536
1549.553360,995.924147,-370.102971,10732.986159
1549.553678,766.095498,814.226536,9918.759623
1549.553995,689.485948,1258.350101,9178.553681
1549.554312,1072.533697,1480.411884,9104.533087
1549.554630,766.095498,962.267725,8734.430116
1549.554947,919.314598,1036.288319,8216.285956
1549.555264,1225.752797,222.061783,8808.450710
1549.555582,1072.533697,-148.041188,9178.553681
1549.555899,1225.752797,-814.226536,9844.739029
1549.556216,689.485948,-1406.391290,10140.821405
1549.556534,383.047749,-1332.370696,10732.986159
1549.556851,229.828649,-814.226536,10732.986159
1549.557168,306.438199,-0.000000,10436.903782
1549.557486,766.095498,888.247130,10140.821405
1549.557803,689.485948,1480.411884,9918.759623
1549.558120,536.266849,1480.411884,9400.615463
1549.558438,1225.752797,740.205942,9326.594869
1549.558755,1225.752797,444.123565,9252.574275
1549.559072,1915.238745,-0.000000,9548.656652
1549.559390,1838.629195,-222.061783,9696.697840
1549.559707,1608.800546,-814.226536,9918.759623
1549.560024,1915.238745,-1258.350101,10214.842000
1549.560342,1685.410096,-888.247130,10436.903782
1549.560659,2068.457845,-0.000000,9770.718434
1549.560976,2145.067394,888.247130,8734.430116
1549.561294,1762.019645,1406.391290,8216.285956
1549.561611,1762.019645,1184.329507,8068.244768
1549.561928,1608.800546,814.226536,7994.224174
1549.562246,1149.143247,-0.000000,7920.203579
1549.562563,1072.533697,-74.020594,8882.471304
1549.562880,612.876398,-814.226536,9474.636058
1549.563198,689.485948,-888.247130,9474.636058
1549.563515,612.876398,-740.205942,10214.842000
1549.563833,306.438199,-814.226536,10362.883188
1549.564150,383.047749,-222.061783,9844.739029
1549.564467,766.095498,740.205942,9474.636058
1549.564785,536.266849,1776.494261,8808.450710
1549.565102,995.924147,1628.453072,8808.450710
1549.565419,995.924147,1924.535449,8142.265362
1549.565737,1149.143247,1554.432478,7550.100608
1549.566054,612.876398,1184.329507,7772.162391
1549.566371,919.314598,444.123565,8512.368333
1549.566689,1225.752797,-296.082377,9178.553681
1549.567006,459.657299,-518.144159,9474.636058
1549.567323,0.000000,-1036.288319,10288.862594
1549.567641,0.000000,-1036.288319,10658.965565
1549.567958,0.000000,-74.020594,9918.759623
1549.568275,76.609550,888.247130,9548.656652
1549.568593,-383.047749,1702.473667,9326.594869
1549.568910,0.000000,1702.473667,8956.491898
1549.569227,0.000000,1406.391290,8660.409521
1549.569545,0.000000,740.205942,8882.471304
1549.569862,0.000000,296.082377,9252.574275
1549.570179,76.609550,-296.082377,9696.697840
1549.570497,229.828649,-518.144159,10066.800811
1549.570814,0.000000,-888.247130,10658.965565
1549.571131,-229.828649,-1258.350101,10955.047942
1549.571449,0.000000,-518.144159,10436.903782
1549.571766,0.000000,222.061783,9844.739029
1549.572083,536.266849,814.226536,9474.636058
1549.572401,229.828649,1184.329507,9104.533087
1549.572718,536.266849,888.247130,8660.409521
1549.573035,766.095498,666.185348,8734.430116
1549.573353,1072.533697,296.082377,8808.450710
1549.573670,1302.362347,-0.000000,9548.656652
1549.573988,1532.190996,-518.144159,9992.780217
1549.574305,1608.800546,-666.185348,10584.944971
1549.574622,1532.190996,-814.226536,10881.027347
1549.574940,1532.190996,-370.102971,10732.986159
1549.575257,1225.752797,740.205942,10140.821405
1549.575574,1915.238745,1480.411884,9326.594869
1549.575892,1838.629195,1554.432478,8882.471304
1549.576209,1378.971896,1036.288319,9030.512492
1549.576526,1149.143247,740.205942,8660.409521
1549.576844,919.314598,296.082377,8956.491898
1549.577161,842.705048,-148.041188,9622.677246
1549.577478,1072.533697,-370.102971,10140.821405
1549.577796,842.705048,-1184.329507,10214.842000
1549.578113,536.266849,-1406.391290,10807.006753
1549.578430,459.657299,-1554.432478,11399.171507
1549.578748,229.828649,-740.205942,10214.842000
1549.579065,842.705048,444.123565,9548.656652
1549.579382,1072.533697,814.226536,9030.512492
1549.579700,1072.533697,1110.308913,8438.347739
1549.580017,1532.190996,888.247130,8290.306550
1549.580334,1302.362347,740.205942,7846.182985
1549.580652,1762.019645,444.123565,8068.244768
1549.580969,1225.752797,-74.020594,8512.368333
1549.581286,1225.752797,-666.185348,9178.553681
1549.581604,919.314598,-814.226536,9474.636058
1549.581921,766.095498,-962.267725,9844.739029
1549.582238,383.047749,-444.123565,9622.677246
1549.582556,536.266849,592.164754,9178.553681
1549.582873,919.314598,1628.453072,8586.388927
1549.583190,919.314598,1406.391290,8586.388927
