#time,accel_x,accel_y,accel_z
1600.259402,919.314598,370.102971,9400.615463
1600.259719,689.485948,148.041188,9474.636058
1600.260037,536.266849,74.020594,9474.636058
1600.260354,536.266849,222.061783,9474.636058
1600.260672,766.095498,-0.000000,9474.636058
1600.260989,919.314598,296.082377,9548.656652
1600.261306,919.314598,296.082377,9474.636058
1600.261624,612.876398,148.041188,9400.615463
1600.261941,842.705048,222.061783,9474.636058
1600.262259,766.095498,-0.000000,9178.553681
1600.262576,689.485948,-0.000000,9474.636058
1600.262893,842.705048,222.061783,9474.636058
1600.263211,689.485948,222.061783,9474.636058
1600.263528,459.657299,-222.061783,9474.636058
1600.263845,842.705048,222.061783,9474.636058
1600.264163,766.095498,148.041188,9474.636058
1600.264480,842.705048,-0.000000,9326.594869
1600.264798,842.705048,148.041188,9474.636058
1600.265115,842.705048,-0.000000,9400.615463
1600.265432,1072.533697,-0.000000,9474.636058
1600.265750,766.095498,-0.000000,9400.615463
1600.266067,766.095498,370.102971,9474.636058
1600.266384,842.705048,148.041188,9400.615463
1600.266702,612.876398,370.102971,9474.636058
1600.267019,536.266849,296.082377,9474.636058
1600.267337,766.095498,-0.000000,9474.636058
1600.267654,766.095498,518.144159,9474.636058
1600.267971,1149.143247,148.041188,9548.656652
1600.268289,1149.143247,296.082377,9474.636058
1600.268606,689.485948,296.082377,9400.615463
1600.268923,766.095498,370.102971,9474.636058
1600.269241,919.314598,148.041188,9474.636058
1600.269558,919.314598,148.041188,9326.594869
1600.269876,766.095498,444.123565,9400.615463
1600.270193,612.876398,296.082377,9400.615463
1600.270510,689.485948,-0.000000,9474.636058
1600.270828,612.876398,-0.000000,9474.636058
1600.271145,842.705048,370.102971,9400.615463
1600.271462,612.876398,-0.000000,9252.574275
1600.271780,689.485948,222.061783,9474.636058
1600.272097,306.438199,-0.000000,9474.636058
1600.272415,995.924147,296.082377,9474.636058
1600.272732,842.705048,444.123565,9474.636058
1600.273049,536.266849,74.020594,9326.594869
1600.273367,766.095498,444.123565,9474.636058
1600.273684,459.657299,296.082377,9474.636058
1600.274002,612.876398,148.041188,9474.636058
1600.274319,842.705048,-0.000000,9400.615463
1600.274636,612.876398,-0.000000,9474.636058
1600.274954,689.485948,222.061783,9474.636058
1600.275271,766.095498,-0.000000,9326.594869
1600.275588,536.266849,-0.000000,9474.636058
1600.275906,1072.533697,222.061783,9474.636058
1600.276223,689.485948,74.020594,9474.636058
1600.276541,766.095498,148.041188,9400.615463
1600.276858,689.485948,296.082377,9252.574275
1600.277175,689.485948,148.041188,9474.636058
1600.277493,842.705048,370.102971,9474.636058
1600.277810,536.266849,-0.000000,9400.615463
1600.278127,612.876398,-0.000000,9326.594869
1600.278445,766.095498,-0.000000,9474.636058
1600.278762,1225.752797,-0.000000,9178.553681
1600.279080,383.047749,-0.000000,9252.574275
1600.279397,383.047749,-74.020594,9030.512492
1600.279714,383.047749,-444.123565,9400.615463
1600.280032,-153.219100,-592.164754,9178.553681
1600.280349,0.000000,-518.144159,9474.636058
1600.280666,0.000000,-666.185348,9326.594869
1600.280984,-76.609550,-740.205942,9622.677246
1600.281301,-383.047749,-740.205942,9104.533087
1600.281619,-689.485948,-666.185348,8956.491898
1600.281936,-459.657299,-1110.308913,8290.306550
1600.282253,-995.924147,-888.247130,8660.409521
1600.282571,-919.314598,-1332.370696,8808.450710
1600.282888,-1225.752797,-1702.473667,9104.533087
1600.283205,-1072.533697,-2294.638420,9474.636058
1600.283523,-995.924147,-1924.535449,9474.636058
1600.283840,-919.314598,-1776.494261,9474.636058
1600.284158,-689.485948,-1184.329507,9030.512492
1600.284475,-612.876398,-1184.329507,8734.430116
1600.284792,-766.095498,-962.267725,8290.306550
1600.285110,-459.657299,-1036.288319,7994.224174
1600.285427,-766.095498,-1406.391290,8290.306550
1600.285745,-919.314598,-1998.556043,8882.471304
1600.286062,-1225.752797,-2590.720797,9400.615463
1600.286379,-1608.800546,-2664.741391,10436.903782
1600.286697,-1532.190996,-2738.761985,10436.903782
1600.287014,-1532.190996,-2442.679609,10214.842000
1600.287331,-1149.143247,-1702.473667,9696.697840
1600.287649,-995.924147,-1480.411884,9030.512492
1600.287966,-919.314598,-1628.453072,9030.512492
1600.288284,-1225.752797,-1702.473667,8956.491898
1600.288601,-1532.190996,-2368.659014,8882.471304
1600.288918,-2145.067394,-3330.926739,9622.677246
1600.289236,-2604.724693,-4367.215058,10362.883188
1600.289553,-2834.553343,-4515.256246,10510.924376
1600.289870,-3140.991542,-4367.215058,10510.924376
1600.290188,-3370.820191,-3775.050304,10288.862594
1600.290505,-3294.210641,-3330.926739,9992.780217
1600.290823,-3753.867940,-2960.823768,9918.759623
1600.291140,-3294.210641,-2960.823768,9770.718434
1600.291457,-3600.648841,-3404.947333,10214.842000
1600.291775,-3753.867940,-3997.112087,10288.862594
1600.292092,-4213.525239,-4145.153275,10288.862594
1600.292409,-3907.087040,-3849.070898,9918.759623
1600.292727,-4826.401637,-4071.132681,9918.759623
1600.293044,-4903.011187,-4145.153275,10214.842000
1600.293362,-4596.572988,-3923.091493,10732.986159
1600.293679,-4366.744339,-3552.988522,10658.965565
1600.293996,-3753.867940,-3404.947333,11325.150913
1600.294314,-3600.648841,-3034.844362,10584.944971
1600.294631,-3753.867940,-2516.700203,10436.903782
1600.294948,-3447.429741,-2442.679609,9918.759623
1600.295266,-3217.601092,-1702.473667,9474.636058
1600.295583,-2834.553343,-1776.494261,9252.574275
1600.295901,-2987.772442,-1702.473667,9326.594869
1600.296218,-2528.115143,-2664.741391,9844.739029
1600.296535,-2374.896044,-3552.988522,10140.821405
1600.296853,-2298.286494,-4293.194464,10362.883188
1600.297170,-1532.190996,-3997.112087,10362.883188
1600.297488,-1225.752797,-3923.091493,10140.821405
1600.297805,-536.266849,-3182.885551,9548.656652
1600.298122,76.609550,-2812.782580,9326.594869
1600.298440,536.266849,-2590.720797,9030.512492
1600.298757,766.095498,-1850.514855,8438.347739
1600.299074,919.314598,-1998.556043,8734.430116
1600.299392,842.705048,-1998.556043,8438.347739
1600.299709,536.266849,-2442.679609,8808.450710
1600.300027,306.438199,-2590.720797,8734.430116
1600.300344,-229.828649,-2442.679609,8808.450710
1600.300661,0.000000,-2442.679609,9030.512492
1600.300979,0.000000,-2442.679609,9400.615463
1600.301296,612.876398,-2442.679609,9252.574275
1600.301613,76.609550,-2294.638420,9770.718434
1600.301931,0.000000,-2368.659014,9770.718434
1600.302248,153.219100,-1628.453072,9548.656652
1600.302566,76.609550,-888.247130,9474.636058
1600.302883,306.438199,-814.226536,9030.512492
1600.303200,842.705048,-518.144159,8660.409521
1600.303518,919.314598,-0.000000,8142.265362
1600.303835,689.485948,-74.020594,8290.306550
1600.304152,1072.533697,-0.000000,8290.306550
1600.304470,995.924147,370.102971,7846.182985
1600.304787,1149.143247,-0.000000,7402.059420
1600.305105,919.314598,-518.144159,8512.368333
1600.305422,229.828649,-518.144159,9104.533087
1600.305739,76.609550,-592.164754,9548.656652
1600.306057,-229.828649,-0.000000,10140.821405
1600.306374,-612.876398,1110.308913,9622.677246
1600.306691,-689.485948,1702.473667,8808.450710
1600.307009,-1455.581446,2146.597232,8512.368333
1600.307326,-1991.848295,1850.514855,8068.244768
1600.307644,-2757.943793,1924.535449,8364.327145
1600.307961,-3294.210641,1110.308913,8660.409521
1600.308278,-3983.696590,-370.102971,9696.697840
1600.308596,-4903.011187,-1554.432478,10807.006753
1600.308913,-5745.716235,-2368.659014,11843.295072
1600.309231,-6205.373534,-2516.700203,12139.377449
1600.309548,-5898.935335,-2146.597232,11991.336260
1600.309865,-5362.668486,-1332.370696,12065.356855
1600.310183,-4979.620737,-888.247130,11473.192101
1600.310500,-4136.915689,-222.061783,11029.068536
1600.310817,-3600.648841,-0.000000,9918.759623
1600.311135,-3217.601092,-296.082377,9696.697840
1600.311452,-2757.943793,-666.185348,9622.677246
1600.311770,-2451.505594,-1184.329507,10214.842000
1600.312087,-2298.286494,-1998.556043,9992.780217
1600.312404,-2298.286494,-2294.638420,9844.739029
1600.312722,-2221.676944,-2738.761985,10807.006753
1600.313039,-1838.629195,-3552.988522,10732.986159
1600.313356,-1991.848295,-3108.864956,10436.903782
1600.313674,-2374.896044,-3330.926739,10066.800811
1600.313991,-2834.553343,-3478.967927,10140.821405
1600.314309,-2451.505594,-3775.050304,11473.192101
1600.314626,-2451.505594,-4441.235652,12657.521608
1600.314943,-1991.848295,-4515.256246,12509.480420
1600.315261,-2145.067394,-4663.297435,13323.706956
1600.315578,-1072.533697,-4367.215058,13249.686362
1600.315895,459.657299,-3108.864956,12435.459826
1600.316213,2911.162892,-2368.659014,11103.089130
1600.316530,4290.134789,-1628.453072,10140.821405
1600.316848,6281.983084,-1406.391290,8808.450710
1600.317165,7354.516781,-1554.432478,7624.121203
1600.317482,8197.221829,-1480.411884,6217.729913
1600.317800,8503.660028,-1776.494261,5329.482782
1600.318117,7507.735880,-2072.576638,5773.606348
1600.318434,6818.249932,-2146.597232,5773.606348
1600.318752,5439.278036,-1924.535449,5329.482782
1600.319069,4290.134789,-2960.823768,7476.080014
1600.319387,2911.162892,-3627.009116,9178.553681
1600.319704,1915.238745,-2738.761985,9474.636058
1600.320021,1455.581446,-2590.720797,9474.636058
1600.320339,1072.533697,-2294.638420,10140.821405
1600.320656,1149.143247,-2294.638420,10658.965565
1600.320974,1685.410096,-0.000000,8956.491898
1600.321291,2298.286494,592.164754,7772.162391
1600.321608,2528.115143,370.102971,7698.141797
1600.321925,2681.334243,592.164754,7402.059420
1600.322242,3677.258390,1184.329507,6069.688724
1600.322559,2911.162892,1258.350101,4737.318029
1600.322876,2451.505594,814.226536,4959.379811
1600.323193,2145.067394,370.102971,4811.338623
1600.323511,1149.143247,370.102971,4737.318029
1600.323828,229.828649,-370.102971,5107.421000
1600.324145,-2068.457845,-1184.329507,6365.771101
1600.324462,-3064.381992,-1702.473667,8290.306550
1600.324779,-4596.572988,-1480.411884,9104.533087
1600.325096,-5286.058936,-1036.288319,9992.780217
1600.325413,-5592.497135,-370.102971,11251.130318
1600.325730,-5592.497135,148.041188,10881.027347
1600.326048,-4979.620737,1332.370696,10732.986159
1600.326365,-4290.134789,2146.597232,10881.027347
1600.326682,-3140.991542,2590.720797,10881.027347
1600.326999,-1838.629195,3627.009116,10140.821405
1600.327316,-689.485948,4589.276840,9548.656652
1600.327633,0.000000,4663.297435,8956.491898
1600.327950,842.705048,3478.967927,8734.430116
1600.328268,612.876398,3034.844362,8808.450710
1600.328585,229.828649,2738.761985,9252.574275
1600.328902,-153.219100,2072.576638,9474.636058
1600.329219,-766.095498,1480.411884,10510.924376
1600.329536,-919.314598,666.185348,10955.047942
1600.329853,-1378.971896,518.144159,11991.336260
1600.330170,-1072.533697,-74.020594,12953.603985
1600.330487,-689.485948,148.041188,11917.315666
1600.330805,-766.095498,1554.432478,11843.295072
1600.331122,842.705048,2738.761985,11917.315666
1600.331439,1302.362347,3701.029710,10955.047942
1600.331756,2298.286494,2738.761985,11991.336260
1600.332073,3064.381992,2664.741391,11769.274478
1600.332390,3370.820191,3478.967927,11251.130318
1600.332707,3907.087040,2738.761985,10881.027347
1600.333024,3753.867940,1332.370696,11399.171507
1600.333342,2604.724693,1036.288319,11029.068536
1600.333659,2987.772442,1406.391290,11029.068536
1600.333976,2374.896044,1184.329507,9918.759623
1600.334293,2145.067394,-74.020594,10510.924376
1600.334610,2145.067394,-740.205942,11695.253884
1600.334927,2068.457845,-296.082377,11547.212695
1600.335244,1455.581446,-1406.391290,11621.233289
1600.335562,689.485948,-1924.535449,11843.295072
1600.335879,1838.629195,-1554.432478,11843.295072
1600.336196,1991.848295,-444.123565,10362.883188
1600.336513,2604.724693,-0.000000,10066.800811
1600.336830,2834.553343,-444.123565,9696.697840
1600.337147,3370.820191,296.082377,9252.574275
1600.337464,3983.696590,814.226536,8660.409521
1600.337781,3677.258390,296.082377,8512.368333
1600.338099,2911.162892,-444.123565,8142.265362
1600.338416,1838.629195,-370.102971,7920.203579
1600.338733,1378.971896,-370.102971,7994.224174
1600.339050,229.828649,-814.226536,8216.285956
1600.339367,229.828649,-888.247130,8808.450710
1600.339684,-459.657299,-814.226536,8586.388927
1600.340001,-612.876398,-1554.432478,8882.471304
1600.340319,-536.266849,-2368.659014,8586.388927
1600.340636,-919.314598,-2886.803174,8808.450710
1600.340953,-459.657299,-2516.700203,8142.265362
1600.341270,0.000000,-1850.514855,6809.894666
1600.341587,536.266849,-1776.494261,6661.853478
1600.341904,689.485948,-1628.453072,6883.915261
1600.342221,919.314598,-888.247130,6291.750507
1600.342538,1378.971896,-0.000000,5181.441594
1600.342856,689.485948,-370.102971,5773.606348
1600.343173,153.219100,-1480.411884,6217.729913
1600.343490,-459.657299,-1628.453072,6365.771101
1600.343807,-1378.971896,-1110.308913,6291.750507
1600.344124,-1915.238745,-1110.308913,7105.977043
1600.344441,-2451.505594,-1554.432478,8142.265362
1600.344758,-2757.943793,-1480.411884,8956.491898
1600.345075,-2834.553343,-962.267725,9252.574275
1600.345393,-2834.553343,-592.164754,9770.718434
1600.345710,-2221.676944,-814.226536,10436.903782
1600.346027,-1302.362347,148.041188,9622.677246
1600.346344,-383.047749,1036.288319,9104.533087
1600.346661,689.485948,370.102971,8808.450710
1600.346978,995.924147,444.123565,9178.553681
1600.347295,2451.505594,740.205942,8512.368333
1600.347613,2757.943793,1258.350101,7920.203579
1600.347930,3370.820191,814.226536,8438.347739
1600.348247,3064.381992,-0.000000,9178.553681
1600.348564,2068.457845,740.205942,8216.285956
1600.348881,1762.019645,1332.370696,8586.388927
1600.349198,1455.581446,1554.432478,9400.615463
1600.349515,1302.362347,592.164754,10362.883188
1600.349832,1072.533697,814.226536,11473.192101
1600.350150,1455.581446,1184.329507,11991.336260
1600.350467,1532.190996,1332.370696,12583.501014
1600.350784,1532.190996,1480.411884,13027.624579
1600.351101,1915.238745,2368.659014,12731.542202
1600.351418,2528.115143,3182.885551,11325.150913
1600.351735,3447.429741,3478.967927,11399.171507
1600.352052,3983.696590,3256.906145,11769.274478
1600.352369,4519.963438,3478.967927,10584.944971
1600.352687,4826.401637,3775.050304,9918.759623
1600.353004,4596.572988,3404.947333,10066.800811
1600.353321,4136.915689,2812.782580,10140.821405
1600.353638,3447.429741,2960.823768,9178.553681
1600.353955,2528.115143,3034.844362,8956.491898
1600.354272,2145.067394,2368.659014,9326.594869
1600.354589,1532.190996,2220.617826,9918.759623
1600.354907,689.485948,1924.535449,10732.986159
1600.355224,0.000000,1924.535449,10807.006753
1600.355541,-536.266849,1480.411884,11621.233289
1600.355858,-1072.533697,1110.308913,11991.336260
1600.356175,-1225.752797,1998.556043,11547.212695
1600.356492,-1455.581446,2960.823768,10658.965565
1600.356809,-766.095498,2664.741391,11177.109724
1600.357126,-612.876398,2812.782580,11177.109724
1600.357444,-153.219100,3108.864956,10288.862594
1600.357761,0.000000,2738.761985,9696.697840
1600.358078,-153.219100,2368.659014,9326.594869
1600.358395,0.000000,2072.576638,9178.553681
1600.358712,153.219100,2294.638420,8068.244768
1600.359029,76.609550,2220.617826,7476.080014
1600.359346,-536.266849,1702.473667,7402.059420
1600.359664,-536.266849,444.123565,8216.285956
1600.359981,-383.047749,592.164754,8142.265362
1600.360298,-306.438199,518.144159,7846.182985
1600.360615,-229.828649,148.041188,8290.306550
1600.360932,-229.828649,-666.185348,9030.512492
1600.361249,0.000000,-296.082377,8660.409521
1600.361566,612.876398,-222.061783,8586.388927
1600.361883,919.314598,-148.041188,9474.636058
1600.362201,995.924147,370.102971,9696.697840
1600.362518,1532.190996,962.267725,8882.471304
1600.362835,1608.800546,1110.308913,8290.306550
1600.363152,1685.410096,296.082377,8956.491898
1600.363469,995.924147,-0.000000,8808.450710
1600.363786,1378.971896,-0.000000,8068.244768
1600.364103,1225.752797,-148.041188,7476.080014
1600.364420,1149.143247,-888.247130,8142.265362
1600.364738,1378.971896,-1924.535449,8808.450710
1600.365055,995.924147,-2368.659014,9030.512492
1600.365372,1225.752797,-2368.659014,8956.491898
1600.365689,919.314598,-2738.761985,9400.615463
1600.366006,383.047749,-2738.761985,9992.780217
1600.366323,1378.971896,-1850.514855,9104.533087
1600.366640,1762.019645,-1406.391290,8808.450710
1600.366958,2068.457845,-1406.391290,9548.656652
1600.367275,2604.724693,-1850.514855,9696.697840
1600.367592,2451.505594,-1480.411884,8882.471304
1600.367909,2834.553343,-1110.308913,8956.491898
1600.368226,2298.286494,-1184.329507,9104.533087
1600.368543,2451.505594,-1554.432478,8882.471304
1600.368860,2145.067394,-592.164754,8438.347739
1600.369177,1685.410096,-0.000000,8290.306550
1600.369495,1532.190996,-592.164754,9326.594869
1600.369812,1378.971896,-666.185348,9844.739029
1600.370129,1149.143247,-222.061783,9844.739029
1600.370446,1149.143247,-666.185348,10066.800811
1600.370763,383.047749,-1184.329507,10066.800811
1600.371080,919.314598,-740.205942,10362.883188
1600.371397,1225.752797,518.144159,9252.574275
1600.371714,1762.019645,1702.473667,8734.430116
1600.372032,1915.238745,1110.308913,9252.574275
1600.372349,1762.019645,1258.350101,9252.574275
1600.372666,2068.457845,1332.370696,9178.553681
1600.372983,1608.800546,1258.350101,8586.388927
1600.373300,1149.143247,592.164754,9474.636058
1600.373617,383.047749,814.226536,9548.656652
1600.373934,76.609550,962.267725,8882.471304
1600.374252,76.609550,1554.432478,8586.388927
1600.374569,0.000000,1258.350101,9622.677246
1600.374886,-612.876398,1480.411884,9548.656652
1600.375203,-383.047749,1776.494261,10066.800811
1600.375520,-689.485948,1850.514855,10140.821405
1600.375837,-1302.362347,1480.411884,10658.965565
1600.376154,-1225.752797,1406.391290,11325.150913
1600.376471,-1302.362347,1998.556043,10362.883188
1600.376789,-689.485948,2294.638420,10288.862594
1600.377106,-459.657299,1850.514855,11251.130318
1600.377423,459.657299,2368.659014,10288.862594
1600.377740,766.095498,2442.679609,9474.636058
1600.378057,689.485948,2072.576638,9474.636058
1600.378374,459.657299,888.247130,9474.636058
1600.378691,459.657299,1332.370696,8808.450710
1600.379009,766.095498,1406.391290,8512.368333
1600.379326,76.609550,888.247130,8512.368333
1600.379643,-306.438199,666.185348,8956.491898
1600.379960,0.000000,592.164754,9696.697840
1600.380277,-1072.533697,1110.308913,9918.759623
1600.380594,-842.705048,1184.329507,10140.821405
1600.380911,-842.705048,592.164754,10955.047942
1600.381228,-1072.533697,370.102971,11843.295072
1600.381546,-612.876398,888.247130,10955.047942
1600.381863,-306.438199,814.226536,10955.047942
1600.382180,459.657299,-0.000000,11695.253884
1600.382497,919.314598,444.123565,11769.274478
1600.382814,1378.971896,962.267725,10288.862594
1600.383131,1608.800546,740.205942,9844.739029
1600.383448,1455.581446,666.185348,9770.718434
1600.383765,1838.629195,1184.329507,8586.388927
1600.384083,2068.457845,1406.391290,7624.121203
1600.384400,1838.629195,666.185348,7179.997637
1600.384717,2068.457845,-666.185348,8438.347739
1600.385034,1225.752797,-1628.453072,8586.388927
1600.385351,1302.362347,-2072.576638,9178.553681
1600.385668,842.705048,-2516.700203,9326.594869
1600.385985,306.438199,-3182.885551,10510.924376
1600.386303,229.828649,-2368.659014,10881.027347
1600.386620,383.047749,-1332.370696,9696.697840
1600.386937,995.924147,-1406.391290,9844.739029
1600.387254,1302.362347,-1554.432478,10436.903782
1600.387571,1685.410096,-1258.350101,10288.862594
1600.387888,2374.896044,-444.123565,9474.636058
1600.388205,2298.286494,-518.144159,8882.471304
1600.388522,2298.286494,-1406.391290,9104.533087
1600.388840,2374.896044,-592.164754,8290.306550
1600.389157,1915.238745,-518.144159,7105.977043
1600.389474,2068.457845,-370.102971,6587.832884
1600.389791,1915.238745,-1628.453072,7328.038826
1600.390108,1455.581446,-2368.659014,8438.347739
1600.390425,2068.457845,-2442.679609,8068.244768
1600.390742,229.828649,-2590.720797,7994.224174
1600.391059,-153.219100,-3478.967927,9030.512492
1600.391377,-306.438199,-2812.782580,9474.636058
1600.391694,76.609550,-1480.411884,8586.388927
1600.392011,0.000000,-1480.411884,8734.430116
1600.392328,536.266849,-1776.494261,9992.780217
1600.392645,919.314598,-888.247130,9622.677246
1600.392962,919.314598,-148.041188,9104.533087
1600.393279,1302.362347,-444.123565,8808.450710
1600.393597,1225.752797,-444.123565,8882.471304
1600.393914,1302.362347,-0.000000,8142.265362
1600.394231,1225.752797,1332.370696,7328.038826
1600.394548,1149.143247,1184.329507,7328.038826
1600.394865,1072.533697,-0.000000,8068.244768
1600.395182,383.047749,-296.082377,8586.388927
1600.395499,-612.876398,-444.123565,9104.533087
1600.395816,-919.314598,-518.144159,9474.636058
1600.396134,-1225.752797,-1258.350101,10658.965565
1600.396451,-1455.581446,-888.247130,10140.821405
1600.396768,-1072.533697,-0.000000,9770.718434
1600.397085,-842.705048,666.185348,9474.636058
1600.397402,-995.924147,74.020594,10288.862594
1600.397719,-153.219100,1036.288319,10214.842000
1600.398036,-306.438199,2072.576638,9622.677246
1600.398354,-76.609550,1702.473667,9548.656652
1600.398671,-383.047749,1184.329507,10140.821405
1600.398988,0.000000,1332.370696,9696.697840
1600.399305,0.000000,1850.514855,9178.553681
1600.399622,459.657299,1406.391290,9326.594869
1600.399939,612.876398,814.226536,10140.821405
1600.400256,229.828649,962.267725,10066.800811
1600.400573,766.095498,1110.308913,10584.944971
1600.400891,153.219100,962.267725,9918.759623
1600.401208,76.609550,518.144159,10955.047942
1600.401525,229.828649,888.247130,11029.068536
1600.401842,383.047749,1406.391290,9992.780217
1600.402159,766.095498,740.205942,10288.862594
1600.402476,995.924147,222.061783,11251.130318
1600.402793,919.314598,740.205942,10658.965565
1600.403110,1225.752797,1110.308913,9770.718434
1600.403428,1608.800546,888.247130,9696.697840
1600.403745,1302.362347,370.102971,9992.780217
1600.404062,1608.800546,222.061783,10066.800811
1600.404379,1608.800546,518.144159,8586.388927
1600.404696,1302.362347,370.102971,9104.533087
1600.405013,1225.752797,-222.061783,9622.677246
1600.405330,1072.533697,-0.000000,9992.780217
1600.405648,1302.362347,-74.020594,9844.739029
1600.405965,459.657299,-370.102971,9844.739029
1600.406282,1072.533697,-518.144159,10658.965565
1600.406599,1378.971896,-74.020594,9918.759623
1600.406916,1608.800546,-0.000000,9400.615463
1600.407233,1455.581446,-0.000000,9104.533087
1600.407550,1608.800546,-444.123565,9770.718434
1600.407867,1608.800546,-74.020594,9548.656652
1600.408185,1685.410096,-0.000000,8660.409521
1600.408502,1532.190996,-444.123565,8882.471304
1600.408819,995.924147,-888.247130,9104.533087
1600.409136,0.000000,-814.226536,8808.450710
1600.409453,383.047749,-1036.288319,7994.224174
1600.409770,0.000000,-1258.350101,7772.162391
1600.410087,-306.438199,-1850.514855,9178.553681
1600.410404,-383.047749,-1554.432478,8882.471304
1600.410722,-459.657299,-962.267725,8512.368333
1600.411039,-153.219100,-1332.370696,8734.430116
1600.411356,0.000000,-1332.370696,9992.780217
1600.411673,459.657299,-1036.288319,9622.677246
1600.411990,153.219100,-444.123565,8734.430116
1600.412307,919.314598,-370.102971,9252.574275
1600.412624,995.924147,-518.144159,9696.697840
1600.412942,1149.143247,-74.020594,9178.553681
1600.413259,1685.410096,370.102971,8142.265362
1600.413576,1608.800546,222.061783,8068.244768
1600.413893,1302.362347,-370.102971,8290.306550
1600.414210,1532.190996,222.061783,7550.100608
1600.414527,1149.143247,-0.000000,7105.977043
1600.414844,153.219100,-74.020594,7698.141797
1600.415161,-229.828649,-1036.288319,8734.430116
1600.415479,-383.047749,-1258.350101,9252.574275
1600.415796,-459.657299,-1332.370696,9696.697840
1600.416113,306.438199,-1332.370696,9770.718434
1600.416430,-612.876398,-962.267725,10584.944971
1600.416747,-229.828649,-148.041188,10510.924376
1600.417064,-153.219100,962.267725,9030.512492
1600.417381,919.314598,1406.391290,9474.636058
1600.417699,1455.581446,1110.308913,10362.883188
1600.418016,1608.800546,1924.535449,9548.656652
1600.418333,2374.896044,2368.659014,8808.450710
1600.418650,2145.067394,2146.597232,8956.491898
1600.418967,1838.629195,1332.370696,9696.697840
1600.419284,1532.190996,1332.370696,8882.471304
1600.419601,1378.971896,1258.350101,8734.430116
1600.419918,766.095498,1036.288319,9104.533087
1600.420236,383.047749,444.123565,9844.739029
1600.420553,0.000000,-148.041188,10362.883188
1600.420870,383.047749,814.226536,10584.944971
1600.421187,153.219100,444.123565,10436.903782
1600.421504,-306.438199,592.164754,10807.006753
1600.421821,0.000000,962.267725,10807.006753
1600.422138,383.047749,1998.556043,10140.821405
1600.422455,459.657299,1332.370696,10436.903782
1600.422773,1225.752797,1332.370696,11251.130318
1600.423090,1455.581446,1776.494261,10288.862594
1600.423407,2068.457845,2220.617826,9474.636058
1600.423724,2145.067394,1924.535449,9474.636058
1600.424042,2068.457845,1406.391290,9992.780217
1600.424359,2298.286494,1554.432478,9178.553681
1600.424676,995.924147,1036.288319,8956.491898
1600.424993,919.314598,740.205942,9918.759623
1600.425311,459.657299,222.061783,10658.965565
1600.425628,153.219100,518.144159,10214.842000
1600.425945,153.219100,518.144159,10881.027347
1600.426262,-153.219100,-0.000000,11251.130318
1600.426580,0.000000,-0.000000,11399.171507
1600.426897,689.485948,-0.000000,10510.924376
1600.427214,689.485948,814.226536,9548.656652
1600.427532,1302.362347,592.164754,9918.759623
1600.427849,1608.800546,444.123565,9326.594869
1600.428166,2298.286494,592.164754,9104.533087
1600.428483,2298.286494,888.247130,8882.471304
1600.428801,1838.629195,740.205942,8660.409521
1600.429118,1915.238745,518.144159,8068.244768
1600.429435,1378.971896,444.123565,8068.244768
1600.429752,1072.533697,148.041188,8438.347739
1600.430070,766.095498,-0.000000,8956.491898
1600.430387,689.485948,-296.082377,9252.574275
1600.430704,229.828649,-74.020594,9548.656652
1600.431021,459.657299,-0.000000,8956.491898
1600.431339,229.828649,296.082377,9326.594869
1600.431656,229.828649,-74.020594,9474.636058
1600.431973,536.266849,740.205942,8808.450710
1600.432290,766.095498,888.247130,8438.347739
1600.432608,919.314598,148.041188,8808.450710
1600.432925,1149.143247,-0.000000,8956.491898
1600.433242,1302.362347,740.205942,8068.244768
1600.433559,1225.752797,518.144159,7328.038826
1600.433877,1149.143247,-0.000000,7550.100608
1600.434194,842.705048,-0.000000,7624.121203
1600.434511,612.876398,370.102971,7698.141797
1600.434828,0.000000,592.164754,7328.038826
1600.435146,-536.266849,-74.020594,8290.306550
1600.435463,-1149.143247,-518.144159,9474.636058
1600.435780,-1302.362347,-444.123565,9548.656652
1600.436097,-1378.971896,-444.123565,9918.759623
1600.436415,-1302.362347,-296.082377,10362.883188
1600.436732,-383.047749,-0.000000,10436.903782
1600.437049,0.000000,740.205942,9326.594869
1600.437366,383.047749,1036.288319,9326.594869
1600.437684,995.924147,518.144159,9770.718434
1600.438001,1991.848295,296.082377,9548.656652
1600.438318,2068.457845,962.267725,8512.368333
1600.438635,2451.505594,518.144159,8882.471304
1600.438953,1838.629195,222.061783,9104.533087
1600.439270,1608.800546,444.123565,9104.533087
1600.439587,1302.362347,814.226536,8216.285956
1600.439904,1072.533697,1036.288319,8364.327145
1600.440222,612.876398,222.061783,9844.739029
1600.440539,459.657299,-74.020594,10658.965565
1600.440856,689.485948,-0.000000,10584.944971
1600.441173,459.657299,-370.102971,11473.192101
1600.441491,536.266849,-148.041188,11843.295072
1600.441808,919.314598,444.123565,11547.212695
1600.442125,1838.629195,1924.535449,10288.862594
1600.442442,2451.505594,2368.659014,9992.780217
1600.442760,2757.943793,2072.576638,9918.759623
1600.443077,3447.429741,1776.494261,10288.862594
1600.443394,3600.648841,2220.617826,9326.594869
1600.443711,3370.820191,2146.597232,8956.491898
1600.444029,3830.477490,1406.391290,9252.574275
1600.444346,2987.772442,1480.411884,8956.491898
1600.444663,3370.820191,2072.576638,8364.327145
1600.444980,1915.238745,1628.453072,7624.121203
1600.445298,1302.362347,444.123565,9474.636058
1600.445615,842.705048,-592.164754,11029.068536
1600.445932,-153.219100,-444.123565,10732.986159
1600.446249,-153.219100,-962.267725,11621.233289
1600.446567,-536.266849,-444.123565,11621.233289
1600.446884,-612.876398,444.123565,11251.130318
1600.447201,76.609550,2516.700203,9400.615463
1600.447518,689.485948,1850.514855,9326.594869
1600.447836,229.828649,1110.308913,9622.677246
1600.448153,1302.362347,1850.514855,10510.924376
1600.448470,1532.190996,1998.556043,9030.512492
1600.448787,1685.410096,1406.391290,8956.491898
1600.449105,1378.971896,814.226536,9178.553681
1600.449422,995.924147,666.185348,8882.471304
1600.449739,229.828649,444.123565,7698.141797
1600.450056,-153.219100,222.061783,7402.059420
1600.450374,-766.095498,-1036.288319,9696.697840
1600.450691,-1302.362347,-592.164754,9696.697840
1600.451008,-1225.752797,-370.102971,9178.553681
1600.451325,-1838.629195,-592.164754,9622.677246
1600.451643,-2374.896044,-1702.473667,11029.068536
1600.451960,-2068.457845,-962.267725,9918.759623
1600.452277,-1532.190996,-148.041188,9696.697840
1600.452594,-842.705048,-296.082377,10288.862594
1600.452912,-689.485948,-370.102971,9992.780217
1600.453229,0.000000,-0.000000,9400.615463
1600.453546,1302.362347,518.144159,8882.471304
1600.453863,1762.019645,-0.000000,8586.388927
1600.454181,2145.067394,666.185348,7994.224174
1600.454498,2757.943793,962.267725,8142.265362
1600.454815,2145.067394,1184.329507,6587.832884
1600.455132,2298.286494,592.164754,7105.977043
1600.455450,1762.019645,-666.185348,8216.285956
1600.455767,1149.143247,-592.164754,9030.512492
1600.456084,1685.410096,-222.061783,8142.265362
1600.456401,1532.190996,-444.123565,8586.388927
1600.456719,1149.143247,-1480.411884,9696.697840
1600.457036,1072.533697,-1406.391290,9770.718434
1600.457353,995.924147,-740.205942,8586.388927
1600.457670,1072.533697,-592.164754,9178.553681
1600.457988,1455.581446,-740.205942,10436.903782
1600.458305,1532.190996,-0.000000,9770.718434
1600.458622,1991.848295,814.226536,9104.533087
1600.458940,2451.505594,666.185348,9326.594869
1600.459257,2374.896044,-0.000000,9030.512492
1600.459574,2834.553343,592.164754,8068.244768
1600.459891,2757.943793,888.247130,7772.162391
1600.460209,2374.896044,296.082377,8068.244768
1600.460526,1762.019645,-74.020594,9252.574275
1600.460843,1685.410096,-444.123565,9400.615463
1600.461160,1072.533697,-592.164754,9252.574275
1600.461478,459.657299,-740.205942,10288.862594
1600.461795,306.438199,-888.247130,10658.965565
1600.462112,0.000000,-666.185348,10288.862594
1600.462429,153.219100,-222.061783,9844.739029
1600.462747,0.000000,-370.102971,10214.842000
1600.463064,0.000000,-814.226536,10658.965565
1600.463381,0.000000,-148.041188,10510.924376
1600.463698,0.000000,518.144159,9474.636058
1600.464016,-306.438199,-0.000000,10066.800811
1600.464333,-536.266849,-296.082377,10584.944971
1600.464650,-536.266849,-148.041188,10066.800811
1600.464967,-995.924147,518.144159,9548.656652
1600.465285,-1225.752797,296.082377,9918.759623
1600.465602,-995.924147,-444.123565,10584.944971
1600.465919,-612.876398,-222.061783,10288.862594
1600.466236,-689.485948,370.102971,10066.800811
1600.466554,-612.876398,370.102971,10288.862594
1600.466871,-383.047749,296.082377,10732.986159
1600.467188,0.000000,666.185348,9992.780217
1600.467505,383.047749,1184.329507,9400.615463
1600.467823,229.828649,888.247130,9326.594869
1600.468140,76.609550,-0.000000,10066.800811
1600.468457,153.219100,296.082377,9622.677246
1600.468774,536.266849,814.226536,9400.615463
1600.469092,612.876398,370.102971,9178.553681
1600.469409,306.438199,-518.144159,9400.615463
1600.469726,306.438199,-666.185348,9622.677246
1600.470043,306.438199,-74.020594,8586.388927
1600.470361,229.828649,-296.082377,9178.553681
1600.470678,0.000000,-74.020594,9474.636058
1600.470995,459.657299,-0.000000,9548.656652
1600.471312,689.485948,296.082377,9548.656652
1600.471630,536.266849,518.144159,9770.718434
1600.471947,1149.143247,222.061783,10288.862594
1600.472264,1685.410096,814.226536,9400.615463
1600.472581,2145.067394,1776.494261,8586.388927
1600.472899,2374.896044,888.247130,9104.533087
1600.473216,2374.896044,-0.000000,9400.615463
1600.473533,2068.457845,-0.000000,8734.430116
1600.473850,2451.505594,-296.082377,8956.491898
1600.474168,2221.676944,-0.000000,8956.491898
1600.474485,1762.019645,-888.247130,9178.553681
1600.474802,1225.752797,-962.267725,8734.430116
1600.475119,76.609550,-1036.288319,8068.244768
1600.475437,153.219100,-740.205942,8068.244768
1600.475754,229.828649,-962.267725,9252.574275
1600.476071,536.266849,-592.164754,9474.636058
1600.476388,612.876398,-592.164754,9400.615463
1600.476706,0.000000,-814.226536,9474.636058
1600.477023,689.485948,-1406.391290,10362.883188
1600.477340,459.657299,-592.164754,9178.553681
1600.477657,1378.971896,518.144159,8660.409521
1600.477975,995.924147,592.164754,8364.327145
1600.478292,1838.629195,444.123565,9474.636058
1600.478609,2068.457845,-592.164754,9474.636058
1600.478926,1762.019645,592.164754,8512.368333
1600.479244,1378.971896,-296.082377,8808.450710
1600.479561,842.705048,-814.226536,9030.512492
1600.479878,689.485948,-148.041188,8808.450710
1600.480195,459.657299,-0.000000,8586.388927
1600.480513,-306.438199,-370.102971,9178.553681
1600.480830,-536.266849,-222.061783,9104.533087
1600.481147,0.000000,296.082377,9844.739029
1600.481464,-153.219100,-0.000000,8290.306550
1600.481782,-229.828649,-0.000000,9178.553681
1600.482099,76.609550,-1554.432478,10510.924376
1600.482416,0.000000,-962.267725,10214.842000
1600.482733,689.485948,-518.144159,9474.636058
1600.483051,1072.533697,74.020594,10436.903782
1600.483368,1225.752797,-148.041188,10066.800811
1600.483685,1532.190996,1554.432478,9030.512492
1600.484002,1991.848295,1184.329507,8882.471304
1600.484320,1225.752797,666.185348,9548.656652
1600.484637,536.266849,1110.308913,9326.594869
1600.484954,842.705048,1184.329507,9696.697840
1600.485271,-229.828649,1332.370696,8734.430116
1600.485589,0.000000,888.247130,9326.594869
1600.485906,-919.314598,-74.020594,10288.862594
1600.486223,-766.095498,-740.205942,11029.068536
1600.486540,-842.705048,-74.020594,9918.759623
1600.486858,-1302.362347,-592.164754,10362.883188
1600.487175,-842.705048,-740.205942,11473.192101
1600.487492,-689.485948,-0.000000,10362.883188
1600.487809,-612.876398,1184.329507,9178.553681
1600.488127,-766.095498,370.102971,10066.800811
1600.488444,-459.657299,666.185348,10732.986159
1600.488761,-76.609550,444.123565,9326.594869
1600.489078,459.657299,518.144159,9844.739029
1600.489396,689.485948,-370.102971,10362.883188
1600.489713,612.876398,-148.041188,9918.759623
1600.490030,1149.143247,-370.102971,9474.636058
1600.490347,919.314598,-0.000000,9104.533087
1600.490665,1532.190996,148.041188,9622.677246
1600.490982,1532.190996,444.123565,9474.636058
1600.491299,1685.410096,740.205942,9252.574275
1600.491617,1762.019645,-0.000000,9326.594869
1600.491934,1991.848295,-0.000000,9622.677246
1600.492251,2145.067394,-592.164754,10584.944971
1600.492568,1915.238745,222.061783,9030.512492
1600.492886,2298.286494,148.041188,8734.430116
1600.493203,2221.676944,296.082377,8660.409521
1600.493520,2374.896044,-148.041188,10066.800811
1600.493837,2068.457845,222.061783,8808.450710
1600.494155,1915.238745,-74.020594,8438.347739
1600.494472,1072.533697,-370.102971,8512.368333
1600.494789,1072.533697,-0.000000,9548.656652
1600.495106,612.876398,370.102971,8808.450710
1600.495424,153.219100,222.061783,8956.491898
1600.495741,-612.876398,-0.000000,8956.491898
1600.496058,-306.438199,-592.164754,10436.903782
1600.496375,153.219100,-518.144159,9918.759623
1600.496693,536.266849,-0.000000,9548.656652
1600.497010,459.657299,-0.000000,9622.677246
1600.497327,1302.362347,592.164754,9770.718434
1600.497644,1532.190996,1554.432478,8216.285956
1600.497962,1302.362347,1332.370696,7550.100608
1600.498279,766.095498,962.267725,8438.347739
1600.498596,766.095498,592.164754,8734.430116
1600.498913,995.924147,1184.329507,8512.368333
1600.499231,995.924147,518.144159,8660.409521
1600.499548,0.000000,-0.000000,8512.368333
1600.499865,-153.219100,222.061783,8956.491898
1600.500182,229.828649,-74.020594,8216.285956
1600.500500,-306.438199,-74.020594,8364.327145
1600.500817,-1225.752797,-592.164754,9696.697840
1600.501134,-1302.362347,-370.102971,9918.759623
1600.501451,-1149.143247,296.082377,9770.718434
1600.501769,0.000000,740.205942,9992.780217
1600.502086,-306.438199,296.082377,10584.944971
1600.502403,-153.219100,962.267725,10362.883188
1600.502720,1149.143247,1850.514855,9474.636058
1600.503038,2298.286494,1998.556043,8586.388927
1600.503355,2834.553343,1480.411884,9474.636058
1600.503672,3140.991542,888.247130,9622.677246
1600.503989,2604.724693,1258.350101,9474.636058
1600.504307,2757.943793,444.123565,8808.450710
1600.504624,2451.505594,370.102971,9918.759623
1600.504941,1608.800546,1036.288319,9918.759623
1600.505258,1378.971896,1924.535449,9104.533087
1600.505576,459.657299,1184.329507,9474.636058
1600.505893,612.876398,-0.000000,10955.047942
1600.506210,153.219100,-0.000000,11325.150913
1600.506527,459.657299,-0.000000,10807.006753
1600.506845,536.266849,-888.247130,10807.006753
1600.507162,689.485948,-296.082377,11547.212695
1600.507479,1455.581446,148.041188,10955.047942
1600.507796,2068.457845,1628.453072,9696.697840
1600.508114,2681.334243,1924.535449,9252.574275
1600.508431,2451.505594,1702.473667,9548.656652
1600.508748,2834.553343,1998.556043,9622.677246
1600.509065,2451.505594,2368.659014,8290.306550
1600.509383,1915.238745,1702.473667,8142.265362
1600.509700,1225.752797,962.267725,9104.533087
1600.510017,229.828649,814.226536,8956.491898
1600.510334,0.000000,888.247130,8808.450710
1600.510652,-689.485948,444.123565,9030.512492
1600.510969,-1225.752797,-370.102971,10436.903782
1600.511286,-1455.581446,-814.226536,11103.089130
1600.511603,-1762.019645,-518.144159,10807.006753
1600.511921,-1838.629195,-740.205942,10584.944971
1600.512238,-1532.190996,-592.164754,10955.047942
1600.512555,-612.876398,592.164754,10436.903782
1600.512872,459.657299,1554.432478,8734.430116
1600.513190,842.705048,1480.411884,8438.347739
1600.513507,1838.629195,592.164754,8808.450710
1600.513824,2145.067394,814.226536,8068.244768
1600.514141,2145.067394,592.164754,7254.018232
1600.514459,2451.505594,-148.041188,8586.388927
1600.514776,1838.629195,-444.123565,8290.306550
1600.515093,1225.752797,-222.061783,8586.388927
1600.515410,766.095498,148.041188,8660.409521
1600.515728,0.000000,-0.000000,8512.368333
1600.516045,-995.924147,-518.144159,9474.636058
1600.516362,-1072.533697,-296.082377,10362.883188
1600.516679,-1302.362347,-518.144159,10140.821405
1600.516997,-1149.143247,-518.144159,10658.965565
1600.517314,-919.314598,-1036.288319,10955.047942
1600.517631,-842.705048,-444.123565,10584.944971
1600.517948,0.000000,666.185348,9696.697840
1600.518266,842.705048,444.123565,9474.636058
1600.518583,1072.533697,-0.000000,9548.656652
1600.518900,1685.410096,444.123565,9178.553681
1600.519217,2374.896044,1184.329507,7994.224174
1600.519535,2374.896044,518.144159,7772.162391
1600.519852,2604.724693,222.061783,8142.265362
1600.520169,1915.238745,222.061783,7624.121203
1600.520486,1532.190996,888.247130,7402.059420
1600.520804,1608.800546,740.205942,8364.327145
1600.521121,842.705048,-74.020594,8808.450710
1600.521438,689.485948,148.041188,10066.800811
1600.521755,383.047749,666.185348,9326.594869
1600.522073,0.000000,814.226536,9622.677246
1600.522390,229.828649,222.061783,10658.965565
1600.522707,536.266849,962.267725,10362.883188
1600.523024,536.266849,1776.494261,9104.533087
1600.523342,383.047749,1480.411884,9696.697840
1600.523659,1608.800546,444.123565,10140.821405
1600.523976,1915.238745,888.247130,9844.739029
1600.524294,2451.505594,1776.494261,9178.553681
1600.524611,2681.334243,1776.494261,9030.512492
1600.524928,2528.115143,1110.308913,8956.491898
1600.525245,2604.724693,1480.411884,8586.388927
1600.525563,2145.067394,1776.494261,7920.203579
1600.525880,1762.019645,1110.308913,8586.388927
1600.526197,1378.971896,444.123565,9474.636058
1600.526514,1455.581446,-0.000000,9918.759623
1600.526832,919.314598,592.164754,10140.821405
1600.527149,383.047749,-74.020594,10140.821405
1600.527466,0.000000,-518.144159,10732.986159
1600.527784,536.266849,-296.082377,11325.150913
1600.528101,306.438199,296.082377,10288.862594
1600.528418,0.000000,444.123565,9770.718434
1600.528735,536.266849,296.082377,10881.027347
1600.529053,76.609550,518.144159,10658.965565
1600.529370,1225.752797,1406.391290,9696.697840
1600.529687,842.705048,1406.391290,9474.636058
1600.530004,536.266849,962.267725,9474.636058
1600.530322,612.876398,592.164754,9326.594869
1600.530639,766.095498,592.164754,9252.574275
1600.530956,229.828649,-0.000000,9252.574275
1600.531274,0.000000,-296.082377,9770.718434
1600.531591,0.000000,-0.000000,9696.697840
1600.531908,0.000000,666.185348,9178.553681
1600.532225,536.266849,592.164754,9474.636058
1600.532543,383.047749,-888.247130,10436.903782
1600.532860,0.000000,-666.185348,10140.821405
1600.533177,459.657299,370.102971,9326.594869
1600.533494,766.095498,518.144159,9178.553681
1600.533812,766.095498,592.164754,9622.677246
1600.534129,1072.533697,518.144159,9548.656652
1600.534446,1302.362347,1110.308913,8438.347739
1600.534764,1225.752797,592.164754,8808.450710
1600.535081,1455.581446,-0.000000,9474.636058
1600.535398,1072.533697,-0.000000,8808.450710
1600.535715,1072.533697,-0.000000,8068.244768
1600.536033,919.314598,-0.000000,8586.388927
1600.536350,0.000000,-1110.308913,9474.636058
1600.536667,383.047749,-1184.329507,9770.718434
1600.536984,766.095498,-666.185348,9548.656652
1600.537302,536.266849,-814.226536,9622.677246
1600.537619,919.314598,-962.267725,10214.842000
1600.537936,1072.533697,-222.061783,9326.594869
1600.538254,1378.971896,-0.000000,8364.327145
1600.538571,1762.019645,-148.041188,8956.491898
1600.538888,1838.629195,-666.185348,9474.636058
1600.539205,1762.019645,-592.164754,9400.615463
1600.539523,1685.410096,-444.123565,8956.491898
1600.539840,1225.752797,-1184.329507,9252.574275
1600.540157,919.314598,-1332.370696,9548.656652
1600.540475,766.095498,-1184.329507,8956.491898
1600.540792,612.876398,-888.247130,8364.327145
1600.541109,76.609550,-592.164754,8660.409521
1600.541426,76.609550,-1036.288319,9918.759623
1600.541744,536.266849,-666.185348,9474.636058
1600.542061,0.000000,-592.164754,9548.656652
1600.542378,153.219100,-962.267725,10214.842000
1600.542695,76.609550,-518.144159,10436.903782
1600.543013,842.705048,296.082377,9178.553681
1600.543330,1225.752797,814.226536,8734.430116
1600.543647,1532.190996,814.226536,8512.368333
1600.543965,1685.410096,148.041188,8882.471304
1600.544282,1685.410096,518.144159,8216.285956
1600.544599,1455.581446,296.082377,8364.327145
1600.544916,995.924147,-518.144159,8586.388927
1600.545234,689.485948,-0.000000,8956.491898
1600.545551,-459.657299,444.123565,8290.306550
1600.545868,-689.485948,444.123565,9178.553681
1600.546185,-1302.362347,296.082377,9030.512492
1600.546503,-842.705048,-74.020594,9844.739029
1600.546820,-689.485948,814.226536,9696.697840
1600.547137,-612.876398,740.205942,9548.656652
1600.547455,-459.657299,148.041188,9992.780217
1600.547772,0.000000,296.082377,10362.883188
1600.548089,459.657299,518.144159,9770.718434
1600.548406,229.828649,1036.288319,9104.533087
1600.548724,383.047749,1036.288319,9844.739029
1600.549041,536.266849,814.226536,10140.821405
1600.549358,842.705048,1628.453072,9252.574275
1600.549675,766.095498,888.247130,9474.636058
1600.549993,306.438199,-370.102971,9992.780217
1600.550310,-306.438199,-370.102971,9548.656652
1600.550627,-229.828649,-74.020594,9474.636058
1600.550945,-689.485948,-814.226536,9696.697840
1600.551262,-689.485948,-814.226536,11177.109724
1600.551579,-766.095498,-518.144159,11029.068536
1600.551896,-612.876398,-0.000000,10732.986159
1600.552214,0.000000,-0.000000,11103.089130
1600.552531,229.828649,-74.020594,10584.944971
1600.552848,1378.971896,666.185348,10436.903782
1600.553165,2298.286494,1406.391290,9400.615463
1600.553483,2911.162892,1110.308913,9104.533087
1600.553800,3140.991542,296.082377,9030.512492
1600.554117,3294.210641,-0.000000,8882.471304
1600.554435,3140.991542,592.164754,9030.512492
1600.554752,2987.772442,370.102971,9178.553681
1600.555069,2681.334243,-74.020594,9548.656652
1600.555386,1838.629195,-370.102971,9770.718434
1600.555704,1991.848295,148.041188,9474.636058
1600.556021,1225.752797,-0.000000,8956.491898
1600.556338,919.314598,-740.205942,9696.697840
1600.556655,919.314598,-518.144159,9992.780217
1600.556973,1072.533697,-296.082377,9918.759623
1600.557290,1149.143247,-296.082377,9474.636058
1600.557607,1072.533697,-1184.329507,10362.883188
1600.557925,842.705048,-370.102971,9918.759623
1600.558242,1072.533697,1554.432478,8734.430116
1600.558559,1302.362347,1406.391290,7994.224174
1600.558876,1762.019645,814.226536,8438.347739
1600.559194,1762.019645,592.164754,8734.430116
1600.559511,1685.410096,592.164754,7698.141797
1600.559828,1685.410096,-0.000000,7624.121203
1600.560146,842.705048,-1480.411884,9178.553681
1600.560463,0.000000,-1406.391290,9030.512492
1600.560780,-919.314598,-814.226536,8956.491898
1600.561097,-1149.143247,-222.061783,8734.430116
1600.561415,-1608.800546,-1332.370696,9918.759623
1600.561732,-1762.019645,-1036.288319,10658.965565
1600.562049,-1225.752797,222.061783,9696.697840
1600.562366,-919.314598,740.205942,9474.636058
1600.562684,-536.266849,296.082377,9696.697840
1600.563001,76.609550,444.123565,9474.636058
1600.563318,689.485948,740.205942,8216.285956
1600.563636,383.047749,888.247130,8068.244768
1600.563953,1072.533697,148.041188,9030.512492
1600.564270,1149.143247,-0.000000,9252.574275
1600.564587,919.314598,518.144159,8808.450710
1600.564905,766.095498,-74.020594,8586.388927
1600.565222,0.000000,-518.144159,9400.615463
1600.565539,76.609550,-444.123565,9178.553681
1600.565856,-383.047749,-0.000000,8142.265362
1600.566174,-919.314598,-0.000000,8956.491898
1600.566491,-919.314598,-1184.329507,10362.883188
1600.566808,-1302.362347,-1480.411884,11103.089130
1600.567126,-689.485948,-518.144159,10732.986159
1600.567443,-689.485948,-592.164754,10881.027347
1600.567760,0.000000,-0.000000,10807.006753
1600.568077,1149.143247,740.205942,10288.862594
1600.568395,1838.629195,1702.473667,8956.491898
1600.568712,2374.896044,1850.514855,8512.368333
1600.569029,2604.724693,1110.308913,9474.636058
1600.569346,2911.162892,1110.308913,9030.512492
1600.569664,2911.162892,1110.308913,8808.450710
1600.569981,1991.848295,444.123565,9178.553681
1600.570298,919.314598,-0.000000,9548.656652
1600.570616,919.314598,-0.000000,8956.491898
1600.570933,536.266849,222.061783,9104.533087
1600.571250,0.000000,-296.082377,10140.821405
1600.571567,-689.485948,-814.226536,10732.986159
1600.571885,-1149.143247,-518.144159,10955.047942
1600.572202,-536.266849,-148.041188,10732.986159
1600.572519,-383.047749,-370.102971,11251.130318
1600.572836,-229.828649,-222.061783,11325.150913
1600.573154,306.438199,814.226536,10807.006753
1600.573471,1072.533697,1332.370696,9770.718434
1600.573788,2068.457845,1776.494261,9474.636058
1600.574106,2145.067394,888.247130,9400.615463
1600.574423,2834.553343,962.267725,9400.615463
1600.574740,3140.991542,962.267725,8142.265362
1600.575057,2834.553343,222.061783,8808.450710
1600.575375,2604.724693,222.061783,9030.512492
1600.575692,2221.676944,740.205942,9178.553681
1600.576009,1225.752797,666.185348,8216.285956
1600.576327,383.047749,-74.020594,9400.615463
1600.576644,76.609550,-518.144159,9622.677246
1600.576961,-306.438199,-666.185348,10214.842000
1600.577278,0.000000,-740.205942,10288.862594
1600.577596,-153.219100,-962.267725,10510.924376
1600.577913,0.000000,-740.205942,10436.903782
1600.578230,536.266849,-0.000000,9770.718434
1600.578547,1072.533697,962.267725,9030.512492
1600.578865,1991.848295,1332.370696,8290.306550
1600.579182,2068.457845,1850.514855,8438.347739
1600.579499,2374.896044,1480.411884,8142.265362
1600.579817,2451.505594,1406.391290,7920.203579
1600.580134,2068.457845,888.247130,7550.100608
1600.580451,1455.581446,444.123565,8068.244768
1600.580768,766.095498,-74.020594,8142.265362
1600.581086,-229.828649,222.061783,7772.162391
1600.581403,-306.438199,-518.144159,8808.450710
1600.581720,-1685.410096,-74.020594,9548.656652
1600.582037,-995.924147,-296.082377,10140.821405
1600.582355,-1608.800546,-148.041188,9252.574275
1600.582672,-1302.362347,-296.082377,10362.883188
1600.582989,-1072.533697,-370.102971,10658.965565
1600.583307,-689.485948,814.226536,9474.636058
1600.583624,306.438199,1998.556043,8216.285956
1600.583941,689.485948,1776.494261,8660.409521
1600.584258,1455.581446,1628.453072,8956.491898
1600.584576,1915.238745,1480.411884,8512.368333
1600.584893,2298.286494,1110.308913,7698.141797
1600.585210,1991.848295,222.061783,8512.368333
1600.585527,1225.752797,-444.123565,8882.471304
1600.585845,995.924147,-74.020594,8142.265362
1600.586162,383.047749,296.082377,7920.203579
1600.586479,0.000000,-222.061783,9178.553681
1600.586797,-689.485948,-444.123565,9992.780217
1600.587114,153.219100,-0.000000,11029.068536
1600.587431,-306.438199,148.041188,10881.027347
1600.587748,0.000000,-0.000000,11547.212695
1600.588066,76.609550,370.102971,11769.274478
1600.588383,1149.143247,1184.329507,10881.027347
1600.588700,1915.238745,1998.556043,9474.636058
1600.589017,2298.286494,1924.535449,9178.553681
1600.589335,2757.943793,1110.308913,10362.883188
1600.589652,3600.648841,888.247130,9400.615463
1600.589969,2987.772442,888.247130,8364.327145
1600.590287,2528.115143,370.102971,9252.574275
1600.590604,1991.848295,-296.082377,9474.636058
1600.590921,995.924147,-370.102971,9104.533087
1600.591238,306.438199,-444.123565,8956.491898
1600.591556,-383.047749,-814.226536,10214.842000
1600.591873,-919.314598,-1184.329507,11029.068536
1600.592190,-766.095498,-444.123565,11103.089130
1600.592507,-383.047749,-518.144159,11473.192101
1600.592825,-612.876398,-888.247130,11621.233289
1600.593142,0.000000,-0.000000,12139.377449
1600.593459,919.314598,1110.308913,10584.944971
1600.593777,1762.019645,2294.638420,9326.594869
1600.594094,2221.676944,2146.597232,8882.471304
1600.594411,2681.334243,1776.494261,9030.512492
1600.594728,2757.943793,1628.453072,8438.347739
1600.595046,2987.772442,1406.391290,7920.203579
1600.595363,2451.505594,740.205942,7698.141797
1600.595680,1838.629195,222.061783,7994.224174
1600.595998,1378.971896,-74.020594,8142.265362
1600.596315,153.219100,-222.061783,7920.203579
1600.596632,-766.095498,-740.205942,9252.574275
1600.596949,-1608.800546,-1258.350101,10288.862594
1600.597267,-1762.019645,-1110.308913,10584.944971
1600.597584,-1608.800546,-518.144159,9918.759623
1600.597901,-1149.143247,-444.123565,10732.986159
1600.598218,-919.314598,-222.061783,10510.924376
1600.598536,0.000000,1036.288319,9178.553681
1600.598853,766.095498,1998.556043,8142.265362
1600.599170,1455.581446,1924.535449,8734.430116
1600.599488,1915.238745,1480.411884,8956.491898
1600.599805,2298.286494,1776.494261,8290.306550
1600.600122,2221.676944,1332.370696,8068.244768
1600.600439,1608.800546,296.082377,8290.306550
1600.600757,1072.533697,-0.000000,8512.368333
1600.601074,689.485948,-0.000000,8290.306550
1600.601391,76.609550,-0.000000,8216.285956
1600.601708,-689.485948,-370.102971,8882.471304
1600.602026,-1072.533697,-962.267725,9918.759623
1600.602343,-1149.143247,-1332.370696,10807.006753
1600.602660,-1072.533697,-1406.391290,10584.944971
1600.602978,-766.095498,-1110.308913,10732.986159
1600.603295,-306.438199,-1036.288319,10807.006753
1600.603612,766.095498,222.061783,9770.718434
1600.603929,1455.581446,1628.453072,8512.368333
1600.604247,2221.676944,1776.494261,8512.368333
1600.604564,2757.943793,1184.329507,8808.450710
1600.604881,3064.381992,1406.391290,8734.430116
1600.605198,3677.258390,1628.453072,8142.265362
1600.605516,2987.772442,1110.308913,9030.512492
1600.605833,1762.019645,666.185348,9178.553681
1600.606150,1532.190996,814.226536,8956.491898
1600.606468,842.705048,814.226536,9104.533087
1600.606785,995.924147,518.144159,10288.862594
1600.607102,0.000000,-0.000000,10807.006753
1600.607419,76.609550,296.082377,10362.883188
1600.607737,306.438199,222.061783,9992.780217
1600.608054,383.047749,-370.102971,10436.903782
1600.608371,383.047749,-666.185348,10658.965565
1600.608688,1072.533697,814.226536,9548.656652
1600.609006,1532.190996,1406.391290,8734.430116
1600.609323,2374.896044,1406.391290,9178.553681
1600.609640,2451.505594,1258.350101,9178.553681
1600.609958,3140.991542,1332.370696,8660.409521
1600.610275,3064.381992,1110.308913,8290.306550
1600.610592,2451.505594,666.185348,8956.491898
1600.610909,2145.067394,666.185348,9104.533087
1600.611227,1378.971896,1110.308913,8808.450710
1600.611544,383.047749,444.123565,9622.677246
1600.611861,0.000000,-74.020594,10510.924376
1600.612178,-383.047749,-222.061783,10955.047942
1600.612496,-995.924147,-74.020594,10881.027347
1600.612813,-1378.971896,-148.041188,10881.027347
1600.613130,-612.876398,-222.061783,11103.089130
1600.613448,-229.828649,-222.061783,10288.862594
1600.613765,153.219100,148.041188,9696.697840
1600.614082,306.438199,-74.020594,9104.533087
1600.614399,689.485948,-666.185348,9178.553681
1600.614717,1149.143247,-296.082377,9474.636058
1600.615034,1149.143247,-0.000000,8882.471304
1600.615351,842.705048,518.144159,8512.368333
1600.615669,383.047749,-222.061783,8586.388927
1600.615986,383.047749,-592.164754,8290.306550
1600.616303,-229.828649,-370.102971,8364.327145
1600.616620,-306.438199,-740.205942,8882.471304
1600.616938,-919.314598,-1628.453072,9696.697840
1600.617255,-1455.581446,-1480.411884,10288.862594
1600.617572,-1149.143247,-1406.391290,11029.068536
1600.617889,-995.924147,-518.144159,10881.027347
1600.618207,0.000000,-444.123565,10510.924376
1600.618524,459.657299,444.123565,10140.821405
1600.618841,1149.143247,1776.494261,8808.450710
1600.619159,1915.238745,1776.494261,8216.285956
1600.619476,2298.286494,814.226536,8068.244768
1600.619793,2451.505594,222.061783,8586.388927
1600.620110,2528.115143,-0.000000,8142.265362
1600.620428,2757.943793,-222.061783,7994.224174
1600.620745,2374.896044,-814.226536,8660.409521
1600.621062,1685.410096,-962.267725,8512.368333
1600.621379,1455.581446,-814.226536,8290.306550
1600.621697,1072.533697,-666.185348,8364.327145
1600.622014,459.657299,-1406.391290,9474.636058
1600.622331,1072.533697,-1480.411884,9844.739029
1600.622649,612.876398,-444.123565,9474.636058
1600.622966,1378.971896,-0.000000,9622.677246
1600.623283,995.924147,222.061783,9770.718434
1600.623600,1685.410096,888.247130,9844.739029
1600.623918,2451.505594,1850.514855,8956.491898
1600.624235,2298.286494,1850.514855,8438.347739
1600.624552,2374.896044,1480.411884,8660.409521
1600.624869,2757.943793,962.267725,9104.533087
1600.625187,2068.457845,962.267725,8808.450710
1600.625504,1302.362347,148.041188,8734.430116
1600.625821,0.000000,-666.185348,9252.574275
1600.626139,-536.266849,-1628.453072,9844.739029
1600.626456,-1608.800546,-1480.411884,9622.677246
1600.626774,-2451.505594,-1332.370696,9622.677246
1600.627091,-2834.553343,-1924.535449,10732.986159
1600.627409,-2911.162892,-1628.453072,10955.047942
1600.627726,-2911.162892,-740.205942,10658.965565
1600.628043,-1915.238745,-592.164754,10510.924376
1600.628361,-1225.752797,-148.041188,10881.027347
1600.628678,-612.876398,592.164754,10214.842000
1600.628996,153.219100,1628.453072,8956.491898
1600.629313,1378.971896,1554.432478,8882.471304
1600.629630,1378.971896,1702.473667,9178.553681
1600.629948,1608.800546,1998.556043,9104.533087
1600.630265,1991.848295,1776.494261,8512.368333
1600.630583,1685.410096,1110.308913,9178.553681
1600.630900,1225.752797,296.082377,9548.656652
1600.631218,306.438199,-296.082377,9844.739029
1600.631535,0.000000,-592.164754,9622.677246
1600.631852,-153.219100,-666.185348,9918.759623
1600.632170,-383.047749,-444.123565,10584.944971
1600.632487,0.000000,-518.144159,11177.109724
1600.632805,536.266849,-74.020594,10807.006753
1600.633122,1302.362347,592.164754,10066.800811
1600.633439,2374.896044,444.123565,10436.903782
1600.633757,3064.381992,888.247130,9474.636058
1600.634074,3600.648841,1924.535449,8438.347739
1600.634392,4290.134789,1924.535449,7698.141797
1600.634709,4749.792088,1628.453072,8660.409521
1600.635027,4903.011187,1776.494261,8290.306550
1600.635344,4749.792088,1776.494261,8068.244768
1600.635661,3830.477490,1554.432478,8068.244768
1600.635979,2834.553343,814.226536,8882.471304
1600.636296,1915.238745,592.164754,8734.430116
1600.636614,1149.143247,666.185348,8882.471304
1600.636931,-153.219100,666.185348,9326.594869
1600.637248,-842.705048,-74.020594,10436.903782
1600.637566,-1608.800546,-296.082377,10658.965565
1600.637883,-1838.629195,-962.267725,11103.089130
1600.638201,-2068.457845,-740.205942,10732.986159
1600.638518,-1225.752797,-592.164754,11103.089130
1600.638836,-1072.533697,296.082377,10288.862594
1600.639153,-383.047749,1480.411884,8438.347739
1600.639470,153.219100,1184.329507,8068.244768
1600.639788,459.657299,666.185348,8512.368333
1600.640105,919.314598,370.102971,8660.409521
1600.640423,1149.143247,962.267725,7846.182985
1600.640740,383.047749,296.082377,8216.285956
1600.641058,0.000000,-370.102971,9326.594869
1600.641375,-689.485948,-518.144159,9104.533087
1600.641692,-1532.190996,-0.000000,8364.327145
1600.642010,-2374.896044,-74.020594,9474.636058
1600.642327,-2298.286494,-296.082377,10362.883188
1600.642645,-1762.019645,-444.123565,10584.944971
1600.642962,-2068.457845,-666.185348,10732.986159
1600.643279,-1838.629195,-740.205942,11695.253884
1600.643597,-1685.410096,-1258.350101,11769.274478
1600.643914,-689.485948,-444.123565,10362.883188
1600.644232,306.438199,296.082377,9844.739029
1600.644549,1225.752797,444.123565,8808.450710
1600.644867,1915.238745,518.144159,9252.574275
1600.645184,2834.553343,888.247130,8290.306550
1600.645501,3753.867940,444.123565,8290.306550
1600.645819,3907.087040,-74.020594,8068.244768
1600.646136,3140.991542,-1036.288319,8290.306550
1600.646454,2451.505594,-666.185348,8142.265362
1600.646771,1915.238745,222.061783,8290.306550
1600.647088,1532.190996,-0.000000,9104.533087
1600.647406,919.314598,-222.061783,10362.883188
1600.647723,459.657299,-518.144159,11399.171507
1600.648041,536.266849,-296.082377,11325.150913
1600.648358,612.876398,-518.144159,11251.130318
1600.648676,842.705048,-814.226536,11473.192101
1600.648993,995.924147,-148.041188,10214.842000
1600.649310,2298.286494,814.226536,9178.553681
1600.649628,2298.286494,1184.329507,8512.368333
1600.649945,2528.115143,814.226536,8808.450710
1600.650263,2987.772442,1184.329507,8216.285956
1600.650580,3140.991542,962.267725,7698.141797
1600.650898,2681.334243,-0.000000,7772.162391
1600.651215,1838.629195,-888.247130,8586.388927
1600.651532,1302.362347,-1258.350101,8068.244768
1600.651850,383.047749,-444.123565,7846.182985
1600.652167,-383.047749,-444.123565,9178.553681
1600.652485,-919.314598,-740.205942,9696.697840
1600.652802,-919.314598,-814.226536,10436.903782
1600.653119,-1225.752797,-370.102971,10510.924376
1600.653437,-1608.800546,-296.082377,10955.047942
1600.653754,-1225.752797,-222.061783,11325.150913
1600.654072,-689.485948,666.185348,10362.883188
1600.654389,306.438199,1406.391290,9474.636058
1600.654707,1072.533697,1332.370696,9104.533087
1600.655024,1608.800546,1258.350101,9104.533087
1600.655341,2221.676944,1554.432478,8586.388927
1600.655659,2757.943793,2072.576638,7698.141797
1600.655976,2451.505594,1258.350101,7105.977043
1600.656294,1991.848295,740.205942,7920.203579
1600.656611,1072.533697,518.144159,7476.080014
1600.656928,459.657299,-0.000000,8216.285956
1600.657246,-766.095498,-296.082377,8660.409521
1600.657563,-1302.362347,-1110.308913,10362.883188
1600.657881,-1532.190996,-666.185348,10658.965565
1600.658198,-1991.848295,-148.041188,10658.965565
1600.658516,-1608.800546,-296.082377,11473.192101
1600.658833,-1455.581446,-0.000000,11399.171507
1600.659150,-459.657299,1332.370696,10436.903782
1600.659468,919.314598,2516.700203,9252.574275
1600.659785,1149.143247,2368.659014,9474.636058
1600.660103,1838.629195,1554.432478,9696.697840
1600.660420,2221.676944,2368.659014,9104.533087
1600.660737,2451.505594,2812.782580,8364.327145
1600.661055,2757.943793,1332.370696,8734.430116
1600.661372,2298.286494,962.267725,8660.409521
1600.661690,1838.629195,592.164754,7920.203579
1600.662007,1532.190996,888.247130,7698.141797
1600.662325,689.485948,-222.061783,9252.574275
1600.662642,-383.047749,-888.247130,9992.780217
1600.662959,-383.047749,-1036.288319,10436.903782
1600.663277,-229.828649,-666.185348,10955.047942
1600.663594,0.000000,-666.185348,10881.027347
1600.663912,0.000000,-444.123565,11547.212695
1600.664229,919.314598,370.102971,11177.109724
1600.664547,1302.362347,1776.494261,9622.677246
1600.664864,2221.676944,1628.453072,9770.718434
1600.665181,3140.991542,1332.370696,10288.862594
1600.665499,3600.648841,1406.391290,9474.636058
1600.665816,3983.696590,1332.370696,9400.615463
1600.666134,3600.648841,814.226536,8586.388927
1600.666451,3447.429741,518.144159,9104.533087
1600.666768,2911.162892,518.144159,8586.388927
1600.667086,1991.848295,370.102971,8068.244768
1600.667403,536.266849,-222.061783,8808.450710
1600.667721,-229.828649,-444.123565,9992.780217
1600.668038,-689.485948,-666.185348,10288.862594
1600.668356,-1455.581446,-1184.329507,10436.903782
1600.668673,-1455.581446,-1850.514855,11325.150913
1600.668990,-1608.800546,-2146.597232,11695.253884
1600.669308,-1378.971896,-592.164754,10807.006753
1600.669625,-536.266849,222.061783,9474.636058
1600.669943,0.000000,518.144159,9548.656652
1600.670260,1225.752797,518.144159,9770.718434
1600.670577,1455.581446,1480.411884,8734.430116
1600.670895,1915.238745,1554.432478,7846.182985
1600.671212,1608.800546,1110.308913,8660.409521
1600.671530,1072.533697,888.247130,8290.306550
1600.671847,1608.800546,666.185348,7624.121203
1600.672165,536.266849,814.226536,7698.141797
1600.672482,-229.828649,518.144159,8290.306550
1600.672799,-612.876398,-296.082377,8808.450710
1600.673117,-689.485948,-296.082377,9622.677246
1600.673434,-1149.143247,-814.226536,9622.677246
1600.673752,-1378.971896,-1406.391290,10140.821405
1600.674069,-1378.971896,-962.267725,10288.862594
1600.674386,-995.924147,148.041188,9770.718434
1600.674704,0.000000,962.267725,8660.409521
1600.675021,536.266849,1110.308913,8882.471304
1600.675339,1532.190996,740.205942,8956.491898
1600.675656,2374.896044,1332.370696,8216.285956
1600.675974,2604.724693,1110.308913,7254.018232
1600.676291,2681.334243,-0.000000,8216.285956
1600.676608,2681.334243,-518.144159,8660.409521
1600.676926,2451.505594,-0.000000,8068.244768
1600.677243,1915.238745,222.061783,7994.224174
1600.677561,1455.581446,-592.164754,9474.636058
1600.677878,689.485948,-370.102971,9992.780217
1600.678196,306.438199,592.164754,9622.677246
1600.678513,306.438199,666.185348,9474.636058
1600.678830,0.000000,-0.000000,10288.862594
1600.679148,-229.828649,-296.082377,10436.903782
1600.679465,536.266849,-0.000000,10214.842000
1600.679783,229.828649,222.061783,9622.677246
1600.680100,919.314598,-222.061783,10436.903782
1600.680417,1149.143247,-222.061783,10214.842000
1600.680735,1685.410096,370.102971,9548.656652
1600.681052,1532.190996,222.061783,9178.553681
1600.681370,1532.190996,814.226536,9400.615463
1600.681687,1455.581446,888.247130,8808.450710
1600.682005,1685.410096,1110.308913,8364.327145
1600.682322,1225.752797,592.164754,8734.430116
1600.682639,536.266849,222.061783,9622.677246
1600.682957,459.657299,-0.000000,9992.780217
1600.683274,536.266849,592.164754,9992.780217
1600.683592,612.876398,814.226536,10288.862594
1600.683909,995.924147,592.164754,10584.944971
1600.684226,919.314598,444.123565,10214.842000
1600.684544,1072.533697,518.144159,9696.697840
1600.684861,1149.143247,888.247130,9104.533087
1600.685179,1072.533697,592.164754,9326.594869
1600.685496,1302.362347,222.061783,9474.636058
1600.685814,1378.971896,888.247130,8808.450710
1600.686131,1455.581446,296.082377,9104.533087
1600.686448,995.924147,-74.020594,9622.677246
1600.686766,1149.143247,-0.000000,8660.409521
1600.687083,1302.362347,1110.308913,7994.224174
1600.687401,919.314598,666.185348,8734.430116
1600.687718,306.438199,-0.000000,9918.759623
1600.688035,0.000000,-0.000000,10288.862594
1600.688353,0.000000,666.185348,10140.821405
1600.688670,306.438199,370.102971,10881.027347
1600.688988,229.828649,222.061783,10807.006753
1600.689305,536.266849,888.247130,10214.842000
1600.689623,842.705048,1184.329507,9474.636058
1600.689940,1608.800546,370.102971,8882.471304
1600.690257,1608.800546,740.205942,9252.574275
1600.690575,2221.676944,814.226536,9178.553681
1600.690892,2374.896044,1332.370696,8216.285956
1600.691210,2221.676944,148.041188,8660.409521
1600.691527,1149.143247,-592.164754,9104.533087
1600.691845,459.657299,-296.082377,9252.574275
1600.692162,0.000000,-296.082377,8734.430116
1600.692479,-842.705048,-592.164754,9104.533087
1600.692797,-1149.143247,-1332.370696,10288.862594
1600.693114,-1685.410096,-888.247130,10066.800811
1600.693432,-1532.190996,-962.267725,10140.821405
1600.693749,-1455.581446,-370.102971,9918.759623
1600.694066,-995.924147,-444.123565,10436.903782
1600.694384,-383.047749,1036.288319,9622.677246
1600.694701,153.219100,1036.288319,8956.491898
1600.695019,383.047749,1184.329507,8808.450710
1600.695336,919.314598,370.102971,9622.677246
1600.695654,1532.190996,666.185348,9548.656652
1600.695971,1608.800546,1850.514855,8512.368333
1600.696288,1915.238745,2220.617826,7994.224174
1600.696606,1378.971896,1924.535449,7624.121203
1600.696923,995.924147,518.144159,7920.203579
1600.697241,153.219100,-592.164754,8660.409521
1600.697558,76.609550,-2146.597232,9992.780217
1600.697875,-459.657299,-2072.576638,10881.027347
1600.698193,0.000000,-1036.288319,10362.883188
1600.698510,-306.438199,-74.020594,9326.594869
1600.698828,536.266849,-148.041188,9326.594869
1600.699145,306.438199,-444.123565,10881.027347
1600.699463,766.095498,-222.061783,9770.718434
1600.699780,1072.533697,370.102971,8734.430116
1600.700097,1225.752797,1406.391290,8364.327145
1600.700415,2604.724693,814.226536,9770.718434
1600.700732,3370.820191,296.082377,9474.636058
1600.701050,2987.772442,-0.000000,8882.471304
1600.701367,2145.067394,-1110.308913,9252.574275
1600.701685,2451.505594,-592.164754,10066.800811
1600.702002,2374.896044,-74.020594,9622.677246
1600.702319,2451.505594,-296.082377,9474.636058
1600.702637,689.485948,-814.226536,9844.739029
1600.702954,0.000000,-1702.473667,10881.027347
1600.703272,0.000000,-1332.370696,10881.027347
1600.703589,766.095498,-888.247130,10140.821405
1600.703906,459.657299,-1702.473667,10510.924376
1600.704224,0.000000,-1702.473667,10807.006753
1600.704541,306.438199,-1258.350101,9696.697840
1600.704859,1532.190996,-518.144159,9030.512492
1600.705176,1915.238745,-444.123565,9252.574275
1600.705494,2757.943793,740.205942,9104.533087
1600.705811,2528.115143,1184.329507,7846.182985
1600.706128,2604.724693,1258.350101,7772.162391
1600.706446,1762.019645,-74.020594,9252.574275
1600.706763,1149.143247,-148.041188,10214.842000
1600.707081,919.314598,370.102971,9178.553681
1600.707398,612.876398,1776.494261,8290.306550
1600.707715,0.000000,1110.308913,8734.430116
1600.708033,-459.657299,370.102971,9918.759623
1600.708350,-689.485948,-0.000000,9474.636058
1600.708668,-306.438199,444.123565,9474.636058
1600.708985,-766.095498,296.082377,9252.574275
1600.709303,-919.314598,370.102971,9622.677246
1600.709620,-1149.143247,1036.288319,9770.718434
1600.709937,-612.876398,1406.391290,8438.347739
1600.710255,-306.438199,1406.391290,8512.368333
1600.710572,0.000000,1110.308913,8956.491898
1600.710890,919.314598,1332.370696,8808.450710
1600.711207,1225.752797,1406.391290,7624.121203
1600.711524,919.314598,370.102971,8512.368333
1600.711842,383.047749,-74.020594,9104.533087
1600.712159,0.000000,740.205942,8068.244768
1600.712477,0.000000,1110.308913,8068.244768
1600.712794,-766.095498,1110.308913,8068.244768
1600.713112,-1685.410096,-0.000000,9992.780217
1600.713429,-1685.410096,-296.082377,10881.027347
1600.713746,-2298.286494,-370.102971,11399.171507
1600.714064,-1608.800546,-444.123565,10732.986159
1600.714381,-1378.971896,222.061783,11177.109724
1600.714699,-229.828649,888.247130,10140.821405
1600.715016,842.705048,962.267725,9326.594869
1600.715334,1225.752797,1332.370696,9104.533087
1600.715651,1915.238745,814.226536,9252.574275
1600.715968,2604.724693,740.205942,9178.553681
1600.716286,2681.334243,962.267725,9178.553681
1600.716603,2145.067394,592.164754,9770.718434
1600.716921,1838.629195,-0.000000,9844.739029
1600.717238,1532.190996,-296.082377,9474.636058
1600.717555,995.924147,-592.164754,9844.739029
1600.717873,1072.533697,-962.267725,10288.862594
1600.718190,1378.971896,-814.226536,10510.924376
1600.718508,1455.581446,-814.226536,10214.842000
1600.718825,1608.800546,-222.061783,11029.068536
1600.719143,1762.019645,814.226536,9770.718434
1600.719460,1991.848295,1184.329507,9918.759623
1600.719777,2681.334243,962.267725,9918.759623
1600.720095,2604.724693,1036.288319,9326.594869
1600.720412,2528.115143,962.267725,9178.553681
1600.720730,2604.724693,740.205942,9326.594869
1600.721047,2604.724693,222.061783,9474.636058
1600.721364,3370.820191,-444.123565,9548.656652
1600.721682,2374.896044,-444.123565,8956.491898
1600.721999,1302.362347,-222.061783,9178.553681
1600.722317,995.924147,-518.144159,9104.533087
1600.722634,0.000000,-1036.288319,8660.409521
1600.722952,-919.314598,-1554.432478,9474.636058
1600.723269,-1838.629195,-1406.391290,10807.006753
1600.723586,-1991.848295,-888.247130,10658.965565
1600.723904,-1532.190996,148.041188,9992.780217
1600.724221,-689.485948,-296.082377,11029.068536
1600.724539,-842.705048,-0.000000,10140.821405
1600.724856,-153.219100,1110.308913,8438.347739
1600.725173,689.485948,1110.308913,7772.162391
1600.725491,1149.143247,814.226536,7994.224174
1600.725808,1991.848295,1036.288319,8364.327145
1600.726126,1685.410096,148.041188,8216.285956
1600.726443,1455.581446,444.123565,7920.203579
1600.726761,995.924147,-370.102971,8142.265362
1600.727078,0.000000,-1184.329507,9474.636058
1600.727394,0.000000,-592.164754,9252.574275
1600.727711,-689.485948,-74.020594,8142.265362
1600.728028,-1532.190996,-518.144159,9030.512492
1600.728346,-995.924147,-1406.391290,10732.986159
1600.728663,-1302.362347,-740.205942,9770.718434
1600.728980,-919.314598,-222.061783,9622.677246
1600.729298,76.609550,-0.000000,9548.656652
1600.729615,229.828649,592.164754,9548.656652
1600.729932,1072.533697,444.123565,8734.430116
1600.730250,1072.533697,1332.370696,7920.203579
1600.730567,1225.752797,1036.288319,8438.347739
1600.730884,2221.676944,1036.288319,9474.636058
1600.731202,2834.553343,1480.411884,8512.368333
1600.731519,2681.334243,1628.453072,7846.182985
1600.731836,2068.457845,148.041188,8956.491898
1600.732154,1762.019645,-370.102971,9696.697840
1600.732471,1455.581446,-0.000000,8734.430116
1600.732788,1072.533697,296.082377,8808.450710
1600.733106,229.828649,370.102971,9474.636058
1600.733423,0.000000,888.247130,10510.924376
1600.733740,229.828649,1036.288319,9696.697840
1600.734058,76.609550,888.247130,9918.759623
1600.734375,-229.828649,222.061783,10732.986159
1600.734692,459.657299,-0.000000,11695.253884
1600.735010,1762.019645,1184.329507,9326.594869
1600.735327,2451.505594,1480.411884,8956.491898
1600.735644,2528.115143,1184.329507,9474.636058
1600.735962,2681.334243,740.205942,8882.471304
1600.736279,2911.162892,1628.453072,8216.285956
1600.736596,3140.991542,518.144159,9400.615463
1600.736914,1762.019645,148.041188,9104.533087
1600.737231,1225.752797,666.185348,10584.944971
1600.737548,689.485948,740.205942,10288.862594
1600.737866,76.609550,740.205942,9622.677246
1600.738183,-842.705048,148.041188,9918.759623
1600.738500,-995.924147,-1332.370696,11991.336260
1600.738818,-612.876398,222.061783,9992.780217
1600.739135,306.438199,-370.102971,10066.800811
1600.739452,-536.266849,-888.247130,11251.130318
1600.739770,-536.266849,-1332.370696,11473.192101
1600.740087,229.828649,1184.329507,8734.430116
1600.740404,1455.581446,1480.411884,8660.409521
1600.740722,1455.581446,2072.576638,8808.450710
1600.741039,1762.019645,1924.535449,8808.450710
1600.741356,1838.629195,1924.535449,8586.388927
1600.741674,2221.676944,888.247130,8734.430116
1600.741991,1532.190996,-0.000000,9178.553681
1600.742308,766.095498,-666.185348,9992.780217
1600.742626,383.047749,-0.000000,8808.450710
1600.742943,-306.438199,-222.061783,8956.491898
1600.743260,-919.314598,-888.247130,9992.780217
1600.743578,-1685.410096,-444.123565,11325.150913
1600.743895,-1532.190996,-0.000000,10362.883188
1600.744212,-919.314598,666.185348,10140.821405
1600.744530,-1149.143247,370.102971,9474.636058
1600.744847,-612.876398,-74.020594,10436.903782
1600.745164,0.000000,222.061783,9030.512492
1600.745482,766.095498,1110.308913,7772.162391
1600.745799,1455.581446,888.247130,7476.080014
1600.746116,2451.505594,222.061783,8438.347739
1600.746434,2374.896044,592.164754,7698.141797
1600.746751,2298.286494,222.061783,7920.203579
1600.747068,1455.581446,-370.102971,8364.327145
1600.747386,995.924147,-222.061783,9104.533087
1600.747703,459.657299,370.102971,8216.285956
1600.748020,0.000000,222.061783,8438.347739
1600.748338,-995.924147,-74.020594,9326.594869
1600.748655,-229.828649,-888.247130,10955.047942
1600.748972,0.000000,-444.123565,10584.944971
1600.749290,229.828649,-0.000000,9696.697840
1600.749607,536.266849,-0.000000,10510.924376
1600.749924,459.657299,740.205942,9844.739029
1600.750242,1455.581446,1628.453072,9400.615463
1600.750559,1838.629195,1332.370696,8142.265362
1600.750876,1838.629195,1258.350101,8364.327145
1600.751194,1991.848295,962.267725,8882.471304
1600.751511,2374.896044,814.226536,8956.491898
1600.751828,2681.334243,-0.000000,8956.491898
1600.752146,1685.410096,-814.226536,8438.347739
1600.752463,1225.752797,-1776.494261,9844.739029
1600.752780,1149.143247,-1184.329507,9326.594869
1600.753098,383.047749,-1110.308913,8660.409521
1600.753415,153.219100,-1332.370696,10288.862594
1600.753732,-1149.143247,-592.164754,11325.150913
1600.754050,-766.095498,-296.082377,10584.944971
1600.754367,0.000000,-0.000000,10732.986159
1600.754684,-383.047749,-296.082377,11843.295072
1600.755002,229.828649,-0.000000,11029.068536
1600.755319,919.314598,1258.350101,9252.574275
1600.755636,2145.067394,1036.288319,9326.594869
1600.755954,2604.724693,222.061783,9178.553681
1600.756271,3294.210641,296.082377,8808.450710
1600.756588,2987.772442,370.102971,8734.430116
1600.756906,2987.772442,-0.000000,8216.285956
1600.757223,2451.505594,-74.020594,8586.388927
1600.757540,2068.457845,-0.000000,9030.512492
1600.757858,1072.533697,518.144159,8438.347739
1600.758175,0.000000,518.144159,8438.347739
1600.758492,-383.047749,-370.102971,9622.677246
1600.758810,-612.876398,-666.185348,10732.986159
1600.759127,-689.485948,-370.102971,9992.780217
1600.759444,0.000000,-518.144159,10362.883188
1600.759762,229.828649,-74.020594,10584.944971
1600.760079,536.266849,814.226536,9844.739029
1600.760397,842.705048,1628.453072,9104.533087
1600.760714,1072.533697,2072.576638,8216.285956
1600.761031,1455.581446,1776.494261,8438.347739
1600.761349,1915.238745,2072.576638,8734.430116
1600.761666,1532.190996,1776.494261,8438.347739
1600.761983,1072.533697,1036.288319,8734.430116
1600.762301,689.485948,-0.000000,9474.636058
1600.762618,306.438199,222.061783,8808.450710
1600.762935,306.438199,370.102971,8438.347739
1600.763253,0.000000,-222.061783,8660.409521
1600.763570,-459.657299,-592.164754,9548.656652
1600.763887,-306.438199,-666.185348,10436.903782
1600.764205,-919.314598,-0.000000,10140.821405
1600.764522,-766.095498,592.164754,9622.677246
1600.764839,-766.095498,740.205942,10436.903782
1600.765157,-229.828649,1184.329507,10436.903782
1600.765474,995.924147,1702.473667,9104.533087
1600.765791,689.485948,1924.535449,8290.306550
1600.766109,1302.362347,1110.308913,9326.594869
1600.766426,1685.410096,370.102971,9400.615463
1600.766743,2298.286494,296.082377,8882.471304
1600.767061,1762.019645,-370.102971,9178.553681
1600.767378,1149.143247,-666.185348,9622.677246
1600.767695,153.219100,222.061783,9474.636058
1600.768013,0.000000,666.185348,9030.512492
1600.768330,-383.047749,-0.000000,9696.697840
1600.768647,-842.705048,-518.144159,10584.944971
1600.768965,-766.095498,-518.144159,10881.027347
1600.769282,-383.047749,-74.020594,10362.883188
1600.769599,76.609550,148.041188,10510.924376
1600.769917,459.657299,-370.102971,10658.965565
1600.770234,1685.410096,666.185348,9770.718434
1600.770551,2298.286494,1850.514855,7994.224174
1600.770869,2528.115143,962.267725,7920.203579
1600.771186,2451.505594,444.123565,8882.471304
1600.771503,2911.162892,666.185348,9474.636058
1600.771821,2298.286494,518.144159,8660.409521
1600.772138,1762.019645,-148.041188,8956.491898
1600.772455,1225.752797,-888.247130,9770.718434
1600.772773,919.314598,-592.164754,9400.615463
1600.773090,536.266849,148.041188,8586.388927
1600.773407,383.047749,-74.020594,9474.636058
1600.773725,-76.609550,-1036.288319,10214.842000
1600.774042,-306.438199,-814.226536,10510.924376
1600.774359,76.609550,-222.061783,9918.759623
1600.774677,-612.876398,-518.144159,9918.759623
1600.774994,306.438199,-518.144159,10732.986159
1600.775311,536.266849,592.164754,9474.636058
1600.775629,1838.629195,1184.329507,8660.409521
1600.775946,1915.238745,962.267725,8586.388927
1600.776263,2451.505594,-74.020594,8882.471304
1600.776581,2834.553343,-0.000000,8808.450710
1600.776898,3140.991542,-0.000000,7846.182985
1600.777215,2221.676944,-0.000000,8364.327145
1600.777533,1532.190996,-444.123565,8882.471304
1600.777850,612.876398,-444.123565,9104.533087
1600.778167,-229.828649,-444.123565,8734.430116
1600.778485,-1225.752797,-1184.329507,9918.759623
1600.778802,-1838.629195,-1702.473667,10658.965565
1600.779119,-1608.800546,-1850.514855,11029.068536
1600.779437,-1685.410096,-1184.329507,10807.006753
1600.779754,-1378.971896,-1332.370696,10732.986159
1600.780071,-153.219100,-962.267725,10584.944971
1600.780389,306.438199,-222.061783,9622.677246
1600.780706,1378.971896,222.061783,8290.306550
1600.781023,1762.019645,370.102971,8364.327145
1600.781341,1915.238745,740.205942,8808.450710
1600.781658,2221.676944,1480.411884,8290.306550
1600.781975,2298.286494,1406.391290,7550.100608
1600.782293,1991.848295,888.247130,8364.327145
1600.782610,1685.410096,370.102971,8956.491898
1600.782927,1455.581446,-74.020594,8956.491898
1600.783245,766.095498,-148.041188,8586.388927
1600.783562,0.000000,-888.247130,9696.697840
1600.783879,-229.828649,-518.144159,10584.944971
1600.784197,0.000000,444.123565,10140.821405
1600.784514,306.438199,592.164754,10510.924376
1600.784831,383.047749,962.267725,10807.006753
1600.785149,1072.533697,1554.432478,10658.965565
1600.785466,1915.238745,2146.597232,8882.471304
1600.785783,2374.896044,2664.741391,8216.285956
1600.786101,3140.991542,2146.597232,7846.182985
1600.786418,3140.991542,1850.514855,7920.203579
1600.786735,3600.648841,1776.494261,7846.182985
1600.787053,3370.820191,1554.432478,7772.162391
1600.787370,2911.162892,814.226536,8808.450710
1600.787687,2221.676944,222.061783,9400.615463
1600.788005,842.705048,370.102971,9030.512492
1600.788322,-383.047749,-296.082377,9178.553681
1600.788639,-1149.143247,-1036.288319,10140.821405
1600.788957,-2298.286494,-296.082377,11251.130318
1600.789274,-1915.238745,-0.000000,11473.192101
1600.789591,-1532.190996,592.164754,11103.089130
1600.789909,-1915.238745,370.102971,11177.109724
1600.790226,-1378.971896,518.144159,11177.109724
1600.790543,-842.705048,1258.350101,10288.862594
1600.790861,0.000000,1628.453072,8956.491898
1600.791178,0.000000,962.267725,8956.491898
1600.791495,612.876398,666.185348,9770.718434
1600.791813,1225.752797,814.226536,9400.615463
1600.792130,1608.800546,444.123565,8882.471304
1600.792447,1302.362347,-444.123565,9326.594869
1600.792765,383.047749,-666.185348,9918.759623
1600.793082,0.000000,-592.164754,8882.471304
1600.793399,-842.705048,-962.267725,8956.491898
1600.793717,-1762.019645,-1332.370696,9918.759623
1600.794034,-1685.410096,-1406.391290,11029.068536
1600.794351,-1838.629195,-1036.288319,10955.047942
1600.794669,-1685.410096,-666.185348,11325.150913
1600.794986,-1991.848295,-814.226536,11769.274478
1600.795303,-995.924147,-296.082377,11843.295072
1600.795621,0.000000,740.205942,10362.883188
1600.795938,1532.190996,814.226536,9474.636058
1600.796255,1762.019645,518.144159,9400.615463
1600.796573,2757.943793,740.205942,9252.574275
1600.796890,3753.867940,1184.329507,8364.327145
1600.797207,4596.572988,370.102971,8068.244768
1600.797525,3830.477490,-0.000000,7920.203579
1600.797842,3447.429741,-0.000000,7920.203579
1600.798159,2681.334243,-0.000000,7254.018232
1600.798477,1838.629195,-296.082377,7624.121203
1600.798794,1378.971896,-1036.288319,9474.636058
1600.799111,536.266849,-1332.370696,9844.739029
1600.799429,0.000000,-962.267725,9918.759623
1600.799746,536.266849,-888.247130,9844.739029
1600.800063,689.485948,-1184.329507,10732.986159
1600.800381,919.314598,-296.082377,10288.862594
1600.800698,1685.410096,740.205942,8956.491898
1600.801015,2374.896044,1702.473667,7772.162391
1600.801333,2604.724693,1184.329507,8512.368333
1600.801650,2757.943793,1036.288319,8660.409521
1600.801967,2757.943793,1332.370696,7772.162391
1600.802285,2604.724693,1036.288319,7402.059420
1600.802602,1915.238745,-0.000000,8586.388927
1600.802919,1072.533697,-222.061783,8364.327145
1600.803237,1302.362347,-0.000000,8068.244768
1600.803554,306.438199,-518.144159,7994.224174
1600.803871,-995.924147,-1480.411884,9548.656652
1600.804189,-1302.362347,-1258.350101,10214.842000
1600.804506,-1302.362347,-296.082377,9474.636058
1600.804823,-1532.190996,-74.020594,9474.636058
1600.805141,-1072.533697,-222.061783,10732.986159
1600.805458,-766.095498,-0.000000,10732.986159
1600.805775,-153.219100,1258.350101,8734.430116
1600.806093,306.438199,1628.453072,7920.203579
1600.806410,842.705048,888.247130,9252.574275
1600.806727,1455.581446,1036.288319,8882.471304
1600.807045,1991.848295,1702.473667,7920.203579
1600.807362,1762.019645,962.267725,8290.306550
1600.807679,1225.752797,444.123565,9548.656652
1600.807997,1072.533697,-0.000000,9622.677246
1600.808314,766.095498,1258.350101,8956.491898
1600.808631,-306.438199,592.164754,9252.574275
1600.808949,-536.266849,-592.164754,10510.924376
1600.809266,-383.047749,-370.102971,10807.006753
1600.809583,-995.924147,-0.000000,11695.253884
1600.809901,-612.876398,888.247130,10288.862594
1600.810218,-459.657299,1184.329507,10955.047942
1600.810535,459.657299,1036.288319,10807.006753
1600.810853,1072.533697,1554.432478,9622.677246
1600.811170,1302.362347,2146.597232,8290.306550
1600.811487,1302.362347,740.205942,9474.636058
1600.811805,2068.457845,518.144159,9918.759623
1600.812122,2451.505594,222.061783,9474.636058
1600.812440,1915.238745,444.123565,9252.574275
1600.812757,1455.581446,-222.061783,10066.800811
1600.813074,1378.971896,-222.061783,10066.800811
1600.813392,995.924147,-0.000000,9622.677246
1600.813709,689.485948,148.041188,9918.759623
1600.814026,0.000000,296.082377,10066.800811
1600.814344,-229.828649,592.164754,11029.068536
1600.814661,-153.219100,-0.000000,11547.212695
1600.814978,0.000000,296.082377,10584.944971
1600.815296,76.609550,370.102971,11029.068536
1600.815613,612.876398,592.164754,10288.862594
1600.815930,1378.971896,814.226536,9474.636058
1600.816248,1762.019645,666.185348,8734.430116
1600.816565,2068.457845,-0.000000,9326.594869
1600.816882,2374.896044,-0.000000,9252.574275
1600.817200,2681.334243,-0.000000,8808.450710
1600.817517,2374.896044,-0.000000,8290.306550
1600.817834,1991.848295,-74.020594,8956.491898
1600.818152,1685.410096,148.041188,8734.430116
1600.818469,995.924147,148.041188,8364.327145
1600.818786,229.828649,-592.164754,8882.471304
1600.819104,-842.705048,-518.144159,9992.780217
1600.819421,-766.095498,-370.102971,10436.903782
1600.819738,-689.485948,296.082377,9844.739029
1600.820056,-995.924147,222.061783,9474.636058
1600.820373,-383.047749,-296.082377,10362.883188
1600.820690,-536.266849,-0.000000,9696.697840
1600.821008,0.000000,-0.000000,8512.368333
1600.821325,1072.533697,148.041188,7698.141797
1600.821642,536.266849,296.082377,9030.512492
1600.821960,1149.143247,-296.082377,9178.553681
1600.822277,1149.143247,-74.020594,8068.244768
1600.822594,1455.581446,592.164754,7698.141797
1600.822912,1302.362347,222.061783,8586.388927
1600.823229,1072.533697,296.082377,8216.285956
1600.823546,995.924147,148.041188,7698.141797
1600.823864,153.219100,-148.041188,7624.121203
1600.824181,-153.219100,-740.205942,9548.656652
1600.824498,76.609550,-814.226536,9548.656652
1600.824816,229.828649,-296.082377,9474.636058
1600.825133,536.266849,-0.000000,9844.739029
1600.825450,-306.438199,370.102971,9622.677246
1600.825768,459.657299,518.144159,9474.636058
1600.826085,1302.362347,1258.350101,8364.327145
1600.826402,1532.190996,1110.308913,7994.224174
1600.826719,1378.971896,1406.391290,8660.409521
1600.827037,1685.410096,1036.288319,8512.368333
1600.827354,2528.115143,444.123565,8216.285956
1600.827671,1838.629195,-148.041188,9474.636058
1600.827989,766.095498,-518.144159,10140.821405
1600.828306,536.266849,-0.000000,9326.594869
1600.828623,153.219100,-222.061783,9104.533087
1600.828941,0.000000,-814.226536,9844.739029
1600.829258,-383.047749,-888.247130,10955.047942
1600.829575,-306.438199,-518.144159,10658.965565
1600.829892,0.000000,-296.082377,11029.068536
1600.830210,229.828649,-518.144159,11177.109724
1600.830527,842.705048,-0.000000,11251.130318
1600.830844,1532.190996,1184.329507,10140.821405
1600.831162,2145.067394,1628.453072,9178.553681
1600.831479,2757.943793,1184.329507,8734.430116
1600.831796,2834.553343,1480.411884,9252.574275
1600.832114,3140.991542,1554.432478,9474.636058
1600.832431,3064.381992,1332.370696,8882.471304
1600.832748,2145.067394,370.102971,9326.594869
1600.833065,1685.410096,-296.082377,11029.068536
1600.833383,1072.533697,370.102971,10436.903782
1600.833700,766.095498,-444.123565,9474.636058
1600.834017,0.000000,-518.144159,10140.821405
1600.834335,-459.657299,-148.041188,11325.150913
1600.834652,-306.438199,370.102971,10881.027347
1600.834969,0.000000,666.185348,9992.780217
1600.835287,0.000000,148.041188,10584.944971
1600.835604,0.000000,370.102971,11547.212695
1600.835921,1072.533697,1702.473667,9918.759623
1600.836238,1915.238745,2220.617826,7994.224174
1600.836556,2298.286494,1184.329507,8734.430116
1600.836873,2451.505594,518.144159,9326.594869
1600.837190,3140.991542,814.226536,7920.203579
1600.837508,3064.381992,814.226536,7550.100608
1600.837825,2374.896044,148.041188,8734.430116
1600.838142,1455.581446,-370.102971,9178.553681
1600.838460,459.657299,592.164754,8142.265362
1600.838777,0.000000,-0.000000,8142.265362
1600.839094,-689.485948,-296.082377,9474.636058
1600.839411,-1225.752797,-740.205942,9918.759623
1600.839729,-995.924147,-370.102971,10362.883188
1600.840046,-842.705048,370.102971,9918.759623
1600.840363,-842.705048,-370.102971,10288.862594
1600.840681,-229.828649,-0.000000,10807.006753
1600.840998,612.876398,962.267725,9770.718434
1600.841315,1608.800546,1850.514855,7846.182985
1600.841633,2145.067394,1258.350101,7550.100608
1600.841950,2145.067394,814.226536,8586.388927
1600.842267,2834.553343,1406.391290,7624.121203
1600.842584,3064.381992,1480.411884,6809.894666
1600.842902,2604.724693,1184.329507,7031.956449
1600.843219,1685.410096,-74.020594,8586.388927
1600.843536,1149.143247,-74.020594,8068.244768
1600.843854,0.000000,-370.102971,8216.285956
1600.844171,-612.876398,-1628.453072,9548.656652
1600.844488,-2451.505594,-1702.473667,11103.089130
1600.844806,-2068.457845,-1184.329507,11621.233289
1600.845123,-2298.286494,-592.164754,10658.965565
1600.845440,-1532.190996,-814.226536,11325.150913
1600.845757,-766.095498,-592.164754,11399.171507
1600.846075,-153.219100,518.144159,9992.780217
1600.846392,306.438199,1110.308913,8512.368333
1600.846709,689.485948,814.226536,8364.327145
1600.847027,1072.533697,148.041188,9474.636058
1600.847344,1378.971896,518.144159,8290.306550
1600.847661,1608.800546,1036.288319,7402.059420
1600.847978,1225.752797,444.123565,8512.368333
1600.848296,612.876398,-370.102971,9474.636058
1600.848613,459.657299,-444.123565,8512.368333
1600.848930,-459.657299,-370.102971,8586.388927
1600.849248,-1149.143247,-1406.391290,10510.924376
1600.849565,-1762.019645,-1628.453072,11325.150913
1600.849882,-1915.238745,-740.205942,11251.130318
1600.850200,-1762.019645,-0.000000,11473.192101
1600.850517,-995.924147,-74.020594,12065.356855
1600.850834,-689.485948,222.061783,11695.253884
1600.851151,383.047749,1480.411884,11103.089130
1600.851469,2298.286494,2146.597232,8956.491898
1600.851786,2374.896044,1776.494261,8808.450710
1600.852103,2987.772442,592.164754,9178.553681
1600.852421,3600.648841,370.102971,9104.533087
1600.852738,3983.696590,888.247130,7772.162391
1600.853055,3370.820191,222.061783,8364.327145
1600.853373,3140.991542,-296.082377,9326.594869
1600.853690,2374.896044,-444.123565,8882.471304
1600.854007,1225.752797,-222.061783,7994.224174
1600.854324,459.657299,-962.267725,9474.636058
1600.854642,76.609550,-1776.494261,11029.068536
1600.854959,-153.219100,-1184.329507,11177.109724
1600.855276,-459.657299,-0.000000,10584.944971
1600.855594,-306.438199,-74.020594,11251.130318
1600.855911,536.266849,-0.000000,11547.212695
1600.856228,1532.190996,962.267725,10214.842000
1600.856546,2298.286494,1480.411884,9178.553681
1600.856863,2451.505594,1110.308913,9326.594869
1600.857180,3217.601092,1036.288319,9030.512492
1600.857497,3447.429741,1480.411884,8142.265362
1600.857815,3524.039291,1184.329507,7624.121203
1600.858132,2834.553343,962.267725,7698.141797
1600.858449,2145.067394,740.205942,7846.182985
1600.858767,1455.581446,370.102971,7402.059420
1600.859084,842.705048,-0.000000,7698.141797
1600.859401,-383.047749,-962.267725,8882.471304
1600.859719,-766.095498,-1332.370696,10214.842000
1600.860036,-919.314598,-814.226536,10140.821405
1600.860353,-919.314598,-148.041188,9400.615463
1600.860670,-1072.533697,518.144159,9992.780217
1600.860988,-306.438199,740.205942,10362.883188
1600.861305,153.219100,1628.453072,8808.450710
1600.861622,612.876398,1850.514855,7994.224174
1600.861940,1378.971896,1480.411884,8586.388927
1600.862257,1762.019645,1110.308913,9178.553681
1600.862574,1915.238745,1258.350101,8364.327145
1600.862892,2374.896044,1406.391290,7476.080014
1600.863209,1608.800546,444.123565,8660.409521
1600.863526,1302.362347,370.102971,8586.388927
1600.863843,612.876398,444.123565,7920.203579
1600.864161,76.609550,222.061783,7994.224174
1600.864478,-612.876398,-740.205942,9474.636058
1600.864795,-1378.971896,-1554.432478,10362.883188
1600.865113,-1532.190996,-1406.391290,10658.965565
1600.865430,-995.924147,-1702.473667,11029.068536
1600.865747,-1915.238745,-1850.514855,11473.192101
1600.866065,-995.924147,-518.144159,11473.192101
1600.866382,0.000000,740.205942,9844.739029
1600.866699,995.924147,1480.411884,8956.491898
1600.867016,1225.752797,1258.350101,9178.553681
1600.867334,2451.505594,1184.329507,9622.677246
1600.867651,2834.553343,1406.391290,8882.471304
1600.867968,2604.724693,962.267725,9030.512492
1600.868286,2068.457845,296.082377,9918.759623
1600.868603,766.095498,-0.000000,9918.759623
1600.868920,612.876398,518.144159,9400.615463
1600.869238,306.438199,296.082377,9474.636058
1600.869555,-383.047749,-444.123565,10510.924376
1600.869872,-459.657299,-814.226536,10881.027347
1600.870189,-536.266849,-814.226536,11029.068536
1600.870507,-612.876398,-1480.411884,11177.109724
1600.870824,-536.266849,-1184.329507,11547.212695
1600.871141,-153.219100,-814.226536,11251.130318
1600.871459,919.314598,370.102971,10066.800811
1600.871776,1608.800546,814.226536,9104.533087
1600.872093,2221.676944,1036.288319,9104.533087
1600.872411,2757.943793,1628.453072,8882.471304
1600.872728,3600.648841,1702.473667,8216.285956
1600.873045,4060.306139,1258.350101,7476.080014
1600.873362,2834.553343,592.164754,7772.162391
1600.873680,2298.286494,444.123565,8068.244768
1600.873997,1225.752797,740.205942,7994.224174
1600.874314,766.095498,222.061783,8882.471304
1600.874632,-229.828649,-740.205942,9696.697840
1600.874949,-1532.190996,-814.226536,10584.944971
1600.875266,-1532.190996,-814.226536,11325.150913
1600.875584,-1685.410096,-740.205942,10732.986159
1600.875901,-1225.752797,-1258.350101,11547.212695
1600.876218,-612.876398,-666.185348,11251.130318
1600.876535,153.219100,592.164754,9770.718434
1600.876853,1685.410096,962.267725,8364.327145
1600.877170,2298.286494,592.164754,8808.450710
1600.877487,3447.429741,1036.288319,8586.388927
1600.877805,3677.258390,1332.370696,7254.018232
1600.878122,3524.039291,1184.329507,6217.729913
1600.878439,3217.601092,-0.000000,7698.141797
1600.878757,2451.505594,-222.061783,8216.285956
1600.879074,1608.800546,-444.123565,7328.038826
1600.879391,459.657299,-1184.329507,7994.224174
1600.879708,-919.314598,-1332.370696,9992.780217
1600.880026,-1149.143247,-1332.370696,10362.883188
1600.880343,-1685.410096,-518.144159,9844.739029
1600.880660,-1838.629195,-222.061783,10288.862594
1600.880978,-1991.848295,-296.082377,11621.233289
1600.881295,-1608.800546,-0.000000,11029.068536
1600.881612,-689.485948,518.144159,9992.780217
1600.881930,0.000000,296.082377,9474.636058
1600.882247,689.485948,-222.061783,10510.924376
1600.882564,2068.457845,-0.000000,8882.471304
1600.882881,2757.943793,888.247130,7476.080014
1600.883199,3524.039291,1332.370696,6809.894666
1600.883516,2987.772442,1110.308913,7105.977043
1600.883833,2911.162892,1554.432478,7031.956449
1600.884151,2221.676944,1110.308913,6365.771101
1600.884468,766.095498,-0.000000,7476.080014
1600.884785,-612.876398,-1036.288319,9178.553681
1600.885102,-1149.143247,-1480.411884,10436.903782
1600.885420,-1915.238745,-888.247130,10436.903782
1600.885737,-2528.115143,-814.226536,11029.068536
1600.886054,-2451.505594,-444.123565,11695.253884
1600.886372,-1302.362347,814.226536,11769.274478
1600.886689,-153.219100,1850.514855,10955.047942
1600.887006,459.657299,1998.556043,9844.739029
1600.887324,536.266849,1850.514855,10362.883188
1600.887641,1302.362347,2294.638420,9474.636058
1600.887958,2374.896044,2516.700203,8660.409521
1600.888275,2604.724693,1924.535449,8142.265362
1600.888593,2451.505594,888.247130,8956.491898
1600.888910,2374.896044,1184.329507,8438.347739
1600.889227,1991.848295,740.205942,7476.080014
1600.889545,1225.752797,-666.185348,8734.430116
1600.889862,383.047749,-1850.514855,10807.006753
1600.890179,0.000000,-1924.535449,10584.944971
1600.890497,-689.485948,-962.267725,10732.986159
1600.890814,-306.438199,-1036.288319,11843.295072
1600.891131,-689.485948,-444.123565,12139.377449
1600.891448,229.828649,962.267725,11325.150913
1600.891766,1072.533697,1850.514855,10436.903782
1600.892083,842.705048,2220.617826,9548.656652
1600.892400,2451.505594,1924.535449,10288.862594
1600.892718,2911.162892,1998.556043,9844.739029
1600.893035,3370.820191,2294.638420,9104.533087
1600.893352,3370.820191,1628.453072,9104.533087
1600.893670,3064.381992,518.144159,9474.636058
1600.893987,2681.334243,-0.000000,8586.388927
1600.894304,1072.533697,-0.000000,8068.244768
1600.894621,383.047749,-444.123565,8734.430116
1600.894939,-612.876398,-1480.411884,10140.821405
1600.895256,-1072.533697,-1998.556043,10436.903782
1600.895573,-919.314598,-1702.473667,10881.027347
1600.895891,-1608.800546,-1480.411884,10881.027347
1600.896208,-1302.362347,-888.247130,10584.944971
1600.896525,-459.657299,-0.000000,9326.594869
1600.896843,459.657299,888.247130,8586.388927
1600.897160,1302.362347,1480.411884,8364.327145
1600.897477,1532.190996,1258.350101,8364.327145
1600.897794,2681.334243,1332.370696,8290.306550
1600.898112,3064.381992,1554.432478,7772.162391
1600.898429,2451.505594,1628.453072,7328.038826
1600.898746,2451.505594,1480.411884,7994.224174
1600.899064,1225.752797,1406.391290,7846.182985
1600.899381,689.485948,1184.329507,7550.100608
1600.899698,0.000000,-0.000000,8586.388927
1600.900016,-1608.800546,-222.061783,9918.759623
1600.900333,-1838.629195,-962.267725,10881.027347
1600.900650,-1838.629195,-1258.350101,9770.718434
1600.900967,-2604.724693,-1036.288319,9918.759623
1600.901285,-2068.457845,-814.226536,11029.068536
1600.901602,-995.924147,148.041188,9400.615463
1600.901919,-306.438199,518.144159,8068.244768
1600.902237,229.828649,-0.000000,8660.409521
1600.902554,919.314598,-0.000000,9326.594869
1600.902871,2145.067394,370.102971,8512.368333
1600.903189,2374.896044,518.144159,7624.121203
1600.903506,2298.286494,148.041188,8734.430116
1600.903823,1915.238745,-0.000000,8586.388927
1600.904140,1378.971896,666.185348,7994.224174
1600.904458,1225.752797,222.061783,8512.368333
1600.904775,229.828649,-296.082377,9252.574275
1600.905092,-766.095498,-518.144159,10881.027347
1600.905410,-1532.190996,-666.185348,10881.027347
1600.905727,-1608.800546,-814.226536,10955.047942
1600.906044,-2298.286494,-1628.453072,11399.171507
1600.906362,-1532.190996,-1554.432478,12435.459826
1600.906679,-766.095498,-888.247130,11473.192101
1600.906996,76.609550,592.164754,9770.718434
1600.907313,1532.190996,148.041188,9770.718434
1600.907631,2298.286494,296.082377,10140.821405
1600.907948,3753.867940,222.061783,8956.491898
1600.908265,4136.915689,1480.411884,7476.080014
1600.908583,4290.134789,888.247130,8734.430116
1600.908900,4213.525239,740.205942,8734.430116
1600.909217,4519.963438,1258.350101,7550.100608
1600.909535,3600.648841,888.247130,7698.141797
1600.909852,2374.896044,148.041188,9178.553681
1600.910169,1302.362347,-0.000000,9770.718434
1600.910486,1378.971896,-0.000000,9844.739029
1600.910804,1302.362347,-0.000000,10807.006753
1600.911121,536.266849,-666.185348,11177.109724
1600.911438,306.438199,-370.102971,11695.253884
1600.911756,689.485948,666.185348,10658.965565
1600.912073,1302.362347,1258.350101,9696.697840
1600.912390,1762.019645,1480.411884,9474.636058
1600.912708,2528.115143,1628.453072,9474.636058
1600.913025,3064.381992,1850.514855,8142.265362
1600.913342,3140.991542,1554.432478,7550.100608
1600.913659,2987.772442,740.205942,7772.162391
1600.913977,2911.162892,148.041188,8290.306550
1600.914294,2451.505594,740.205942,7772.162391
1600.914611,1608.800546,814.226536,7105.977043
1600.914929,459.657299,-148.041188,8512.368333
1600.915246,-153.219100,-370.102971,9918.759623
1600.915563,-919.314598,-370.102971,10362.883188
1600.915881,-1455.581446,296.082377,10214.842000
1600.916198,-1608.800546,-0.000000,10807.006753
1600.916515,-1532.190996,-0.000000,11325.150913
1600.916832,-1608.800546,962.267725,10066.800811
1600.917150,-995.924147,1776.494261,9030.512492
1600.917467,-842.705048,1184.329507,9252.574275
1600.917784,-536.266849,888.247130,9548.656652
1600.918102,383.047749,1628.453072,9030.512492
1600.918419,459.657299,1036.288319,8068.244768
1600.918736,153.219100,148.041188,8438.347739
1600.919054,0.000000,-666.185348,9030.512492
1600.919371,-383.047749,-666.185348,8290.306550
1600.919688,-842.705048,-1110.308913,8438.347739
1600.920005,-1225.752797,-1406.391290,9104.533087
1600.920323,-2145.067394,-1776.494261,10214.842000
1600.920640,-1378.971896,-1110.308913,10362.883188
1600.920957,-1608.800546,-222.061783,9844.739029
1600.921275,-1149.143247,-0.000000,10955.047942
1600.921592,-536.266849,370.102971,10881.027347
1600.921909,306.438199,1406.391290,9992.780217
1600.922226,1455.581446,1702.473667,9252.574275
1600.922544,1838.629195,1036.288319,9696.697840
1600.922861,1915.238745,814.226536,10214.842000
1600.923178,2834.553343,1406.391290,8956.491898
1600.923496,3370.820191,1850.514855,8068.244768
1600.923813,3370.820191,740.205942,8734.430116
1600.924130,2834.553343,592.164754,9326.594869
1600.924448,2145.067394,666.185348,8512.368333
1600.924765,1149.143247,-0.000000,8660.409521
1600.925082,306.438199,-1036.288319,10066.800811
1600.925399,-229.828649,-2072.576638,11399.171507
1600.925717,0.000000,-1702.473667,11251.130318
1600.926034,-76.609550,-1628.453072,11325.150913
1600.926351,-383.047749,-1702.473667,11843.295072
1600.926669,689.485948,-592.164754,11769.274478
1600.926986,1762.019645,888.247130,10436.903782
1600.927303,2757.943793,1258.350101,9252.574275
1600.927621,3064.381992,1776.494261,8512.368333
1600.927938,4519.963438,1332.370696,9104.533087
1600.928255,4903.011187,2146.597232,7920.203579
1600.928573,4749.792088,1776.494261,7254.018232
1600.928890,3294.210641,296.082377,8512.368333
1600.929207,2987.772442,-0.000000,9104.533087
1600.929525,1838.629195,-370.102971,8364.327145
1600.929842,459.657299,-814.226536,8660.409521
1600.930159,-842.705048,-1184.329507,10066.800811
1600.930477,-1685.410096,-1480.411884,10362.883188
1600.930794,-1915.238745,-1110.308913,10362.883188
1600.931111,-2451.505594,-1332.370696,10807.006753
1600.931429,-2834.553343,-1776.494261,11177.109724
1600.931746,-2374.896044,-1110.308913,11399.171507
1600.932063,-1915.238745,-592.164754,10214.842000
1600.932381,-153.219100,666.185348,9178.553681
1600.932698,229.828649,666.185348,8956.491898
1600.933015,1532.190996,1332.370696,8734.430116
1600.933333,2987.772442,1924.535449,7624.121203
1600.933650,3753.867940,2368.659014,6957.935855
1600.933967,3447.429741,2220.617826,6661.853478
1600.934285,3064.381992,1998.556043,6957.935855
1600.934602,2374.896044,1628.453072,7105.977043
1600.934919,1149.143247,888.247130,7624.121203
1600.935237,-459.657299,-592.164754,9474.636058
1600.935554,-1532.190996,-814.226536,10362.883188
1600.935871,-1991.848295,-962.267725,10732.986159
1600.936189,-2068.457845,-814.226536,10658.965565
1600.936506,-2068.457845,-962.267725,11547.212695
1600.936823,-1532.190996,-740.205942,10658.965565
1600.937141,-306.438199,1110.308913,9178.553681
1600.937458,1149.143247,1332.370696,7920.203579
1600.937775,1608.800546,1258.350101,8438.347739
1600.938093,2604.724693,1628.453072,8586.388927
1600.938410,3064.381992,1924.535449,7328.038826
1600.938727,3600.648841,1702.473667,7179.997637
1600.939045,3217.601092,1110.308913,8142.265362
1600.939362,2604.724693,1258.350101,7994.224174
1600.939679,2374.896044,1110.308913,7920.203579
1600.939997,995.924147,296.082377,8586.388927
1600.940314,153.219100,-592.164754,10066.800811
1600.940631,-689.485948,-666.185348,10807.006753
1600.940948,-1302.362347,-666.185348,11103.089130
1600.941266,-2145.067394,-740.205942,11177.109724
1600.941583,-2145.067394,-1184.329507,12139.377449
1600.941900,-2068.457845,-148.041188,11917.315666
1600.942218,-842.705048,444.123565,10881.027347
1600.942535,-536.266849,666.185348,9918.759623
1600.942852,689.485948,74.020594,10436.903782
1600.943170,1685.410096,148.041188,9992.780217
1600.943487,2681.334243,740.205942,8216.285956
1600.943804,3217.601092,-0.000000,8290.306550
1600.944122,3217.601092,-666.185348,9030.512492
1600.944439,3524.039291,-0.000000,8660.409521
1600.944756,2451.505594,666.185348,7550.100608
1600.945074,1455.581446,-74.020594,8956.491898
1600.945391,536.266849,-296.082377,10362.883188
1600.945708,0.000000,-1258.350101,11029.068536
1600.946026,-306.438199,-888.247130,11399.171507
1600.946343,-842.705048,-1480.411884,11917.315666
1600.946660,-995.924147,-962.267725,12065.356855
1600.946978,0.000000,-444.123565,12139.377449
1600.947295,612.876398,592.164754,10362.883188
1600.947612,1762.019645,592.164754,9844.739029
1600.947930,1915.238745,444.123565,9696.697840
1600.948247,2834.553343,1184.329507,9178.553681
1600.948564,3447.429741,1406.391290,8068.244768
1600.948882,3447.429741,1628.453072,7179.997637
1600.949199,2834.553343,888.247130,7254.018232
1600.949516,2145.067394,592.164754,6513.812290
1600.949834,766.095498,-0.000000,6883.915261
1600.950151,229.828649,-1480.411884,8438.347739
1600.950468,-689.485948,-2368.659014,10658.965565
1600.950786,-1455.581446,-2220.617826,10510.924376
1600.951103,-2068.457845,-1554.432478,10436.903782
1600.951420,-2221.676944,-888.247130,11177.109724
1600.951738,-1838.629195,-666.185348,11251.130318
1600.952055,-1762.019645,222.061783,10214.842000
1600.952372,-1149.143247,1406.391290,9252.574275
1600.952690,-1378.971896,1850.514855,8512.368333
1600.953007,612.876398,1628.453072,9622.677246
1600.953324,1685.410096,2368.659014,8882.471304
1600.953642,2451.505594,1628.453072,7846.182985
1600.953959,1838.629195,444.123565,7031.956449
1600.954276,1991.848295,-296.082377,8068.244768
1600.954594,1838.629195,-1036.288319,7476.080014
1600.954911,1608.800546,-1036.288319,7105.977043
1600.955228,459.657299,-1702.473667,8216.285956
1600.955546,-919.314598,-1850.514855,9918.759623
1600.955863,-1072.533697,-814.226536,9696.697840
1600.956180,-1149.143247,-666.185348,9030.512492
1600.956498,-1991.848295,-1036.288319,10066.800811
1600.956815,-1608.800546,-740.205942,11177.109724
1600.957132,-1302.362347,296.082377,9770.718434
1600.957450,0.000000,888.247130,9474.636058
1600.957767,842.705048,-0.000000,10362.883188
1600.958084,1302.362347,444.123565,10362.883188
1600.958402,2757.943793,1110.308913,8956.491898
1600.958719,4060.306139,1628.453072,7402.059420
1600.959036,3830.477490,1332.370696,7476.080014
1600.959354,3830.477490,444.123565,8882.471304
1600.959671,3294.210641,1628.453072,7624.121203
1600.959988,2834.553343,1998.556043,7402.059420
1600.960306,1838.629195,1258.350101,8068.244768
1600.960623,842.705048,-0.000000,9992.780217
1600.960940,689.485948,-296.082377,9474.636058
1600.961258,689.485948,222.061783,9252.574275
1600.961575,0.000000,-518.144159,10510.924376
1600.961892,-459.657299,-1332.370696,11843.295072
1600.962210,-383.047749,-740.205942,11399.171507
1600.962527,0.000000,518.144159,10214.842000
1600.962844,383.047749,814.226536,10510.924376
1600.963162,766.095498,1110.308913,10510.924376
1600.963479,1762.019645,2072.576638,9696.697840
1600.963796,2757.943793,2664.741391,8364.327145
1600.964114,2911.162892,1406.391290,8586.388927
1600.964431,2911.162892,740.205942,9326.594869
1600.964748,3064.381992,1036.288319,8438.347739
1600.965066,2374.896044,1554.432478,7920.203579
1600.965383,1685.410096,592.164754,8660.409521
1600.965700,306.438199,-592.164754,10362.883188
1600.966018,-383.047749,-370.102971,10955.047942
1600.966335,-1072.533697,-222.061783,11177.109724
1600.966652,-2145.067394,-962.267725,11769.274478
1600.966970,-2451.505594,-1258.350101,12731.542202
1600.967287,-2145.067394,-518.144159,11621.233289
1600.967604,-1685.410096,444.123565,10140.821405
1600.967922,-766.095498,296.082377,9696.697840
1600.968239,0.000000,518.144159,10362.883188
1600.968556,1225.752797,962.267725,9474.636058
1600.968874,2145.067394,1406.391290,8586.388927
1600.969191,2068.457845,1406.391290,8956.491898
1600.969508,2068.457845,1036.288319,9104.533087
1600.969825,1915.238745,962.267725,8364.327145
1600.970143,1225.752797,1110.308913,7994.224174
1600.970460,842.705048,666.185348,9178.553681
1600.970777,689.485948,518.144159,9918.759623
1600.971095,383.047749,-0.000000,10214.842000
1600.971412,0.000000,-0.000000,10362.883188
1600.971729,-536.266849,-370.102971,10140.821405
1600.972047,-229.828649,-148.041188,10436.903782
1600.972364,0.000000,518.144159,9770.718434
1600.972681,-306.438199,1184.329507,8808.450710
1600.972999,229.828649,962.267725,8512.368333
1600.973316,612.876398,518.144159,9400.615463
1600.973633,1455.581446,592.164754,8808.450710
1600.973951,1608.800546,592.164754,7846.182985
1600.974268,2068.457845,-222.061783,8142.265362
1600.974585,1608.800546,-222.061783,8142.265362
1600.974903,2068.457845,-222.061783,7476.080014
1600.975220,1685.410096,-0.000000,7105.977043
1600.975537,842.705048,-222.061783,8216.285956
1600.975855,766.095498,-518.144159,9252.574275
1600.976172,229.828649,222.061783,9326.594869
1600.976489,0.000000,-0.000000,9696.697840
1600.976807,-153.219100,-0.000000,10362.883188
1600.977124,-1378.971896,222.061783,10436.903782
1600.977441,0.000000,888.247130,9770.718434
1600.977759,76.609550,962.267725,9178.553681
1600.978076,766.095498,740.205942,9844.739029
1600.978393,1225.752797,370.102971,9474.636058
1600.978711,1991.848295,666.185348,8808.450710
1600.979028,1991.848295,-0.000000,8216.285956
1600.979345,1532.190996,-814.226536,8660.409521
1600.979663,1378.971896,-1554.432478,8808.450710
1600.979980,919.314598,-814.226536,8364.327145
1600.980297,306.438199,-444.123565,8660.409521
1600.980615,0.000000,-1184.329507,9622.677246
1600.980932,-383.047749,-1776.494261,11177.109724
1600.981249,-842.705048,-1406.391290,10658.965565
1600.981567,-1149.143247,-148.041188,9696.697840
1600.981884,-766.095498,-222.061783,10807.006753
1600.982201,76.609550,814.226536,10584.944971
1600.982519,1072.533697,1480.411884,9622.677246
1600.982836,1378.971896,2072.576638,8882.471304
1600.983153,2145.067394,1554.432478,9918.759623
1600.983471,2604.724693,1258.350101,10140.821405
1600.983788,2681.334243,1332.370696,8956.491898
1600.984105,2757.943793,740.205942,9548.656652
1600.984423,1915.238745,444.123565,9474.636058
1600.984740,2068.457845,-0.000000,9400.615463
1600.985057,1608.800546,296.082377,8438.347739
1600.985375,1378.971896,222.061783,9030.512492
1600.985692,689.485948,-592.164754,9178.553681
1600.986009,0.000000,-592.164754,9474.636058
1600.986327,-612.876398,-1850.514855,10807.006753
1600.986644,-383.047749,-962.267725,10362.883188
1600.986961,0.000000,-370.102971,10658.965565
1600.987279,383.047749,370.102971,10510.924376
1600.987596,1072.533697,1776.494261,9548.656652
1600.987913,1915.238745,2368.659014,8216.285956
1600.988231,2451.505594,1776.494261,8512.368333
1600.988548,2911.162892,1702.473667,9178.553681
1600.988865,3753.867940,1406.391290,8660.409521
1600.989183,2604.724693,1628.453072,7179.997637
1600.989500,2604.724693,1258.350101,9474.636058
1600.989817,1991.848295,1184.329507,9178.553681
1600.990135,1455.581446,1628.453072,7920.203579
1600.990452,0.000000,518.144159,8808.450710
1600.990769,-1225.752797,-1406.391290,10140.821405
1600.991087,-1685.410096,-1480.411884,10584.944971
1600.991404,-1149.143247,-1110.308913,11029.068536
1600.991721,-1838.629195,-1480.411884,10807.006753
1600.992039,-1608.800546,-1184.329507,11029.068536
1600.992356,-1532.190996,-740.205942,9992.780217
1600.992673,-383.047749,148.041188,9252.574275
1600.992991,383.047749,592.164754,8068.244768
1600.993308,612.876398,1332.370696,8438.347739
1600.993625,1302.362347,1480.411884,8808.450710
1600.993943,2145.067394,1480.411884,7920.203579
1600.994260,2374.896044,1406.391290,7698.141797
1600.994577,2374.896044,-74.020594,9622.677246
1600.994895,1378.971896,-222.061783,9474.636058
1600.995212,1378.971896,222.061783,8290.306550
1600.995529,153.219100,-222.061783,8882.471304
1600.995847,-766.095498,-592.164754,10807.006753
1600.996164,-1378.971896,-222.061783,11177.109724
1600.996481,-1455.581446,444.123565,10584.944971
1600.996799,-1302.362347,444.123565,10510.924376
1600.997116,-1532.190996,-222.061783,10658.965565
1600.997433,-1149.143247,-148.041188,10732.986159
1600.997751,0.000000,740.205942,9622.677246
1600.998068,536.266849,444.123565,8586.388927
1600.998385,1302.362347,-444.123565,9622.677246
1600.998703,2068.457845,222.061783,9030.512492
1600.999020,3217.601092,592.164754,7846.182985
1600.999337,2911.162892,1036.288319,6883.915261
1600.999654,3064.381992,444.123565,8364.327145
1600.999972,2068.457845,444.123565,7624.121203
1601.000289,2068.457845,962.267725,7550.100608
1601.000606,689.485948,444.123565,7698.141797
1601.000924,-459.657299,-444.123565,10288.862594
1601.001241,-842.705048,-444.123565,11029.068536
1601.001558,-995.924147,-0.000000,10732.986159
1601.001876,-1149.143247,-370.102971,11621.233289
1601.002193,-1225.752797,-518.144159,12139.377449
1601.002510,-612.876398,-148.041188,11473.192101
1601.002828,-306.438199,740.205942,9474.636058
1601.003145,919.314598,1332.370696,9104.533087
1601.003462,766.095498,1702.473667,8142.265362
1601.003780,2834.553343,1554.432478,8734.430116
1601.004097,2834.553343,1184.329507,7105.977043
1601.004414,2834.553343,518.144159,7328.038826
1601.004732,3064.381992,-1406.391290,8438.347739
1601.005049,2145.067394,-1036.288319,8734.430116
1601.005366,1838.629195,-740.205942,8142.265362
1601.005684,1072.533697,-962.267725,8882.471304
1601.006001,0.000000,-1480.411884,10288.862594
1601.006318,-306.438199,-1480.411884,11177.109724
1601.006636,-536.266849,-444.123565,10658.965565
1601.006953,-612.876398,-444.123565,11473.192101
1601.007270,-1225.752797,-370.102971,11991.336260
1601.007588,-689.485948,222.061783,11843.295072
1601.007905,76.609550,1628.453072,10214.842000
1601.008222,919.314598,1554.432478,9622.677246
1601.008540,1608.800546,962.267725,9770.718434
1601.008857,2298.286494,1184.329507,9474.636058
1601.009174,3064.381992,740.205942,8216.285956
1601.009492,3370.820191,222.061783,7846.182985
1601.009809,2604.724693,-148.041188,8142.265362
1601.010126,2451.505594,-0.000000,8216.285956
1601.010444,2145.067394,962.267725,7179.997637
1601.010761,1225.752797,-74.020594,7920.203579
1601.011078,0.000000,-1110.308913,9696.697840
1601.011396,-459.657299,-1184.329507,10584.944971
1601.011713,-995.924147,-518.144159,10214.842000
1601.012030,-766.095498,-740.205942,10362.883188
1601.012348,-842.705048,-444.123565,11473.192101
1601.012665,-689.485948,148.041188,11177.109724
1601.012982,383.047749,1998.556043,9474.636058
1601.013300,1225.752797,2516.700203,8290.306550
1601.013617,2221.676944,1998.556043,8586.388927
1601.013934,2451.505594,2442.679609,7920.203579
1601.014252,2757.943793,2812.782580,7105.977043
1601.014569,2528.115143,1776.494261,6957.935855
1601.014886,2221.676944,-0.000000,8216.285956
1601.015204,1608.800546,-0.000000,7698.141797
1601.015521,842.705048,-0.000000,7550.100608
1601.015838,383.047749,-1036.288319,8512.368333
1601.016156,-766.095498,-1850.514855,9918.759623
1601.016473,-1378.971896,-2368.659014,10288.862594
1601.016790,-1685.410096,-1628.453072,11103.089130
1601.017108,-2145.067394,-1406.391290,11325.150913
1601.017425,-1685.410096,-1110.308913,11547.212695
1601.017742,-1072.533697,-222.061783,11251.130318
1601.018060,-459.657299,1036.288319,9400.615463
1601.018377,306.438199,1184.329507,8808.450710
1601.018694,1455.581446,1332.370696,9104.533087
1601.019012,2681.334243,1480.411884,8956.491898
1601.019329,3370.820191,1184.329507,7772.162391
1601.019646,3140.991542,592.164754,7772.162391
1601.019964,2757.943793,-444.123565,9178.553681
1601.020281,2221.676944,-0.000000,8734.430116
1601.020598,1532.190996,-0.000000,8438.347739
1601.020916,76.609550,-518.144159,9252.574275
1601.021233,-306.438199,-1480.411884,10955.047942
1601.021550,-1685.410096,-1628.453072,10066.800811
1601.021868,-1378.971896,-1702.473667,11325.150913
1601.022185,-1685.410096,-1702.473667,11917.315666
1601.022502,-689.485948,-1332.370696,11991.336260
1601.022820,-306.438199,-0.000000,10436.903782
1601.023137,766.095498,1110.308913,9844.739029
1601.023454,1762.019645,1406.391290,8512.368333
1601.023772,2757.943793,1554.432478,8586.388927
1601.024089,3677.258390,1776.494261,8512.368333
1601.024406,3983.696590,2072.576638,7550.100608
1601.024724,3677.258390,1998.556043,7328.038826
1601.025041,3294.210641,814.226536,8660.409521
1601.025358,2681.334243,592.164754,8660.409521
1601.025676,1455.581446,1036.288319,7402.059420
1601.025993,153.219100,-0.000000,8956.491898
1601.026310,-919.314598,-518.144159,10436.903782
1601.026628,-1378.971896,-814.226536,10584.944971
1601.026945,-1762.019645,-888.247130,10658.965565
1601.027262,-1838.629195,-1036.288319,11917.315666
1601.027580,-2528.115143,-1184.329507,12287.418637
1601.027897,-2145.067394,-296.082377,10881.027347
1601.028214,-1072.533697,814.226536,10066.800811
1601.028532,-229.828649,1332.370696,9622.677246
1601.028849,1072.533697,962.267725,9326.594869
1601.029166,2451.505594,1406.391290,8364.327145
1601.029483,3524.039291,1406.391290,7772.162391
1601.029800,3524.039291,888.247130,7476.080014
1601.030118,3217.601092,518.144159,7994.224174
1601.030435,2451.505594,666.185348,7698.141797
1601.030752,2221.676944,962.267725,7994.224174
1601.031069,1072.533697,-0.000000,8586.388927
1601.031387,-229.828649,-222.061783,9844.739029
1601.031704,-1149.143247,-74.020594,10362.883188
1601.032021,-1378.971896,-592.164754,10807.006753
1601.032338,-1915.238745,-1036.288319,11473.192101
1601.032656,-1991.848295,-888.247130,12731.542202
1601.032973,-1685.410096,-0.000000,11399.171507
1601.033290,-459.657299,370.102971,10214.842000
1601.033607,153.219100,444.123565,9622.677246
1601.033925,842.705048,592.164754,9844.739029
1601.034242,1915.238745,962.267725,9030.512492
1601.034559,2604.724693,1184.329507,7846.182985
1601.034876,2987.772442,592.164754,7846.182985
1601.035194,3217.601092,148.041188,8512.368333
1601.035511,2528.115143,814.226536,7402.059420
1601.035828,2221.676944,888.247130,6883.915261
1601.036145,2068.457845,-296.082377,7920.203579
1601.036463,306.438199,-444.123565,9326.594869
1601.036780,306.438199,-370.102971,10140.821405
1601.037097,459.657299,-148.041188,9844.739029
1601.037414,-383.047749,-222.061783,10584.944971
1601.037732,-306.438199,-0.000000,11399.171507
1601.038049,0.000000,888.247130,9992.780217
1601.038366,306.438199,1776.494261,9178.553681
1601.038683,459.657299,962.267725,9474.636058
1601.039001,995.924147,888.247130,9918.759623
1601.039318,1532.190996,1258.350101,8512.368333
1601.039635,2068.457845,1036.288319,8068.244768
1601.039952,2221.676944,296.082377,9030.512492
1601.040270,2298.286494,-74.020594,8956.491898
1601.040587,2451.505594,-74.020594,7994.224174
1601.040904,2068.457845,-222.061783,7179.997637
1601.041221,1225.752797,-888.247130,8956.491898
1601.041539,536.266849,-1332.370696,10214.842000
1601.041856,383.047749,-962.267725,10436.903782
1601.042173,0.000000,-296.082377,10140.821405
1601.042490,-229.828649,-814.226536,11103.089130
1601.042808,0.000000,148.041188,11177.109724
1601.043125,536.266849,1480.411884,10436.903782
1601.043442,1302.362347,2442.679609,8660.409521
1601.043759,1532.190996,1258.350101,8882.471304
1601.044076,1915.238745,1036.288319,9474.636058
1601.044394,2221.676944,814.226536,8956.491898
1601.044711,2145.067394,296.082377,8364.327145
1601.045028,1072.533697,-592.164754,9474.636058
1601.045345,153.219100,-1036.288319,9474.636058
1601.045663,-229.828649,-0.000000,8808.450710
1601.045980,-766.095498,444.123565,8438.347739
1601.046297,-1378.971896,-814.226536,10436.903782
1601.046614,-1762.019645,-1850.514855,10881.027347
1601.046932,-1915.238745,-1110.308913,10584.944971
1601.047249,-1532.190996,-888.247130,10584.944971
1601.047566,-1762.019645,-740.205942,11251.130318
1601.047883,-766.095498,-0.000000,11029.068536
1601.048201,0.000000,1332.370696,9474.636058
1601.048518,689.485948,2368.659014,8438.347739
1601.048835,1225.752797,1776.494261,8882.471304
1601.049152,2068.457845,2146.597232,8734.430116
1601.049470,2911.162892,1702.473667,7550.100608
1601.049787,3217.601092,1406.391290,7550.100608
1601.050104,2528.115143,74.020594,8364.327145
1601.050421,1915.238745,-148.041188,8586.388927
1601.050739,1302.362347,-0.000000,8068.244768
1601.051056,306.438199,-74.020594,8290.306550
1601.051373,-842.705048,-888.247130,10140.821405
1601.051690,-1378.971896,-1110.308913,11177.109724
1601.052008,-995.924147,-518.144159,10732.986159
1601.052325,-1072.533697,-296.082377,10807.006753
1601.052642,-919.314598,-1036.288319,11325.150913
1601.052959,-612.876398,-444.123565,11029.068536
1601.053277,689.485948,1110.308913,9474.636058
1601.053594,1685.410096,1480.411884,8808.450710
1601.053911,2451.505594,1184.329507,8808.450710
1601.054228,3677.258390,1480.411884,8734.430116
1601.054546,4519.963438,1480.411884,7698.141797
1601.054863,4443.353888,1554.432478,7402.059420
1601.055180,4060.306139,666.185348,8142.265362
1601.055497,3370.820191,148.041188,8512.368333
1601.055815,2068.457845,-0.000000,7476.080014
1601.056132,689.485948,-444.123565,8438.347739
1601.056449,-459.657299,-1406.391290,10066.800811
1601.056766,-1149.143247,-1554.432478,11251.130318
1601.057083,-1455.581446,-814.226536,11695.253884
1601.057401,-1608.800546,-1258.350101,11695.253884
1601.057718,-1762.019645,-1184.329507,11917.315666
