#time,accel_x,accel_y,accel_z
1874.414078,1685.410096,4515.256246,11917.315666
1874.414395,2298.286494,3627.009116,12213.398043
1874.414713,2221.676944,3478.967927,11991.336260
1874.415031,1225.752797,3108.864956,12583.501014
1874.415348,76.609550,2664.741391,13175.665768
1874.415666,0.000000,2442.679609,14359.995275
1874.415984,-1225.752797,2886.803174,14211.954086
1874.416301,-1608.800546,2812.782580,13841.851115
1874.416619,-995.924147,2072.576638,13989.892304
1874.416936,-383.047749,1702.473667,12953.603985
1874.417254,842.705048,1258.350101,12509.480420
1874.417572,1378.971896,962.267725,10881.027347
1874.417889,1685.410096,370.102971,10807.006753
1874.418207,1608.800546,-0.000000,10288.862594
1874.418525,995.924147,222.061783,9992.780217
1874.418842,153.219100,296.082377,10140.821405
1874.419160,-766.095498,592.164754,10140.821405
1874.419477,-1685.410096,1184.329507,9548.656652
1874.419795,-1991.848295,666.185348,9548.656652
1874.420113,-1072.533697,-370.102971,10362.883188
1874.420430,-1302.362347,-1110.308913,9474.636058
1874.420748,-612.876398,-1554.432478,9252.574275
1874.421066,76.609550,-1850.514855,8956.491898
1874.421383,383.047749,-1924.535449,8364.327145
1874.421701,1149.143247,-1702.473667,7920.203579
1874.422018,306.438199,-888.247130,8068.244768
1874.422336,-153.219100,-0.000000,7846.182985
1874.422654,-536.266849,-0.000000,7698.141797
1874.422971,0.000000,-0.000000,7476.080014
1874.423289,-612.876398,-222.061783,7550.100608
1874.423607,0.000000,-962.267725,6735.874072
1874.423924,766.095498,-1480.411884,6513.812290
1874.424242,1455.581446,-2072.576638,6291.750507
1874.424560,2068.457845,-2220.617826,6069.688724
1874.424877,2451.505594,-1776.494261,5847.626942
1874.425195,2298.286494,-1850.514855,5625.565159
1874.425512,1762.019645,-1850.514855,6069.688724
1874.425830,1302.362347,-1998.556043,6809.894666
1874.426148,229.828649,-2146.597232,6809.894666
1874.426465,0.000000,-2294.638420,6957.935855
1874.426783,-612.876398,-2146.597232,7179.997637
1874.427101,-1149.143247,-2146.597232,7179.997637
1874.427418,-1532.190996,-1998.556043,7105.977043
1874.427736,-2221.676944,-1998.556043,7105.977043
1874.428053,-2604.724693,-1628.453072,7105.977043
1874.428371,-3600.648841,-1036.288319,7624.121203
1874.428689,-4366.744339,-444.123565,7994.224174
1874.429006,-5209.449386,-74.020594,8290.306550
1874.429324,-5745.716235,740.205942,8512.368333
1874.429642,-6358.592633,1924.535449,8882.471304
1874.429959,-6741.640382,2294.638420,8956.491898
1874.430277,-6818.249932,2590.720797,9030.512492
1874.430594,-6511.811733,3182.885551,9252.574275
1874.430912,-5975.544884,3775.050304,9326.594869
1874.431230,-6281.983084,4589.276840,8660.409521
1874.431547,-5975.544884,5033.400406,8512.368333
1874.431865,-5132.839837,5995.668130,8438.347739
1874.432183,-4903.011187,6587.832884,8290.306550
1874.432500,-4749.792088,7105.977043,8512.368333
1874.432818,-4366.744339,7476.080014,8660.409521
1874.433135,-4213.525239,7624.121203,8882.471304
1874.433453,-4290.134789,7772.162391,9104.533087
1874.433771,-3907.087040,7994.224174,9326.594869
1874.434088,-3217.601092,8216.285956,10066.800811
1874.434406,-1991.848295,8512.368333,9918.759623
1874.434724,-842.705048,8216.285956,10436.903782
1874.435041,612.876398,7254.018232,10362.883188
1874.435359,1072.533697,7772.162391,9622.677246
1874.435677,2145.067394,7031.956449,10214.842000
1874.435994,2451.505594,7179.997637,10658.965565
1874.436312,2757.943793,7031.956449,10732.986159
1874.436629,3370.820191,7624.121203,9696.697840
1874.436947,3677.258390,7105.977043,10288.862594
1874.437265,3294.210641,6809.894666,11029.068536
1874.437582,2987.772442,5403.503377,11917.315666
1874.437900,1915.238745,4441.235652,12879.583391
1874.438218,1225.752797,3552.988522,13175.665768
1874.438535,1149.143247,3330.926739,13175.665768
1874.438853,1225.752797,3478.967927,13545.768739
1874.439170,1608.800546,2738.761985,14285.974681
1874.439488,1455.581446,3330.926739,13249.686362
1874.439806,1608.800546,3034.844362,13027.624579
1874.440123,1532.190996,2516.700203,13249.686362
1874.440441,995.924147,1110.308913,14063.912898
1874.440759,229.828649,-222.061783,14137.933492
1874.441076,0.000000,-1036.288319,14137.933492
1874.441394,153.219100,-740.205942,13915.871710
1874.441711,919.314598,-370.102971,13249.686362
1874.442029,2221.676944,-888.247130,12361.439231
1874.442347,2374.896044,-1258.350101,11769.274478
1874.442664,2298.286494,-1480.411884,10881.027347
1874.442982,2451.505594,-1628.453072,10214.842000
1874.443300,1991.848295,-1998.556043,10807.006753
1874.443617,1532.190996,-2886.803174,10881.027347
1874.443934,842.705048,-3330.926739,10436.903782
1874.444251,689.485948,-3108.864956,10214.842000
1874.444569,1378.971896,-3034.844362,9844.739029
1874.444886,2221.676944,-2590.720797,8882.471304
1874.445203,2451.505594,-2294.638420,7772.162391
1874.445520,2987.772442,-2516.700203,7179.997637
1874.445838,2757.943793,-3108.864956,6587.832884
1874.446155,2145.067394,-3182.885551,6883.915261
1874.446472,1838.629195,-3849.070898,7105.977043
1874.446790,1378.971896,-3849.070898,7105.977043
1874.447107,1149.143247,-3478.967927,6809.894666
1874.447424,995.924147,-2220.617826,6365.771101
1874.447741,919.314598,-1850.514855,5921.647536
1874.448059,842.705048,-2220.617826,5699.585753
1874.448376,919.314598,-2220.617826,5477.523971
1874.448693,612.876398,-2664.741391,4885.359217
1874.449010,0.000000,-2960.823768,4885.359217
1874.449328,0.000000,-3627.009116,5181.441594
1874.449645,-306.438199,-3997.112087,5551.544565
1874.449962,-459.657299,-3552.988522,5551.544565
1874.450279,-766.095498,-2664.741391,5477.523971
1874.450597,-842.705048,-1776.494261,5699.585753
1874.450914,-919.314598,-1702.473667,5551.544565
1874.451231,-1302.362347,-1184.329507,5625.565159
1874.451549,-1532.190996,-1554.432478,5847.626942
1874.451866,-2221.676944,-1850.514855,6217.729913
1874.452183,-1532.190996,-2368.659014,6661.853478
1874.452500,-1532.190996,-1998.556043,7328.038826
1874.452818,-1149.143247,-1258.350101,8216.285956
1874.453135,-766.095498,-222.061783,8364.327145
1874.453452,-229.828649,1258.350101,7624.121203
1874.453769,0.000000,2146.597232,7772.162391
1874.454087,459.657299,2812.782580,7550.100608
1874.454404,919.314598,3256.906145,7476.080014
1874.454721,1072.533697,3552.988522,7476.080014
1874.455038,1685.410096,3034.844362,7846.182985
1874.455356,1838.629195,3108.864956,8438.347739
1874.455673,1762.019645,3034.844362,9474.636058
1874.455990,1762.019645,3552.988522,10066.800811
1874.456308,1762.019645,4293.194464,10510.924376
1874.456625,1302.362347,4737.318029,10807.006753
1874.456942,1072.533697,5329.482782,11251.130318
1874.457259,995.924147,5551.544565,11325.150913
1874.457577,919.314598,5403.503377,11695.253884
1874.457894,766.095498,4515.256246,12213.398043
1874.458211,383.047749,4071.132681,13101.645173
1874.458528,153.219100,4145.153275,13101.645173
1874.458846,-229.828649,4219.173869,13471.748144
1874.459163,-459.657299,3404.947333,13693.809927
1874.459480,-306.438199,3923.091493,13767.830521
1874.459797,0.000000,4367.215058,12953.603985
1874.460115,153.219100,4219.173869,12731.542202
1874.460432,76.609550,3849.070898,13101.645173
1874.460749,0.000000,3256.906145,13175.665768
1874.461067,-306.438199,2294.638420,13027.624579
1874.461384,-995.924147,1776.494261,13471.748144
1874.461701,-1225.752797,1332.370696,14137.933492
1874.462018,-1302.362347,1480.411884,13693.809927
1874.462336,-1149.143247,2146.597232,13693.809927
1874.462653,-229.828649,2738.761985,13175.665768
1874.462970,-229.828649,2960.823768,12435.459826
1874.463287,0.000000,2516.700203,11917.315666
1874.463605,0.000000,2294.638420,11399.171507
1874.463922,153.219100,1406.391290,11177.109724
1874.464239,306.438199,962.267725,10955.047942
1874.464556,229.828649,888.247130,11399.171507
1874.464874,306.438199,1036.288319,11029.068536
1874.465191,919.314598,1184.329507,10955.047942
1874.465508,1455.581446,1184.329507,10214.842000
1874.465826,2221.676944,1110.308913,9474.636058
1874.466143,2145.067394,1258.350101,8956.491898
1874.466460,2451.505594,740.205942,8216.285956
1874.466777,2681.334243,-74.020594,7624.121203
1874.467095,2911.162892,-888.247130,7476.080014
1874.467412,3140.991542,-1036.288319,7328.038826
1874.467729,2757.943793,-1258.350101,7105.977043
1874.468046,2528.115143,-1480.411884,7402.059420
1874.468364,2451.505594,-1998.556043,7402.059420
1874.468681,2451.505594,-2072.576638,6883.915261
1874.468998,2374.896044,-2368.659014,6513.812290
1874.469315,2298.286494,-3182.885551,6291.750507
1874.469633,1838.629195,-4071.132681,6143.709319
1874.469950,1455.581446,-4811.338623,6217.729913
1874.470267,1378.971896,-5255.462188,5995.668130
1874.470585,612.876398,-5551.544565,6809.894666
1874.470902,842.705048,-5477.523971,7328.038826
1874.471219,459.657299,-4885.359217,7254.018232
1874.471536,153.219100,-4219.173869,7105.977043
1874.471854,0.000000,-4071.132681,7105.977043
1874.472171,229.828649,-4145.153275,6587.832884
1874.472488,153.219100,-4367.215058,6587.832884
1874.472805,0.000000,-4663.297435,7105.977043
1874.473123,0.000000,-4811.338623,7550.100608
1874.473440,153.219100,-5181.441594,7772.162391
1874.473757,153.219100,-4589.276840,8216.285956
1874.474074,459.657299,-3552.988522,7846.182985
1874.474392,842.705048,-2664.741391,7698.141797
1874.474709,842.705048,-1998.556043,7328.038826
1874.475026,995.924147,-1332.370696,7105.977043
1874.475344,1302.362347,-1184.329507,7105.977043
1874.475661,1149.143247,-1628.453072,7624.121203
1874.475978,995.924147,-1998.556043,8142.265362
1874.476295,1225.752797,-1776.494261,8660.409521
1874.476613,919.314598,-1258.350101,8882.471304
1874.476930,1455.581446,-518.144159,9400.615463
1874.477247,2374.896044,518.144159,9178.553681
1874.477564,2681.334243,1184.329507,9104.533087
1874.477882,2911.162892,1628.453072,9030.512492
1874.478199,2987.772442,1554.432478,9326.594869
1874.478516,2911.162892,1628.453072,9178.553681
1874.478833,3064.381992,1776.494261,9474.636058
1874.479151,2911.162892,1702.473667,9474.636058
1874.479468,2987.772442,2294.638420,9918.759623
1874.479785,2528.115143,2442.679609,10214.842000
1874.480103,2604.724693,3034.844362,10436.903782
1874.480420,2298.286494,2960.823768,10807.006753
1874.480737,1532.190996,2886.803174,10584.944971
1874.481054,689.485948,2590.720797,10807.006753
1874.481372,612.876398,2368.659014,11251.130318
1874.481689,76.609550,1998.556043,11695.253884
1874.482006,-612.876398,2294.638420,12139.377449
1874.482323,-842.705048,2812.782580,12583.501014
1874.482641,-842.705048,3182.885551,12657.521608
1874.482958,-1762.019645,3330.926739,12657.521608
1874.483275,-1762.019645,3701.029710,12731.542202
1874.483592,-1532.190996,3775.050304,12213.398043
1874.483910,-1532.190996,3775.050304,12287.418637
1874.484227,-1532.190996,3034.844362,11917.315666
1874.484544,-1455.581446,2368.659014,11917.315666
1874.484862,-1455.581446,1850.514855,11991.336260
1874.485179,-1455.581446,1776.494261,11991.336260
1874.485496,-1532.190996,1850.514855,12213.398043
1874.485813,-1455.581446,2146.597232,12065.356855
1874.486131,-1302.362347,2664.741391,11473.192101
1874.486448,-1072.533697,3330.926739,11103.089130
1874.486765,-689.485948,1850.514855,10214.842000
1874.487082,-459.657299,2072.576638,10436.903782
1874.487400,-536.266849,518.144159,10362.883188
1874.487717,-459.657299,-0.000000,9474.636058
1874.488034,-383.047749,-74.020594,9400.615463
1874.488351,0.000000,444.123565,9844.739029
1874.488669,76.609550,444.123565,9770.718434
1874.488986,306.438199,740.205942,9548.656652
1874.489303,689.485948,148.041188,9326.594869
1874.489621,1302.362347,148.041188,8882.471304
1874.489938,1991.848295,-0.000000,8512.368333
1874.490255,2451.505594,-296.082377,8512.368333
1874.490572,2528.115143,-1258.350101,8068.244768
1874.490890,2451.505594,-1850.514855,8068.244768
1874.491207,2374.896044,-1258.350101,8068.244768
1874.491524,3064.381992,-1036.288319,7698.141797
1874.491841,3217.601092,-1480.411884,7772.162391
1874.492159,3370.820191,-1628.453072,7624.121203
1874.492476,3294.210641,-1628.453072,7328.038826
1874.492793,3524.039291,-2294.638420,7624.121203
1874.493111,2834.553343,-3552.988522,7328.038826
1874.493428,2757.943793,-4145.153275,7476.080014
1874.493745,2681.334243,-4737.318029,7624.121203
1874.494062,2451.505594,-4441.235652,7994.224174
1874.494380,2451.505594,-4441.235652,8660.409521
1874.494697,2145.067394,-4441.235652,8364.327145
1874.495014,2451.505594,-3478.967927,8142.265362
1874.495331,2528.115143,-2960.823768,7994.224174
1874.495649,2834.553343,-2738.761985,7179.997637
1874.495966,2681.334243,-3182.885551,7402.059420
1874.496283,2451.505594,-4071.132681,7624.121203
1874.496600,1915.238745,-4441.235652,8216.285956
1874.496918,1915.238745,-4663.297435,8142.265362
1874.497235,1608.800546,-4293.194464,8438.347739
1874.497552,1838.629195,-3404.947333,8586.388927
1874.497870,1915.238745,-2664.741391,8216.285956
1874.498187,1838.629195,-2146.597232,7772.162391
1874.498504,1991.848295,-1554.432478,7550.100608
1874.498821,1532.190996,-1776.494261,7476.080014
1874.499139,1072.533697,-2368.659014,7994.224174
1874.499456,689.485948,-2442.679609,8216.285956
1874.499773,76.609550,-2442.679609,9030.512492
1874.500090,536.266849,-1776.494261,9770.718434
1874.500408,229.828649,-962.267725,10066.800811
1874.500725,842.705048,370.102971,9548.656652
1874.501042,1302.362347,1258.350101,9474.636058
1874.501359,1149.143247,1776.494261,9104.533087
1874.501677,1225.752797,1702.473667,8808.450710
1874.501994,1225.752797,1110.308913,8882.471304
1874.502311,1915.238745,1628.453072,9474.636058
1874.502629,1455.581446,1406.391290,9030.512492
1874.502946,1608.800546,2220.617826,9104.533087
1874.503263,1455.581446,2368.659014,9474.636058
1874.503580,1455.581446,2590.720797,9844.739029
1874.503898,919.314598,2812.782580,9844.739029
1874.504215,459.657299,2886.803174,9918.759623
1874.504532,0.000000,2738.761985,10066.800811
1874.504849,153.219100,2146.597232,9844.739029
1874.505167,0.000000,2220.617826,11103.089130
1874.505484,-459.657299,2146.597232,10955.047942
1874.505801,-383.047749,2072.576638,11251.130318
1874.506118,-536.266849,2960.823768,11103.089130
1874.506436,-153.219100,3256.906145,11325.150913
1874.506753,-536.266849,3923.091493,11325.150913
1874.507070,-306.438199,4071.132681,11325.150913
1874.507388,-153.219100,4071.132681,10807.006753
1874.507705,-229.828649,3775.050304,10362.883188
1874.508022,459.657299,3478.967927,10658.965565
1874.508339,0.000000,3108.864956,10510.924376
1874.508657,0.000000,2442.679609,10881.027347
1874.508974,-153.219100,2368.659014,11177.109724
1874.509291,-459.657299,2516.700203,11399.171507
1874.509608,-612.876398,2664.741391,11251.130318
1874.509926,-536.266849,3256.906145,10807.006753
1874.510243,-153.219100,3330.926739,10436.903782
1874.510560,-612.876398,2738.761985,10362.883188
1874.510877,-383.047749,1924.535449,10288.862594
1874.511195,-536.266849,1110.308913,10881.027347
1874.511512,-842.705048,740.205942,10362.883188
1874.511829,-1072.533697,-296.082377,11177.109724
1874.512147,-919.314598,296.082377,11177.109724
1874.512464,-229.828649,888.247130,10807.006753
1874.512781,0.000000,1184.329507,9696.697840
1874.513098,229.828649,1332.370696,9844.739029
1874.513416,536.266849,1480.411884,9178.553681
1874.513733,612.876398,296.082377,8734.430116
1874.514050,383.047749,-0.000000,8364.327145
1874.514367,612.876398,-1036.288319,9178.553681
1874.514685,0.000000,-1554.432478,8956.491898
1874.515002,0.000000,-1776.494261,8882.471304
1874.515319,0.000000,-1776.494261,9400.615463
1874.515636,0.000000,-1184.329507,9252.574275
1874.515954,229.828649,-1406.391290,8512.368333
1874.516271,306.438199,-1258.350101,8290.306550
1874.516588,919.314598,-1258.350101,8142.265362
1874.516906,459.657299,-1776.494261,7698.141797
1874.517223,536.266849,-1554.432478,7846.182985
1874.517540,459.657299,-2220.617826,8512.368333
1874.517857,766.095498,-2072.576638,8586.388927
1874.518175,1072.533697,-1554.432478,8586.388927
1874.518492,1532.190996,-1110.308913,8512.368333
1874.518809,1838.629195,-518.144159,8068.244768
1874.519126,2451.505594,-370.102971,7624.121203
1874.519444,2757.943793,-444.123565,7476.080014
1874.519761,3140.991542,-666.185348,7105.977043
1874.520078,2911.162892,-888.247130,7254.018232
1874.520395,2911.162892,-1036.288319,7402.059420
1874.520713,2604.724693,-1110.308913,7772.162391
1874.521030,3064.381992,-1332.370696,8216.285956
1874.521347,2604.724693,-740.205942,8216.285956
1874.521665,2528.115143,-148.041188,8142.265362
1874.521982,2528.115143,-0.000000,7846.182985
1874.522299,2374.896044,-0.000000,7920.203579
1874.522616,2374.896044,-222.061783,7920.203579
1874.522934,2068.457845,-962.267725,8364.327145
1874.523251,1685.410096,-814.226536,8808.450710
1874.523568,1225.752797,-814.226536,9252.574275
1874.523885,1225.752797,-74.020594,9474.636058
1874.524203,1225.752797,370.102971,10066.800811
1874.524520,919.314598,740.205942,10584.944971
1874.524837,766.095498,1554.432478,9918.759623
1874.525154,536.266849,1480.411884,9474.636058
1874.525472,689.485948,1776.494261,9400.615463
1874.525789,612.876398,1628.453072,9770.718434
1874.526106,76.609550,1110.308913,9622.677246
1874.526424,0.000000,1036.288319,9770.718434
1874.526741,-306.438199,1258.350101,10288.862594
1874.527058,-842.705048,1850.514855,10288.862594
1874.527375,-842.705048,1998.556043,10955.047942
1874.527693,-1072.533697,2516.700203,10288.862594
1874.528010,-1608.800546,2516.700203,10584.944971
1874.528327,-2145.067394,2664.741391,10510.924376
1874.528644,-1838.629195,2516.700203,10732.986159
1874.528962,-1762.019645,1850.514855,11103.089130
1874.529279,-1991.848295,1924.535449,11177.109724
1874.529596,-2145.067394,1850.514855,11399.171507
1874.529913,-1915.238745,2294.638420,11769.274478
1874.530231,-1225.752797,2516.700203,11473.192101
1874.530548,-919.314598,3034.844362,11325.150913
1874.530865,-536.266849,3404.947333,10732.986159
1874.531183,76.609550,3552.988522,10066.800811
1874.531500,153.219100,2886.803174,9844.739029
1874.531817,153.219100,2368.659014,9696.697840
1874.532134,229.828649,1554.432478,10436.903782
1874.532452,229.828649,1554.432478,10214.842000
1874.532769,536.266849,1702.473667,10362.883188
1874.533086,612.876398,1776.494261,10584.944971
1874.533403,842.705048,1924.535449,10436.903782
1874.533721,1455.581446,1998.556043,10066.800811
1874.534038,1072.533697,1924.535449,9622.677246
1874.534355,1302.362347,1554.432478,9474.636058
1874.534672,1072.533697,592.164754,9474.636058
1874.534990,1532.190996,444.123565,9844.739029
1874.535307,1378.971896,-0.000000,9992.780217
1874.535624,1608.800546,-0.000000,10288.862594
1874.535942,1838.629195,222.061783,9992.780217
1874.536259,2221.676944,444.123565,9696.697840
1874.536576,2374.896044,222.061783,9178.553681
1874.536893,2681.334243,518.144159,9178.553681
1874.537211,3064.381992,-0.000000,8512.368333
1874.537528,2911.162892,-518.144159,8068.244768
1874.537845,2911.162892,-1332.370696,8068.244768
1874.538162,2911.162892,-1332.370696,8068.244768
1874.538480,2451.505594,-1332.370696,7846.182985
1874.538797,2068.457845,-1628.453072,8216.285956
1874.539114,1608.800546,-1480.411884,8512.368333
1874.539431,995.924147,-1406.391290,8142.265362
1874.539749,842.705048,-1184.329507,7772.162391
1874.540066,383.047749,-1480.411884,7698.141797
1874.540383,0.000000,-1924.535449,8142.265362
1874.540701,-229.828649,-2294.638420,7846.182985
1874.541018,-459.657299,-2442.679609,8216.285956
1874.541335,-919.314598,-2442.679609,8290.306550
1874.541652,-1455.581446,-2220.617826,8808.450710
1874.541970,-1455.581446,-1924.535449,8956.491898
1874.542287,-1762.019645,-1480.411884,8734.430116
1874.542604,-919.314598,-740.205942,8290.306550
1874.542921,-766.095498,-296.082377,7772.162391
1874.543239,-306.438199,-592.164754,7772.162391
1874.543556,-306.438199,-962.267725,7476.080014
1874.543873,0.000000,-1776.494261,7772.162391
1874.544190,-459.657299,-1554.432478,8364.327145
1874.544508,-153.219100,-1110.308913,8364.327145
1874.544825,0.000000,-518.144159,8882.471304
1874.545142,229.828649,-0.000000,8512.368333
1874.545460,689.485948,296.082377,8586.388927
1874.545777,766.095498,592.164754,8512.368333
1874.546095,383.047749,592.164754,8142.265362
1874.546412,842.705048,370.102971,8586.388927
1874.546730,995.924147,148.041188,8882.471304
1874.547047,995.924147,296.082377,9622.677246
1874.547364,1225.752797,-0.000000,9696.697840
1874.547682,1072.533697,814.226536,10510.924376
1874.547999,1225.752797,962.267725,10288.862594
1874.548317,1838.629195,1924.535449,10288.862594
1874.548634,1991.848295,2368.659014,10288.862594
1874.548952,2145.067394,2072.576638,9992.780217
1874.549269,1991.848295,1850.514855,9844.739029
1874.549586,2145.067394,1480.411884,9992.780217
1874.549904,2374.896044,1628.453072,10140.821405
1874.550221,2068.457845,1554.432478,10066.800811
1874.550539,1838.629195,1924.535449,10584.944971
1874.550856,1838.629195,1924.535449,10807.006753
1874.551174,1685.410096,1776.494261,11399.171507
1874.551491,1455.581446,1998.556043,10881.027347
1874.551808,1302.362347,1998.556043,11103.089130
1874.552126,919.314598,1480.411884,10881.027347
1874.552443,842.705048,1406.391290,11325.150913
1874.552761,1455.581446,962.267725,11695.253884
1874.553078,229.828649,222.061783,11695.253884
1874.553395,76.609550,1036.288319,11843.295072
1874.553713,383.047749,1406.391290,11843.295072
1874.554030,383.047749,1406.391290,11547.212695
1874.554348,383.047749,1776.494261,11621.233289
1874.554665,153.219100,1406.391290,11547.212695
1874.554983,153.219100,1480.411884,10732.986159
1874.555300,153.219100,518.144159,10732.986159
1874.555617,0.000000,-0.000000,10658.965565
1874.555935,0.000000,-148.041188,10732.986159
1874.556252,153.219100,-74.020594,10881.027347
1874.556570,0.000000,148.041188,10510.924376
1874.556887,0.000000,-0.000000,10584.944971
1874.557205,0.000000,370.102971,10066.800811
1874.557522,306.438199,666.185348,9992.780217
1874.557839,-229.828649,444.123565,9400.615463
1874.558157,0.000000,-74.020594,9178.553681
1874.558474,-306.438199,-814.226536,9178.553681
1874.558792,-459.657299,-1036.288319,9252.574275
1874.559109,-306.438199,-1332.370696,9474.636058
1874.559427,-153.219100,-814.226536,9696.697840
1874.559744,76.609550,-296.082377,9178.553681
1874.560061,306.438199,-296.082377,8512.368333
1874.560379,612.876398,-0.000000,8290.306550
1874.560696,229.828649,-148.041188,8216.285956
1874.561014,1149.143247,-370.102971,7476.080014
1874.561331,1072.533697,-592.164754,7179.997637
1874.561649,1225.752797,-888.247130,7254.018232
1874.561966,1149.143247,-1258.350101,7328.038826
1874.562283,1532.190996,-1184.329507,7476.080014
1874.562601,1149.143247,-666.185348,7254.018232
1874.562918,1685.410096,-296.082377,7328.038826
1874.563236,2145.067394,-592.164754,7105.977043
1874.563553,1991.848295,-370.102971,7105.977043
1874.563871,2068.457845,-592.164754,7105.977043
1874.564188,1915.238745,-1332.370696,7328.038826
1874.564505,1762.019645,-1554.432478,7328.038826
1874.564823,1762.019645,-2072.576638,7846.182985
1874.565140,1608.800546,-1924.535449,8512.368333
1874.565458,1991.848295,-1406.391290,8290.306550
1874.565775,2221.676944,-740.205942,8364.327145
1874.566092,2681.334243,-518.144159,7846.182985
1874.566410,2604.724693,-222.061783,7550.100608
1874.566727,2451.505594,-518.144159,7550.100608
1874.567045,2298.286494,-1036.288319,8068.244768
1874.567362,1838.629195,-1628.453072,8290.306550
1874.567680,1762.019645,-2072.576638,8956.491898
1874.567997,1302.362347,-2146.597232,9474.636058
1874.568314,1455.581446,-1554.432478,9770.718434
1874.568632,1149.143247,-1184.329507,9918.759623
1874.568949,919.314598,-814.226536,9548.656652
1874.569267,919.314598,-518.144159,9622.677246
1874.569584,1149.143247,-666.185348,9622.677246
1874.569902,0.000000,-888.247130,9844.739029
1874.570219,-153.219100,-1036.288319,10288.862594
1874.570536,-383.047749,-1110.308913,10584.944971
1874.570854,-536.266849,-1036.288319,10881.027347
1874.571171,-459.657299,-370.102971,11473.192101
1874.571489,-383.047749,-0.000000,11547.212695
1874.571806,-76.609550,370.102971,11103.089130
1874.572124,0.000000,740.205942,10732.986159
1874.572441,153.219100,666.185348,10584.944971
1874.572758,229.828649,814.226536,10436.903782
1874.573076,612.876398,222.061783,10140.821405
1874.573393,766.095498,296.082377,10288.862594
1874.573711,536.266849,592.164754,10436.903782
1874.574028,995.924147,1258.350101,10807.006753
1874.574346,842.705048,1332.370696,10584.944971
1874.574663,1225.752797,1480.411884,10436.903782
1874.574980,1149.143247,1554.432478,10140.821405
1874.575298,1225.752797,1406.391290,10066.800811
1874.575615,1302.362347,1036.288319,9844.739029
1874.575933,1225.752797,888.247130,9992.780217
1874.576250,1532.190996,888.247130,10362.883188
1874.576568,1225.752797,518.144159,10214.842000
1874.576885,1378.971896,1036.288319,10658.965565
1874.577202,1532.190996,1332.370696,10584.944971
1874.577520,1838.629195,1850.514855,10288.862594
1874.577837,2221.676944,2664.741391,9918.759623
1874.578155,2451.505594,2368.659014,9400.615463
1874.578472,2374.896044,2368.659014,9178.553681
1874.578789,2374.896044,1628.453072,9178.553681
1874.579107,2528.115143,1110.308913,8956.491898
1874.579424,1838.629195,518.144159,9178.553681
1874.579742,1685.410096,444.123565,9474.636058
1874.580059,1225.752797,296.082377,9474.636058
1874.580377,995.924147,592.164754,9474.636058
1874.580694,919.314598,888.247130,9474.636058
1874.581011,612.876398,740.205942,9252.574275
1874.581329,76.609550,518.144159,9178.553681
1874.581646,0.000000,-148.041188,9400.615463
1874.581964,-689.485948,148.041188,9696.697840
1874.582281,-536.266849,-592.164754,9474.636058
1874.582599,-612.876398,-518.144159,9474.636058
1874.582916,-612.876398,-74.020594,9622.677246
1874.583233,-153.219100,-0.000000,9622.677246
1874.583551,-306.438199,370.102971,9474.636058
1874.583868,0.000000,222.061783,8808.450710
1874.584186,0.000000,444.123565,8364.327145
1874.584503,0.000000,-74.020594,8438.347739
1874.584821,0.000000,-444.123565,8438.347739
1874.585138,153.219100,-296.082377,7994.224174
1874.585455,306.438199,-518.144159,8290.306550
1874.585773,306.438199,-592.164754,8512.368333
1874.586090,153.219100,-74.020594,8438.347739
1874.586408,383.047749,-74.020594,8734.430116
1874.586725,459.657299,296.082377,8438.347739
1874.587043,383.047749,-0.000000,8290.306550
1874.587360,459.657299,148.041188,7920.203579
1874.587677,536.266849,-518.144159,8142.265362
1874.587995,919.314598,-1258.350101,8586.388927
1874.588312,612.876398,-888.247130,9178.553681
1874.588630,383.047749,-740.205942,9326.594869
1874.588947,766.095498,-518.144159,9474.636058
1874.589265,1608.800546,-148.041188,9548.656652
1874.589582,1455.581446,-0.000000,9400.615463
1874.589899,1762.019645,370.102971,8882.471304
1874.590217,2068.457845,-0.000000,8956.491898
1874.590534,2374.896044,-74.020594,8956.491898
1874.590852,2451.505594,-148.041188,8956.491898
1874.591169,2528.115143,-740.205942,9474.636058
1874.591486,2451.505594,-888.247130,9252.574275
1874.591804,2451.505594,-592.164754,9548.656652
1874.592121,2298.286494,-518.144159,9548.656652
1874.592439,2604.724693,-296.082377,9770.718434
1874.592756,2374.896044,-148.041188,9622.677246
1874.593074,2221.676944,-0.000000,9622.677246
1874.593391,1762.019645,-592.164754,9474.636058
1874.593708,1378.971896,-1036.288319,9992.780217
1874.594026,766.095498,-1850.514855,10510.924376
1874.594343,842.705048,-1110.308913,10732.986159
1874.594661,842.705048,-1110.308913,11029.068536
1874.594978,919.314598,-444.123565,11251.130318
1874.595296,1225.752797,296.082377,10658.965565
1874.595613,612.876398,592.164754,10510.924376
1874.595930,766.095498,666.185348,10140.821405
1874.596248,766.095498,444.123565,9548.656652
1874.596565,1072.533697,740.205942,9474.636058
1874.596883,995.924147,518.144159,9622.677246
1874.597200,842.705048,-0.000000,9770.718434
1874.597518,229.828649,-0.000000,9770.718434
1874.597835,153.219100,296.082377,9918.759623
1874.598152,76.609550,1036.288319,9548.656652
1874.598470,153.219100,1702.473667,9474.636058
1874.598787,0.000000,1702.473667,9104.533087
1874.599105,-536.266849,1184.329507,8956.491898
1874.599422,-689.485948,740.205942,8956.491898
1874.599740,-1302.362347,444.123565,9474.636058
1874.600057,-842.705048,-0.000000,9918.759623
1874.600374,-1455.581446,518.144159,9844.739029
1874.600692,-919.314598,518.144159,10436.903782
1874.601009,-459.657299,1332.370696,9918.759623
1874.601327,153.219100,1924.535449,9104.533087
1874.601644,536.266849,2368.659014,8586.388927
1874.601962,842.705048,2590.720797,8068.244768
1874.602279,1149.143247,2146.597232,7698.141797
1874.602596,919.314598,1628.453072,7994.224174
1874.602914,1072.533697,962.267725,8142.265362
1874.603231,919.314598,1036.288319,8586.388927
1874.603549,842.705048,962.267725,8734.430116
1874.603866,842.705048,1258.350101,8660.409521
1874.604184,306.438199,1480.411884,8808.450710
1874.604501,459.657299,1850.514855,8586.388927
1874.604818,689.485948,1628.453072,8438.347739
1874.605136,536.266849,1554.432478,8438.347739
1874.605453,612.876398,1184.329507,8734.430116
1874.605771,612.876398,666.185348,9252.574275
1874.606088,766.095498,740.205942,9474.636058
1874.606405,689.485948,814.226536,9918.759623
1874.606723,766.095498,1184.329507,10214.842000
1874.607040,1225.752797,1332.370696,9696.697840
1874.607358,1685.410096,1776.494261,9548.656652
1874.607675,1685.410096,1850.514855,9104.533087
1874.607993,1915.238745,1332.370696,9252.574275
1874.608310,1915.238745,592.164754,9030.512492
1874.608627,1762.019645,296.082377,9178.553681
1874.608945,1455.581446,-0.000000,9474.636058
1874.609262,1149.143247,-148.041188,9696.697840
1874.609580,842.705048,-222.061783,10066.800811
1874.609897,459.657299,-74.020594,10214.842000
1874.610215,459.657299,148.041188,9992.780217
1874.610532,459.657299,-0.000000,9844.739029
1874.610849,0.000000,-0.000000,9770.718434
1874.611167,0.000000,-222.061783,9770.718434
1874.611484,-306.438199,-962.267725,10140.821405
1874.611802,-229.828649,-1184.329507,10436.903782
1874.612119,-306.438199,-1554.432478,10807.006753
1874.612437,-536.266849,-740.205942,11103.089130
1874.612754,-153.219100,-370.102971,11103.089130
1874.613071,0.000000,222.061783,10732.986159
1874.613389,153.219100,518.144159,10288.862594
1874.613706,229.828649,666.185348,9474.636058
1874.614024,919.314598,666.185348,9474.636058
1874.614341,766.095498,222.061783,9474.636058
1874.614659,919.314598,-222.061783,9400.615463
1874.614976,1072.533697,-814.226536,9918.759623
1874.615293,612.876398,-444.123565,9622.677246
1874.615611,383.047749,-74.020594,9770.718434
1874.615928,536.266849,-0.000000,9548.656652
1874.616246,383.047749,-0.000000,9474.636058
1874.616563,612.876398,148.041188,9400.615463
1874.616881,76.609550,-0.000000,9474.636058
1874.617198,306.438199,-296.082377,9104.533087
1874.617515,459.657299,-370.102971,9326.594869
1874.617833,306.438199,-444.123565,9474.636058
1874.618150,1225.752797,-148.041188,9844.739029
1874.618468,766.095498,296.082377,9474.636058
1874.618785,1302.362347,814.226536,9178.553681
1874.619102,1532.190996,1258.350101,9030.512492
1874.619420,1608.800546,1258.350101,8808.450710
1874.619737,2681.334243,1184.329507,8364.327145
1874.620055,2298.286494,666.185348,7698.141797
1874.620372,2068.457845,222.061783,7846.182985
1874.620690,1608.800546,-74.020594,8068.244768
1874.621007,1608.800546,-148.041188,8290.306550
1874.621324,919.314598,-370.102971,8290.306550
1874.621642,919.314598,296.082377,8956.491898
1874.621959,612.876398,370.102971,8882.471304
1874.622277,689.485948,518.144159,8956.491898
1874.622594,536.266849,-0.000000,9104.533087
1874.622912,229.828649,-592.164754,9252.574275
1874.623229,0.000000,-814.226536,9104.533087
1874.623546,-153.219100,-518.144159,9548.656652
1874.623864,-306.438199,-370.102971,9474.636058
1874.624181,229.828649,148.041188,9696.697840
1874.624499,0.000000,222.061783,9622.677246
1874.624816,0.000000,666.185348,9474.636058
1874.625134,153.219100,1036.288319,9178.553681
1874.625451,153.219100,888.247130,9252.574275
1874.625768,383.047749,592.164754,8808.450710
1874.626086,153.219100,-0.000000,9104.533087
1874.626403,76.609550,-222.061783,9178.553681
1874.626721,-306.438199,-222.061783,9252.574275
1874.627038,-229.828649,-296.082377,9696.697840
1874.627356,-536.266849,-444.123565,9622.677246
1874.627673,-459.657299,296.082377,9844.739029
1874.627990,-153.219100,740.205942,9696.697840
1874.628308,0.000000,444.123565,9474.636058
1874.628625,306.438199,592.164754,9474.636058
1874.628943,306.438199,-0.000000,9474.636058
1874.629260,-229.828649,296.082377,9548.656652
1874.629578,383.047749,-0.000000,9548.656652
1874.629895,76.609550,444.123565,9770.718434
1874.630212,842.705048,740.205942,9992.780217
1874.630530,1072.533697,1184.329507,9770.718434
1874.630847,1302.362347,1480.411884,9548.656652
1874.631165,1838.629195,1332.370696,9622.677246
1874.631482,1685.410096,1332.370696,9252.574275
1874.631799,2145.067394,1184.329507,9326.594869
1874.632117,2145.067394,1036.288319,9326.594869
1874.632434,1532.190996,518.144159,9252.574275
1874.632752,1762.019645,666.185348,9548.656652
1874.633069,1532.190996,740.205942,9622.677246
1874.633387,1685.410096,444.123565,9844.739029
1874.633704,1455.581446,740.205942,9696.697840
1874.634021,1378.971896,962.267725,9474.636058
1874.634339,1072.533697,740.205942,9548.656652
1874.634656,1072.533697,444.123565,9548.656652
1874.634974,1072.533697,-0.000000,9844.739029
1874.635291,1149.143247,-0.000000,10066.800811
1874.635609,536.266849,-0.000000,9918.759623
1874.635926,536.266849,222.061783,10510.924376
1874.636243,689.485948,444.123565,10436.903782
1874.636561,689.485948,666.185348,10658.965565
1874.636878,1072.533697,888.247130,10066.800811
1874.637196,1149.143247,370.102971,9474.636058
1874.637513,1608.800546,370.102971,9178.553681
1874.637831,1762.019645,-222.061783,9178.553681
1874.638148,1608.800546,-296.082377,9252.574275
1874.638465,1072.533697,-740.205942,9104.533087
1874.638783,1455.581446,-444.123565,9400.615463
1874.639100,1225.752797,-74.020594,9252.574275
1874.639418,919.314598,222.061783,9178.553681
1874.639735,459.657299,148.041188,9326.594869
1874.640053,153.219100,-0.000000,8956.491898
1874.640370,0.000000,-148.041188,8956.491898
1874.640687,-306.438199,-814.226536,9622.677246
1874.641005,-766.095498,-1110.308913,9326.594869
1874.641322,-612.876398,-1110.308913,9696.697840
1874.641640,-995.924147,-962.267725,9992.780217
1874.641957,-612.876398,-518.144159,9918.759623
1874.642275,-229.828649,-370.102971,10288.862594
1874.642592,-612.876398,-74.020594,9474.636058
1874.642909,229.828649,-222.061783,9400.615463
1874.643227,306.438199,-0.000000,8956.491898
1874.643544,995.924147,-444.123565,8734.430116
1874.643862,1302.362347,-1110.308913,8882.471304
1874.644179,1302.362347,-888.247130,8956.491898
1874.644497,1455.581446,-1036.288319,8956.491898
1874.644814,1838.629195,-888.247130,8734.430116
1874.645132,1455.581446,-814.226536,8216.285956
1874.645449,1991.848295,-296.082377,8734.430116
1874.645767,1915.238745,-74.020594,8364.327145
1874.646084,2068.457845,-74.020594,8142.265362
1874.646401,2221.676944,-444.123565,8586.388927
1874.646719,1532.190996,-888.247130,8734.430116
1874.647036,1072.533697,-1184.329507,8956.491898
1874.647354,919.314598,-1406.391290,9326.594869
1874.647671,842.705048,-1258.350101,10066.800811
1874.647989,1225.752797,-444.123565,9844.739029
1874.648306,1378.971896,-0.000000,9992.780217
1874.648624,1915.238745,666.185348,9548.656652
1874.648941,1991.848295,592.164754,8734.430116
1874.649259,2145.067394,666.185348,8882.471304
1874.649576,2145.067394,-0.000000,8808.450710
1874.649894,2451.505594,-222.061783,8734.430116
1874.650211,1838.629195,-370.102971,9104.533087
1874.650528,1608.800546,-74.020594,9400.615463
1874.650846,1532.190996,296.082377,8956.491898
1874.651163,1302.362347,666.185348,9252.574275
1874.651481,1455.581446,962.267725,9104.533087
1874.651798,689.485948,740.205942,9030.512492
1874.652116,536.266849,666.185348,8660.409521
1874.652433,0.000000,-0.000000,9326.594869
1874.652751,-229.828649,-222.061783,9622.677246
1874.653068,-612.876398,-592.164754,10066.800811
1874.653386,-536.266849,-0.000000,10362.883188
1874.653703,-459.657299,370.102971,10658.965565
1874.654021,-383.047749,814.226536,10881.027347
1874.654338,0.000000,1184.329507,10362.883188
1874.654656,536.266849,1258.350101,10066.800811
1874.654973,383.047749,962.267725,10066.800811
1874.655290,766.095498,1184.329507,9474.636058
1874.655608,842.705048,740.205942,9474.636058
1874.655925,919.314598,592.164754,9474.636058
1874.656243,1149.143247,814.226536,9770.718434
1874.656560,1225.752797,888.247130,9474.636058
1874.656878,689.485948,1184.329507,9474.636058
1874.657195,995.924147,1258.350101,9622.677246
1874.657513,612.876398,1184.329507,9548.656652
1874.657830,0.000000,666.185348,9770.718434
1874.658148,76.609550,592.164754,9918.759623
1874.658465,0.000000,296.082377,9622.677246
1874.658783,0.000000,-0.000000,9770.718434
1874.659100,0.000000,74.020594,10140.821405
1874.659418,0.000000,296.082377,10510.924376
1874.659735,229.828649,666.185348,10510.924376
1874.660052,383.047749,1110.308913,10288.862594
1874.660370,766.095498,1258.350101,10140.821405
1874.660687,1378.971896,1258.350101,9474.636058
1874.661005,1378.971896,1036.288319,9326.594869
1874.661322,1455.581446,444.123565,9252.574275
1874.661640,1762.019645,-74.020594,9252.574275
1874.661957,1838.629195,-444.123565,9178.553681
1874.662275,1838.629195,-592.164754,9104.533087
1874.662592,1762.019645,-222.061783,9622.677246
1874.662910,1838.629195,-0.000000,9326.594869
1874.663227,1838.629195,-0.000000,8956.491898
1874.663545,2145.067394,-74.020594,9030.512492
1874.663862,1302.362347,-296.082377,9178.553681
1874.664179,1302.362347,-740.205942,9252.574275
1874.664497,1225.752797,-1036.288319,9548.656652
1874.664814,1302.362347,-1184.329507,9622.677246
1874.665132,1455.581446,-1036.288319,9770.718434
1874.665449,1915.238745,-518.144159,10066.800811
1874.665767,2068.457845,-74.020594,9844.739029
1874.666084,2374.896044,74.020594,9474.636058
1874.666402,2528.115143,370.102971,9326.594869
1874.666719,2834.553343,444.123565,8956.491898
1874.667037,2834.553343,-0.000000,8438.347739
1874.667354,2987.772442,-148.041188,8290.306550
1874.667672,2604.724693,-370.102971,8290.306550
1874.667989,2451.505594,-518.144159,8438.347739
1874.668307,2451.505594,-814.226536,9104.533087
1874.668624,1915.238745,-148.041188,8882.471304
1874.668941,1378.971896,-444.123565,8808.450710
1874.669259,1072.533697,-296.082377,8808.450710
1874.669576,766.095498,-740.205942,8734.430116
1874.669894,0.000000,-592.164754,8882.471304
1874.670211,0.000000,-740.205942,8808.450710
1874.670529,-306.438199,-962.267725,8808.450710
1874.670846,-689.485948,-1036.288319,9252.574275
1874.671164,-842.705048,-740.205942,9326.594869
1874.671481,-1072.533697,-148.041188,9474.636058
1874.671799,-1072.533697,222.061783,9474.636058
1874.672116,-842.705048,518.144159,9178.553681
1874.672434,-612.876398,1036.288319,8882.471304
1874.672751,-1149.143247,666.185348,9030.512492
1874.673068,0.000000,740.205942,8290.306550
1874.673386,-459.657299,222.061783,8512.368333
1874.673703,-459.657299,296.082377,8882.471304
1874.674021,-306.438199,296.082377,8734.430116
1874.674338,-612.876398,296.082377,9030.512492
1874.674656,-229.828649,666.185348,9326.594869
1874.674973,-536.266849,740.205942,9474.636058
1874.675291,-766.095498,1184.329507,9252.574275
1874.675608,-459.657299,1036.288319,9548.656652
1874.675926,-306.438199,962.267725,9474.636058
1874.676243,-229.828649,666.185348,9696.697840
1874.676561,-459.657299,592.164754,9992.780217
1874.676878,-306.438199,518.144159,10140.821405
1874.677196,383.047749,666.185348,10436.903782
1874.677513,919.314598,1184.329507,10362.883188
1874.677830,995.924147,1628.453072,10214.842000
1874.678148,1302.362347,1628.453072,10436.903782
1874.678465,1915.238745,1628.453072,9918.759623
1874.678783,2298.286494,1480.411884,9770.718434
1874.679100,2221.676944,1258.350101,9696.697840
1874.679418,2221.676944,1110.308913,9622.677246
1874.679735,2221.676944,814.226536,9622.677246
1874.680053,2145.067394,814.226536,9918.759623
1874.680370,2145.067394,592.164754,9992.780217
1874.680688,2374.896044,1110.308913,10066.800811
1874.681005,1685.410096,888.247130,10140.821405
1874.681323,1378.971896,1184.329507,10140.821405
1874.681640,1149.143247,962.267725,9992.780217
1874.681958,766.095498,666.185348,9696.697840
1874.682275,689.485948,444.123565,9992.780217
1874.682592,229.828649,370.102971,10140.821405
1874.682910,306.438199,444.123565,10288.862594
1874.683227,383.047749,592.164754,10436.903782
1874.683545,306.438199,740.205942,10436.903782
1874.683862,1225.752797,814.226536,10066.800811
1874.684180,1072.533697,1110.308913,9622.677246
1874.684497,1072.533697,962.267725,9252.574275
1874.684815,1072.533697,444.123565,9104.533087
1874.685132,536.266849,148.041188,9178.553681
1874.685450,459.657299,-148.041188,8956.491898
1874.685767,229.828649,-0.000000,8882.471304
1874.686085,306.438199,-74.020594,9178.553681
1874.686402,0.000000,-74.020594,9548.656652
1874.686719,0.000000,-148.041188,9178.553681
1874.687037,0.000000,-0.000000,8956.491898
1874.687354,0.000000,-74.020594,8660.409521
1874.687672,-612.876398,-444.123565,8808.450710
1874.687989,-1072.533697,-740.205942,9178.553681
1874.688307,-995.924147,-888.247130,9030.512492
1874.688624,-1072.533697,-962.267725,9326.594869
1874.688942,-689.485948,-592.164754,9844.739029
1874.689259,-689.485948,-0.000000,9844.739029
1874.689577,-153.219100,-0.000000,9474.636058
1874.689894,-229.828649,148.041188,9104.533087
1874.690212,383.047749,444.123565,8882.471304
1874.690529,612.876398,296.082377,8438.347739
1874.690847,1149.143247,222.061783,8142.265362
1874.691164,1378.971896,370.102971,8586.388927
1874.691481,1378.971896,222.061783,8290.306550
1874.691799,1302.362347,444.123565,8512.368333
1874.692116,1302.362347,740.205942,8660.409521
1874.692434,1225.752797,518.144159,8882.471304
1874.692751,1532.190996,1110.308913,8808.450710
1874.693069,1072.533697,740.205942,8364.327145
1874.693386,1225.752797,814.226536,8660.409521
1874.693704,995.924147,444.123565,8734.430116
1874.694021,1149.143247,-0.000000,9104.533087
1874.694339,842.705048,-0.000000,9178.553681
1874.694656,612.876398,222.061783,9696.697840
1874.694974,689.485948,592.164754,9844.739029
1874.695291,689.485948,1036.288319,9844.739029
1874.695609,919.314598,1036.288319,9770.718434
1874.695926,1225.752797,1480.411884,9400.615463
1874.696243,1072.533697,1036.288319,9400.615463
1874.696561,1455.581446,666.185348,9104.533087
1874.696878,1378.971896,296.082377,9104.533087
1874.697196,1762.019645,296.082377,9252.574275
1874.697513,1532.190996,-0.000000,9474.636058
1874.697831,1302.362347,-0.000000,9622.677246
1874.698148,1225.752797,-0.000000,9918.759623
1874.698466,919.314598,370.102971,10140.821405
1874.698783,766.095498,888.247130,10214.842000
1874.699101,383.047749,74.020594,9992.780217
1874.699418,229.828649,-148.041188,9992.780217
1874.699736,-383.047749,-518.144159,10214.842000
1874.700053,-229.828649,-592.164754,10436.903782
1874.700370,0.000000,-592.164754,10807.006753
1874.700688,-153.219100,-74.020594,10955.047942
1874.701005,-229.828649,148.041188,11103.089130
1874.701323,306.438199,296.082377,10881.027347
1874.701640,153.219100,814.226536,10732.986159
1874.701958,766.095498,666.185348,10140.821405
1874.702275,459.657299,370.102971,9992.780217
1874.702593,842.705048,370.102971,9696.697840
1874.702910,919.314598,370.102971,9696.697840
1874.703228,842.705048,444.123565,9770.718434
1874.703545,995.924147,148.041188,9548.656652
1874.703863,1149.143247,666.185348,9326.594869
1874.704180,1149.143247,666.185348,9104.533087
1874.704498,1225.752797,888.247130,9104.533087
1874.704815,459.657299,814.226536,9030.512492
1874.705132,459.657299,370.102971,9178.553681
1874.705450,612.876398,-74.020594,9326.594869
1874.705767,0.000000,-296.082377,9252.574275
1874.706085,-306.438199,-814.226536,9474.636058
1874.706402,-306.438199,-444.123565,9696.697840
1874.706720,-153.219100,-74.020594,9696.697840
1874.707037,-306.438199,296.082377,9474.636058
1874.707355,153.219100,296.082377,9474.636058
1874.707672,536.266849,592.164754,9178.553681
1874.707990,842.705048,-0.000000,9030.512492
1874.708307,1378.971896,-0.000000,8586.388927
1874.708625,1302.362347,-0.000000,8438.347739
1874.708942,1072.533697,-222.061783,8290.306550
1874.709260,1302.362347,-148.041188,8512.368333
1874.709577,1302.362347,-222.061783,8512.368333
1874.709894,1225.752797,-0.000000,8808.450710
1874.710212,1378.971896,-0.000000,8882.471304
1874.710529,1455.581446,-0.000000,8512.368333
1874.710847,1302.362347,74.020594,8660.409521
1874.711164,1149.143247,-296.082377,8364.327145
1874.711482,1149.143247,-518.144159,8660.409521
1874.711799,459.657299,-518.144159,9104.533087
1874.712117,689.485948,-888.247130,9326.594869
1874.712434,612.876398,-148.041188,9474.636058
1874.712752,459.657299,148.041188,9844.739029
1874.713069,689.485948,518.144159,9548.656652
1874.713387,919.314598,1036.288319,9474.636058
1874.713704,919.314598,1036.288319,9326.594869
1874.714021,1149.143247,888.247130,8660.409521
1874.714339,1378.971896,592.164754,8882.471304
1874.714656,1072.533697,296.082377,8882.471304
1874.714974,1608.800546,-148.041188,9178.553681
1874.715291,995.924147,-444.123565,9178.553681
1874.715609,919.314598,296.082377,9178.553681
1874.715926,536.266849,740.205942,9326.594869
1874.716244,383.047749,962.267725,9030.512492
1874.716561,-229.828649,1258.350101,8956.491898
1874.716879,76.609550,740.205942,9104.533087
1874.717196,-306.438199,222.061783,9252.574275
1874.717514,-306.438199,-74.020594,9548.656652
1874.717831,-689.485948,-370.102971,9622.677246
1874.718149,-1378.971896,-296.082377,10584.944971
1874.718466,-689.485948,-0.000000,10584.944971
1874.718783,0.000000,740.205942,10436.903782
1874.719101,76.609550,1036.288319,10436.903782
1874.719418,383.047749,1332.370696,9770.718434
1874.719736,919.314598,1258.350101,9622.677246
1874.720053,995.924147,666.185348,9326.594869
1874.720371,995.924147,370.102971,9474.636058
1874.720688,995.924147,-0.000000,9622.677246
1874.721006,1302.362347,-0.000000,9622.677246
1874.721323,1302.362347,-0.000000,9918.759623
1874.721641,1532.190996,444.123565,9992.780217
1874.721958,1455.581446,296.082377,10140.821405
1874.722276,1532.190996,592.164754,10066.800811
1874.722593,1378.971896,444.123565,9770.718434
1874.722911,1225.752797,148.041188,9548.656652
1874.723228,1455.581446,-74.020594,9548.656652
1874.723545,1302.362347,-148.041188,9918.759623
1874.723863,995.924147,-74.020594,10214.842000
1874.724180,1072.533697,-0.000000,10436.903782
1874.724498,1149.143247,814.226536,10436.903782
1874.724815,1378.971896,888.247130,10214.842000
1874.725133,1455.581446,814.226536,9622.677246
1874.725450,1685.410096,1184.329507,9548.656652
1874.725768,1838.629195,444.123565,9326.594869
1874.726085,1915.238745,518.144159,9252.574275
1874.726403,1991.848295,222.061783,8808.450710
1874.726720,1991.848295,-0.000000,8734.430116
1874.727038,1532.190996,-0.000000,9030.512492
1874.727355,1608.800546,-0.000000,9326.594869
1874.727672,1302.362347,-0.000000,9474.636058
1874.727990,1149.143247,296.082377,8956.491898
1874.728307,383.047749,222.061783,9104.533087
1874.728625,689.485948,-0.000000,8808.450710
1874.728942,383.047749,-370.102971,8586.388927
1874.729260,76.609550,-814.226536,8808.450710
1874.729577,0.000000,-1184.329507,8956.491898
1874.729895,-153.219100,-1110.308913,9252.574275
1874.730212,-459.657299,-888.247130,9474.636058
1874.730530,-229.828649,-518.144159,9400.615463
1874.730847,-153.219100,-666.185348,9622.677246
1874.731165,0.000000,-296.082377,9622.677246
1874.731482,229.828649,-74.020594,9030.512492
1874.731800,459.657299,-296.082377,8660.409521
1874.732117,536.266849,-1184.329507,8882.471304
1874.732434,842.705048,-1036.288319,8734.430116
1874.732752,1149.143247,-962.267725,8882.471304
1874.733069,1225.752797,-666.185348,8882.471304
1874.733387,1149.143247,-518.144159,8512.368333
1874.733704,1608.800546,-444.123565,8882.471304
1874.734022,1378.971896,-222.061783,8586.388927
1874.734339,1149.143247,-148.041188,8660.409521
1874.734657,995.924147,-370.102971,8586.388927
1874.734974,995.924147,-592.164754,8808.450710
1874.735292,766.095498,-1110.308913,8660.409521
1874.735609,612.876398,-1332.370696,8956.491898
1874.735927,842.705048,-888.247130,9548.656652
1874.736244,842.705048,-592.164754,9622.677246
1874.736562,1149.143247,-148.041188,9474.636058
1874.736879,1378.971896,592.164754,9400.615463
1874.737196,1608.800546,666.185348,9104.533087
1874.737514,1838.629195,444.123565,9252.574275
1874.737831,1915.238745,518.144159,8956.491898
1874.738149,1838.629195,518.144159,8808.450710
1874.738466,1838.629195,222.061783,9030.512492
1874.738784,1991.848295,-0.000000,9400.615463
1874.739101,1685.410096,444.123565,9474.636058
1874.739419,1685.410096,518.144159,9548.656652
1874.739736,1455.581446,666.185348,9400.615463
1874.740054,1455.581446,888.247130,9474.636058
1874.740371,919.314598,518.144159,9252.574275
1874.740689,919.314598,592.164754,9474.636058
1874.741006,689.485948,-0.000000,9696.697840
1874.741323,766.095498,-0.000000,10214.842000
1874.741641,153.219100,-0.000000,10066.800811
1874.741958,153.219100,-0.000000,10584.944971
1874.742276,153.219100,592.164754,10658.965565
1874.742593,612.876398,740.205942,10436.903782
1874.742911,0.000000,1110.308913,10584.944971
1874.743228,459.657299,1258.350101,10214.842000
1874.743546,842.705048,1110.308913,9918.759623
1874.743863,842.705048,370.102971,9918.759623
1874.744181,842.705048,222.061783,9918.759623
1874.744498,383.047749,222.061783,10066.800811
1874.744816,383.047749,444.123565,10140.821405
1874.745133,536.266849,666.185348,10288.862594
1874.745450,229.828649,740.205942,10140.821405
1874.745768,0.000000,740.205942,9770.718434
1874.746085,306.438199,1036.288319,9696.697840
1874.746403,153.219100,962.267725,9474.636058
1874.746720,0.000000,592.164754,9400.615463
1874.747038,76.609550,592.164754,9548.656652
1874.747355,153.219100,370.102971,9474.636058
1874.747673,0.000000,370.102971,9622.677246
1874.747990,306.438199,666.185348,9918.759623
1874.748307,459.657299,1184.329507,9622.677246
1874.748625,459.657299,1850.514855,9622.677246
1874.748942,842.705048,1628.453072,9030.512492
1874.749260,1072.533697,1702.473667,8808.450710
1874.749577,1455.581446,1480.411884,8586.388927
1874.749895,1532.190996,1406.391290,8438.347739
1874.750212,1149.143247,962.267725,8364.327145
1874.750530,1455.581446,814.226536,8586.388927
1874.750847,995.924147,444.123565,9030.512492
1874.751164,919.314598,666.185348,9326.594869
1874.751482,689.485948,740.205942,9178.553681
1874.751799,383.047749,962.267725,9252.574275
1874.752117,612.876398,814.226536,8882.471304
1874.752434,383.047749,74.020594,8660.409521
1874.752752,612.876398,-370.102971,9104.533087
1874.753069,229.828649,-814.226536,9326.594869
1874.753386,536.266849,-592.164754,9474.636058
1874.753704,459.657299,-740.205942,9770.718434
1874.754021,612.876398,-0.000000,9770.718434
1874.754339,995.924147,-0.000000,9622.677246
1874.754656,842.705048,518.144159,9178.553681
1874.754974,1532.190996,518.144159,8882.471304
1874.755291,1608.800546,370.102971,8734.430116
1874.755609,1532.190996,-0.000000,8512.368333
1874.755926,1225.752797,-370.102971,8882.471304
1874.756243,1072.533697,-814.226536,9474.636058
1874.756561,842.705048,-1184.329507,9474.636058
1874.756878,919.314598,-592.164754,9474.636058
1874.757196,919.314598,-444.123565,9918.759623
1874.757513,766.095498,-518.144159,9622.677246
1874.757831,612.876398,-222.061783,9474.636058
1874.758148,383.047749,-296.082377,9474.636058
1874.758465,153.219100,-370.102971,9400.615463
1874.758783,153.219100,-518.144159,9474.636058
1874.759100,0.000000,-592.164754,9474.636058
1874.759418,76.609550,-444.123565,9918.759623
1874.759735,229.828649,-296.082377,10288.862594
1874.760053,459.657299,-0.000000,9918.759623
1874.760370,612.876398,370.102971,9770.718434
1874.760688,995.924147,592.164754,9474.636058
1874.761005,1608.800546,370.102971,9030.512492
1874.761322,1302.362347,296.082377,8956.491898
1874.761640,1532.190996,518.144159,8734.430116
1874.761957,1608.800546,444.123565,8734.430116
1874.762275,1302.362347,296.082377,9178.553681
1874.762592,1302.362347,-148.041188,9104.533087
1874.762910,919.314598,-74.020594,9696.697840
1874.763227,766.095498,-0.000000,9622.677246
1874.763545,995.924147,296.082377,9696.697840
1874.763862,1072.533697,370.102971,9326.594869
1874.764179,306.438199,-74.020594,9474.636058
1874.764497,842.705048,-74.020594,9474.636058
1874.764814,766.095498,-370.102971,9474.636058
1874.765132,689.485948,-518.144159,9474.636058
1874.765449,536.266849,-222.061783,9696.697840
1874.765767,842.705048,-0.000000,10066.800811
1874.766084,995.924147,666.185348,9918.759623
1874.766401,1072.533697,962.267725,9622.677246
1874.766719,1149.143247,1036.288319,9252.574275
1874.767036,1378.971896,814.226536,9104.533087
1874.767354,1302.362347,740.205942,8808.450710
1874.767671,1072.533697,-0.000000,8734.430116
1874.767989,766.095498,-148.041188,9178.553681
1874.768306,459.657299,-0.000000,9474.636058
1874.768624,689.485948,-0.000000,9548.656652
1874.768941,766.095498,222.061783,9696.697840
1874.769258,76.609550,666.185348,9696.697840
1874.769576,76.609550,1258.350101,9474.636058
1874.769893,0.000000,1110.308913,9252.574275
1874.770211,229.828649,666.185348,9252.574275
1874.770528,-153.219100,518.144159,9252.574275
1874.770846,0.000000,666.185348,9178.553681
1874.771163,0.000000,592.164754,9252.574275
1874.771481,-383.047749,518.144159,9474.636058
1874.771798,-153.219100,888.247130,9474.636058
1874.772115,0.000000,1480.411884,9252.574275
1874.772433,0.000000,1480.411884,9104.533087
1874.772750,76.609550,1554.432478,8956.491898
1874.773068,153.219100,1110.308913,9104.533087
1874.773385,76.609550,666.185348,8956.491898
1874.773703,306.438199,-0.000000,9178.553681
1874.774020,153.219100,-0.000000,9400.615463
1874.774337,306.438199,-74.020594,9696.697840
1874.774655,0.000000,74.020594,9474.636058
1874.774972,229.828649,222.061783,9918.759623
1874.775290,383.047749,592.164754,9622.677246
1874.775607,536.266849,666.185348,9252.574275
1874.775925,766.095498,592.164754,9178.553681
1874.776242,612.876398,-0.000000,9178.553681
1874.776560,229.828649,-74.020594,9474.636058
1874.776877,459.657299,-444.123565,9622.677246
1874.777194,459.657299,-518.144159,9918.759623
1874.777512,766.095498,-0.000000,10510.924376
1874.777829,842.705048,148.041188,10436.903782
1874.778147,1225.752797,592.164754,10362.883188
1874.778464,1685.410096,1184.329507,9474.636058
1874.778782,1991.848295,1184.329507,9030.512492
1874.779099,2374.896044,740.205942,9104.533087
1874.779416,2221.676944,222.061783,9252.574275
1874.779734,1685.410096,-148.041188,9548.656652
1874.780051,1455.581446,-222.061783,9622.677246
1874.780369,1532.190996,-0.000000,9770.718434
1874.780686,1685.410096,592.164754,9622.677246
1874.781004,2374.896044,888.247130,9474.636058
1874.781321,1608.800546,888.247130,8734.430116
1874.781639,995.924147,370.102971,8734.430116
1874.781956,612.876398,-0.000000,8882.471304
1874.782273,536.266849,-0.000000,9178.553681
1874.782591,0.000000,-222.061783,9400.615463
1874.782908,-153.219100,-444.123565,9622.677246
1874.783226,-383.047749,-74.020594,9918.759623
1874.783543,-383.047749,-74.020594,10288.862594
1874.783861,0.000000,222.061783,9770.718434
1874.784178,0.000000,518.144159,9548.656652
1874.784496,766.095498,592.164754,9104.533087
1874.784813,612.876398,222.061783,8882.471304
1874.785130,689.485948,-148.041188,8660.409521
1874.785448,995.924147,-444.123565,9030.512492
1874.785765,459.657299,-444.123565,9030.512492
1874.786083,459.657299,-74.020594,9030.512492
1874.786400,306.438199,296.082377,9252.574275
1874.786718,306.438199,148.041188,9326.594869
1874.787035,76.609550,296.082377,9400.615463
1874.787352,229.828649,370.102971,9252.574275
1874.787670,0.000000,222.061783,8882.471304
1874.787987,153.219100,-296.082377,8882.471304
1874.788305,76.609550,-740.205942,9474.636058
1874.788622,-229.828649,-888.247130,9548.656652
1874.788940,-153.219100,-666.185348,9992.780217
1874.789257,0.000000,-296.082377,10214.842000
1874.789575,0.000000,222.061783,10288.862594
1874.789892,459.657299,740.205942,9918.759623
1874.790209,689.485948,1036.288319,9548.656652
1874.790527,919.314598,962.267725,9104.533087
1874.790844,1455.581446,666.185348,8882.471304
1874.791162,1532.190996,222.061783,8586.388927
1874.791479,1455.581446,666.185348,9030.512492
1874.791797,1685.410096,-222.061783,8808.450710
1874.792114,1608.800546,-0.000000,9104.533087
1874.792432,1762.019645,-0.000000,9178.553681
1874.792749,1838.629195,296.082377,9252.574275
1874.793066,1302.362347,666.185348,9252.574275
1874.793384,995.924147,740.205942,8956.491898
1874.793701,842.705048,296.082377,9030.512492
1874.794019,766.095498,-0.000000,9030.512492
1874.794336,612.876398,-370.102971,9178.553681
1874.794654,153.219100,-370.102971,9696.697840
1874.794971,229.828649,-0.000000,9844.739029
1874.795288,536.266849,370.102971,9770.718434
1874.795606,459.657299,370.102971,9844.739029
1874.795923,766.095498,814.226536,9992.780217
1874.796241,919.314598,888.247130,9918.759623
1874.796558,995.924147,444.123565,9622.677246
1874.796876,1072.533697,518.144159,9326.594869
1874.797193,1302.362347,518.144159,9326.594869
1874.797511,2221.676944,222.061783,9178.553681
1874.797828,1302.362347,518.144159,9326.594869
1874.798145,1225.752797,222.061783,9474.636058
1874.798463,1302.362347,814.226536,9474.636058
1874.798780,1149.143247,518.144159,9696.697840
1874.799098,1072.533697,518.144159,9770.718434
1874.799415,766.095498,370.102971,9696.697840
1874.799733,689.485948,-0.000000,9474.636058
1874.800050,306.438199,-222.061783,9326.594869
1874.800367,383.047749,-740.205942,9474.636058
1874.800685,-383.047749,-592.164754,10362.883188
1874.801002,229.828649,-0.000000,10362.883188
1874.801320,229.828649,-0.000000,10288.862594
1874.801637,76.609550,370.102971,10436.903782
1874.801955,153.219100,592.164754,9992.780217
1874.802272,0.000000,222.061783,9696.697840
1874.802590,612.876398,-0.000000,9474.636058
1874.802907,919.314598,-148.041188,9474.636058
1874.803224,842.705048,-74.020594,9178.553681
1874.803542,842.705048,-148.041188,9252.574275
1874.803859,919.314598,-148.041188,9400.615463
1874.804177,1378.971896,-0.000000,9178.553681
1874.804494,1072.533697,370.102971,9474.636058
1874.804812,1149.143247,222.061783,9178.553681
1874.805129,919.314598,-0.000000,9474.636058
1874.805447,766.095498,-0.000000,9030.512492
1874.805764,919.314598,-148.041188,9030.512492
1874.806081,689.485948,-370.102971,9178.553681
1874.806399,919.314598,-518.144159,9400.615463
1874.806716,995.924147,-592.164754,9474.636058
1874.807034,1149.143247,-0.000000,9548.656652
1874.807351,1532.190996,666.185348,9474.636058
1874.807669,919.314598,370.102971,9474.636058
1874.807986,1532.190996,592.164754,9400.615463
1874.808303,1455.581446,222.061783,9326.594869
1874.808621,1838.629195,444.123565,8882.471304
1874.808938,1685.410096,-0.000000,8808.450710
1874.809256,1762.019645,-74.020594,9030.512492
1874.809573,1915.238745,-148.041188,9178.553681
1874.809891,1915.238745,-296.082377,9104.533087
1874.810208,1378.971896,-0.000000,9178.553681
1874.810526,1302.362347,222.061783,9104.533087
1874.810843,1302.362347,148.041188,8956.491898
1874.811160,536.266849,-0.000000,8882.471304
1874.811478,612.876398,-148.041188,9104.533087
1874.811795,153.219100,-518.144159,9030.512492
1874.812113,0.000000,-518.144159,9400.615463
1874.812430,0.000000,-370.102971,9622.677246
1874.812748,0.000000,-444.123565,10066.800811
1874.813065,0.000000,-0.000000,9548.656652
1874.813383,0.000000,296.082377,9548.656652
1874.813700,459.657299,666.185348,9474.636058
1874.814017,229.828649,444.123565,9474.636058
1874.814335,689.485948,-0.000000,9400.615463
1874.814652,383.047749,148.041188,9400.615463
1874.814970,229.828649,-0.000000,9474.636058
1874.815287,383.047749,-74.020594,9474.636058
1874.815605,689.485948,222.061783,9548.656652
1874.815922,536.266849,592.164754,9696.697840
1874.816239,689.485948,666.185348,9474.636058
1874.816557,459.657299,888.247130,9030.512492
1874.816874,612.876398,592.164754,9252.574275
1874.817192,536.266849,370.102971,9252.574275
1874.817509,459.657299,-0.000000,9474.636058
1874.817827,229.828649,-74.020594,9474.636058
1874.818144,459.657299,-74.020594,9918.759623
1874.818462,536.266849,-222.061783,10066.800811
1874.818779,689.485948,222.061783,9622.677246
1874.819096,842.705048,444.123565,9548.656652
1874.819414,1225.752797,740.205942,9696.697840
1874.819731,1762.019645,962.267725,9252.574275
1874.820049,1225.752797,888.247130,9548.656652
1874.820366,2068.457845,592.164754,9178.553681
1874.820684,2145.067394,370.102971,9178.553681
1874.821001,1838.629195,-0.000000,9474.636058
1874.821319,1762.019645,296.082377,9548.656652
1874.821636,1532.190996,370.102971,9696.697840
1874.821953,1838.629195,888.247130,9696.697840
1874.822271,1762.019645,1036.288319,9474.636058
1874.822588,1685.410096,1036.288319,9400.615463
1874.822906,1302.362347,1036.288319,9252.574275
1874.823223,1455.581446,296.082377,9474.636058
1874.823541,842.705048,-0.000000,9548.656652
1874.823858,459.657299,-296.082377,9326.594869
1874.824175,306.438199,-74.020594,9844.739029
1874.824493,153.219100,-0.000000,9918.759623
1874.824810,153.219100,222.061783,9918.759623
1874.825128,306.438199,888.247130,9992.780217
1874.825445,536.266849,1110.308913,9622.677246
1874.825763,842.705048,1110.308913,9030.512492
1874.826080,766.095498,962.267725,8882.471304
1874.826398,612.876398,222.061783,8808.450710
1874.826715,766.095498,-0.000000,8734.430116
1874.827032,536.266849,-0.000000,8956.491898
1874.827350,766.095498,148.041188,9178.553681
1874.827667,536.266849,148.041188,9178.553681
1874.827985,229.828649,592.164754,9474.636058
1874.828302,0.000000,222.061783,9178.553681
1874.828620,0.000000,222.061783,9104.533087
1874.828937,0.000000,-0.000000,9104.533087
1874.829254,0.000000,-74.020594,9104.533087
1874.829572,-229.828649,-444.123565,8882.471304
1874.829889,-612.876398,-370.102971,9474.636058
1874.830207,-383.047749,-296.082377,9918.759623
1874.830524,-383.047749,-0.000000,9844.739029
1874.830842,-229.828649,-0.000000,9844.739029
1874.831159,0.000000,518.144159,9918.759623
1874.831477,153.219100,666.185348,9548.656652
1874.831794,995.924147,592.164754,9178.553681
1874.832111,1455.581446,518.144159,8956.491898
1874.832429,1838.629195,296.082377,8882.471304
1874.832746,1991.848295,-0.000000,8512.368333
1874.833064,1378.971896,-0.000000,8956.491898
1874.833381,1762.019645,-0.000000,9030.512492
1874.833699,1915.238745,296.082377,9030.512492
1874.834016,1455.581446,444.123565,9104.533087
1874.834334,1685.410096,888.247130,8956.491898
1874.834651,1608.800546,444.123565,9178.553681
1874.834968,1149.143247,-0.000000,9326.594869
1874.835286,995.924147,-296.082377,9400.615463
1874.835603,995.924147,-518.144159,9622.677246
1874.835921,612.876398,-518.144159,10066.800811
1874.836238,842.705048,-0.000000,9992.780217
1874.836556,995.924147,370.102971,10140.821405
1874.836873,1225.752797,666.185348,9844.739029
1874.837190,1532.190996,962.267725,9696.697840
1874.837508,1685.410096,888.247130,9252.574275
1874.837825,1762.019645,518.144159,9326.594869
1874.838143,1455.581446,-0.000000,9104.533087
1874.838460,1302.362347,-370.102971,9474.636058
1874.838778,842.705048,-222.061783,9548.656652
1874.839095,995.924147,-0.000000,9696.697840
1874.839413,995.924147,148.041188,9474.636058
1874.839730,995.924147,296.082377,9696.697840
1874.840047,306.438199,148.041188,9844.739029
1874.840365,459.657299,-0.000000,9474.636058
1874.840682,229.828649,-0.000000,9474.636058
1874.841000,76.609550,-148.041188,9326.594869
1874.841317,0.000000,-444.123565,9474.636058
1874.841635,-306.438199,-740.205942,9770.718434
1874.841952,-153.219100,-296.082377,9622.677246
1874.842270,-229.828649,-222.061783,9992.780217
1874.842587,76.609550,296.082377,9918.759623
1874.842904,306.438199,592.164754,9548.656652
1874.843222,612.876398,592.164754,9696.697840
1874.843539,842.705048,444.123565,9252.574275
1874.843857,842.705048,444.123565,9104.533087
1874.844174,995.924147,148.041188,8882.471304
1874.844492,612.876398,-74.020594,9104.533087
1874.844809,995.924147,-0.000000,9400.615463
1874.845126,612.876398,74.020594,9548.656652
1874.845444,689.485948,-0.000000,9548.656652
1874.845761,842.705048,-0.000000,9474.636058
1874.846079,919.314598,666.185348,9400.615463
1874.846396,995.924147,444.123565,8808.450710
1874.846714,995.924147,222.061783,8808.450710
1874.847031,919.314598,-0.000000,8882.471304
1874.847349,919.314598,-74.020594,9104.533087
1874.847666,1072.533697,-296.082377,9178.553681
1874.847984,842.705048,-0.000000,9400.615463
1874.848301,689.485948,370.102971,9474.636058
1874.848619,842.705048,148.041188,9844.739029
1874.848936,919.314598,666.185348,9622.677246
1874.849254,919.314598,518.144159,9918.759623
1874.849571,995.924147,740.205942,9696.697840
1874.849889,995.924147,444.123565,9326.594869
1874.850206,1072.533697,-0.000000,8956.491898
1874.850523,1072.533697,-0.000000,9326.594869
1874.850841,689.485948,-0.000000,9400.615463
1874.851158,1072.533697,296.082377,9400.615463
1874.851476,1072.533697,592.164754,9252.574275
1874.851793,766.095498,962.267725,9326.594869
1874.852111,612.876398,888.247130,9104.533087
1874.852428,76.609550,518.144159,9326.594869
1874.852746,383.047749,148.041188,9400.615463
1874.853063,0.000000,-0.000000,9400.615463
1874.853381,0.000000,-0.000000,9252.574275
1874.853698,0.000000,148.041188,9696.697840
1874.854016,-153.219100,-0.000000,9918.759623
1874.854333,-383.047749,296.082377,10288.862594
1874.854651,0.000000,814.226536,9992.780217
1874.854968,0.000000,740.205942,9696.697840
1874.855286,0.000000,888.247130,9918.759623
1874.855603,153.219100,740.205942,9696.697840
1874.855921,612.876398,592.164754,9400.615463
1874.856238,612.876398,444.123565,9326.594869
1874.856556,919.314598,666.185348,9400.615463
1874.856873,1455.581446,666.185348,9548.656652
1874.857191,1225.752797,814.226536,9474.636058
1874.857508,766.095498,444.123565,9400.615463
1874.857826,1072.533697,444.123565,9622.677246
1874.858143,1685.410096,370.102971,9474.636058
1874.858461,995.924147,370.102971,9326.594869
1874.858778,919.314598,296.082377,9252.574275
1874.859095,459.657299,222.061783,9400.615463
1874.859413,536.266849,-0.000000,9696.697840
1874.859730,306.438199,296.082377,9844.739029
1874.860048,919.314598,518.144159,9918.759623
1874.860365,536.266849,518.144159,9844.739029
1874.860683,689.485948,592.164754,9770.718434
1874.861000,842.705048,666.185348,9548.656652
1874.861318,995.924147,148.041188,9548.656652
1874.861635,842.705048,296.082377,9326.594869
1874.861953,1072.533697,222.061783,9104.533087
1874.862270,919.314598,296.082377,9326.594869
1874.862588,766.095498,-0.000000,9474.636058
1874.862905,689.485948,296.082377,9400.615463
1874.863223,459.657299,518.144159,9474.636058
1874.863540,459.657299,592.164754,9400.615463
1874.863858,306.438199,814.226536,9104.533087
1874.864175,76.609550,444.123565,9030.512492
1874.864493,-383.047749,-0.000000,9104.533087
1874.864810,-612.876398,-74.020594,9030.512492
1874.865128,-919.314598,-148.041188,9548.656652
1874.865445,-766.095498,-296.082377,9918.759623
1874.865763,-1378.971896,-148.041188,10066.800811
1874.866080,-459.657299,-0.000000,10288.862594
1874.866398,-383.047749,444.123565,9992.780217
1874.866715,76.609550,740.205942,9770.718434
1874.867033,689.485948,814.226536,9474.636058
1874.867350,1225.752797,814.226536,9030.512492
1874.867668,1455.581446,592.164754,9178.553681
1874.867985,1685.410096,666.185348,8956.491898
1874.868302,1762.019645,296.082377,9030.512492
1874.868620,1838.629195,296.082377,9030.512492
1874.868937,2068.457845,370.102971,9252.574275
1874.869255,1915.238745,518.144159,8956.491898
1874.869572,1455.581446,370.102971,8956.491898
1874.869890,1455.581446,222.061783,8956.491898
1874.870207,1302.362347,-0.000000,8956.491898
1874.870525,1455.581446,-0.000000,9474.636058
1874.870842,995.924147,-444.123565,9548.656652
1874.871160,689.485948,-740.205942,9918.759623
1874.871477,459.657299,-592.164754,10214.842000
1874.871795,689.485948,-370.102971,10140.821405
1874.872112,76.609550,-370.102971,10362.883188
1874.872430,689.485948,370.102971,10066.800811
1874.872747,919.314598,444.123565,9696.697840
1874.873065,1149.143247,222.061783,9178.553681
1874.873382,1455.581446,-296.082377,9178.553681
1874.873700,1532.190996,-592.164754,9178.553681
1874.874017,1378.971896,-222.061783,9104.533087
1874.874335,1378.971896,-370.102971,8956.491898
1874.874652,1225.752797,-222.061783,9400.615463
1874.874970,1225.752797,-0.000000,9252.574275
1874.875287,1378.971896,-0.000000,9104.533087
1874.875605,919.314598,-0.000000,9030.512492
1874.875922,995.924147,74.020594,8808.450710
1874.876240,612.876398,-222.061783,9178.553681
1874.876557,153.219100,-666.185348,9252.574275
1874.876874,0.000000,-1036.288319,9548.656652
1874.877192,-76.609550,-444.123565,9548.656652
1874.877509,0.000000,-222.061783,10214.842000
1874.877827,229.828649,-0.000000,10214.842000
1874.878144,766.095498,222.061783,9474.636058
1874.878462,766.095498,518.144159,9622.677246
1874.878779,612.876398,592.164754,9474.636058
1874.879097,842.705048,370.102971,9178.553681
1874.879414,1225.752797,296.082377,9178.553681
1874.879732,1225.752797,370.102971,9030.512492
1874.880049,1149.143247,148.041188,9178.553681
1874.880367,1225.752797,666.185348,9178.553681
1874.880684,1225.752797,518.144159,9178.553681
1874.881002,1302.362347,592.164754,9252.574275
1874.881319,1072.533697,518.144159,9326.594869
1874.881637,1072.533697,740.205942,9178.553681
1874.881954,919.314598,518.144159,9178.553681
1874.882272,842.705048,222.061783,9252.574275
1874.882589,1302.362347,-0.000000,9030.512492
1874.882907,229.828649,-222.061783,9770.718434
1874.883224,383.047749,-0.000000,9770.718434
1874.883542,153.219100,74.020594,10214.842000
1874.883859,383.047749,370.102971,10214.842000
1874.884177,1149.143247,444.123565,10362.883188
1874.884494,995.924147,962.267725,9844.739029
1874.884812,1608.800546,814.226536,9548.656652
1874.885129,1608.800546,814.226536,9030.512492
1874.885446,1685.410096,444.123565,8882.471304
1874.885764,1915.238745,222.061783,9030.512492
1874.886081,2068.457845,444.123565,9030.512492
1874.886399,1915.238745,222.061783,9178.553681
1874.886716,2068.457845,518.144159,9696.697840
1874.887034,1915.238745,518.144159,9474.636058
1874.887351,1378.971896,444.123565,9400.615463
1874.887669,1149.143247,148.041188,9400.615463
1874.887986,842.705048,-0.000000,9326.594869
1874.888304,536.266849,-296.082377,9252.574275
1874.888621,306.438199,-74.020594,9770.718434
1874.888939,229.828649,-222.061783,9622.677246
1874.889256,76.609550,-296.082377,10214.842000
1874.889574,76.609550,-222.061783,10510.924376
1874.889891,229.828649,-222.061783,10584.944971
1874.890209,306.438199,-0.000000,10066.800811
1874.890526,383.047749,148.041188,9992.780217
1874.890844,766.095498,444.123565,9474.636058
1874.891161,919.314598,296.082377,9252.574275
1874.891479,1149.143247,-0.000000,9104.533087
1874.891796,766.095498,-296.082377,9252.574275
1874.892114,1072.533697,-0.000000,9400.615463
1874.892431,919.314598,-222.061783,9252.574275
1874.892749,306.438199,222.061783,9474.636058
1874.893066,536.266849,-148.041188,9918.759623
1874.893384,0.000000,74.020594,9178.553681
1874.893701,76.609550,222.061783,8956.491898
1874.894019,0.000000,-0.000000,9252.574275
1874.894336,0.000000,-222.061783,9474.636058
1874.894653,0.000000,-666.185348,9474.636058
1874.894971,-153.219100,-518.144159,9696.697840
1874.895288,76.609550,-296.082377,9696.697840
1874.895606,536.266849,370.102971,9696.697840
1874.895923,459.657299,740.205942,9178.553681
1874.896241,919.314598,962.267725,9474.636058
1874.896558,1455.581446,1332.370696,8882.471304
1874.896876,1378.971896,1036.288319,8660.409521
1874.897193,1838.629195,592.164754,8586.388927
1874.897511,1685.410096,222.061783,8586.388927
1874.897828,1762.019645,222.061783,8586.388927
1874.898146,1915.238745,148.041188,8734.430116
1874.898463,1378.971896,370.102971,8882.471304
1874.898781,1532.190996,666.185348,8808.450710
1874.899098,1149.143247,888.247130,8660.409521
1874.899416,1608.800546,518.144159,8660.409521
1874.899733,1072.533697,222.061783,9104.533087
1874.900051,612.876398,-0.000000,9252.574275
1874.900368,383.047749,-222.061783,9474.636058
1874.900686,229.828649,-148.041188,9622.677246
1874.901003,383.047749,-0.000000,9622.677246
1874.901321,612.876398,518.144159,9992.780217
1874.901638,842.705048,888.247130,9992.780217
1874.901956,919.314598,888.247130,9844.739029
1874.902273,995.924147,1036.288319,9474.636058
1874.902591,1225.752797,1258.350101,9474.636058
1874.902908,1378.971896,814.226536,9326.594869
1874.903225,1378.971896,592.164754,9252.574275
1874.903543,1149.143247,148.041188,9178.553681
1874.903860,689.485948,-74.020594,9474.636058
1874.904178,689.485948,-148.041188,9622.677246
1874.904495,229.828649,-0.000000,9622.677246
1874.904813,229.828649,-0.000000,9844.739029
1874.905130,-229.828649,-0.000000,9918.759623
1874.905448,-153.219100,-74.020594,9844.739029
1874.905765,-229.828649,-148.041188,9770.718434
1874.906083,-612.876398,-666.185348,9770.718434
1874.906400,-306.438199,-518.144159,10214.842000
1874.906718,-459.657299,-444.123565,10362.883188
1874.907035,0.000000,222.061783,10510.924376
1874.907353,153.219100,444.123565,10584.944971
1874.907670,842.705048,1110.308913,10140.821405
1874.907988,919.314598,962.267725,9844.739029
1874.908305,1532.190996,814.226536,9770.718434
1874.908623,2298.286494,296.082377,9104.533087
1874.908940,2068.457845,444.123565,9178.553681
1874.909258,1915.238745,-0.000000,8660.409521
1874.909575,1915.238745,148.041188,8956.491898
1874.909893,1838.629195,-74.020594,9104.533087
1874.910210,1915.238745,222.061783,9252.574275
1874.910528,1762.019645,148.041188,9252.574275
1874.910845,1685.410096,222.061783,9326.594869
1874.911163,1149.143247,148.041188,9178.553681
1874.911480,1072.533697,-0.000000,9104.533087
1874.911797,1072.533697,-74.020594,9178.553681
1874.912115,766.095498,-0.000000,9252.574275
1874.912432,842.705048,-0.000000,9474.636058
1874.912750,612.876398,222.061783,9474.636058
1874.913067,995.924147,444.123565,9548.656652
1874.913385,995.924147,444.123565,9400.615463
1874.913702,1149.143247,888.247130,9474.636058
1874.914020,1302.362347,666.185348,9178.553681
1874.914337,1149.143247,888.247130,8808.450710
1874.914655,1072.533697,666.185348,8364.327145
1874.914972,1072.533697,444.123565,8586.388927
1874.915290,766.095498,222.061783,8734.430116
1874.915607,842.705048,-0.000000,8882.471304
1874.915925,306.438199,-0.000000,9104.533087
1874.916242,153.219100,-74.020594,9326.594869
1874.916560,153.219100,-0.000000,9400.615463
1874.916877,76.609550,148.041188,9178.553681
1874.917195,76.609550,-0.000000,9178.553681
1874.917512,76.609550,-148.041188,9252.574275
1874.917830,-383.047749,-370.102971,9326.594869
1874.918147,-612.876398,-518.144159,9326.594869
1874.918465,-842.705048,-444.123565,9918.759623
1874.918782,-536.266849,-0.000000,9770.718434
1874.919100,-153.219100,-0.000000,9622.677246
1874.919417,-383.047749,370.102971,9992.780217
1874.919735,-153.219100,370.102971,9844.739029
1874.920052,-76.609550,518.144159,9622.677246
1874.920370,459.657299,444.123565,9474.636058
1874.920687,536.266849,296.082377,9400.615463
1874.921004,536.266849,222.061783,9178.553681
1874.921322,459.657299,-0.000000,9400.615463
1874.921639,766.095498,74.020594,9474.636058
1874.921957,919.314598,370.102971,9770.718434
1874.922274,689.485948,518.144159,9474.636058
1874.922592,995.924147,518.144159,9474.636058
1874.922909,995.924147,148.041188,9474.636058
1874.923227,766.095498,222.061783,9400.615463
1874.923544,842.705048,-0.000000,9696.697840
1874.923862,842.705048,370.102971,9474.636058
1874.924179,842.705048,74.020594,9474.636058
1874.924497,842.705048,296.082377,9844.739029
1874.924814,995.924147,666.185348,9992.780217
1874.925132,1072.533697,1036.288319,9696.697840
1874.925449,1532.190996,1258.350101,9474.636058
1874.925767,1915.238745,1332.370696,9252.574275
1874.926084,1991.848295,1184.329507,9326.594869
1874.926402,1685.410096,888.247130,9252.574275
1874.926719,1608.800546,740.205942,8882.471304
1874.927037,1762.019645,666.185348,9104.533087
1874.927354,1608.800546,518.144159,9326.594869
1874.927672,1532.190996,296.082377,9252.574275
1874.927989,1685.410096,666.185348,9474.636058
1874.928307,1149.143247,666.185348,9474.636058
1874.928624,995.924147,1110.308913,9252.574275
1874.928942,995.924147,814.226536,8882.471304
1874.929259,766.095498,370.102971,9252.574275
1874.929576,229.828649,-0.000000,9474.636058
1874.929894,0.000000,-0.000000,9400.615463
1874.930211,0.000000,-0.000000,9548.656652
1874.930529,-153.219100,-0.000000,9992.780217
1874.930846,0.000000,518.144159,9992.780217
1874.931164,306.438199,444.123565,9918.759623
1874.931481,459.657299,814.226536,9696.697840
1874.931799,612.876398,444.123565,9474.636058
1874.932116,689.485948,518.144159,9252.574275
1874.932434,766.095498,222.061783,9252.574275
1874.932751,229.828649,-148.041188,9326.594869
1874.933069,306.438199,-222.061783,9548.656652
1874.933386,0.000000,-74.020594,9696.697840
1874.933704,0.000000,-0.000000,9696.697840
1874.934021,0.000000,-0.000000,9992.780217
1874.934339,0.000000,-74.020594,9992.780217
1874.934656,-306.438199,-296.082377,9696.697840
1874.934974,0.000000,-666.185348,9548.656652
1874.935291,-229.828649,-962.267725,9622.677246
1874.935609,-612.876398,-1110.308913,9548.656652
1874.935926,0.000000,-888.247130,9992.780217
1874.936244,-153.219100,-666.185348,9992.780217
1874.936561,0.000000,-222.061783,9992.780217
1874.936879,459.657299,-0.000000,9770.718434
1874.937196,995.924147,666.185348,9696.697840
1874.937514,1378.971896,370.102971,9326.594869
1874.937831,1762.019645,666.185348,9030.512492
1874.938148,1838.629195,370.102971,9030.512492
1874.938466,2145.067394,444.123565,8586.388927
1874.938783,2528.115143,-0.000000,8956.491898
1874.939101,2221.676944,296.082377,8808.450710
1874.939418,2068.457845,296.082377,8956.491898
1874.939736,2298.286494,666.185348,9104.533087
1874.940053,2068.457845,518.144159,9178.553681
1874.940371,2221.676944,592.164754,9400.615463
1874.940688,1838.629195,592.164754,9104.533087
1874.941006,1532.190996,666.185348,8956.491898
1874.941323,1302.362347,-0.000000,8660.409521
1874.941641,1149.143247,-74.020594,9104.533087
1874.941958,1302.362347,-592.164754,8956.491898
1874.942276,1072.533697,-222.061783,9252.574275
1874.942593,1149.143247,-0.000000,9622.677246
1874.942911,1378.971896,222.061783,9622.677246
1874.943228,919.314598,370.102971,9622.677246
1874.943546,1225.752797,518.144159,9548.656652
1874.943863,1455.581446,444.123565,9252.574275
1874.944181,919.314598,74.020594,9030.512492
1874.944498,766.095498,-74.020594,9252.574275
1874.944816,536.266849,-370.102971,9030.512492
1874.945133,612.876398,-148.041188,9548.656652
1874.945451,306.438199,-222.061783,9474.636058
1874.945768,306.438199,-0.000000,9622.677246
1874.946086,76.609550,-0.000000,9548.656652
1874.946403,0.000000,148.041188,9548.656652
1874.946721,76.609550,-74.020594,9474.636058
1874.947038,-612.876398,-296.082377,9326.594869
1874.947355,-689.485948,-370.102971,9474.636058
1874.947673,-1225.752797,-518.144159,9696.697840
1874.947990,-919.314598,-666.185348,10066.800811
1874.948308,-1225.752797,-296.082377,10214.842000
1874.948625,-995.924147,-0.000000,10066.800811
1874.948943,-766.095498,666.185348,10066.800811
1874.949260,-383.047749,814.226536,9770.718434
1874.949578,0.000000,814.226536,9474.636058
1874.949895,153.219100,1110.308913,9104.533087
1874.950212,536.266849,1184.329507,9252.574275
1874.950530,842.705048,1110.308913,9104.533087
1874.950847,995.924147,888.247130,8734.430116
1874.951165,1455.581446,888.247130,9400.615463
1874.951482,1302.362347,888.247130,9326.594869
1874.951800,1455.581446,962.267725,9474.636058
1874.952117,1225.752797,1036.288319,9252.574275
1874.952434,1915.238745,666.185348,8956.491898
1874.952752,1532.190996,370.102971,9178.553681
1874.953069,1455.581446,296.082377,8956.491898
1874.953387,842.705048,-0.000000,9252.574275
1874.953704,919.314598,-0.000000,9474.636058
1874.954022,995.924147,-0.000000,9622.677246
1874.954339,1149.143247,518.144159,9696.697840
1874.954656,1455.581446,962.267725,9918.759623
1874.954974,1455.581446,888.247130,9474.636058
1874.955291,1532.190996,518.144159,9622.677246
1874.955609,1608.800546,296.082377,9474.636058
1874.955926,1838.629195,-0.000000,9474.636058
1874.956244,2221.676944,370.102971,9326.594869
1874.956561,1685.410096,-0.000000,9400.615463
1874.956878,1532.190996,-0.000000,9474.636058
1874.957196,1455.581446,296.082377,9474.636058
1874.957513,1225.752797,592.164754,9474.636058
1874.957831,1455.581446,518.144159,9474.636058
1874.958148,1072.533697,444.123565,9474.636058
1874.958466,1072.533697,-74.020594,9474.636058
1874.958783,229.828649,-296.082377,9548.656652
1874.959100,0.000000,-518.144159,9474.636058
1874.959418,-229.828649,-666.185348,9696.697840
1874.959735,0.000000,-0.000000,9770.718434
1874.960053,0.000000,-222.061783,9992.780217
1874.960370,-229.828649,-0.000000,9770.718434
1874.960688,0.000000,222.061783,9918.759623
1874.961005,0.000000,-0.000000,9622.677246
1874.961322,229.828649,222.061783,9622.677246
1874.961640,229.828649,-0.000000,9252.574275
1874.961957,459.657299,-592.164754,9400.615463
1874.962275,766.095498,-0.000000,9252.574275
1874.962592,153.219100,-518.144159,9326.594869
1874.962909,383.047749,-444.123565,9548.656652
1874.963227,689.485948,-222.061783,9474.636058
1874.963544,689.485948,-296.082377,9474.636058
1874.963862,689.485948,-148.041188,9400.615463
1874.964179,919.314598,-0.000000,9252.574275
1874.964497,766.095498,-296.082377,9178.553681
1874.964814,995.924147,-296.082377,9030.512492
1874.965131,842.705048,-666.185348,8956.491898
1874.965449,995.924147,-518.144159,9178.553681
1874.965766,995.924147,-370.102971,9326.594869
1874.966084,1685.410096,-148.041188,9548.656652
1874.966401,1532.190996,370.102971,9844.739029
1874.966719,1915.238745,814.226536,9548.656652
1874.967036,1915.238745,592.164754,9178.553681
1874.967353,2145.067394,592.164754,8882.471304
1874.967671,2145.067394,518.144159,9030.512492
1874.967988,2068.457845,222.061783,9030.512492
1874.968306,1991.848295,-0.000000,8882.471304
1874.968623,1915.238745,296.082377,9030.512492
1874.968941,1915.238745,518.144159,9104.533087
1874.969258,1838.629195,370.102971,9252.574275
1874.969575,1991.848295,444.123565,9104.533087
1874.969893,1455.581446,222.061783,8956.491898
1874.970210,1225.752797,-0.000000,9030.512492
1874.970528,919.314598,-0.000000,8660.409521
1874.970845,612.876398,-444.123565,9104.533087
1874.971163,229.828649,-222.061783,9252.574275
1874.971480,0.000000,-0.000000,9474.636058
1874.971797,76.609550,-0.000000,9696.697840
1874.972115,0.000000,-0.000000,9844.739029
1874.972432,153.219100,296.082377,9844.739029
1874.972750,229.828649,592.164754,9622.677246
1874.973067,76.609550,518.144159,9178.553681
1874.973385,536.266849,666.185348,9030.512492
1874.973702,919.314598,370.102971,9178.553681
1874.974019,612.876398,592.164754,8956.491898
1874.974337,536.266849,296.082377,9104.533087
1874.974654,76.609550,74.020594,9252.574275
1874.974972,229.828649,-0.000000,9770.718434
1874.975289,-612.876398,222.061783,9844.739029
1874.975606,-612.876398,296.082377,9918.759623
1874.975924,-383.047749,296.082377,9770.718434
1874.976241,-536.266849,-0.000000,9770.718434
1874.976559,-842.705048,222.061783,9770.718434
1874.976876,-612.876398,-222.061783,10288.862594
1874.977194,-689.485948,-74.020594,10140.821405
1874.977511,-536.266849,-0.000000,10362.883188
1874.977828,0.000000,592.164754,10288.862594
1874.978146,306.438199,962.267725,10362.883188
1874.978463,919.314598,1480.411884,10288.862594
1874.978781,1225.752797,1480.411884,9474.636058
1874.979098,1685.410096,1628.453072,9252.574275
1874.979416,1838.629195,1036.288319,8882.471304
1874.979733,1378.971896,740.205942,8882.471304
1874.980050,1608.800546,592.164754,8956.491898
1874.980368,1762.019645,370.102971,9178.553681
1874.980685,1455.581446,444.123565,9548.656652
1874.981003,1072.533697,666.185348,9474.636058
1874.981320,1302.362347,962.267725,9622.677246
1874.981638,842.705048,740.205942,9400.615463
1874.981955,1149.143247,962.267725,9474.636058
1874.982272,689.485948,518.144159,9104.533087
1874.982590,612.876398,370.102971,9252.574275
1874.982907,383.047749,-0.000000,9548.656652
1874.983225,689.485948,-0.000000,9474.636058
1874.983542,842.705048,296.082377,9622.677246
1874.983860,689.485948,370.102971,9770.718434
1874.984177,1072.533697,962.267725,9696.697840
1874.984494,1225.752797,592.164754,9622.677246
1874.984812,1532.190996,666.185348,9474.636058
1874.985129,1532.190996,666.185348,9030.512492
1874.985447,1685.410096,592.164754,8956.491898
1874.985764,1838.629195,444.123565,8882.471304
1874.986082,1762.019645,-0.000000,8734.430116
1874.986399,1455.581446,-0.000000,9326.594869
1874.986716,1225.752797,-74.020594,9622.677246
1874.987034,1302.362347,-0.000000,9548.656652
1874.987351,1685.410096,-74.020594,9844.739029
1874.987669,1302.362347,370.102971,9474.636058
1874.987986,1072.533697,-0.000000,9030.512492
1874.988304,1072.533697,-444.123565,9400.615463
1874.988621,689.485948,-666.185348,9400.615463
1874.988938,766.095498,-1110.308913,9474.636058
1874.989256,306.438199,-888.247130,9696.697840
1874.989573,459.657299,-370.102971,9696.697840
1874.989891,306.438199,-222.061783,9918.759623
1874.990208,76.609550,148.041188,9918.759623
1874.990525,0.000000,740.205942,9474.636058
1874.990843,153.219100,370.102971,9326.594869
1874.991160,76.609550,-0.000000,9252.574275
1874.991478,0.000000,-222.061783,9326.594869
1874.991795,0.000000,-740.205942,9474.636058
1874.992113,-306.438199,-814.226536,9548.656652
1874.992430,0.000000,-518.144159,9770.718434
1874.992747,-229.828649,-0.000000,9474.636058
1874.993065,0.000000,518.144159,9474.636058
1874.993382,153.219100,666.185348,9474.636058
1874.993700,0.000000,74.020594,9326.594869
1874.994017,153.219100,444.123565,9178.553681
1874.994335,383.047749,148.041188,8956.491898
1874.994652,383.047749,-0.000000,9326.594869
1874.994969,919.314598,148.041188,9474.636058
1874.995287,842.705048,444.123565,9400.615463
1874.995604,1378.971896,444.123565,9178.553681
1874.995922,1532.190996,666.185348,9326.594869
1874.996239,1685.410096,740.205942,9104.533087
1874.996557,1915.238745,740.205942,9104.533087
1874.996874,1991.848295,666.185348,9178.553681
1874.997191,2451.505594,518.144159,8956.491898
1874.997509,2451.505594,296.082377,8734.430116
1874.997826,2451.505594,148.041188,8882.471304
1874.998144,2451.505594,222.061783,9104.533087
1874.998461,2221.676944,-0.000000,9178.553681
1874.998779,1915.238745,370.102971,9400.615463
1874.999096,1685.410096,666.185348,9474.636058
1874.999413,1762.019645,814.226536,9474.636058
1874.999731,1532.190996,518.144159,9326.594869
1875.000048,1378.971896,444.123565,9400.615463
1875.000366,919.314598,148.041188,9326.594869
1875.000683,1072.533697,-0.000000,9696.697840
1875.001001,919.314598,-0.000000,9770.718434
1875.001318,612.876398,-0.000000,9844.739029
1875.001635,612.876398,148.041188,9992.780217
1875.001953,306.438199,296.082377,9770.718434
1875.002270,459.657299,-0.000000,9474.636058
1875.002588,0.000000,370.102971,9474.636058
1875.002905,76.609550,222.061783,9474.636058
1875.003223,0.000000,-74.020594,9474.636058
1875.003540,-766.095498,-296.082377,9474.636058
1875.003857,-689.485948,-666.185348,9548.656652
1875.004175,-842.705048,-0.000000,9696.697840
1875.004492,-842.705048,-0.000000,9992.780217
1875.004810,-766.095498,148.041188,9474.636058
1875.005127,-766.095498,296.082377,9622.677246
1875.005444,-459.657299,222.061783,9548.656652
1875.005762,-842.705048,-0.000000,9548.656652
1875.006079,-1072.533697,-0.000000,9474.636058
1875.006397,-689.485948,-148.041188,9696.697840
1875.006714,-383.047749,-0.000000,9474.636058
1875.007032,0.000000,518.144159,9622.677246
1875.007349,0.000000,740.205942,9622.677246
1875.007666,306.438199,962.267725,9844.739029
1875.007984,766.095498,1258.350101,9474.636058
1875.008301,1149.143247,1258.350101,9252.574275
1875.008619,1378.971896,814.226536,9400.615463
1875.008936,1838.629195,1110.308913,8956.491898
1875.009254,2145.067394,1258.350101,8956.491898
1875.009571,1991.848295,1110.308913,8734.430116
1875.009888,2145.067394,888.247130,8808.450710
1875.010206,2068.457845,1110.308913,9178.553681
1875.010523,1991.848295,1406.391290,8956.491898
1875.010841,2145.067394,1110.308913,9474.636058
1875.011158,2145.067394,1110.308913,8956.491898
1875.011476,2145.067394,1036.288319,9178.553681
1875.011793,1532.190996,592.164754,8956.491898
1875.012110,1225.752797,-0.000000,9400.615463
1875.012428,766.095498,-148.041188,9474.636058
1875.012745,459.657299,-222.061783,9696.697840
1875.013063,383.047749,-222.061783,9992.780217
1875.013380,76.609550,-0.000000,10288.862594
1875.013698,306.438199,-0.000000,10066.800811
1875.014015,383.047749,370.102971,9992.780217
1875.014332,306.438199,148.041188,9622.677246
1875.014650,0.000000,-74.020594,9622.677246
1875.014967,612.876398,-0.000000,9400.615463
1875.015285,536.266849,-222.061783,9326.594869
1875.015602,919.314598,-592.164754,9548.656652
1875.015920,536.266849,-296.082377,9622.677246
1875.016237,766.095498,-0.000000,9770.718434
1875.016554,383.047749,296.082377,9622.677246
1875.016872,459.657299,592.164754,9622.677246
1875.017189,306.438199,296.082377,9474.636058
1875.017507,76.609550,-74.020594,9474.636058
1875.017824,153.219100,-74.020594,9474.636058
1875.018141,153.219100,-444.123565,9770.718434
1875.018459,0.000000,-148.041188,9770.718434
1875.018776,153.219100,-74.020594,9770.718434
1875.019094,306.438199,-0.000000,9696.697840
1875.019411,383.047749,444.123565,10066.800811
1875.019729,689.485948,814.226536,9696.697840
1875.020046,1149.143247,888.247130,9252.574275
1875.020363,1225.752797,740.205942,9474.636058
1875.020681,1225.752797,-0.000000,9104.533087
1875.020998,1378.971896,148.041188,8956.491898
1875.021316,1455.581446,-0.000000,8882.471304
1875.021633,1225.752797,148.041188,9178.553681
1875.021951,1455.581446,-0.000000,9252.574275
1875.022268,1302.362347,-0.000000,9178.553681
1875.022585,1072.533697,222.061783,8808.450710
1875.022903,536.266849,222.061783,8882.471304
1875.023220,842.705048,-0.000000,8956.491898
1875.023538,689.485948,-296.082377,8660.409521
1875.023855,383.047749,-296.082377,9178.553681
1875.024173,153.219100,-518.144159,9104.533087
1875.024490,153.219100,-666.185348,9474.636058
1875.024807,0.000000,-370.102971,9474.636058
1875.025125,306.438199,-74.020594,9622.677246
1875.025442,612.876398,-0.000000,9770.718434
1875.025760,995.924147,222.061783,9696.697840
1875.026077,1532.190996,222.061783,9178.553681
1875.026395,1532.190996,148.041188,9252.574275
1875.026712,1378.971896,-0.000000,8882.471304
1875.027029,1608.800546,-0.000000,8808.450710
1875.027347,1532.190996,-0.000000,8882.471304
1875.027664,1455.581446,-0.000000,9252.574275
1875.027982,1838.629195,-0.000000,9252.574275
1875.028299,1302.362347,148.041188,9474.636058
1875.028617,1532.190996,296.082377,9178.553681
1875.028934,1302.362347,222.061783,9252.574275
1875.029251,995.924147,-666.185348,9030.512492
1875.029569,1225.752797,-740.205942,9030.512492
1875.029886,383.047749,-518.144159,9326.594869
1875.030204,76.609550,-518.144159,9844.739029
1875.030521,229.828649,-74.020594,9992.780217
1875.030839,229.828649,-0.000000,9992.780217
1875.031156,229.828649,592.164754,10066.800811
1875.031473,153.219100,370.102971,9992.780217
1875.031791,383.047749,148.041188,9548.656652
1875.032108,766.095498,148.041188,9474.636058
1875.032426,1302.362347,222.061783,9474.636058
1875.032743,995.924147,148.041188,8882.471304
1875.033060,995.924147,-74.020594,8956.491898
1875.033378,1149.143247,-0.000000,9326.594869
1875.033695,995.924147,296.082377,9252.574275
1875.034013,995.924147,-0.000000,9474.636058
1875.034330,766.095498,148.041188,9548.656652
1875.034648,459.657299,296.082377,9326.594869
1875.034965,306.438199,518.144159,9252.574275
1875.035282,536.266849,148.041188,9326.594869
1875.035600,459.657299,-0.000000,9474.636058
1875.035917,76.609550,74.020594,9104.533087
1875.036235,153.219100,-74.020594,9548.656652
1875.036552,306.438199,222.061783,9770.718434
1875.036870,153.219100,592.164754,9918.759623
1875.037187,536.266849,1036.288319,9918.759623
1875.037504,306.438199,1258.350101,9548.656652
1875.037822,689.485948,1332.370696,9474.636058
1875.038139,612.876398,1258.350101,9178.553681
1875.038457,1149.143247,962.267725,8882.471304
1875.038774,1149.143247,592.164754,9252.574275
1875.039092,1225.752797,592.164754,9104.533087
1875.039409,1149.143247,888.247130,9178.553681
1875.039726,995.924147,592.164754,9400.615463
1875.040044,919.314598,814.226536,9474.636058
1875.040361,995.924147,814.226536,9326.594869
1875.040679,689.485948,814.226536,9252.574275
1875.040996,612.876398,370.102971,9252.574275
1875.041314,229.828649,296.082377,9474.636058
1875.041631,306.438199,-0.000000,9474.636058
1875.041948,0.000000,-0.000000,9474.636058
1875.042266,0.000000,444.123565,9770.718434
1875.042583,459.657299,814.226536,9548.656652
1875.042901,612.876398,1036.288319,9548.656652
1875.043218,459.657299,1332.370696,9548.656652
1875.043536,536.266849,1184.329507,9770.718434
1875.043853,536.266849,1110.308913,9474.636058
1875.044170,842.705048,814.226536,9548.656652
1875.044488,766.095498,296.082377,9622.677246
1875.044805,612.876398,296.082377,9696.697840
1875.045123,1072.533697,148.041188,9844.739029
1875.045440,536.266849,-0.000000,10140.821405
1875.045758,842.705048,296.082377,9918.759623
1875.046075,766.095498,444.123565,9696.697840
1875.046392,612.876398,-0.000000,9770.718434
1875.046710,842.705048,-0.000000,9992.780217
1875.047027,383.047749,-222.061783,9844.739029
1875.047345,229.828649,-296.082377,9548.656652
1875.047662,383.047749,-370.102971,9696.697840
1875.047979,459.657299,-888.247130,10066.800811
1875.048297,536.266849,-592.164754,9992.780217
1875.048614,383.047749,-370.102971,9918.759623
1875.048932,1225.752797,-0.000000,10140.821405
1875.049249,1455.581446,222.061783,9696.697840
1875.049567,1685.410096,444.123565,9474.636058
1875.049884,2298.286494,-148.041188,9326.594869
1875.050201,1762.019645,-148.041188,8956.491898
1875.050519,2451.505594,-222.061783,8808.450710
1875.050836,2451.505594,-74.020594,8734.430116
1875.051153,2451.505594,-222.061783,8956.491898
1875.051471,2757.943793,-148.041188,9104.533087
1875.051788,2298.286494,-222.061783,9104.533087
1875.052105,1991.848295,296.082377,8808.450710
1875.052423,1838.629195,148.041188,8586.388927
1875.052740,1608.800546,-0.000000,8586.388927
1875.053057,1378.971896,-444.123565,8734.430116
1875.053375,536.266849,-296.082377,8734.430116
1875.053692,612.876398,-518.144159,9104.533087
1875.054009,153.219100,-592.164754,9030.512492
1875.054327,-76.609550,-222.061783,9252.574275
1875.054644,0.000000,-74.020594,9474.636058
1875.054961,0.000000,-0.000000,9622.677246
1875.055279,459.657299,222.061783,9030.512492
1875.055596,536.266849,-74.020594,8956.491898
1875.055913,383.047749,-148.041188,8882.471304
1875.056231,536.266849,-222.061783,8956.491898
1875.056548,383.047749,-444.123565,8734.430116
1875.056865,0.000000,-592.164754,8882.471304
1875.057183,153.219100,-370.102971,9252.574275
1875.057500,-76.609550,-74.020594,9474.636058
1875.057817,0.000000,-296.082377,9104.533087
1875.058135,0.000000,-148.041188,9326.594869
1875.058452,76.609550,-74.020594,9104.533087
1875.058769,153.219100,-148.041188,9326.594869
1875.059087,0.000000,-0.000000,9474.636058
1875.059404,76.609550,-740.205942,9400.615463
1875.059721,306.438199,-518.144159,9474.636058
1875.060039,229.828649,-148.041188,9844.739029
1875.060356,612.876398,-0.000000,9548.656652
1875.060673,919.314598,-0.000000,9770.718434
1875.060991,1072.533697,666.185348,9696.697840
1875.061308,1225.752797,888.247130,9474.636058
1875.061625,1532.190996,1258.350101,9104.533087
1875.061943,1838.629195,1036.288319,8882.471304
1875.062260,1838.629195,888.247130,8956.491898
1875.062577,1762.019645,888.247130,9030.512492
1875.062895,1685.410096,666.185348,9104.533087
1875.063212,1608.800546,814.226536,9474.636058
1875.063529,1685.410096,666.185348,9992.780217
1875.063847,1762.019645,518.144159,9844.739029
1875.064164,1532.190996,1036.288319,9844.739029
1875.064481,1455.581446,814.226536,9252.574275
1875.064799,1072.533697,666.185348,9326.594869
1875.065116,1378.971896,444.123565,9696.697840
1875.065433,919.314598,296.082377,9622.677246
1875.065751,689.485948,444.123565,9696.697840
1875.066068,766.095498,592.164754,9992.780217
1875.066385,919.314598,518.144159,10066.800811
1875.066702,689.485948,666.185348,9844.739029
1875.067020,842.705048,962.267725,9770.718434
1875.067337,689.485948,888.247130,9548.656652
1875.067654,842.705048,592.164754,9696.697840
1875.067972,842.705048,444.123565,9474.636058
1875.068289,766.095498,444.123565,9622.677246
1875.068606,612.876398,444.123565,9474.636058
1875.068924,383.047749,444.123565,9474.636058
1875.069241,689.485948,740.205942,9696.697840
1875.069558,229.828649,444.123565,9696.697840
1875.069876,0.000000,814.226536,9918.759623
1875.070193,229.828649,740.205942,9622.677246
1875.070510,76.609550,370.102971,9474.636058
1875.070828,0.000000,370.102971,9548.656652
1875.071145,-153.219100,-0.000000,9326.594869
1875.071462,0.000000,-0.000000,9844.739029
1875.071780,0.000000,-0.000000,10066.800811
1875.072097,76.609550,370.102971,9696.697840
1875.072414,536.266849,1110.308913,9918.759623
1875.072732,536.266849,888.247130,9696.697840
1875.073049,1225.752797,1184.329507,9178.553681
1875.073366,1225.752797,1036.288319,8734.430116
1875.073684,1455.581446,814.226536,8660.409521
1875.074001,689.485948,296.082377,8512.368333
1875.074318,995.924147,-0.000000,8734.430116
1875.074636,766.095498,-0.000000,9104.533087
1875.074953,689.485948,-0.000000,9548.656652
1875.075270,689.485948,-0.000000,9696.697840
1875.075588,689.485948,-0.000000,9474.636058
1875.075905,689.485948,148.041188,9400.615463
1875.076222,383.047749,-0.000000,9030.512492
1875.076540,536.266849,-0.000000,9252.574275
1875.076857,153.219100,-222.061783,9252.574275
1875.077174,0.000000,-518.144159,9252.574275
1875.077492,-229.828649,-148.041188,9252.574275
1875.077809,-229.828649,-0.000000,9474.636058
1875.078126,0.000000,-0.000000,9696.697840
1875.078444,229.828649,-0.000000,9696.697840
1875.078761,536.266849,222.061783,9548.656652
1875.079078,306.438199,-0.000000,9474.636058
1875.079396,919.314598,-148.041188,9326.594869
1875.079713,1072.533697,-0.000000,9030.512492
1875.080030,1072.533697,-148.041188,9104.533087
1875.080348,1072.533697,-74.020594,9252.574275
1875.080665,1302.362347,296.082377,9326.594869
1875.080982,1378.971896,296.082377,9326.594869
1875.081300,1378.971896,370.102971,9474.636058
1875.081617,1838.629195,740.205942,9474.636058
1875.081934,1378.971896,740.205942,9252.574275
1875.082252,1378.971896,518.144159,9104.533087
1875.082569,1302.362347,148.041188,8734.430116
1875.082886,1149.143247,-222.061783,9326.594869
1875.083204,689.485948,-0.000000,9178.553681
1875.083521,995.924147,-518.144159,9178.553681
1875.083838,612.876398,-222.061783,9548.656652
1875.084156,766.095498,-74.020594,9918.759623
1875.084473,536.266849,148.041188,9992.780217
1875.084790,995.924147,-0.000000,10140.821405
1875.085108,842.705048,222.061783,9548.656652
1875.085425,842.705048,-0.000000,9474.636058
1875.085742,842.705048,-222.061783,9326.594869
1875.086060,842.705048,-296.082377,9400.615463
1875.086377,1302.362347,-296.082377,9548.656652
1875.086694,1302.362347,-222.061783,9474.636058
1875.087012,689.485948,-296.082377,9622.677246
1875.087329,919.314598,-0.000000,9696.697840
1875.087646,536.266849,-0.000000,9696.697840
1875.087964,766.095498,-0.000000,9252.574275
1875.088281,76.609550,-0.000000,9400.615463
1875.088598,229.828649,-0.000000,9548.656652
1875.088916,76.609550,-222.061783,9474.636058
1875.089233,0.000000,-666.185348,9474.636058
1875.089550,0.000000,-0.000000,9696.697840
1875.089868,459.657299,-0.000000,9770.718434
1875.090185,229.828649,-74.020594,9844.739029
1875.090502,459.657299,148.041188,9770.718434
1875.090820,766.095498,444.123565,9844.739029
1875.091137,995.924147,444.123565,9474.636058
1875.091454,1302.362347,740.205942,9400.615463
1875.091772,1302.362347,592.164754,9178.553681
1875.092089,1532.190996,370.102971,8882.471304
1875.092406,1762.019645,814.226536,9104.533087
1875.092724,1608.800546,518.144159,9400.615463
1875.093041,1762.019645,666.185348,8956.491898
1875.093358,1532.190996,740.205942,8956.491898
1875.093676,1378.971896,888.247130,9030.512492
1875.093993,1838.629195,814.226536,8882.471304
1875.094310,995.924147,370.102971,8660.409521
1875.094628,612.876398,444.123565,8882.471304
1875.094945,229.828649,222.061783,9252.574275
1875.095262,76.609550,-74.020594,9474.636058
1875.095580,0.000000,-222.061783,9548.656652
1875.095897,-383.047749,-0.000000,10214.842000
1875.096214,0.000000,518.144159,9918.759623
1875.096532,0.000000,518.144159,10140.821405
1875.096849,76.609550,592.164754,9622.677246
1875.097166,383.047749,-0.000000,9474.636058
1875.097484,153.219100,370.102971,9326.594869
1875.097801,383.047749,222.061783,9252.574275
1875.098118,153.219100,222.061783,9400.615463
1875.098436,536.266849,296.082377,9474.636058
1875.098753,76.609550,518.144159,9474.636058
1875.099070,689.485948,666.185348,9474.636058
1875.099388,383.047749,518.144159,9474.636058
1875.099705,689.485948,518.144159,9400.615463
1875.100022,459.657299,370.102971,9104.533087
1875.100340,383.047749,222.061783,9178.553681
1875.100657,153.219100,-0.000000,9400.615463
1875.100974,0.000000,-0.000000,9548.656652
1875.101292,229.828649,-0.000000,9696.697840
1875.101609,306.438199,296.082377,10066.800811
1875.101926,153.219100,444.123565,10288.862594
1875.102244,612.876398,814.226536,10066.800811
1875.102561,766.095498,962.267725,9770.718434
1875.102878,1149.143247,962.267725,9474.636058
1875.103196,1838.629195,1036.288319,9474.636058
1875.103513,1608.800546,814.226536,8882.471304
1875.103830,1685.410096,888.247130,9030.512492
1875.104148,1762.019645,888.247130,8882.471304
1875.104465,1685.410096,666.185348,9030.512492
1875.104782,1608.800546,592.164754,9326.594869
1875.105100,1378.971896,814.226536,9030.512492
1875.105417,1149.143247,444.123565,9326.594869
1875.105734,995.924147,296.082377,9474.636058
1875.106052,306.438199,-74.020594,9326.594869
1875.106369,153.219100,-0.000000,9326.594869
1875.106686,76.609550,-0.000000,9474.636058
1875.107004,-306.438199,-370.102971,9622.677246
1875.107321,0.000000,-74.020594,10066.800811
1875.107638,-76.609550,-0.000000,10584.944971
1875.107956,153.219100,518.144159,10362.883188
1875.108273,0.000000,740.205942,10066.800811
1875.108590,536.266849,592.164754,9918.759623
1875.108908,-76.609550,148.041188,9548.656652
1875.109225,383.047749,222.061783,9326.594869
1875.109542,842.705048,-0.000000,9178.553681
1875.109860,919.314598,-0.000000,9252.574275
1875.110177,842.705048,-222.061783,9252.574275
1875.110494,1149.143247,-370.102971,9474.636058
1875.110812,1072.533697,-148.041188,9622.677246
1875.111129,1072.533697,-148.041188,9400.615463
1875.111446,1225.752797,-0.000000,9252.574275
1875.111764,1072.533697,296.082377,9252.574275
1875.112081,919.314598,-518.144159,9252.574275
1875.112398,1072.533697,-370.102971,8956.491898
1875.112716,689.485948,-148.041188,9400.615463
1875.113033,995.924147,-148.041188,9474.636058
1875.113350,1072.533697,222.061783,9474.636058
1875.113668,1072.533697,370.102971,9400.615463
1875.113985,1378.971896,592.164754,9622.677246
1875.114302,1378.971896,666.185348,9474.636058
1875.114620,1532.190996,518.144159,9104.533087
1875.114937,1915.238745,666.185348,9104.533087
1875.115254,1838.629195,1110.308913,8956.491898
1875.115572,1685.410096,296.082377,8734.430116
1875.115889,1532.190996,222.061783,8734.430116
1875.116206,1532.190996,222.061783,8882.471304
1875.116524,1455.581446,-0.000000,9178.553681
1875.116841,995.924147,444.123565,9252.574275
1875.117158,842.705048,148.041188,9178.553681
1875.117476,689.485948,-0.000000,9252.574275
1875.117793,306.438199,-222.061783,9326.594869
1875.118110,153.219100,-444.123565,9474.636058
1875.118427,0.000000,-444.123565,9474.636058
1875.118745,0.000000,-518.144159,9474.636058
1875.119062,0.000000,-592.164754,9918.759623
1875.119379,0.000000,-74.020594,10288.862594
1875.119697,689.485948,-0.000000,9844.739029
1875.120014,306.438199,518.144159,9696.697840
1875.120331,612.876398,888.247130,9696.697840
1875.120649,689.485948,888.247130,9252.574275
1875.120966,1072.533697,740.205942,9030.512492
1875.121283,842.705048,-0.000000,9104.533087
1875.121601,536.266849,-0.000000,9326.594869
1875.121918,536.266849,-0.000000,9474.636058
1875.122235,689.485948,222.061783,9474.636058
1875.122553,536.266849,370.102971,9548.656652
1875.122870,919.314598,814.226536,9992.780217
1875.123187,383.047749,666.185348,9474.636058
1875.123505,459.657299,148.041188,9474.636058
1875.123822,76.609550,-0.000000,9474.636058
1875.124139,536.266849,-222.061783,9622.677246
1875.124457,766.095498,-222.061783,9474.636058
1875.124774,306.438199,-0.000000,9622.677246
1875.125091,536.266849,148.041188,9622.677246
1875.125409,689.485948,592.164754,9474.636058
1875.125726,1072.533697,740.205942,9548.656652
1875.126043,1072.533697,888.247130,9474.636058
1875.126361,1149.143247,888.247130,9474.636058
1875.126678,1378.971896,444.123565,9326.594869
1875.126995,1762.019645,-0.000000,9178.553681
1875.127313,1378.971896,-0.000000,9178.553681
1875.127630,1378.971896,-74.020594,9474.636058
1875.127947,1225.752797,296.082377,9252.574275
1875.128265,1072.533697,370.102971,9474.636058
1875.128582,1302.362347,518.144159,9622.677246
1875.128899,689.485948,222.061783,9474.636058
1875.129217,1149.143247,518.144159,9252.574275
1875.129534,1149.143247,296.082377,9474.636058
1875.129851,919.314598,-74.020594,9548.656652
1875.130169,612.876398,-74.020594,9696.697840
1875.130486,689.485948,-222.061783,9844.739029
1875.130803,919.314598,-0.000000,9992.780217
1875.131121,919.314598,370.102971,10362.883188
1875.131438,995.924147,666.185348,10140.821405
1875.131755,1532.190996,814.226536,9992.780217
1875.132073,1455.581446,1332.370696,9474.636058
1875.132390,1532.190996,1036.288319,9030.512492
1875.132707,1608.800546,740.205942,9030.512492
1875.133025,1685.410096,370.102971,9104.533087
1875.133342,1225.752797,-74.020594,9252.574275
1875.133659,1532.190996,-0.000000,9030.512492
1875.133977,1149.143247,-0.000000,9474.636058
1875.134294,1378.971896,444.123565,9474.636058
1875.134611,919.314598,592.164754,9474.636058
1875.134929,689.485948,-0.000000,9252.574275
1875.135246,229.828649,-74.020594,9030.512492
1875.135563,0.000000,-148.041188,9030.512492
1875.135881,-229.828649,-222.061783,9104.533087
1875.136198,-306.438199,-518.144159,9178.553681
1875.136515,-766.095498,-222.061783,9326.594869
1875.136833,-1991.848295,-0.000000,8660.409521
1875.137150,-1378.971896,-518.144159,9548.656652
1875.137467,-1532.190996,-1110.308913,9918.759623
1875.137785,-1915.238745,-296.082377,9918.759623
1875.138102,-1685.410096,-444.123565,10140.821405
1875.138419,-1455.581446,-814.226536,9918.759623
1875.138737,-919.314598,-1702.473667,10807.006753
1875.139054,-995.924147,-814.226536,9844.739029
1875.139371,-306.438199,-0.000000,9104.533087
1875.139689,459.657299,518.144159,8882.471304
1875.140006,1302.362347,518.144159,9474.636058
1875.140323,1225.752797,444.123565,8808.450710
1875.140641,1608.800546,444.123565,9178.553681
1875.140958,2221.676944,370.102971,9178.553681
1875.141275,2528.115143,666.185348,8438.347739
1875.141593,2757.943793,-0.000000,8586.388927
1875.141910,2451.505594,-0.000000,8290.306550
1875.142227,2451.505594,-0.000000,8512.368333
1875.142545,2068.457845,148.041188,9030.512492
1875.142862,2757.943793,-74.020594,9770.718434
1875.143179,2221.676944,1184.329507,8660.409521
1875.143497,2451.505594,1110.308913,9474.636058
1875.143814,2451.505594,148.041188,9770.718434
1875.144131,2068.457845,518.144159,9104.533087
1875.144449,2374.896044,1110.308913,8956.491898
1875.144766,2068.457845,1406.391290,9548.656652
1875.145083,2374.896044,666.185348,9474.636058
1875.145401,2145.067394,592.164754,8512.368333
1875.145718,1991.848295,814.226536,9474.636058
1875.146035,1608.800546,962.267725,9326.594869
1875.146353,1532.190996,740.205942,8586.388927
1875.146670,1149.143247,814.226536,8882.471304
1875.146987,536.266849,666.185348,9400.615463
1875.147305,153.219100,444.123565,9104.533087
1875.147622,-612.876398,-74.020594,9548.656652
1875.147939,-766.095498,-370.102971,9844.739029
1875.148257,-536.266849,222.061783,9474.636058
1875.148574,-842.705048,148.041188,9770.718434
1875.148892,-842.705048,-0.000000,10658.965565
1875.149209,-919.314598,-0.000000,10510.924376
1875.149526,-766.095498,592.164754,9918.759623
1875.149844,-612.876398,962.267725,10140.821405
1875.150161,0.000000,592.164754,10066.800811
1875.150479,306.438199,-0.000000,9622.677246
1875.150796,0.000000,296.082377,9326.594869
1875.151113,229.828649,888.247130,9622.677246
1875.151431,919.314598,222.061783,9770.718434
1875.151748,919.314598,592.164754,9548.656652
1875.152066,919.314598,1110.308913,9400.615463
1875.152383,536.266849,1332.370696,9622.677246
1875.152700,842.705048,518.144159,9622.677246
1875.153018,1532.190996,-0.000000,9622.677246
1875.153335,995.924147,-0.000000,9104.533087
1875.153653,76.609550,-222.061783,9548.656652
1875.153970,76.609550,-518.144159,9548.656652
1875.154288,306.438199,-740.205942,9918.759623
1875.154605,766.095498,-592.164754,10362.883188
1875.154922,459.657299,74.020594,10584.944971
1875.155240,766.095498,518.144159,9696.697840
1875.155557,1072.533697,222.061783,9326.594869
1875.155875,919.314598,148.041188,9844.739029
1875.156192,1302.362347,814.226536,9474.636058
1875.156509,1685.410096,296.082377,8882.471304
1875.156827,1991.848295,-0.000000,8734.430116
1875.157144,1532.190996,222.061783,9030.512492
1875.157462,1685.410096,-0.000000,8956.491898
1875.157779,1608.800546,296.082377,9030.512492
1875.158096,1762.019645,-0.000000,9030.512492
1875.158414,1685.410096,222.061783,9178.553681
1875.158731,1072.533697,-74.020594,9104.533087
1875.159049,1149.143247,-370.102971,9030.512492
1875.159366,842.705048,-666.185348,9474.636058
1875.159683,459.657299,-888.247130,9252.574275
1875.160001,76.609550,-296.082377,9474.636058
1875.160318,459.657299,-0.000000,9696.697840
1875.160636,766.095498,148.041188,9548.656652
1875.160953,612.876398,592.164754,9622.677246
1875.161271,919.314598,888.247130,9474.636058
1875.161588,1072.533697,814.226536,9252.574275
1875.161905,1302.362347,518.144159,9178.553681
1875.162223,1915.238745,296.082377,8956.491898
1875.162540,1455.581446,444.123565,9104.533087
1875.162858,1455.581446,370.102971,8808.450710
1875.163175,919.314598,-148.041188,8882.471304
1875.163492,766.095498,296.082377,9104.533087
1875.163810,612.876398,518.144159,8956.491898
1875.164127,306.438199,518.144159,9400.615463
1875.164445,229.828649,-0.000000,9104.533087
1875.164762,-153.219100,-0.000000,9326.594869
1875.165079,-383.047749,-222.061783,9474.636058
1875.165397,-766.095498,-444.123565,9696.697840
1875.165714,-766.095498,-592.164754,9770.718434
1875.166032,-919.314598,-148.041188,10140.821405
1875.166349,-766.095498,-0.000000,10214.842000
1875.166667,-689.485948,222.061783,9844.739029
1875.166984,0.000000,888.247130,9474.636058
1875.167301,383.047749,888.247130,9622.677246
1875.167619,536.266849,666.185348,9474.636058
1875.167936,995.924147,444.123565,9104.533087
1875.168254,1378.971896,-0.000000,8808.450710
1875.168571,842.705048,-0.000000,8956.491898
1875.168888,766.095498,148.041188,9178.553681
1875.169206,995.924147,592.164754,9178.553681
1875.169523,1149.143247,592.164754,9474.636058
1875.169841,995.924147,666.185348,9622.677246
1875.170158,766.095498,592.164754,9474.636058
1875.170475,612.876398,444.123565,9474.636058
1875.170793,536.266849,74.020594,9474.636058
1875.171110,536.266849,-222.061783,9548.656652
1875.171428,306.438199,-0.000000,9548.656652
1875.171745,536.266849,222.061783,10140.821405
1875.172062,1072.533697,666.185348,9622.677246
1875.172380,612.876398,888.247130,9696.697840
1875.172697,1225.752797,1110.308913,9770.718434
1875.173015,1532.190996,1036.288319,9918.759623
1875.173332,1838.629195,962.267725,9474.636058
1875.173650,1991.848295,666.185348,9326.594869
1875.173967,2451.505594,222.061783,9770.718434
1875.174284,2298.286494,296.082377,9474.636058
1875.174602,2068.457845,296.082377,9474.636058
1875.174919,1762.019645,148.041188,9474.636058
1875.175237,1991.848295,-0.000000,9844.739029
1875.175554,1685.410096,148.041188,9474.636058
1875.175871,1302.362347,592.164754,9770.718434
1875.176189,1378.971896,222.061783,9326.594869
1875.176506,1149.143247,148.041188,9400.615463
1875.176824,995.924147,-222.061783,9474.636058
1875.177141,459.657299,-444.123565,9548.656652
1875.177458,459.657299,-518.144159,9326.594869
1875.177776,383.047749,-518.144159,9474.636058
1875.178093,76.609550,-148.041188,9844.739029
1875.178411,306.438199,-0.000000,9918.759623
1875.178728,536.266849,148.041188,10066.800811
1875.179046,0.000000,370.102971,9770.718434
1875.179363,153.219100,148.041188,9474.636058
1875.179680,306.438199,-0.000000,9326.594869
1875.179998,306.438199,-444.123565,9104.533087
1875.180315,76.609550,-444.123565,9474.636058
1875.180633,306.438199,-592.164754,9252.574275
1875.180950,383.047749,-74.020594,8956.491898
1875.181267,383.047749,-0.000000,9030.512492
1875.181585,612.876398,-0.000000,9104.533087
1875.181902,229.828649,-0.000000,9178.553681
1875.182220,612.876398,-0.000000,8660.409521
1875.182537,229.828649,-74.020594,8808.450710
1875.182854,76.609550,-148.041188,8956.491898
1875.183172,153.219100,-296.082377,9178.553681
1875.183489,76.609550,-296.082377,9326.594869
1875.183807,383.047749,-222.061783,9474.636058
1875.184124,383.047749,296.082377,9474.636058
1875.184441,689.485948,592.164754,9474.636058
1875.184759,919.314598,962.267725,9104.533087
1875.185076,1072.533697,888.247130,9252.574275
1875.185394,1378.971896,1184.329507,9178.553681
1875.185711,1532.190996,814.226536,9104.533087
1875.186029,1532.190996,370.102971,8956.491898
1875.186346,1225.752797,518.144159,9104.533087
1875.186663,1685.410096,370.102971,9030.512492
1875.186981,1378.971896,296.082377,9326.594869
1875.187298,1225.752797,444.123565,9400.615463
1875.187616,1072.533697,592.164754,9178.553681
1875.187933,1225.752797,592.164754,9474.636058
1875.188250,689.485948,-0.000000,9326.594869
1875.188568,306.438199,222.061783,9252.574275
1875.188885,76.609550,-370.102971,9548.656652
1875.189203,76.609550,-222.061783,9918.759623
1875.189520,-306.438199,-444.123565,10140.821405
1875.189837,0.000000,-148.041188,10288.862594
1875.190155,76.609550,222.061783,10362.883188
1875.190472,76.609550,666.185348,10362.883188
1875.190790,766.095498,740.205942,10066.800811
1875.191107,995.924147,1110.308913,9918.759623
1875.191425,1072.533697,666.185348,9474.636058
1875.191742,1302.362347,740.205942,9252.574275
1875.192059,1378.971896,592.164754,9252.574275
1875.192377,1149.143247,148.041188,9400.615463
1875.192694,995.924147,370.102971,9918.759623
1875.193012,1302.362347,592.164754,9622.677246
1875.193329,1455.581446,592.164754,9622.677246
1875.193646,1225.752797,814.226536,9548.656652
1875.193964,689.485948,740.205942,9400.615463
1875.194281,459.657299,-74.020594,9252.574275
1875.194599,459.657299,-148.041188,9474.636058
1875.194916,383.047749,-222.061783,9474.636058
1875.195233,229.828649,-148.041188,9844.739029
1875.195551,306.438199,-74.020594,10066.800811
1875.195868,612.876398,222.061783,10214.842000
1875.196186,306.438199,296.082377,10066.800811
1875.196503,459.657299,222.061783,9992.780217
1875.196820,842.705048,666.185348,9696.697840
1875.197138,1608.800546,296.082377,9622.677246
1875.197455,1685.410096,222.061783,9178.553681
1875.197773,1455.581446,222.061783,8956.491898
1875.198090,1762.019645,-0.000000,8956.491898
1875.198408,1608.800546,-74.020594,8734.430116
1875.198725,1302.362347,-0.000000,8956.491898
1875.199042,1225.752797,-0.000000,9252.574275
1875.199360,995.924147,296.082377,9104.533087
1875.199677,766.095498,-0.000000,9104.533087
1875.199995,459.657299,-0.000000,9252.574275
1875.200312,229.828649,-222.061783,9474.636058
1875.200629,76.609550,-296.082377,9178.553681
1875.200947,76.609550,-444.123565,9400.615463
1875.201264,0.000000,-592.164754,9548.656652
1875.201582,0.000000,-370.102971,9844.739029
1875.201899,383.047749,-0.000000,9844.739029
1875.202216,383.047749,518.144159,9622.677246
1875.202534,536.266849,740.205942,9474.636058
1875.202851,995.924147,444.123565,9178.553681
1875.203169,1532.190996,518.144159,8956.491898
1875.203486,1532.190996,148.041188,8660.409521
1875.203804,1608.800546,-74.020594,8586.388927
1875.204121,1685.410096,-0.000000,8438.347739
1875.204438,1455.581446,148.041188,8660.409521
1875.204756,1225.752797,148.041188,8808.450710
1875.205073,1532.190996,-370.102971,9252.574275
1875.205391,919.314598,-148.041188,9178.553681
1875.205708,766.095498,-74.020594,9252.574275
1875.206025,459.657299,-370.102971,9178.553681
1875.206343,153.219100,-296.082377,9252.574275
1875.206660,0.000000,-444.123565,9548.656652
1875.206978,-153.219100,-370.102971,9548.656652
1875.207295,-459.657299,-296.082377,9770.718434
1875.207612,0.000000,74.020594,9696.697840
1875.207930,0.000000,222.061783,9918.759623
1875.208247,76.609550,592.164754,9844.739029
1875.208565,689.485948,370.102971,9696.697840
1875.208882,689.485948,592.164754,9474.636058
1875.209199,1149.143247,740.205942,9326.594869
1875.209517,1532.190996,740.205942,9400.615463
1875.209834,1762.019645,666.185348,9104.533087
1875.210152,1149.143247,444.123565,9178.553681
1875.210469,1378.971896,444.123565,9178.553681
1875.210787,1149.143247,222.061783,9326.594869
1875.211104,1378.971896,222.061783,9474.636058
1875.211421,1072.533697,592.164754,9548.656652
1875.211739,995.924147,592.164754,9474.636058
1875.212056,766.095498,222.061783,9548.656652
1875.212374,459.657299,-0.000000,9622.677246
1875.212691,689.485948,-0.000000,9622.677246
1875.213008,459.657299,-0.000000,9696.697840
1875.213326,536.266849,370.102971,10066.800811
1875.213643,689.485948,592.164754,10066.800811
1875.213961,689.485948,962.267725,9992.780217
1875.214278,1072.533697,1036.288319,9992.780217
1875.214595,919.314598,1036.288319,9622.677246
1875.214913,1378.971896,814.226536,9474.636058
1875.215230,1225.752797,740.205942,9474.636058
1875.215548,1455.581446,148.041188,9252.574275
1875.215865,995.924147,296.082377,9326.594869
1875.216183,1302.362347,444.123565,9474.636058
1875.216500,995.924147,518.144159,9622.677246
1875.216817,995.924147,592.164754,9474.636058
1875.217135,842.705048,222.061783,9474.636058
1875.217452,306.438199,222.061783,9474.636058
1875.217770,153.219100,-0.000000,9474.636058
1875.218087,0.000000,-0.000000,9474.636058
1875.218404,0.000000,-148.041188,9622.677246
1875.218722,-383.047749,-74.020594,9622.677246
1875.219039,-383.047749,-0.000000,9696.697840
1875.219357,0.000000,666.185348,9844.739029
1875.219674,-229.828649,592.164754,9696.697840
1875.219991,306.438199,814.226536,9622.677246
1875.220309,383.047749,1110.308913,9400.615463
1875.220626,459.657299,1258.350101,9400.615463
1875.220944,689.485948,1036.288319,9178.553681
1875.221261,919.314598,666.185348,8956.491898
1875.221579,766.095498,296.082377,8956.491898
1875.221896,842.705048,296.082377,9030.512492
1875.222213,766.095498,370.102971,9178.553681
1875.222531,919.314598,370.102971,9252.574275
1875.222848,612.876398,296.082377,9178.553681
1875.223166,919.314598,296.082377,9474.636058
1875.223483,766.095498,222.061783,9104.533087
1875.223800,612.876398,-0.000000,9178.553681
1875.224118,689.485948,-148.041188,9104.533087
1875.224435,459.657299,-0.000000,9178.553681
1875.224753,459.657299,-518.144159,9400.615463
1875.225070,459.657299,-74.020594,9474.636058
1875.225387,689.485948,296.082377,9326.594869
1875.225705,536.266849,148.041188,9474.636058
1875.226022,842.705048,518.144159,9548.656652
1875.226340,1225.752797,370.102971,9474.636058
