#time,accel_x,accel_y,accel_z
801.121457,-2145.067394,-4589.276840,10288.862594
801.121776,-1455.581446,-3627.009116,9844.739029
801.122095,-1685.410096,-2812.782580,9178.553681
801.122413,-459.657299,-2960.823768,8808.450710
801.122732,-459.657299,-2220.617826,8068.244768
801.123051,459.657299,-1998.556043,7105.977043
801.123370,459.657299,-2294.638420,6439.791695
801.123689,536.266849,-3552.988522,7105.977043
801.124007,766.095498,-4293.194464,8512.368333
801.124326,536.266849,-3997.112087,8512.368333
801.124645,766.095498,-3108.864956,8734.430116
801.124964,995.924147,-2220.617826,9474.636058
801.125282,1149.143247,-444.123565,9400.615463
801.125601,1225.752797,666.185348,8142.265362
801.125920,1378.971896,1702.473667,7476.080014
801.126239,1608.800546,2220.617826,6957.935855
801.126557,1532.190996,1184.329507,6291.750507
801.126876,1532.190996,222.061783,7031.956449
801.127195,766.095498,-444.123565,7624.121203
801.127514,306.438199,-888.247130,7920.203579
801.127833,76.609550,-518.144159,8364.327145
801.128151,-153.219100,-0.000000,8586.388927
801.128470,-842.705048,666.185348,8586.388927
801.128789,-842.705048,1480.411884,8586.388927
801.129108,-919.314598,1628.453072,9252.574275
801.129426,-1225.752797,1924.535449,9548.656652
801.129745,-1149.143247,2220.617826,10436.903782
801.130064,-1149.143247,1110.308913,10881.027347
801.130383,-919.314598,1406.391290,11103.089130
801.130702,-612.876398,1036.288319,11029.068536
801.131020,-153.219100,1332.370696,10658.965565
801.131339,612.876398,1554.432478,10066.800811
801.131658,1378.971896,1480.411884,9844.739029
801.131977,1225.752797,1554.432478,9992.780217
801.132295,1762.019645,1036.288319,10214.842000
801.132614,1455.581446,666.185348,10140.821405
801.132933,1225.752797,740.205942,10732.986159
801.133252,842.705048,222.061783,10807.006753
801.133571,612.876398,444.123565,11029.068536
801.133889,306.438199,666.185348,11621.233289
801.134208,76.609550,1332.370696,11843.295072
801.134527,-459.657299,1406.391290,12213.398043
801.134846,0.000000,1332.370696,11769.274478
801.135164,383.047749,1258.350101,11177.109724
801.135483,383.047749,1036.288319,11103.089130
801.135802,1225.752797,1110.308913,10510.924376
801.136121,1915.238745,1184.329507,9918.759623
801.136439,1838.629195,814.226536,9474.636058
801.136758,1838.629195,888.247130,9474.636058
801.137077,1608.800546,666.185348,9178.553681
801.137396,1149.143247,814.226536,8956.491898
801.137715,612.876398,962.267725,9400.615463
801.138033,-153.219100,666.185348,9030.512492
801.138352,-766.095498,1110.308913,9400.615463
801.138671,-995.924147,1332.370696,9474.636058
801.138990,-1072.533697,1332.370696,9548.656652
801.139308,-842.705048,888.247130,9178.553681
801.139627,-536.266849,814.226536,8660.409521
801.139946,0.000000,370.102971,8068.244768
801.140265,383.047749,-370.102971,7402.059420
801.140584,1225.752797,-444.123565,7254.018232
801.140902,1225.752797,-592.164754,7402.059420
801.141221,1762.019645,-296.082377,7105.977043
801.141540,1302.362347,-0.000000,7402.059420
801.141859,1378.971896,296.082377,7624.121203
801.142177,1762.019645,-0.000000,7772.162391
801.142496,1685.410096,666.185348,7846.182985
801.142815,1455.581446,-0.000000,7920.203579
801.143134,1762.019645,-296.082377,8364.327145
801.143453,1532.190996,-740.205942,8142.265362
801.143771,1762.019645,-1554.432478,8438.347739
801.144090,1532.190996,-1924.535449,8734.430116
801.144409,1378.971896,-2146.597232,8882.471304
801.144728,1225.752797,-2072.576638,8512.368333
801.145046,995.924147,-1258.350101,9252.574275
801.145365,536.266849,-888.247130,9252.574275
801.145684,536.266849,-222.061783,9104.533087
801.146003,153.219100,148.041188,9104.533087
801.146322,383.047749,518.144159,9104.533087
801.146640,306.438199,666.185348,9178.553681
801.146959,459.657299,814.226536,8956.491898
801.147278,766.095498,1036.288319,8734.430116
801.147597,612.876398,666.185348,8660.409521
801.147915,1532.190996,1036.288319,9104.533087
801.148234,1072.533697,1258.350101,9104.533087
801.148553,1149.143247,1480.411884,9030.512492
801.148872,1149.143247,1850.514855,8956.491898
801.149190,919.314598,2146.597232,9400.615463
801.149509,766.095498,2072.576638,9548.656652
801.149828,536.266849,2220.617826,9622.677246
801.150147,766.095498,2072.576638,9622.677246
801.150466,459.657299,1924.535449,9918.759623
801.150784,383.047749,1850.514855,10214.842000
801.151103,612.876398,1850.514855,9992.780217
801.151422,383.047749,1998.556043,9918.759623
801.151741,995.924147,2368.659014,9844.739029
801.152059,842.705048,2960.823768,9622.677246
801.152378,1149.143247,3330.926739,9474.636058
801.152697,1302.362347,3404.947333,9548.656652
801.153016,1685.410096,3256.906145,9474.636058
801.153335,1302.362347,3108.864956,9474.636058
801.153653,1378.971896,2812.782580,9474.636058
801.153972,1072.533697,2294.638420,9918.759623
801.154291,919.314598,1924.535449,10362.883188
801.154610,383.047749,1110.308913,10436.903782
801.154928,306.438199,814.226536,10955.047942
801.155247,229.828649,666.185348,11029.068536
801.155566,0.000000,592.164754,11399.171507
801.155885,0.000000,888.247130,11251.130318
801.156204,306.438199,962.267725,10955.047942
801.156522,536.266849,1258.350101,10658.965565
801.156841,689.485948,1406.391290,10288.862594
801.157160,1225.752797,2072.576638,9918.759623
801.157479,1455.581446,1776.494261,9474.636058
801.157797,1225.752797,1554.432478,9252.574275
801.158116,1455.581446,1480.411884,9178.553681
801.158435,995.924147,814.226536,8956.491898
801.158754,1072.533697,518.144159,9178.553681
801.159072,612.876398,370.102971,9252.574275
801.159391,76.609550,296.082377,9326.594869
801.159710,76.609550,222.061783,9178.553681
801.160029,76.609550,518.144159,9030.512492
801.160348,-383.047749,518.144159,8882.471304
801.160666,-383.047749,740.205942,8734.430116
801.160985,76.609550,1184.329507,8734.430116
801.161304,76.609550,1332.370696,8438.347739
801.161623,229.828649,1258.350101,8364.327145
801.161941,612.876398,888.247130,8142.265362
801.162260,995.924147,518.144159,8142.265362
801.162579,1225.752797,-0.000000,7994.224174
801.162898,1302.362347,-148.041188,7920.203579
801.163216,1072.533697,-518.144159,8216.285956
801.163535,1149.143247,-148.041188,7920.203579
801.163854,1302.362347,-0.000000,7846.182985
801.164173,995.924147,-0.000000,7476.080014
801.164492,842.705048,444.123565,7402.059420
801.164810,766.095498,296.082377,7550.100608
801.165129,383.047749,592.164754,7846.182985
801.165448,459.657299,370.102971,8142.265362
801.165767,229.828649,222.061783,8660.409521
801.166085,306.438199,-0.000000,9104.533087
801.166404,383.047749,-222.061783,9252.574275
801.166723,612.876398,-0.000000,9622.677246
801.167042,842.705048,-370.102971,9178.553681
801.167360,1072.533697,-296.082377,9326.594869
801.167679,995.924147,-148.041188,9474.636058
801.167998,689.485948,-0.000000,9400.615463
801.168317,766.095498,296.082377,9104.533087
801.168635,612.876398,592.164754,8956.491898
801.168954,229.828649,962.267725,8956.491898
801.169273,153.219100,1258.350101,8956.491898
801.169592,-229.828649,1258.350101,9326.594869
801.169910,0.000000,1628.453072,9474.636058
801.170229,0.000000,1406.391290,9844.739029
801.170548,0.000000,1258.350101,9918.759623
801.170867,153.219100,1036.288319,10214.842000
801.171186,306.438199,888.247130,9844.739029
801.171504,306.438199,888.247130,10140.821405
801.171823,536.266849,962.267725,9696.697840
801.172142,766.095498,1628.453072,9548.656652
801.172461,689.485948,1702.473667,9252.574275
801.172779,306.438199,2220.617826,9326.594869
801.173098,612.876398,2738.761985,9326.594869
801.173417,536.266849,2738.761985,9030.512492
801.173736,612.876398,2664.741391,9474.636058
801.174054,766.095498,2220.617826,9622.677246
801.174373,536.266849,2072.576638,9918.759623
801.174692,689.485948,1702.473667,10510.924376
801.175011,995.924147,1036.288319,10436.903782
801.175329,229.828649,666.185348,10510.924376
801.175648,766.095498,666.185348,10362.883188
801.175967,536.266849,222.061783,9992.780217
801.176286,536.266849,740.205942,10140.821405
801.176604,0.000000,222.061783,9622.677246
801.176923,0.000000,962.267725,9474.636058
801.177242,-229.828649,1184.329507,9548.656652
801.177561,-459.657299,1184.329507,9622.677246
801.177879,-459.657299,1258.350101,9770.718434
801.178198,0.000000,1258.350101,9918.759623
801.178517,0.000000,740.205942,10066.800811
801.178836,459.657299,148.041188,9992.780217
801.179155,766.095498,-148.041188,10066.800811
801.179473,842.705048,-518.144159,9992.780217
801.179792,995.924147,-444.123565,9918.759623
801.180111,842.705048,-222.061783,9326.594869
801.180430,536.266849,-370.102971,9178.553681
801.180748,306.438199,-74.020594,8734.430116
801.181067,306.438199,148.041188,8734.430116
801.181386,0.000000,148.041188,8512.368333
801.181705,-153.219100,296.082377,8660.409521
801.182023,0.000000,222.061783,8660.409521
801.182342,0.000000,-0.000000,8882.471304
801.182661,459.657299,-148.041188,8956.491898
801.182980,306.438199,-296.082377,9252.574275
801.183298,689.485948,-148.041188,9030.512492
801.183617,459.657299,-592.164754,8956.491898
801.183936,612.876398,-444.123565,8438.347739
801.184255,842.705048,-518.144159,8142.265362
801.184573,536.266849,-0.000000,7846.182985
801.184892,766.095498,-0.000000,7772.162391
801.185211,76.609550,-0.000000,7624.121203
801.185530,0.000000,-0.000000,7846.182985
801.185849,0.000000,-74.020594,8216.285956
801.186167,-536.266849,-74.020594,8660.409521
801.186486,0.000000,-518.144159,8882.471304
801.186805,-306.438199,-814.226536,9474.636058
801.187124,0.000000,-518.144159,9474.636058
801.187442,0.000000,-962.267725,9326.594869
801.187761,383.047749,-814.226536,9252.574275
801.188080,459.657299,-740.205942,9178.553681
801.188399,766.095498,-592.164754,8808.450710
801.188717,689.485948,-148.041188,8660.409521
801.189036,536.266849,-74.020594,8808.450710
801.189355,306.438199,222.061783,8512.368333
801.189674,306.438199,444.123565,8438.347739
801.189992,0.000000,444.123565,9030.512492
801.190311,0.000000,370.102971,9252.574275
801.190630,0.000000,370.102971,9474.636058
801.190949,0.000000,-74.020594,9548.656652
801.191267,0.000000,-0.000000,9844.739029
801.191586,0.000000,-0.000000,9770.718434
801.191905,229.828649,-370.102971,9696.697840
801.192224,0.000000,-0.000000,9770.718434
801.192543,0.000000,-0.000000,9696.697840
801.192861,76.609550,-0.000000,9326.594869
801.193180,76.609550,296.082377,9474.636058
801.193499,-229.828649,740.205942,9622.677246
801.193818,76.609550,740.205942,9474.636058
801.194136,0.000000,666.185348,9474.636058
801.194455,0.000000,666.185348,9548.656652
801.194774,459.657299,592.164754,9548.656652
801.195093,536.266849,148.041188,9918.759623
801.195411,689.485948,296.082377,9622.677246
801.195730,383.047749,74.020594,9326.594869
801.196049,536.266849,-0.000000,9474.636058
801.196368,766.095498,296.082377,9474.636058
801.196686,459.657299,444.123565,9400.615463
801.197005,306.438199,518.144159,9474.636058
801.197324,153.219100,222.061783,9474.636058
801.197643,229.828649,-0.000000,9474.636058
801.197961,76.609550,-0.000000,9696.697840
801.198280,153.219100,-0.000000,9696.697840
801.198599,0.000000,-296.082377,9918.759623
801.198918,0.000000,-444.123565,9548.656652
801.199236,76.609550,-296.082377,9622.677246
801.199555,612.876398,-74.020594,9696.697840
801.199874,153.219100,-222.061783,9622.677246
801.200193,306.438199,-222.061783,9400.615463
801.200512,229.828649,-296.082377,9474.636058
801.200830,383.047749,-296.082377,9474.636058
801.201149,383.047749,-444.123565,9474.636058
801.201468,0.000000,-666.185348,9252.574275
801.201787,612.876398,-370.102971,9104.533087
801.202105,383.047749,-666.185348,9252.574275
801.202424,229.828649,-518.144159,9104.533087
801.202743,153.219100,-592.164754,8734.430116
801.203062,-153.219100,-296.082377,8808.450710
801.203380,76.609550,-222.061783,8808.450710
801.203699,153.219100,-148.041188,8734.430116
801.204018,229.828649,-222.061783,8956.491898
801.204337,459.657299,-148.041188,8882.471304
801.204655,536.266849,-74.020594,8734.430116
801.204974,612.876398,-444.123565,9030.512492
801.205293,995.924147,-296.082377,9104.533087
801.205612,612.876398,-370.102971,8956.491898
801.205930,689.485948,-370.102971,8660.409521
801.206249,612.876398,-74.020594,8364.327145
801.206568,612.876398,-0.000000,8438.347739
801.206887,536.266849,-222.061783,8586.388927
801.207206,153.219100,-222.061783,8438.347739
801.207524,0.000000,-74.020594,8660.409521
801.207843,0.000000,-0.000000,8956.491898
801.208162,0.000000,-444.123565,8734.430116
801.208481,76.609550,-592.164754,9178.553681
801.208799,0.000000,-518.144159,9252.574275
801.209118,306.438199,-74.020594,9474.636058
801.209437,229.828649,-222.061783,9326.594869
801.209756,689.485948,-0.000000,9326.594869
801.210074,459.657299,-0.000000,9178.553681
801.210393,536.266849,-0.000000,9030.512492
801.210712,689.485948,222.061783,9104.533087
801.211031,459.657299,296.082377,8956.491898
801.211349,842.705048,-0.000000,8956.491898
801.211668,459.657299,-0.000000,9474.636058
801.211987,153.219100,-222.061783,9326.594869
801.212306,306.438199,-148.041188,9622.677246
801.212624,229.828649,-74.020594,9770.718434
801.212943,689.485948,-0.000000,9696.697840
801.213262,383.047749,-74.020594,9770.718434
801.213581,153.219100,148.041188,9844.739029
801.213899,229.828649,148.041188,9770.718434
801.214218,76.609550,370.102971,9548.656652
801.214537,459.657299,296.082377,9474.636058
801.214856,459.657299,666.185348,9326.594869
801.215175,153.219100,592.164754,9400.615463
801.215493,306.438199,518.144159,9326.594869
801.215812,76.609550,592.164754,9178.553681
801.216131,-229.828649,-0.000000,9400.615463
801.216450,76.609550,222.061783,9474.636058
801.216768,0.000000,296.082377,9622.677246
801.217087,229.828649,222.061783,9696.697840
801.217406,76.609550,-0.000000,9844.739029
801.217725,0.000000,-0.000000,9918.759623
801.218043,229.828649,-0.000000,9548.656652
801.218362,383.047749,518.144159,9474.636058
801.218681,612.876398,444.123565,9326.594869
801.219000,536.266849,296.082377,9030.512492
801.219318,459.657299,370.102971,8956.491898
801.219637,459.657299,222.061783,9030.512492
801.219956,383.047749,222.061783,9178.553681
801.220275,536.266849,-0.000000,9178.553681
801.220593,689.485948,-0.000000,9326.594869
801.220912,919.314598,-148.041188,9548.656652
801.221231,536.266849,-0.000000,9548.656652
801.221550,536.266849,296.082377,9474.636058
801.221869,536.266849,222.061783,9178.553681
801.222187,919.314598,-0.000000,9178.553681
801.222506,536.266849,222.061783,9178.553681
801.222825,536.266849,148.041188,9178.553681
801.223144,383.047749,-0.000000,8882.471304
801.223462,459.657299,296.082377,8956.491898
801.223781,459.657299,-0.000000,9104.533087
801.224100,766.095498,-0.000000,9178.553681
801.224419,383.047749,-444.123565,9104.533087
801.224737,459.657299,-148.041188,9178.553681
801.225056,766.095498,-0.000000,9400.615463
801.225375,306.438199,-0.000000,9474.636058
801.225694,766.095498,370.102971,9252.574275
801.226012,919.314598,444.123565,8956.491898
801.226331,995.924147,444.123565,8882.471304
801.226650,1149.143247,666.185348,8660.409521
801.226969,842.705048,370.102971,8734.430116
801.227287,995.924147,666.185348,8586.388927
801.227606,689.485948,148.041188,8808.450710
801.227925,919.314598,296.082377,8734.430116
801.228244,995.924147,222.061783,9104.533087
801.228562,689.485948,592.164754,9030.512492
801.228881,766.095498,444.123565,9030.512492
801.229200,612.876398,740.205942,9252.574275
801.229519,536.266849,814.226536,9178.553681
801.229838,536.266849,814.226536,9252.574275
801.230156,612.876398,888.247130,9104.533087
801.230475,0.000000,444.123565,9178.553681
801.230794,536.266849,666.185348,9252.574275
801.231113,383.047749,592.164754,9326.594869
801.231431,689.485948,444.123565,9400.615463
801.231750,612.876398,444.123565,9474.636058
801.232069,689.485948,370.102971,9400.615463
801.232388,612.876398,592.164754,9474.636058
801.232706,995.924147,592.164754,9400.615463
801.233025,612.876398,814.226536,9474.636058
801.233344,919.314598,1258.350101,9252.574275
801.233663,459.657299,814.226536,9326.594869
801.233981,536.266849,1036.288319,9474.636058
801.234300,612.876398,814.226536,9696.697840
801.234619,536.266849,1036.288319,9474.636058
801.234938,689.485948,1036.288319,9548.656652
801.235256,612.876398,962.267725,9696.697840
801.235575,766.095498,814.226536,9770.718434
801.235894,612.876398,814.226536,9548.656652
801.236213,919.314598,666.185348,9696.697840
801.236532,919.314598,962.267725,9622.677246
801.236850,766.095498,962.267725,9474.636058
801.237169,1302.362347,1036.288319,9622.677246
801.237488,383.047749,1110.308913,9326.594869
801.237807,766.095498,1406.391290,9474.636058
801.238125,383.047749,1110.308913,9326.594869
801.238444,459.657299,1110.308913,9400.615463
801.238763,459.657299,962.267725,9474.636058
801.239082,229.828649,888.247130,9622.677246
801.239400,459.657299,814.226536,9696.697840
801.239719,536.266849,592.164754,9622.677246
801.240038,383.047749,740.205942,9548.656652
801.240357,689.485948,592.164754,9252.574275
801.240675,536.266849,666.185348,9252.574275
801.240994,842.705048,1110.308913,8956.491898
801.241313,842.705048,1258.350101,8956.491898
801.241632,536.266849,1258.350101,8882.471304
801.241950,536.266849,1184.329507,8882.471304
801.242269,689.485948,1036.288319,9030.512492
801.242588,689.485948,814.226536,9104.533087
801.242907,536.266849,592.164754,9178.553681
801.243226,842.705048,222.061783,9326.594869
801.243544,689.485948,370.102971,9622.677246
801.243863,842.705048,222.061783,9178.553681
801.244182,689.485948,518.144159,9400.615463
801.244501,689.485948,592.164754,9104.533087
801.244819,459.657299,592.164754,8956.491898
801.245138,536.266849,740.205942,8512.368333
801.245457,459.657299,962.267725,8734.430116
801.245776,459.657299,740.205942,8734.430116
801.246094,383.047749,666.185348,8882.471304
801.246413,0.000000,444.123565,9030.512492
801.246732,153.219100,74.020594,9178.553681
801.247051,612.876398,370.102971,8956.491898
801.247369,0.000000,296.082377,9326.594869
801.247688,153.219100,370.102971,9252.574275
801.248007,306.438199,592.164754,9474.636058
801.248326,689.485948,444.123565,9030.512492
801.248644,612.876398,592.164754,8956.491898
801.248963,689.485948,740.205942,8882.471304
801.249282,536.266849,888.247130,8734.430116
801.249601,766.095498,888.247130,8734.430116
801.249919,459.657299,666.185348,8660.409521
801.250238,995.924147,888.247130,8808.450710
801.250557,842.705048,814.226536,9178.553681
801.250876,766.095498,666.185348,9030.512492
801.251195,536.266849,814.226536,9696.697840
801.251513,689.485948,518.144159,9400.615463
801.251832,612.876398,592.164754,9326.594869
801.252151,536.266849,814.226536,9474.636058
801.252470,919.314598,666.185348,9474.636058
801.252788,383.047749,962.267725,9474.636058
801.253107,842.705048,888.247130,9104.533087
801.253426,612.876398,666.185348,9326.594869
801.253745,229.828649,1110.308913,9326.594869
801.254063,459.657299,592.164754,9400.615463
801.254382,459.657299,814.226536,9252.574275
801.254701,459.657299,666.185348,9474.636058
801.255020,383.047749,666.185348,9548.656652
801.255338,689.485948,888.247130,9622.677246
801.255657,1149.143247,888.247130,9622.677246
801.255976,689.485948,962.267725,9622.677246
801.256295,612.876398,1110.308913,9474.636058
801.256613,995.924147,1110.308913,9474.636058
801.256932,612.876398,1184.329507,9474.636058
801.257251,766.095498,1110.308913,9474.636058
801.257570,612.876398,1184.329507,9400.615463
801.257889,612.876398,888.247130,9326.594869
801.258207,383.047749,962.267725,9474.636058
801.258526,766.095498,888.247130,9548.656652
801.258845,536.266849,666.185348,9474.636058
801.259164,306.438199,740.205942,9696.697840
801.259482,306.438199,814.226536,9548.656652
801.259801,383.047749,666.185348,9696.697840
801.260120,-153.219100,888.247130,9548.656652
801.260439,383.047749,962.267725,9548.656652
801.260757,153.219100,888.247130,9474.636058
801.261076,153.219100,740.205942,9326.594869
801.261395,153.219100,592.164754,9400.615463
801.261714,306.438199,592.164754,9474.636058
801.262033,689.485948,370.102971,9030.512492
801.262352,0.000000,296.082377,9400.615463
801.262671,229.828649,444.123565,9178.553681
801.262990,306.438199,518.144159,9400.615463
801.263309,229.828649,518.144159,9104.533087
801.263627,536.266849,370.102971,9178.553681
801.263946,153.219100,518.144159,9104.533087
801.264265,229.828649,222.061783,9030.512492
801.264584,76.609550,370.102971,8956.491898
801.264903,306.438199,222.061783,9178.553681
801.265222,306.438199,370.102971,9030.512492
801.265541,842.705048,222.061783,9030.512492
801.265860,536.266849,-0.000000,9104.533087
801.266179,612.876398,-0.000000,9104.533087
801.266498,153.219100,148.041188,8808.450710
801.266816,459.657299,222.061783,8808.450710
801.267135,383.047749,222.061783,8956.491898
801.267454,229.828649,296.082377,8808.450710
801.267773,76.609550,-148.041188,8882.471304
801.268092,306.438199,-0.000000,8956.491898
801.268411,0.000000,-74.020594,8956.491898
801.268730,153.219100,-0.000000,8882.471304
801.269049,459.657299,-148.041188,8956.491898
801.269368,153.219100,-148.041188,9400.615463
801.269686,76.609550,-148.041188,9326.594869
801.270005,153.219100,-0.000000,9104.533087
801.270324,153.219100,-0.000000,9326.594869
801.270643,612.876398,-0.000000,8882.471304
801.270962,306.438199,222.061783,9030.512492
801.271281,306.438199,296.082377,9030.512492
801.271600,383.047749,370.102971,9030.512492
801.271919,229.828649,444.123565,9030.512492
801.272238,306.438199,296.082377,9178.553681
801.272556,459.657299,-0.000000,9104.533087
801.272875,536.266849,222.061783,9030.512492
801.273194,229.828649,222.061783,9474.636058
801.273513,306.438199,222.061783,9474.636058
801.273832,229.828649,-0.000000,9474.636058
801.274151,229.828649,296.082377,9474.636058
801.274470,383.047749,370.102971,9474.636058
801.274789,306.438199,444.123565,9474.636058
801.275108,0.000000,740.205942,9400.615463
801.275426,0.000000,518.144159,9326.594869
801.275745,229.828649,666.185348,9252.574275
801.276064,0.000000,296.082377,9474.636058
801.276383,0.000000,296.082377,9400.615463
801.276702,0.000000,222.061783,9474.636058
801.277021,76.609550,222.061783,9696.697840
801.277340,0.000000,296.082377,9844.739029
801.277659,0.000000,296.082377,9696.697840
801.277978,153.219100,222.061783,9548.656652
801.278296,306.438199,592.164754,9548.656652
801.278615,0.000000,296.082377,9548.656652
801.278934,0.000000,296.082377,9474.636058
801.279253,383.047749,444.123565,9326.594869
801.279572,0.000000,444.123565,9252.574275
801.279891,76.609550,518.144159,9400.615463
801.280210,153.219100,370.102971,9326.594869
801.280529,153.219100,296.082377,9326.594869
801.280848,153.219100,370.102971,9252.574275
801.281166,229.828649,222.061783,9474.636058
801.281485,459.657299,-0.000000,9622.677246
801.281804,383.047749,-0.000000,9622.677246
801.282123,76.609550,-74.020594,9326.594869
801.282442,383.047749,-0.000000,9474.636058
801.282761,153.219100,-0.000000,9400.615463
801.283080,536.266849,-222.061783,9030.512492
801.283399,306.438199,-0.000000,9104.533087
801.283718,306.438199,-0.000000,9104.533087
801.284036,383.047749,-0.000000,9178.553681
801.284355,766.095498,-222.061783,9030.512492
801.284674,229.828649,-148.041188,9104.533087
801.284993,229.828649,-148.041188,9104.533087
801.285312,306.438199,-148.041188,9252.574275
801.285631,459.657299,-222.061783,8956.491898
801.285950,306.438199,-296.082377,9104.533087
801.286269,689.485948,-296.082377,9326.594869
801.286588,612.876398,-74.020594,9030.512492
801.286906,459.657299,-74.020594,8882.471304
801.287225,689.485948,-74.020594,8808.450710
801.287544,536.266849,-148.041188,8956.491898
801.287863,842.705048,-0.000000,9178.553681
801.288182,842.705048,-0.000000,8734.430116
801.288501,612.876398,-148.041188,8956.491898
801.288820,612.876398,-222.061783,8808.450710
801.289139,919.314598,-74.020594,8882.471304
801.289458,612.876398,-0.000000,8808.450710
801.289776,229.828649,-148.041188,9030.512492
801.290095,229.828649,-0.000000,9326.594869
801.290414,153.219100,-148.041188,9178.553681
801.290733,689.485948,-148.041188,9178.553681
801.291052,229.828649,-370.102971,9104.533087
801.291371,306.438199,-0.000000,9326.594869
801.291690,306.438199,-148.041188,9178.553681
801.292009,229.828649,-0.000000,9104.533087
801.292328,229.828649,-74.020594,9474.636058
801.292646,306.438199,-0.000000,9252.574275
801.292965,76.609550,-0.000000,9178.553681
801.293284,306.438199,-0.000000,9252.574275
801.293603,306.438199,-0.000000,9252.574275
801.293922,76.609550,148.041188,9326.594869
801.294241,383.047749,74.020594,9252.574275
801.294560,536.266849,370.102971,9326.594869
801.294879,383.047749,222.061783,9474.636058
801.295198,919.314598,148.041188,9474.636058
801.295516,612.876398,-0.000000,9474.636058
801.295835,459.657299,148.041188,9326.594869
801.296154,459.657299,296.082377,9474.636058
801.296473,536.266849,370.102971,9400.615463
801.296792,229.828649,148.041188,9326.594869
801.297111,306.438199,222.061783,9474.636058
801.297430,612.876398,444.123565,9474.636058
801.297749,229.828649,222.061783,9474.636058
801.298068,153.219100,444.123565,9474.636058
801.298386,536.266849,296.082377,9400.615463
801.298705,306.438199,222.061783,9474.636058
801.299024,306.438199,222.061783,9622.677246
801.299343,459.657299,370.102971,9474.636058
801.299662,536.266849,444.123565,9474.636058
801.299981,383.047749,222.061783,9474.636058
801.300300,612.876398,222.061783,9548.656652
801.300619,766.095498,370.102971,9178.553681
801.300938,383.047749,592.164754,9326.594869
801.301256,229.828649,592.164754,9252.574275
801.301575,689.485948,444.123565,9178.553681
801.301894,383.047749,370.102971,9252.574275
801.302213,689.485948,444.123565,9474.636058
801.302532,536.266849,-0.000000,9326.594869
801.302851,612.876398,296.082377,9474.636058
801.303170,612.876398,296.082377,9400.615463
801.303489,536.266849,-0.000000,9326.594869
801.303808,995.924147,-0.000000,9400.615463
801.304126,1072.533697,-0.000000,9178.553681
801.304445,459.657299,222.061783,9178.553681
801.304764,766.095498,296.082377,9030.512492
801.305083,536.266849,370.102971,9104.533087
801.305402,536.266849,148.041188,9178.553681
801.305721,306.438199,-0.000000,9104.533087
801.306040,536.266849,-0.000000,9030.512492
801.306359,306.438199,-74.020594,9104.533087
801.306678,306.438199,-0.000000,9030.512492
801.306996,153.219100,-0.000000,9326.594869
801.307315,459.657299,-222.061783,9252.574275
801.307634,229.828649,222.061783,9326.594869
801.307953,689.485948,-0.000000,8808.450710
801.308272,459.657299,296.082377,9178.553681
801.308591,459.657299,370.102971,8956.491898
801.308910,766.095498,370.102971,9104.533087
801.309229,689.485948,296.082377,9030.512492
801.309548,536.266849,148.041188,8882.471304
801.309866,766.095498,222.061783,8956.491898
801.310185,919.314598,296.082377,9104.533087
801.310504,919.314598,148.041188,8956.491898
801.310823,766.095498,370.102971,8808.450710
801.311142,995.924147,370.102971,9030.512492
801.311461,766.095498,444.123565,9252.574275
801.311780,842.705048,-0.000000,9104.533087
801.312099,766.095498,148.041188,9252.574275
801.312418,536.266849,-0.000000,9178.553681
801.312736,459.657299,148.041188,9252.574275
801.313055,153.219100,444.123565,9326.594869
801.313374,536.266849,-0.000000,9400.615463
801.313693,766.095498,296.082377,9252.574275
801.314012,612.876398,148.041188,9252.574275
801.314331,689.485948,296.082377,9326.594869
801.314650,536.266849,444.123565,9474.636058
801.314969,689.485948,740.205942,9548.656652
801.315288,689.485948,592.164754,9252.574275
801.315606,689.485948,592.164754,9400.615463
801.315925,612.876398,666.185348,9252.574275
801.316244,1149.143247,592.164754,9474.636058
801.316563,689.485948,592.164754,9548.656652
801.316882,766.095498,444.123565,9474.636058
801.317201,842.705048,740.205942,9400.615463
801.317520,919.314598,666.185348,9474.636058
801.317839,536.266849,592.164754,9400.615463
801.318158,1225.752797,592.164754,9326.594869
801.318476,689.485948,666.185348,9252.574275
801.318795,612.876398,814.226536,9400.615463
801.319114,536.266849,740.205942,9474.636058
801.319433,536.266849,592.164754,9400.615463
801.319752,383.047749,888.247130,9474.636058
801.320071,536.266849,518.144159,9548.656652
801.320390,459.657299,666.185348,9474.636058
801.320709,612.876398,666.185348,9548.656652
801.321028,612.876398,1110.308913,9622.677246
801.321346,536.266849,814.226536,9400.615463
801.321665,536.266849,666.185348,9474.636058
801.321984,459.657299,666.185348,9474.636058
801.322303,459.657299,296.082377,9474.636058
801.322622,612.876398,666.185348,9178.553681
801.322941,689.485948,888.247130,9252.574275
801.323260,383.047749,666.185348,9326.594869
801.323579,459.657299,740.205942,9252.574275
801.323898,76.609550,814.226536,9326.594869
801.324216,383.047749,740.205942,9326.594869
801.324535,459.657299,666.185348,9252.574275
801.324854,536.266849,666.185348,9252.574275
801.325173,612.876398,740.205942,9474.636058
801.325492,459.657299,444.123565,9252.574275
801.325811,766.095498,296.082377,9104.533087
801.326130,842.705048,518.144159,9104.533087
801.326449,689.485948,666.185348,9178.553681
801.326768,536.266849,666.185348,9030.512492
801.327086,229.828649,814.226536,8956.491898
801.327405,459.657299,740.205942,8956.491898
801.327724,612.876398,592.164754,8956.491898
801.328043,459.657299,296.082377,9104.533087
801.328362,76.609550,296.082377,9326.594869
801.328681,229.828649,444.123565,9400.615463
801.329000,306.438199,370.102971,9326.594869
801.329319,153.219100,74.020594,9622.677246
801.329638,536.266849,370.102971,9252.574275
801.329957,689.485948,148.041188,9030.512492
801.330275,459.657299,592.164754,9104.533087
801.330594,459.657299,592.164754,8956.491898
801.330913,612.876398,666.185348,8882.471304
801.331232,689.485948,592.164754,8882.471304
801.331551,689.485948,592.164754,8882.471304
801.331870,689.485948,518.144159,8956.491898
801.332189,306.438199,296.082377,8882.471304
801.332508,689.485948,592.164754,9104.533087
801.332827,1225.752797,148.041188,9178.553681
801.333145,766.095498,518.144159,9252.574275
801.333464,689.485948,666.185348,9252.574275
801.333783,689.485948,444.123565,9400.615463
801.334102,536.266849,666.185348,9178.553681
801.334421,612.876398,370.102971,9178.553681
801.334740,536.266849,518.144159,9252.574275
801.335059,459.657299,370.102971,9326.594869
801.335378,306.438199,592.164754,9252.574275
801.335697,383.047749,444.123565,9178.553681
801.336015,76.609550,666.185348,9548.656652
801.336334,0.000000,666.185348,9104.533087
801.336653,383.047749,592.164754,9104.533087
801.336972,306.438199,888.247130,9326.594869
801.337291,0.000000,518.144159,9474.636058
801.337610,76.609550,444.123565,9326.594869
801.337929,153.219100,592.164754,9474.636058
801.338248,229.828649,518.144159,9474.636058
801.338567,76.609550,592.164754,9400.615463
801.338885,229.828649,444.123565,9474.636058
801.339204,229.828649,962.267725,9400.615463
801.339523,612.876398,962.267725,9104.533087
801.339842,459.657299,1110.308913,9178.553681
801.340161,536.266849,888.247130,9178.553681
801.340480,306.438199,1258.350101,9326.594869
801.340799,306.438199,888.247130,9400.615463
801.341118,612.876398,666.185348,9548.656652
801.341437,612.876398,666.185348,9474.636058
801.341755,459.657299,370.102971,9474.636058
801.342074,1225.752797,740.205942,9326.594869
801.342393,689.485948,888.247130,9326.594869
801.342712,383.047749,666.185348,9474.636058
801.343031,383.047749,740.205942,9474.636058
801.343350,612.876398,592.164754,9474.636058
801.343669,229.828649,592.164754,9548.656652
801.343988,459.657299,592.164754,9474.636058
801.344307,306.438199,444.123565,9474.636058
801.344625,229.828649,370.102971,9474.636058
801.344944,383.047749,444.123565,9326.594869
801.345263,153.219100,518.144159,9104.533087
801.345582,459.657299,962.267725,9104.533087
801.345901,383.047749,740.205942,9326.594869
801.346220,536.266849,592.164754,9178.553681
801.346539,153.219100,444.123565,9326.594869
801.346858,459.657299,518.144159,9326.594869
801.347177,383.047749,370.102971,9400.615463
801.347495,229.828649,444.123565,9326.594869
801.347814,459.657299,518.144159,9178.553681
801.348133,612.876398,888.247130,9178.553681
801.348452,459.657299,666.185348,9104.533087
801.348771,383.047749,518.144159,9326.594869
801.349090,459.657299,444.123565,9030.512492
801.349409,459.657299,592.164754,9178.553681
801.349728,536.266849,370.102971,9030.512492
801.350047,153.219100,370.102971,9326.594869
801.350365,76.609550,222.061783,9104.533087
801.350684,229.828649,222.061783,9178.553681
801.351003,0.000000,-148.041188,9326.594869
801.351322,306.438199,296.082377,9474.636058
801.351641,76.609550,222.061783,9474.636058
801.351960,0.000000,222.061783,9178.553681
801.352279,0.000000,296.082377,9178.553681
801.352598,383.047749,222.061783,8882.471304
801.352917,153.219100,444.123565,9104.533087
801.353235,76.609550,296.082377,9400.615463
801.353554,153.219100,148.041188,9326.594869
801.353873,0.000000,222.061783,9178.553681
801.354192,0.000000,296.082377,9252.574275
801.354511,0.000000,222.061783,9326.594869
801.354830,459.657299,222.061783,8956.491898
801.355149,306.438199,222.061783,9104.533087
801.355468,153.219100,-0.000000,9030.512492
801.355787,306.438199,148.041188,9252.574275
801.356105,459.657299,296.082377,9178.553681
801.356424,383.047749,296.082377,9178.553681
801.356743,306.438199,296.082377,9252.574275
801.357062,-229.828649,296.082377,9178.553681
801.357381,153.219100,-0.000000,9030.512492
801.357700,459.657299,-0.000000,9030.512492
801.358019,76.609550,222.061783,9326.594869
801.358338,76.609550,148.041188,9326.594869
801.358657,153.219100,296.082377,9326.594869
801.358975,76.609550,-0.000000,9104.533087
801.359294,229.828649,-0.000000,9474.636058
801.359613,306.438199,-0.000000,9252.574275
801.359932,383.047749,296.082377,9548.656652
801.360251,76.609550,-0.000000,9178.553681
801.360570,459.657299,296.082377,9252.574275
801.360889,306.438199,222.061783,9252.574275
801.361208,76.609550,222.061783,9178.553681
801.361527,153.219100,592.164754,9474.636058
801.361845,459.657299,592.164754,9252.574275
801.362164,76.609550,296.082377,9252.574275
801.362483,383.047749,296.082377,9474.636058
801.362802,383.047749,-0.000000,9326.594869
801.363121,536.266849,-0.000000,9252.574275
801.363440,383.047749,370.102971,9400.615463
801.363759,536.266849,370.102971,9474.636058
801.364078,459.657299,370.102971,9474.636058
801.364397,383.047749,222.061783,9252.574275
801.364716,612.876398,-148.041188,9400.615463
801.365034,153.219100,-0.000000,9252.574275
801.365353,383.047749,518.144159,9326.594869
801.365672,0.000000,296.082377,9400.615463
801.365991,229.828649,296.082377,9400.615463
801.366310,383.047749,296.082377,9252.574275
801.366629,153.219100,222.061783,9104.533087
801.366948,76.609550,296.082377,9400.615463
801.367267,229.828649,222.061783,9400.615463
801.367586,536.266849,444.123565,9474.636058
801.367904,766.095498,296.082377,9696.697840
801.368223,306.438199,148.041188,9400.615463
801.368542,383.047749,370.102971,9326.594869
801.368861,459.657299,222.061783,9104.533087
801.369180,459.657299,370.102971,9326.594869
801.369499,536.266849,296.082377,9252.574275
801.369818,306.438199,296.082377,9178.553681
801.370137,383.047749,370.102971,9178.553681
801.370456,383.047749,74.020594,9178.553681
801.370775,459.657299,222.061783,9104.533087
801.371093,459.657299,370.102971,9252.574275
801.371412,842.705048,444.123565,9104.533087
801.371731,383.047749,222.061783,9252.574275
801.372050,229.828649,148.041188,9178.553681
801.372369,383.047749,-0.000000,9252.574275
801.372688,306.438199,-0.000000,9178.553681
801.373007,306.438199,-0.000000,9178.553681
801.373326,229.828649,-0.000000,9252.574275
801.373645,306.438199,-0.000000,9400.615463
801.373964,306.438199,-0.000000,9252.574275
801.374282,76.609550,-0.000000,9252.574275
801.374601,76.609550,-0.000000,9400.615463
801.374920,76.609550,-0.000000,9178.553681
801.375239,306.438199,-0.000000,9252.574275
801.375558,459.657299,-0.000000,9252.574275
801.375877,383.047749,-0.000000,9326.594869
801.376196,459.657299,296.082377,9104.533087
801.376515,459.657299,-0.000000,9178.553681
801.376834,383.047749,-0.000000,8882.471304
801.377153,612.876398,-0.000000,9030.512492
801.377471,536.266849,-0.000000,9104.533087
801.377790,612.876398,-74.020594,9104.533087
801.378109,766.095498,-0.000000,9326.594869
801.378428,612.876398,148.041188,9252.574275
801.378747,383.047749,148.041188,9326.594869
801.379066,689.485948,148.041188,9104.533087
801.379385,459.657299,222.061783,9178.553681
801.379704,536.266849,370.102971,9178.553681
801.380023,459.657299,-0.000000,9104.533087
801.380341,536.266849,148.041188,9252.574275
801.380660,76.609550,222.061783,9326.594869
801.380979,689.485948,296.082377,9474.636058
801.381298,383.047749,148.041188,9474.636058
801.381617,383.047749,148.041188,9252.574275
801.381936,766.095498,-0.000000,9548.656652
801.382255,383.047749,296.082377,9326.594869
801.382574,383.047749,296.082377,9252.574275
801.382893,612.876398,296.082377,9104.533087
801.383212,536.266849,296.082377,9252.574275
801.383530,766.095498,-0.000000,9104.533087
801.383849,459.657299,222.061783,9178.553681
801.384168,0.000000,222.061783,9252.574275
801.384487,383.047749,370.102971,9474.636058
801.384806,459.657299,296.082377,9474.636058
801.385125,383.047749,444.123565,9400.615463
801.385444,536.266849,518.144159,9474.636058
801.385763,383.047749,444.123565,9178.553681
801.386082,842.705048,518.144159,9252.574275
801.386401,229.828649,370.102971,9252.574275
801.386719,383.047749,370.102971,9622.677246
801.387038,383.047749,444.123565,9622.677246
801.387357,383.047749,222.061783,8956.491898
801.387676,306.438199,444.123565,9400.615463
801.387995,383.047749,370.102971,9474.636058
801.388314,383.047749,296.082377,9326.594869
801.388633,459.657299,370.102971,9474.636058
801.388952,459.657299,296.082377,9474.636058
801.389271,536.266849,444.123565,9474.636058
801.389590,1149.143247,148.041188,9400.615463
801.389908,689.485948,296.082377,9252.574275
801.390227,536.266849,222.061783,9400.615463
801.390546,766.095498,370.102971,9400.615463
801.390865,689.485948,370.102971,9178.553681
801.391184,919.314598,222.061783,9548.656652
801.391503,919.314598,666.185348,9326.594869
801.391822,919.314598,222.061783,9326.594869
801.392141,766.095498,222.061783,9104.533087
801.392460,689.485948,296.082377,9474.636058
801.392778,536.266849,518.144159,9326.594869
801.393097,766.095498,518.144159,9474.636058
801.393416,689.485948,222.061783,9474.636058
801.393735,689.485948,370.102971,9400.615463
801.394054,842.705048,296.082377,9178.553681
801.394373,766.095498,592.164754,9326.594869
801.394692,766.095498,370.102971,9252.574275
801.395011,689.485948,444.123565,9104.533087
801.395330,612.876398,222.061783,9030.512492
801.395649,383.047749,-0.000000,9104.533087
801.395967,306.438199,148.041188,9400.615463
801.396286,383.047749,444.123565,9326.594869
801.396605,536.266849,222.061783,9252.574275
801.396924,459.657299,296.082377,9104.533087
801.397243,995.924147,592.164754,9400.615463
801.397562,459.657299,444.123565,9178.553681
801.397881,536.266849,296.082377,9178.553681
801.398200,612.876398,444.123565,9178.553681
801.398519,306.438199,592.164754,9326.594869
801.398838,766.095498,444.123565,9474.636058
801.399156,383.047749,222.061783,9104.533087
801.399475,536.266849,296.082377,9104.533087
801.399794,536.266849,592.164754,9252.574275
801.400113,919.314598,444.123565,9252.574275
801.400432,689.485948,444.123565,9104.533087
801.400751,536.266849,518.144159,9178.553681
801.401070,459.657299,444.123565,9326.594869
801.401389,612.876398,444.123565,9178.553681
801.401708,612.876398,296.082377,9252.574275
801.402027,459.657299,444.123565,9400.615463
801.402345,689.485948,518.144159,9104.533087
801.402664,612.876398,592.164754,9474.636058
801.402983,766.095498,740.205942,9030.512492
801.403302,459.657299,444.123565,9326.594869
801.403621,612.876398,518.144159,9252.574275
801.403940,536.266849,222.061783,9252.574275
801.404259,536.266849,370.102971,9326.594869
801.404578,459.657299,592.164754,9400.615463
801.404897,612.876398,518.144159,9178.553681
801.405215,612.876398,592.164754,9400.615463
801.405534,842.705048,666.185348,9178.553681
801.405853,689.485948,666.185348,9252.574275
801.406172,306.438199,222.061783,9252.574275
801.406491,919.314598,814.226536,9474.636058
801.406810,612.876398,666.185348,9474.636058
801.407129,995.924147,518.144159,9474.636058
801.407448,919.314598,740.205942,9474.636058
801.407767,689.485948,518.144159,9252.574275
801.408086,536.266849,592.164754,9400.615463
801.408404,536.266849,666.185348,9178.553681
801.408723,689.485948,666.185348,9178.553681
801.409042,153.219100,444.123565,9400.615463
801.409361,459.657299,666.185348,9400.615463
801.409680,0.000000,296.082377,9474.636058
801.409999,459.657299,518.144159,9400.615463
801.410318,689.485948,592.164754,9326.594869
801.410637,459.657299,592.164754,9474.636058
801.410956,766.095498,814.226536,9326.594869
801.411275,689.485948,592.164754,9326.594869
801.411593,536.266849,666.185348,9474.636058
801.411912,689.485948,518.144159,9178.553681
801.412231,1225.752797,740.205942,9474.636058
801.412550,612.876398,740.205942,9252.574275
801.412869,383.047749,444.123565,9400.615463
801.413188,383.047749,740.205942,9252.574275
801.413507,842.705048,666.185348,9178.553681
801.413826,459.657299,814.226536,9326.594869
801.414145,383.047749,962.267725,9252.574275
801.414464,459.657299,814.226536,9252.574275
801.414782,689.485948,740.205942,9252.574275
801.415101,459.657299,518.144159,9030.512492
801.415420,383.047749,666.185348,9474.636058
801.415739,383.047749,518.144159,9474.636058
801.416058,536.266849,444.123565,9326.594869
801.416377,459.657299,518.144159,9252.574275
801.416696,383.047749,592.164754,9326.594869
801.417015,536.266849,592.164754,9326.594869
801.417334,229.828649,444.123565,9104.533087
801.417652,306.438199,444.123565,9178.553681
801.417971,536.266849,370.102971,9104.533087
801.418290,-153.219100,518.144159,9030.512492
801.418609,536.266849,666.185348,9474.636058
801.418928,0.000000,296.082377,9104.533087
801.419247,383.047749,518.144159,9178.553681
801.419566,459.657299,222.061783,9474.636058
801.419885,459.657299,296.082377,9252.574275
801.420204,689.485948,518.144159,9326.594869
801.420523,536.266849,444.123565,9400.615463
801.420841,459.657299,518.144159,9178.553681
801.421160,459.657299,444.123565,9104.533087
801.421479,536.266849,814.226536,9178.553681
801.421798,306.438199,296.082377,9030.512492
801.422117,459.657299,888.247130,9030.512492
801.422436,536.266849,444.123565,9252.574275
801.422755,229.828649,296.082377,9104.533087
801.423074,459.657299,370.102971,9178.553681
801.423393,536.266849,370.102971,9178.553681
801.423712,536.266849,148.041188,8956.491898
801.424030,459.657299,296.082377,9326.594869
801.424349,459.657299,518.144159,9252.574275
801.424668,153.219100,296.082377,9252.574275
801.424987,383.047749,518.144159,9178.553681
801.425306,459.657299,592.164754,9326.594869
801.425625,842.705048,518.144159,9178.553681
801.425944,229.828649,296.082377,8956.491898
801.426263,153.219100,222.061783,8956.491898
801.426582,229.828649,518.144159,9252.574275
801.426900,459.657299,296.082377,9104.533087
801.427219,612.876398,296.082377,9400.615463
801.427538,612.876398,592.164754,9252.574275
801.427857,76.609550,592.164754,9400.615463
801.428176,306.438199,444.123565,9030.512492
801.428495,536.266849,74.020594,9474.636058
801.428814,459.657299,666.185348,9474.636058
801.429133,306.438199,518.144159,9326.594869
801.429452,612.876398,740.205942,9400.615463
801.429771,306.438199,444.123565,9326.594869
801.430089,229.828649,222.061783,9178.553681
801.430408,383.047749,444.123565,9178.553681
801.430727,306.438199,666.185348,9326.594869
801.431046,306.438199,592.164754,9252.574275
801.431365,229.828649,592.164754,9252.574275
801.431684,536.266849,518.144159,9326.594869
801.432003,612.876398,666.185348,9474.636058
801.432322,306.438199,444.123565,9548.656652
801.432641,153.219100,370.102971,9474.636058
801.432960,306.438199,444.123565,9326.594869
801.433278,76.609550,370.102971,9548.656652
801.433597,153.219100,370.102971,9474.636058
801.433916,229.828649,370.102971,9252.574275
801.434235,383.047749,592.164754,9474.636058
801.434554,153.219100,592.164754,9326.594869
801.434873,229.828649,370.102971,9252.574275
801.435192,536.266849,370.102971,9326.594869
801.435511,459.657299,370.102971,9474.636058
801.435830,383.047749,444.123565,9400.615463
801.436149,612.876398,296.082377,9548.656652
801.436467,383.047749,592.164754,9474.636058
801.436786,383.047749,370.102971,9326.594869
801.437105,612.876398,518.144159,9326.594869
801.437424,459.657299,444.123565,9030.512492
801.437743,766.095498,296.082377,9400.615463
801.438062,229.828649,370.102971,9474.636058
801.438381,383.047749,222.061783,9474.636058
801.438700,153.219100,296.082377,9326.594869
801.439019,229.828649,222.061783,9326.594869
801.439337,229.828649,74.020594,9178.553681
801.439656,0.000000,-0.000000,9252.574275
801.439975,383.047749,222.061783,9326.594869
801.440294,306.438199,296.082377,9252.574275
801.440613,0.000000,296.082377,9252.574275
801.440932,229.828649,-0.000000,9178.553681
801.441251,229.828649,296.082377,9400.615463
801.441570,229.828649,222.061783,9326.594869
801.441889,306.438199,-0.000000,9178.553681
801.442208,383.047749,222.061783,9326.594869
801.442526,229.828649,296.082377,9474.636058
801.442845,459.657299,222.061783,9030.512492
801.443164,536.266849,296.082377,9104.533087
801.443483,459.657299,370.102971,9104.533087
801.443802,689.485948,296.082377,9030.512492
801.444121,536.266849,296.082377,8956.491898
801.444440,536.266849,518.144159,8956.491898
801.444759,76.609550,222.061783,8882.471304
801.445078,153.219100,296.082377,9104.533087
801.445397,153.219100,-74.020594,9104.533087
801.445715,383.047749,148.041188,9252.574275
801.446034,229.828649,222.061783,9326.594869
801.446353,383.047749,148.041188,9400.615463
801.446672,383.047749,74.020594,9326.594869
801.446991,536.266849,296.082377,8956.491898
801.447310,76.609550,296.082377,9178.553681
801.447629,306.438199,296.082377,8882.471304
801.447948,76.609550,-0.000000,9252.574275
801.448267,229.828649,296.082377,9252.574275
801.448586,76.609550,-0.000000,9474.636058
801.448904,229.828649,-0.000000,9400.615463
801.449223,229.828649,148.041188,9252.574275
801.449542,459.657299,-0.000000,9326.594869
801.449861,995.924147,-0.000000,9178.553681
801.450180,842.705048,370.102971,9326.594869
801.450499,536.266849,370.102971,8956.491898
801.450818,229.828649,-0.000000,9252.574275
801.451137,383.047749,296.082377,9252.574275
801.451456,459.657299,-148.041188,9400.615463
801.451774,459.657299,444.123565,9400.615463
801.452093,306.438199,-0.000000,9178.553681
801.452412,383.047749,222.061783,9326.594869
801.452731,459.657299,444.123565,9400.615463
801.453050,229.828649,296.082377,9326.594869
801.453369,459.657299,-0.000000,9030.512492
801.453688,306.438199,444.123565,9326.594869
801.454007,383.047749,296.082377,9252.574275
801.454326,229.828649,296.082377,9326.594869
801.454645,842.705048,-0.000000,9252.574275
801.454963,306.438199,296.082377,9178.553681
801.455282,459.657299,370.102971,9474.636058
801.455601,153.219100,148.041188,9326.594869
801.455920,766.095498,148.041188,9252.574275
801.456239,689.485948,370.102971,9400.615463
801.456558,306.438199,148.041188,9104.533087
801.456877,536.266849,296.082377,9104.533087
801.457196,306.438199,370.102971,9326.594869
801.457515,536.266849,296.082377,9252.574275
801.457834,383.047749,-0.000000,9252.574275
801.458152,383.047749,370.102971,9400.615463
801.458471,612.876398,370.102971,9178.553681
801.458790,383.047749,296.082377,9104.533087
801.459109,766.095498,222.061783,9104.533087
801.459428,536.266849,296.082377,9326.594869
801.459747,766.095498,518.144159,9252.574275
801.460066,383.047749,370.102971,9326.594869
801.460385,842.705048,-0.000000,9104.533087
801.460704,306.438199,148.041188,9326.594869
801.461023,459.657299,148.041188,9252.574275
801.461341,229.828649,222.061783,9178.553681
801.461660,383.047749,-0.000000,9474.636058
801.461979,229.828649,-0.000000,9400.615463
801.462298,459.657299,148.041188,9252.574275
801.462617,306.438199,148.041188,9252.574275
801.462936,306.438199,-0.000000,9474.636058
801.463254,459.657299,148.041188,9326.594869
801.463573,0.000000,222.061783,9400.615463
801.463892,766.095498,518.144159,9104.533087
801.464211,689.485948,222.061783,9326.594869
801.464530,612.876398,370.102971,9326.594869
801.464848,1149.143247,148.041188,9178.553681
801.465167,689.485948,148.041188,9178.553681
801.465486,612.876398,518.144159,9252.574275
801.465805,689.485948,148.041188,9030.512492
801.466124,766.095498,296.082377,9104.533087
801.466443,536.266849,148.041188,9252.574275
801.466761,766.095498,518.144159,9474.636058
801.467080,536.266849,74.020594,9326.594869
801.467399,536.266849,148.041188,9252.574275
801.467718,766.095498,444.123565,9326.594869
801.468037,689.485948,-0.000000,9400.615463
801.468356,536.266849,222.061783,9104.533087
801.468674,612.876398,296.082377,9104.533087
801.468993,536.266849,296.082377,9252.574275
801.469312,689.485948,296.082377,9178.553681
801.469631,766.095498,-0.000000,9400.615463
801.469950,76.609550,148.041188,9252.574275
801.470269,612.876398,296.082377,8956.491898
801.470587,459.657299,222.061783,9252.574275
801.470906,459.657299,370.102971,9252.574275
801.471225,229.828649,370.102971,9252.574275
801.471544,612.876398,148.041188,9030.512492
801.471863,612.876398,148.041188,9252.574275
801.472181,612.876398,296.082377,9252.574275
801.472500,306.438199,296.082377,9400.615463
801.472819,153.219100,444.123565,9400.615463
801.473138,612.876398,592.164754,9400.615463
801.473457,689.485948,370.102971,9030.512492
801.473776,459.657299,592.164754,9400.615463
801.474094,612.876398,518.144159,9030.512492
801.474413,612.876398,518.144159,9178.553681
801.474732,689.485948,444.123565,9252.574275
801.475051,536.266849,444.123565,9400.615463
801.475370,459.657299,444.123565,9400.615463
801.475689,612.876398,444.123565,9474.636058
801.476007,995.924147,444.123565,9178.553681
801.476326,306.438199,296.082377,9178.553681
801.476645,536.266849,518.144159,9326.594869
801.476964,766.095498,518.144159,9400.615463
801.477283,842.705048,-0.000000,9326.594869
801.477602,612.876398,444.123565,9326.594869
801.477920,459.657299,370.102971,9178.553681
801.478239,459.657299,370.102971,9252.574275
801.478558,766.095498,296.082377,9400.615463
801.478877,612.876398,370.102971,9474.636058
801.479196,306.438199,148.041188,9326.594869
801.479514,536.266849,444.123565,9178.553681
801.479833,229.828649,296.082377,9252.574275
801.480152,612.876398,518.144159,9178.553681
801.480471,689.485948,370.102971,9400.615463
801.480790,689.485948,370.102971,9326.594869
801.481109,536.266849,370.102971,9252.574275
801.481427,689.485948,592.164754,9400.615463
801.481746,153.219100,370.102971,9400.615463
801.482065,459.657299,444.123565,9474.636058
801.482384,766.095498,666.185348,9030.512492
801.482703,612.876398,444.123565,9400.615463
801.483022,612.876398,370.102971,9326.594869
801.483340,536.266849,222.061783,9178.553681
801.483659,612.876398,444.123565,9252.574275
801.483978,459.657299,370.102971,9178.553681
801.484297,766.095498,222.061783,9326.594869
801.484616,612.876398,148.041188,9400.615463
801.484934,459.657299,-0.000000,9104.533087
801.485253,919.314598,444.123565,9400.615463
801.485572,383.047749,222.061783,9178.553681
801.485891,766.095498,518.144159,8956.491898
801.486210,766.095498,-0.000000,9178.553681
801.486529,459.657299,444.123565,9400.615463
801.486847,689.485948,370.102971,9178.553681
801.487166,689.485948,370.102971,9252.574275
801.487485,536.266849,444.123565,9326.594869
801.487804,459.657299,370.102971,9326.594869
801.488123,383.047749,222.061783,9326.594869
801.488442,842.705048,666.185348,9104.533087
801.488760,536.266849,518.144159,9104.533087
801.489079,76.609550,296.082377,8734.430116
801.489398,919.314598,592.164754,9178.553681
801.489717,612.876398,370.102971,9030.512492
801.490036,229.828649,592.164754,9178.553681
801.490355,536.266849,444.123565,9326.594869
801.490673,306.438199,370.102971,9178.553681
801.490992,536.266849,296.082377,9326.594869
801.491311,306.438199,518.144159,9474.636058
801.491630,306.438199,370.102971,9326.594869
801.491949,153.219100,370.102971,9326.594869
801.492267,689.485948,-0.000000,9474.636058
801.492586,153.219100,370.102971,9400.615463
801.492905,536.266849,370.102971,9326.594869
801.493224,229.828649,296.082377,9178.553681
801.493543,612.876398,296.082377,9400.615463
801.493862,536.266849,370.102971,9326.594869
801.494180,383.047749,296.082377,9326.594869
801.494499,459.657299,518.144159,9252.574275
801.494818,306.438199,666.185348,9400.615463
801.495137,766.095498,592.164754,9178.553681
801.495456,689.485948,740.205942,9030.512492
801.495775,306.438199,592.164754,9252.574275
801.496093,459.657299,666.185348,9474.636058
801.496412,383.047749,370.102971,9400.615463
801.496731,766.095498,-0.000000,9400.615463
801.497050,689.485948,444.123565,9326.594869
801.497369,459.657299,444.123565,9326.594869
801.497687,459.657299,444.123565,9104.533087
801.498006,229.828649,444.123565,9252.574275
801.498325,229.828649,444.123565,9474.636058
801.498644,459.657299,592.164754,9326.594869
801.498963,459.657299,666.185348,9326.594869
801.499282,153.219100,370.102971,9326.594869
801.499600,383.047749,444.123565,9474.636058
801.499919,76.609550,444.123565,9326.594869
801.500238,536.266849,444.123565,9474.636058
801.500557,306.438199,370.102971,9400.615463
801.500876,306.438199,370.102971,9474.636058
801.501195,766.095498,518.144159,9474.636058
801.501513,536.266849,1036.288319,9548.656652
801.501832,612.876398,666.185348,9178.553681
801.502151,612.876398,740.205942,9400.615463
801.502470,612.876398,740.205942,9178.553681
801.502789,229.828649,666.185348,9400.615463
801.503108,689.485948,444.123565,9030.512492
801.503426,459.657299,518.144159,9178.553681
801.503745,536.266849,370.102971,9178.553681
801.504064,459.657299,666.185348,9252.574275
801.504383,306.438199,370.102971,9326.594869
801.504702,229.828649,444.123565,9178.553681
801.505020,229.828649,740.205942,9326.594869
801.505339,76.609550,518.144159,9474.636058
801.505658,153.219100,592.164754,9474.636058
801.505977,0.000000,370.102971,9474.636058
801.506296,306.438199,444.123565,9474.636058
801.506615,76.609550,518.144159,9178.553681
801.506933,0.000000,370.102971,9252.574275
801.507252,459.657299,296.082377,9252.574275
801.507571,459.657299,148.041188,9104.533087
801.507890,383.047749,444.123565,9326.594869
801.508209,76.609550,592.164754,9030.512492
801.508528,306.438199,592.164754,9252.574275
801.508846,536.266849,444.123565,9252.574275
801.509165,306.438199,518.144159,9400.615463
801.509484,459.657299,518.144159,9178.553681
801.509803,383.047749,296.082377,9178.553681
801.510122,306.438199,296.082377,9178.553681
801.510441,229.828649,222.061783,9104.533087
801.510759,229.828649,370.102971,9178.553681
801.511078,306.438199,444.123565,9326.594869
801.511397,306.438199,222.061783,9104.533087
801.511716,383.047749,370.102971,9252.574275
801.512035,612.876398,-0.000000,9474.636058
801.512353,536.266849,370.102971,9326.594869
801.512672,536.266849,592.164754,9326.594869
801.512991,612.876398,370.102971,9178.553681
801.513310,383.047749,148.041188,9252.574275
801.513629,689.485948,444.123565,9326.594869
801.513948,306.438199,296.082377,9400.615463
801.514266,306.438199,592.164754,9030.512492
801.514585,229.828649,222.061783,9400.615463
801.514904,0.000000,-0.000000,9474.636058
801.515223,229.828649,222.061783,9104.533087
801.515542,76.609550,370.102971,9252.574275
801.515861,229.828649,370.102971,9326.594869
801.516179,153.219100,222.061783,9104.533087
801.516498,229.828649,370.102971,9400.615463
801.516817,76.609550,222.061783,9474.636058
801.517136,383.047749,296.082377,9178.553681
801.517455,383.047749,444.123565,9400.615463
801.517773,0.000000,222.061783,9326.594869
801.518092,306.438199,592.164754,9252.574275
801.518411,306.438199,370.102971,9178.553681
801.518730,459.657299,370.102971,9104.533087
801.519049,306.438199,592.164754,9326.594869
801.519368,612.876398,444.123565,9326.594869
801.519686,383.047749,296.082377,9400.615463
801.520005,459.657299,444.123565,9400.615463
801.520324,306.438199,592.164754,9400.615463
801.520643,306.438199,444.123565,9474.636058
801.520962,306.438199,370.102971,9474.636058
801.521281,612.876398,666.185348,9030.512492
801.521599,0.000000,296.082377,9104.533087
801.521918,229.828649,296.082377,9252.574275
801.522237,229.828649,370.102971,9474.636058
801.522556,76.609550,222.061783,9474.636058
801.522875,0.000000,296.082377,9326.594869
801.523194,76.609550,370.102971,9400.615463
801.523512,153.219100,370.102971,9400.615463
801.523831,229.828649,296.082377,9252.574275
801.524150,153.219100,370.102971,9178.553681
801.524469,383.047749,740.205942,9326.594869
801.524788,689.485948,592.164754,9178.553681
801.525106,229.828649,518.144159,9178.553681
801.525425,383.047749,296.082377,9252.574275
801.525744,306.438199,370.102971,9252.574275
801.526063,383.047749,518.144159,9400.615463
801.526382,306.438199,370.102971,9252.574275
801.526701,0.000000,592.164754,9474.636058
801.527019,536.266849,740.205942,9474.636058
801.527338,153.219100,296.082377,9400.615463
801.527657,612.876398,444.123565,9252.574275
801.527976,153.219100,222.061783,9252.574275
801.528295,229.828649,370.102971,9400.615463
801.528614,229.828649,370.102971,9548.656652
801.528932,153.219100,296.082377,9400.615463
801.529251,229.828649,518.144159,9326.594869
801.529570,229.828649,296.082377,9178.553681
801.529889,612.876398,148.041188,9252.574275
801.530208,0.000000,370.102971,9326.594869
801.530526,383.047749,370.102971,9178.553681
801.530845,153.219100,370.102971,9178.553681
801.531164,383.047749,444.123565,9474.636058
801.531483,689.485948,444.123565,9252.574275
801.531802,229.828649,222.061783,9326.594869
801.532121,459.657299,370.102971,9178.553681
801.532439,383.047749,444.123565,9178.553681
801.532758,459.657299,222.061783,9252.574275
801.533077,842.705048,370.102971,9252.574275
801.533396,536.266849,296.082377,9252.574275
801.533715,766.095498,370.102971,8956.491898
801.534034,383.047749,222.061783,9326.594869
801.534352,229.828649,444.123565,9178.553681
801.534671,306.438199,296.082377,9474.636058
801.534990,306.438199,296.082377,9252.574275
801.535309,383.047749,296.082377,9326.594869
801.535628,459.657299,222.061783,9400.615463
801.535947,766.095498,370.102971,9252.574275
801.536265,229.828649,-0.000000,9400.615463
801.536584,76.609550,74.020594,9178.553681
801.536903,536.266849,444.123565,9178.553681
801.537222,306.438199,296.082377,9400.615463
801.537541,459.657299,370.102971,9474.636058
801.537859,306.438199,-0.000000,9326.594869
801.538178,229.828649,296.082377,9178.553681
801.538497,306.438199,518.144159,9326.594869
801.538816,383.047749,444.123565,9252.574275
801.539135,229.828649,444.123565,9474.636058
801.539454,76.609550,148.041188,9178.553681
801.539772,306.438199,148.041188,9178.553681
801.540091,383.047749,296.082377,9252.574275
801.540410,536.266849,296.082377,9104.533087
801.540729,842.705048,74.020594,9030.512492
801.541048,153.219100,444.123565,9252.574275
801.541367,459.657299,444.123565,9252.574275
801.541685,536.266849,296.082377,9400.615463
801.542004,306.438199,370.102971,9178.553681
801.542323,536.266849,222.061783,9400.615463
801.542642,229.828649,148.041188,9252.574275
801.542961,612.876398,444.123565,9474.636058
801.543280,76.609550,148.041188,9474.636058
801.543598,995.924147,444.123565,9252.574275
801.543917,383.047749,296.082377,9400.615463
801.544236,536.266849,148.041188,9178.553681
801.544555,612.876398,296.082377,9252.574275
801.544874,383.047749,148.041188,9252.574275
801.545192,306.438199,148.041188,9178.553681
801.545511,459.657299,148.041188,9474.636058
801.545830,842.705048,444.123565,9178.553681
801.546149,612.876398,222.061783,9178.553681
801.546468,459.657299,592.164754,9474.636058
801.546787,459.657299,370.102971,9326.594869
801.547105,536.266849,444.123565,9474.636058
801.547424,536.266849,518.144159,9474.636058
801.547743,612.876398,370.102971,9178.553681
801.548062,919.314598,296.082377,9252.574275
801.548381,536.266849,370.102971,9252.574275
801.548700,689.485948,296.082377,9178.553681
801.549018,536.266849,518.144159,9400.615463
801.549337,383.047749,-0.000000,9252.574275
801.549656,536.266849,-0.000000,9400.615463
801.549975,153.219100,148.041188,9252.574275
801.550294,536.266849,296.082377,9400.615463
801.550612,459.657299,296.082377,9178.553681
801.550931,536.266849,370.102971,9030.512492
801.551250,383.047749,296.082377,9252.574275
801.551569,383.047749,370.102971,9252.574275
801.551888,306.438199,222.061783,9400.615463
801.552207,229.828649,296.082377,9400.615463
801.552525,383.047749,444.123565,9400.615463
801.552844,612.876398,296.082377,9474.636058
801.553163,536.266849,518.144159,9548.656652
801.553482,612.876398,296.082377,9030.512492
801.553801,459.657299,296.082377,9252.574275
801.554120,536.266849,296.082377,9474.636058
801.554438,306.438199,592.164754,9252.574275
801.554757,459.657299,370.102971,9104.533087
801.555076,612.876398,444.123565,9104.533087
801.555395,229.828649,370.102971,9178.553681
801.555714,1149.143247,444.123565,9400.615463
801.556033,459.657299,296.082377,9178.553681
801.556351,766.095498,518.144159,9178.553681
801.556670,689.485948,296.082377,9326.594869
801.556989,766.095498,222.061783,9326.594869
801.557308,689.485948,222.061783,9252.574275
801.557627,536.266849,370.102971,9400.615463
801.557945,612.876398,370.102971,9252.574275
801.558264,612.876398,222.061783,9178.553681
801.558583,612.876398,148.041188,9400.615463
801.558902,76.609550,-0.000000,9474.636058
801.559221,383.047749,370.102971,9474.636058
801.559540,612.876398,222.061783,9252.574275
801.559858,689.485948,296.082377,9178.553681
801.560177,459.657299,-0.000000,9252.574275
801.560496,459.657299,370.102971,9326.594869
801.560815,612.876398,222.061783,9104.533087
801.561134,459.657299,370.102971,9178.553681
801.561453,689.485948,592.164754,9326.594869
801.561771,842.705048,370.102971,9326.594869
801.562090,229.828649,518.144159,9326.594869
801.562409,459.657299,370.102971,9178.553681
801.562728,842.705048,296.082377,9252.574275
801.563047,459.657299,370.102971,9178.553681
801.563365,766.095498,592.164754,9474.636058
801.563684,689.485948,740.205942,9474.636058
801.564003,766.095498,592.164754,9252.574275
801.564322,536.266849,518.144159,9326.594869
801.564641,1149.143247,592.164754,9400.615463
801.564960,612.876398,148.041188,9252.574275
801.565278,919.314598,370.102971,9178.553681
801.565597,842.705048,518.144159,9326.594869
801.565916,383.047749,518.144159,9030.512492
801.566235,229.828649,592.164754,9178.553681
801.566554,459.657299,296.082377,9474.636058
801.566872,383.047749,370.102971,9178.553681
801.567191,306.438199,592.164754,9474.636058
801.567510,306.438199,444.123565,9326.594869
801.567829,612.876398,370.102971,9178.553681
801.568148,766.095498,444.123565,9474.636058
801.568466,76.609550,296.082377,9400.615463
801.568785,306.438199,444.123565,9252.574275
801.569104,766.095498,444.123565,9178.553681
801.569423,459.657299,518.144159,9326.594869
801.569742,536.266849,518.144159,9178.553681
801.570061,459.657299,444.123565,9178.553681
801.570379,766.095498,518.144159,9326.594869
801.570698,995.924147,370.102971,9400.615463
801.571017,383.047749,592.164754,9104.533087
801.571336,536.266849,518.144159,9252.574275
801.571655,536.266849,518.144159,9474.636058
801.571973,689.485948,222.061783,9326.594869
801.572292,689.485948,-0.000000,9178.553681
801.572611,536.266849,370.102971,9252.574275
801.572930,459.657299,444.123565,9326.594869
801.573249,536.266849,296.082377,9252.574275
801.573567,612.876398,518.144159,9400.615463
801.573886,459.657299,296.082377,9104.533087
801.574205,459.657299,222.061783,9474.636058
801.574524,612.876398,370.102971,9178.553681
801.574843,766.095498,444.123565,9178.553681
801.575161,459.657299,518.144159,9252.574275
801.575480,459.657299,518.144159,9178.553681
801.575799,459.657299,370.102971,9252.574275
801.576118,766.095498,370.102971,9252.574275
801.576437,383.047749,444.123565,9252.574275
801.576756,459.657299,518.144159,9252.574275
801.577074,612.876398,592.164754,9474.636058
801.577393,383.047749,518.144159,9326.594869
801.577712,459.657299,444.123565,9178.553681
801.578031,612.876398,592.164754,9326.594869
801.578350,766.095498,370.102971,9548.656652
801.578668,306.438199,444.123565,9104.533087
801.578987,536.266849,444.123565,9104.533087
801.579306,689.485948,222.061783,9178.553681
801.579625,689.485948,296.082377,9326.594869
801.579944,306.438199,370.102971,9178.553681
801.580262,536.266849,370.102971,9252.574275
801.580581,383.047749,296.082377,9178.553681
801.580900,536.266849,370.102971,9178.553681
801.581219,612.876398,222.061783,9252.574275
801.581538,383.047749,370.102971,9178.553681
801.581856,153.219100,148.041188,9178.553681
801.582175,383.047749,518.144159,9474.636058
801.582494,459.657299,444.123565,9400.615463
801.582813,459.657299,-0.000000,9474.636058
801.583132,459.657299,444.123565,9252.574275
801.583451,383.047749,370.102971,9178.553681
801.583769,383.047749,518.144159,9178.553681
801.584088,306.438199,518.144159,9178.553681
801.584407,383.047749,444.123565,9104.533087
801.584726,459.657299,370.102971,9104.533087
801.585045,306.438199,444.123565,9400.615463
801.585363,306.438199,296.082377,9104.533087
801.585682,383.047749,296.082377,9400.615463
801.586001,842.705048,148.041188,9252.574275
801.586320,229.828649,444.123565,9178.553681
801.586639,459.657299,296.082377,9252.574275
801.586957,536.266849,518.144159,9178.553681
801.587276,153.219100,-0.000000,9252.574275
801.587595,689.485948,1110.308913,9474.636058
801.587914,306.438199,666.185348,9104.533087
801.588233,459.657299,444.123565,9178.553681
801.588551,229.828649,370.102971,9104.533087
801.588870,383.047749,296.082377,9400.615463
801.589189,306.438199,296.082377,9400.615463
801.589508,536.266849,296.082377,9400.615463
801.589827,229.828649,370.102971,9326.594869
801.590146,383.047749,444.123565,9400.615463
801.590464,536.266849,370.102971,9252.574275
801.590783,229.828649,592.164754,9178.553681
801.591102,0.000000,222.061783,9252.574275
801.591421,383.047749,518.144159,9252.574275
801.591740,229.828649,370.102971,9326.594869
801.592058,306.438199,148.041188,9622.677246
801.592377,536.266849,296.082377,9252.574275
801.592696,383.047749,444.123565,9252.574275
801.593015,536.266849,518.144159,9400.615463
801.593334,612.876398,592.164754,9326.594869
801.593652,459.657299,444.123565,9400.615463
801.593971,459.657299,444.123565,9104.533087
801.594290,536.266849,296.082377,9252.574275
801.594609,383.047749,592.164754,9178.553681
801.594928,689.485948,518.144159,9400.615463
801.595247,229.828649,148.041188,9326.594869
801.595565,459.657299,370.102971,9252.574275
801.595884,383.047749,518.144159,9252.574275
801.596203,229.828649,370.102971,9252.574275
801.596522,383.047749,222.061783,9400.615463
801.596841,229.828649,222.061783,9326.594869
801.597159,153.219100,296.082377,9178.553681
801.597478,383.047749,518.144159,9474.636058
801.597797,306.438199,370.102971,9178.553681
801.598116,0.000000,666.185348,9252.574275
801.598435,153.219100,444.123565,9252.574275
801.598753,306.438199,592.164754,9474.636058
801.599072,229.828649,518.144159,9252.574275
801.599391,383.047749,296.082377,9474.636058
801.599710,536.266849,222.061783,8956.491898
801.600029,689.485948,444.123565,9104.533087
801.600347,0.000000,296.082377,9400.615463
801.600666,612.876398,740.205942,9178.553681
801.600985,459.657299,-0.000000,9548.656652
801.601304,383.047749,592.164754,9474.636058
801.601623,306.438199,370.102971,9178.553681
801.601942,459.657299,518.144159,9104.533087
801.602260,153.219100,592.164754,9030.512492
801.602579,306.438199,296.082377,9178.553681
801.602898,306.438199,444.123565,9252.574275
801.603217,383.047749,370.102971,9326.594869
801.603536,229.828649,148.041188,9252.574275
801.603854,383.047749,222.061783,9474.636058
801.604173,76.609550,296.082377,9474.636058
801.604492,76.609550,370.102971,9252.574275
801.604811,0.000000,370.102971,9326.594869
801.605130,153.219100,296.082377,9104.533087
801.605448,383.047749,518.144159,9252.574275
801.605767,383.047749,444.123565,9104.533087
801.606086,383.047749,444.123565,9178.553681
801.606405,229.828649,370.102971,9104.533087
801.606724,536.266849,518.144159,9474.636058
801.607042,459.657299,222.061783,9474.636058
801.607361,536.266849,370.102971,9326.594869
801.607680,383.047749,370.102971,9178.553681
801.607999,306.438199,222.061783,9252.574275
801.608318,536.266849,296.082377,9326.594869
801.608637,229.828649,222.061783,9030.512492
801.608955,383.047749,296.082377,9326.594869
801.609274,229.828649,370.102971,9326.594869
801.609593,459.657299,296.082377,9252.574275
801.609912,383.047749,-0.000000,9474.636058
801.610231,459.657299,296.082377,9400.615463
801.610549,229.828649,-0.000000,9252.574275
801.610868,306.438199,296.082377,9104.533087
801.611187,76.609550,296.082377,9400.615463
801.611506,459.657299,222.061783,9548.656652
801.611825,383.047749,222.061783,9400.615463
801.612143,383.047749,296.082377,9326.594869
801.612462,153.219100,-0.000000,9252.574275
801.612781,689.485948,370.102971,9178.553681
801.613100,0.000000,-148.041188,8882.471304
801.613419,229.828649,148.041188,9474.636058
801.613737,229.828649,444.123565,9104.533087
801.614056,459.657299,296.082377,9104.533087
801.614375,306.438199,370.102971,9178.553681
801.614694,76.609550,222.061783,9400.615463
801.615013,306.438199,370.102971,9400.615463
801.615332,229.828649,296.082377,9400.615463
801.615650,459.657299,370.102971,9252.574275
801.615969,76.609550,444.123565,9326.594869
801.616288,612.876398,296.082377,9400.615463
801.616607,229.828649,592.164754,9178.553681
801.616926,459.657299,666.185348,9252.574275
801.617244,612.876398,370.102971,9178.553681
801.617563,842.705048,296.082377,9178.553681
801.617882,536.266849,444.123565,9400.615463
801.618201,612.876398,444.123565,9326.594869
801.618520,459.657299,370.102971,9326.594869
801.618838,459.657299,444.123565,9326.594869
801.619157,689.485948,518.144159,9474.636058
801.619476,459.657299,666.185348,9030.512492
801.619795,383.047749,148.041188,9252.574275
801.620114,383.047749,592.164754,9400.615463
801.620432,536.266849,518.144159,9178.553681
801.620751,459.657299,-0.000000,9474.636058
801.621070,612.876398,370.102971,9474.636058
801.621389,383.047749,444.123565,9326.594869
801.621708,229.828649,370.102971,9178.553681
801.622027,919.314598,222.061783,9474.636058
801.622345,306.438199,666.185348,9474.636058
801.622664,229.828649,444.123565,9030.512492
801.622983,459.657299,666.185348,9030.512492
801.623302,229.828649,370.102971,9400.615463
801.623621,689.485948,370.102971,9326.594869
801.623939,536.266849,370.102971,9252.574275
801.624258,459.657299,-0.000000,9326.594869
801.624577,536.266849,518.144159,9178.553681
801.624896,153.219100,444.123565,9400.615463
801.625215,306.438199,148.041188,9030.512492
801.625533,306.438199,296.082377,9326.594869
801.625852,229.828649,222.061783,8956.491898
801.626171,383.047749,296.082377,9178.553681
801.626490,306.438199,148.041188,9252.574275
801.626809,689.485948,222.061783,9474.636058
801.627128,383.047749,296.082377,9400.615463
801.627446,306.438199,296.082377,9474.636058
801.627765,306.438199,-0.000000,9400.615463
801.628084,536.266849,222.061783,9400.615463
801.628403,383.047749,-0.000000,9400.615463
801.628722,612.876398,444.123565,8956.491898
801.629040,536.266849,296.082377,9326.594869
801.629359,383.047749,296.082377,9252.574275
801.629678,689.485948,370.102971,9030.512492
801.629997,689.485948,-0.000000,9326.594869
801.630316,383.047749,370.102971,9178.553681
801.630634,612.876398,296.082377,9326.594869
801.630953,612.876398,444.123565,9252.574275
801.631272,842.705048,222.061783,9326.594869
801.631591,689.485948,444.123565,9326.594869
801.631910,612.876398,444.123565,9178.553681
801.632228,459.657299,370.102971,9104.533087
801.632547,153.219100,-0.000000,8882.471304
801.632866,383.047749,222.061783,9326.594869
801.633185,229.828649,296.082377,9326.594869
801.633504,306.438199,222.061783,9400.615463
801.633823,459.657299,296.082377,9252.574275
801.634141,153.219100,370.102971,9252.574275
801.634460,306.438199,296.082377,9178.553681
801.634779,459.657299,444.123565,9104.533087
801.635098,536.266849,222.061783,9178.553681
801.635417,612.876398,222.061783,9178.553681
801.635735,383.047749,222.061783,9474.636058
801.636054,383.047749,296.082377,9178.553681
801.636373,459.657299,296.082377,9178.553681
801.636692,306.438199,370.102971,9252.574275
801.637011,995.924147,296.082377,9474.636058
801.637329,459.657299,296.082377,9400.615463
801.637648,459.657299,444.123565,9326.594869
801.637967,612.876398,222.061783,9178.553681
801.638286,459.657299,370.102971,9104.533087
801.638605,919.314598,-0.000000,9474.636058
801.638923,459.657299,296.082377,9252.574275
801.639242,536.266849,370.102971,9474.636058
801.639561,612.876398,222.061783,9252.574275
801.639880,612.876398,370.102971,9400.615463
801.640199,995.924147,296.082377,9104.533087
801.640518,766.095498,518.144159,9326.594869
801.640836,612.876398,370.102971,9474.636058
801.641155,536.266849,444.123565,9252.574275
801.641474,689.485948,222.061783,9178.553681
801.641793,459.657299,222.061783,9326.594869
801.642112,766.095498,444.123565,9326.594869
801.642430,306.438199,-0.000000,9400.615463
801.642749,459.657299,296.082377,9252.574275
801.643068,383.047749,444.123565,9104.533087
801.643387,689.485948,592.164754,9400.615463
801.643706,689.485948,666.185348,9178.553681
801.644024,383.047749,444.123565,9030.512492
801.644343,612.876398,370.102971,9104.533087
801.644662,766.095498,370.102971,9400.615463
801.644981,383.047749,518.144159,9474.636058
801.645300,766.095498,592.164754,9326.594869
801.645618,459.657299,444.123565,9326.594869
801.645937,306.438199,444.123565,9326.594869
801.646256,612.876398,296.082377,9326.594869
801.646575,459.657299,444.123565,9326.594869
801.646894,536.266849,444.123565,9400.615463
801.647213,459.657299,592.164754,9252.574275
801.647531,536.266849,296.082377,9252.574275
801.647850,612.876398,296.082377,9178.553681
801.648169,306.438199,222.061783,9326.594869
801.648488,459.657299,518.144159,9252.574275
801.648807,383.047749,-0.000000,9178.553681
801.649125,766.095498,296.082377,9104.533087
801.649444,689.485948,370.102971,9252.574275
801.649763,842.705048,370.102971,9400.615463
801.650082,689.485948,148.041188,9178.553681
801.650401,689.485948,370.102971,9252.574275
801.650719,536.266849,148.041188,9178.553681
801.651038,919.314598,444.123565,9400.615463
801.651357,612.876398,444.123565,9474.636058
801.651676,612.876398,518.144159,9104.533087
801.651995,689.485948,518.144159,9400.615463
801.652313,919.314598,370.102971,9252.574275
801.652632,536.266849,296.082377,9326.594869
801.652951,689.485948,296.082377,9400.615463
801.653270,842.705048,444.123565,9326.594869
801.653589,919.314598,444.123565,9326.594869
801.653908,536.266849,592.164754,9474.636058
801.654226,612.876398,444.123565,9326.594869
801.654545,842.705048,444.123565,9252.574275
801.654864,612.876398,148.041188,9252.574275
801.655183,612.876398,444.123565,9252.574275
801.655502,1225.752797,-0.000000,9400.615463
801.655820,536.266849,296.082377,9326.594869
801.656139,459.657299,370.102971,9326.594869
801.656458,459.657299,296.082377,9104.533087
801.656777,842.705048,-0.000000,9178.553681
801.657096,459.657299,444.123565,9252.574275
801.657414,612.876398,444.123565,9104.533087
801.657733,153.219100,222.061783,9252.574275
801.658052,229.828649,370.102971,9178.553681
801.658371,459.657299,444.123565,9474.636058
801.658690,459.657299,518.144159,9326.594869
801.659009,229.828649,444.123565,9252.574275
801.659327,383.047749,518.144159,9178.553681
801.659646,306.438199,296.082377,9178.553681
801.659965,153.219100,444.123565,9400.615463
801.660284,459.657299,518.144159,9178.553681
801.660603,459.657299,296.082377,9326.594869
801.660921,766.095498,518.144159,9400.615463
801.661240,919.314598,222.061783,9252.574275
801.661559,459.657299,518.144159,9104.533087
801.661878,459.657299,370.102971,9326.594869
801.662197,459.657299,592.164754,9252.574275
801.662509,306.438199,296.082377,9104.533087
801.662828,459.657299,370.102971,9474.636058
801.663147,306.438199,518.144159,9400.615463
801.663466,383.047749,518.144159,9326.594869
801.663784,459.657299,296.082377,9326.594869
801.664103,383.047749,296.082377,9474.636058
801.664422,153.219100,296.082377,9622.677246
801.664741,229.828649,148.041188,9400.615463
801.665060,306.438199,518.144159,9326.594869
801.665378,612.876398,444.123565,9252.574275
801.665697,995.924147,518.144159,9252.574275
801.666016,689.485948,666.185348,9326.594869
801.666335,459.657299,444.123565,9474.636058
801.666653,459.657299,370.102971,9400.615463
801.666972,459.657299,518.144159,9252.574275
801.667291,689.485948,-0.000000,9326.594869
801.667610,612.876398,-0.000000,9400.615463
801.667928,536.266849,370.102971,9104.533087
801.668247,383.047749,592.164754,9474.636058
801.668566,306.438199,518.144159,9326.594869
801.668885,229.828649,444.123565,9252.574275
801.669204,306.438199,370.102971,9252.574275
801.669522,383.047749,370.102971,9252.574275
801.669841,459.657299,518.144159,9326.594869
801.670160,383.047749,444.123565,9252.574275
801.670479,766.095498,222.061783,9252.574275
801.670797,689.485948,592.164754,9030.512492
801.671116,153.219100,370.102971,9178.553681
801.671435,306.438199,370.102971,9252.574275
801.671754,153.219100,444.123565,9178.553681
801.672072,612.876398,222.061783,9252.574275
801.672391,383.047749,444.123565,9252.574275
801.672710,229.828649,518.144159,9104.533087
801.673029,306.438199,518.144159,9178.553681
801.673348,76.609550,370.102971,9252.574275
801.673666,689.485948,296.082377,9474.636058
801.673985,153.219100,518.144159,9104.533087
801.674304,459.657299,444.123565,9178.553681
801.674623,612.876398,444.123565,9326.594869
801.674941,689.485948,444.123565,9326.594869
801.675260,383.047749,296.082377,9252.574275
801.675579,383.047749,370.102971,9474.636058
801.675898,383.047749,370.102971,9252.574275
801.676216,306.438199,370.102971,9326.594869
801.676535,229.828649,370.102971,9252.574275
801.676854,383.047749,518.144159,9474.636058
801.677173,229.828649,-0.000000,9178.553681
801.677492,383.047749,296.082377,9252.574275
801.677810,229.828649,296.082377,9252.574275
801.678129,612.876398,222.061783,9104.533087
801.678448,459.657299,370.102971,9400.615463
801.678767,229.828649,222.061783,9252.574275
801.679085,229.828649,222.061783,9178.553681
801.679404,229.828649,370.102971,9178.553681
801.679723,459.657299,370.102971,9326.594869
801.680042,229.828649,222.061783,9104.533087
801.680360,383.047749,666.185348,9326.594869
801.680679,383.047749,296.082377,9400.615463
801.680998,153.219100,370.102971,9326.594869
801.681317,459.657299,370.102971,9178.553681
801.681636,153.219100,444.123565,9326.594869
801.681954,229.828649,518.144159,9400.615463
801.682273,229.828649,592.164754,9178.553681
801.682592,459.657299,444.123565,9252.574275
801.682911,766.095498,666.185348,9400.615463
801.683229,536.266849,518.144159,9252.574275
801.683548,459.657299,444.123565,9326.594869
801.683867,459.657299,592.164754,9252.574275
801.684186,229.828649,296.082377,9400.615463
801.684504,459.657299,296.082377,9178.553681
801.684823,306.438199,296.082377,9400.615463
801.685142,383.047749,444.123565,9252.574275
801.685461,689.485948,296.082377,9252.574275
801.685779,536.266849,518.144159,9178.553681
801.686098,612.876398,444.123565,9178.553681
801.686417,153.219100,370.102971,9400.615463
801.686736,76.609550,592.164754,9400.615463
801.687055,383.047749,592.164754,9474.636058
801.687373,153.219100,444.123565,9326.594869
801.687692,229.828649,518.144159,9252.574275
801.688011,536.266849,370.102971,9178.553681
801.688330,229.828649,444.123565,9178.553681
801.688648,383.047749,444.123565,9474.636058
801.688967,76.609550,296.082377,9400.615463
801.689286,306.438199,296.082377,9400.615463
801.689605,153.219100,518.144159,9252.574275
801.689923,689.485948,444.123565,9548.656652
801.690242,383.047749,592.164754,9474.636058
801.690561,383.047749,444.123565,9252.574275
801.690880,0.000000,370.102971,9030.512492
801.691199,153.219100,148.041188,9104.533087
801.691517,229.828649,296.082377,9326.594869
801.691836,153.219100,296.082377,9474.636058
801.692155,459.657299,370.102971,9178.553681
801.692474,229.828649,444.123565,9326.594869
801.692792,153.219100,-0.000000,9178.553681
801.693111,153.219100,-0.000000,9178.553681
801.693430,76.609550,444.123565,9474.636058
801.693749,229.828649,148.041188,9178.553681
801.694067,229.828649,370.102971,9178.553681
801.694386,919.314598,444.123565,9400.615463
801.694705,153.219100,148.041188,9104.533087
801.695024,229.828649,370.102971,9178.553681
801.695343,306.438199,370.102971,9178.553681
801.695661,306.438199,296.082377,9326.594869
801.695980,0.000000,148.041188,9178.553681
801.696299,383.047749,444.123565,9400.615463
801.696618,306.438199,222.061783,9178.553681
801.696936,459.657299,370.102971,9252.574275
801.697255,306.438199,370.102971,9178.553681
801.697574,459.657299,222.061783,9474.636058
801.697893,459.657299,222.061783,9326.594869
801.698211,306.438199,370.102971,9326.594869
801.698530,383.047749,222.061783,9104.533087
801.698849,306.438199,222.061783,9326.594869
801.699168,689.485948,-222.061783,9400.615463
801.699487,459.657299,222.061783,9326.594869
801.699805,689.485948,666.185348,9178.553681
801.700124,689.485948,370.102971,9252.574275
801.700443,306.438199,370.102971,9252.574275
801.700762,306.438199,296.082377,9252.574275
801.701080,459.657299,518.144159,9178.553681
801.701399,459.657299,222.061783,9178.553681
801.701718,306.438199,370.102971,9104.533087
801.702037,-229.828649,-0.000000,9474.636058
801.702355,383.047749,-74.020594,9474.636058
801.702674,306.438199,444.123565,9178.553681
801.702993,383.047749,444.123565,9326.594869
801.703312,383.047749,518.144159,9252.574275
801.703631,459.657299,-0.000000,9178.553681
801.703949,229.828649,370.102971,9326.594869
801.704268,229.828649,370.102971,9178.553681
801.704587,306.438199,296.082377,9400.615463
801.704906,306.438199,592.164754,9326.594869
801.705224,229.828649,370.102971,9178.553681
801.705543,153.219100,518.144159,9326.594869
801.705862,459.657299,518.144159,9326.594869
801.706181,306.438199,296.082377,9326.594869
801.706499,459.657299,370.102971,9400.615463
801.706818,842.705048,-0.000000,9474.636058
801.707137,383.047749,740.205942,9474.636058
801.707456,306.438199,222.061783,9326.594869
801.707774,153.219100,370.102971,9252.574275
801.708093,383.047749,-0.000000,9178.553681
801.708412,383.047749,444.123565,9474.636058
801.708731,842.705048,444.123565,9326.594869
801.709050,229.828649,222.061783,9400.615463
801.709368,383.047749,296.082377,9326.594869
801.709687,0.000000,370.102971,9326.594869
801.710006,383.047749,296.082377,9104.533087
801.710325,459.657299,370.102971,9326.594869
801.710643,689.485948,444.123565,9400.615463
801.710962,536.266849,296.082377,9104.533087
801.711281,383.047749,222.061783,9252.574275
801.711600,383.047749,444.123565,9400.615463
801.711918,689.485948,666.185348,9178.553681
801.712237,459.657299,592.164754,9400.615463
801.712556,536.266849,444.123565,9400.615463
801.712875,229.828649,222.061783,9474.636058
801.713194,459.657299,518.144159,9326.594869
801.713512,612.876398,222.061783,9326.594869
801.713831,306.438199,370.102971,9104.533087
801.714150,766.095498,370.102971,9400.615463
801.714469,153.219100,148.041188,9474.636058
801.714787,459.657299,148.041188,9252.574275
801.715106,536.266849,370.102971,9252.574275
801.715425,612.876398,370.102971,9326.594869
801.715744,689.485948,296.082377,9400.615463
801.716062,383.047749,296.082377,9326.594869
801.716381,383.047749,296.082377,9252.574275
801.716700,612.876398,296.082377,9400.615463
801.717019,536.266849,296.082377,9104.533087
801.717338,536.266849,444.123565,9474.636058
801.717656,689.485948,518.144159,9178.553681
801.717975,383.047749,222.061783,9104.533087
801.718294,536.266849,518.144159,9252.574275
801.718613,459.657299,148.041188,8882.471304
801.718931,536.266849,296.082377,9252.574275
801.719250,536.266849,296.082377,9104.533087
801.719569,459.657299,296.082377,9030.512492
801.719888,459.657299,444.123565,9474.636058
801.720206,612.876398,444.123565,9252.574275
801.720525,536.266849,444.123565,9400.615463
801.720844,459.657299,222.061783,9178.553681
801.721163,459.657299,222.061783,9326.594869
801.721482,459.657299,444.123565,9326.594869
801.721800,229.828649,296.082377,9252.574275
801.722119,612.876398,444.123565,9104.533087
801.722438,459.657299,296.082377,9326.594869
801.722757,459.657299,222.061783,9252.574275
801.723075,0.000000,-0.000000,9474.636058
801.723394,229.828649,518.144159,9326.594869
801.723713,689.485948,222.061783,9178.553681
801.724032,689.485948,592.164754,9178.553681
801.724350,689.485948,518.144159,9400.615463
801.724669,689.485948,296.082377,9326.594869
801.724988,536.266849,222.061783,9104.533087
801.725307,536.266849,518.144159,9178.553681
801.725625,459.657299,444.123565,9400.615463
801.725944,536.266849,370.102971,9326.594869
801.726263,536.266849,296.082377,9474.636058
801.726582,612.876398,370.102971,9252.574275
801.726901,536.266849,592.164754,9400.615463
801.727219,689.485948,740.205942,9326.594869
801.727538,919.314598,444.123565,9178.553681
801.727857,766.095498,444.123565,9400.615463
801.728176,919.314598,222.061783,9252.574275
801.728494,536.266849,370.102971,9400.615463
801.728813,383.047749,296.082377,9400.615463
801.729132,995.924147,370.102971,9474.636058
801.729451,766.095498,518.144159,9548.656652
801.729769,536.266849,666.185348,9474.636058
801.730088,766.095498,592.164754,9252.574275
801.730407,612.876398,444.123565,9104.533087
801.730726,536.266849,592.164754,9326.594869
801.731045,459.657299,-74.020594,9548.656652
801.731363,612.876398,444.123565,9400.615463
801.731682,536.266849,148.041188,9178.553681
801.732001,536.266849,296.082377,9252.574275
801.732320,229.828649,222.061783,9474.636058
801.732638,612.876398,370.102971,9252.574275
801.732957,766.095498,370.102971,9178.553681
801.733276,536.266849,592.164754,9326.594869
801.733595,612.876398,370.102971,9252.574275
801.733913,459.657299,518.144159,9252.574275
801.734232,459.657299,296.082377,9400.615463
801.734551,306.438199,148.041188,9400.615463
801.734870,689.485948,296.082377,9252.574275
801.735189,459.657299,444.123565,9326.594869
801.735507,229.828649,370.102971,9326.594869
801.735826,689.485948,222.061783,9104.533087
801.736145,459.657299,518.144159,9252.574275
801.736464,459.657299,592.164754,9252.574275
801.736782,766.095498,370.102971,9104.533087
801.737101,76.609550,370.102971,9326.594869
801.737420,689.485948,370.102971,9326.594869
801.737739,306.438199,74.020594,9252.574275
801.738057,383.047749,222.061783,9178.553681
801.738376,995.924147,444.123565,9474.636058
801.738695,459.657299,444.123565,9326.594869
801.739014,536.266849,296.082377,9178.553681
801.739333,306.438199,370.102971,9252.574275
801.739651,459.657299,370.102971,9178.553681
801.739970,536.266849,444.123565,9400.615463
801.740289,842.705048,296.082377,9252.574275
801.740608,383.047749,148.041188,9474.636058
801.740926,689.485948,370.102971,9104.533087
801.741245,612.876398,444.123565,9326.594869
801.741564,842.705048,740.205942,9252.574275
801.741883,536.266849,370.102971,9104.533087
801.742201,459.657299,518.144159,9104.533087
801.742520,459.657299,444.123565,9252.574275
801.742839,536.266849,296.082377,9252.574275
801.743158,689.485948,296.082377,9474.636058
801.743477,459.657299,444.123565,9326.594869
801.743795,383.047749,74.020594,9030.512492
801.744114,689.485948,370.102971,9252.574275
801.744433,919.314598,-0.000000,9400.615463
801.744752,612.876398,370.102971,9252.574275
801.745070,612.876398,370.102971,9474.636058
801.745389,612.876398,370.102971,9326.594869
801.745708,689.485948,444.123565,9252.574275
801.746027,536.266849,444.123565,9104.533087
801.746345,306.438199,370.102971,9178.553681
801.746664,383.047749,518.144159,9474.636058
801.746983,383.047749,370.102971,9252.574275
801.747302,766.095498,222.061783,9252.574275
801.747620,689.485948,444.123565,9252.574275
801.747939,383.047749,370.102971,9104.533087
801.748258,536.266849,518.144159,9178.553681
801.748577,229.828649,444.123565,9326.594869
801.748896,383.047749,370.102971,9252.574275
801.749214,459.657299,370.102971,9474.636058
801.749533,612.876398,592.164754,9326.594869
801.749852,459.657299,666.185348,9400.615463
801.750171,536.266849,666.185348,9326.594869
801.750489,153.219100,296.082377,9400.615463
801.750808,459.657299,518.144159,9252.574275
801.751127,306.438199,444.123565,9326.594869
801.751446,383.047749,296.082377,9326.594869
801.751764,689.485948,148.041188,9400.615463
801.752083,306.438199,296.082377,9474.636058
801.752402,459.657299,518.144159,9474.636058
801.752721,229.828649,444.123565,9252.574275
801.753040,306.438199,518.144159,9252.574275
801.753358,689.485948,-0.000000,9178.553681
801.753677,306.438199,444.123565,9326.594869
801.753996,536.266849,592.164754,9252.574275
801.754315,383.047749,222.061783,9252.574275
801.754633,153.219100,518.144159,9400.615463
801.754952,536.266849,-0.000000,9696.697840
801.755271,383.047749,370.102971,9252.574275
801.755590,76.609550,296.082377,9252.574275
801.755908,306.438199,370.102971,9326.594869
801.756227,612.876398,444.123565,9252.574275
801.756546,536.266849,-0.000000,9400.615463
801.756865,536.266849,370.102971,9252.574275
801.757184,229.828649,222.061783,9104.533087
801.757502,229.828649,-0.000000,9326.594869
801.757821,76.609550,222.061783,9178.553681
801.758140,459.657299,370.102971,9252.574275
801.758459,459.657299,370.102971,9326.594869
801.758777,383.047749,592.164754,9252.574275
801.759096,383.047749,370.102971,9252.574275
801.759415,689.485948,370.102971,9474.636058
801.759734,0.000000,-0.000000,9474.636058
801.760052,536.266849,666.185348,8956.491898
801.760371,153.219100,148.041188,9252.574275
801.760690,306.438199,370.102971,9252.574275
801.761009,383.047749,518.144159,9252.574275
801.761328,459.657299,444.123565,9252.574275
801.761646,229.828649,296.082377,9252.574275
801.761965,229.828649,444.123565,9326.594869
801.762284,383.047749,444.123565,9252.574275
801.762603,383.047749,296.082377,9400.615463
801.762921,383.047749,370.102971,9178.553681
801.763240,153.219100,148.041188,9252.574275
801.763559,229.828649,444.123565,9030.512492
801.763878,383.047749,370.102971,9252.574275
801.764196,383.047749,518.144159,9400.615463
801.764515,153.219100,444.123565,9178.553681
801.764834,306.438199,370.102971,9178.553681
801.765153,306.438199,370.102971,9178.553681
801.765472,612.876398,592.164754,9252.574275
801.765791,0.000000,148.041188,9178.553681
801.766110,306.438199,444.123565,9178.553681
801.766429,306.438199,370.102971,9178.553681
801.766747,306.438199,370.102971,9474.636058
801.767066,383.047749,518.144159,9326.594869
801.767385,459.657299,148.041188,8956.491898
801.767704,153.219100,148.041188,9252.574275
801.768023,229.828649,592.164754,9252.574275
801.768342,383.047749,518.144159,9178.553681
801.768661,76.609550,222.061783,9326.594869
801.768980,229.828649,592.164754,9178.553681
801.769298,536.266849,518.144159,9178.553681
801.769617,229.828649,370.102971,9252.574275
801.769936,306.438199,222.061783,9252.574275
801.770255,689.485948,296.082377,9252.574275
801.770574,383.047749,296.082377,9548.656652
801.770893,306.438199,370.102971,9252.574275
801.771212,459.657299,370.102971,9326.594869
801.771531,459.657299,444.123565,9326.594869
801.771850,536.266849,370.102971,8956.491898
801.772168,229.828649,296.082377,9104.533087
801.772487,229.828649,444.123565,9400.615463
801.772806,306.438199,296.082377,9400.615463
801.773125,383.047749,518.144159,9400.615463
801.773444,459.657299,370.102971,9548.656652
801.773763,459.657299,370.102971,9326.594869
801.774082,306.438199,222.061783,9326.594869
801.774401,229.828649,444.123565,9400.615463
801.774719,306.438199,444.123565,9400.615463
801.775038,842.705048,444.123565,9178.553681
801.775357,383.047749,222.061783,9400.615463
801.775676,612.876398,444.123565,9326.594869
801.775995,536.266849,518.144159,9474.636058
801.776314,229.828649,370.102971,9400.615463
801.776633,459.657299,222.061783,9030.512492
801.776952,153.219100,370.102971,9104.533087
801.777270,459.657299,222.061783,9178.553681
801.777589,459.657299,370.102971,9178.553681
801.777908,689.485948,-74.020594,8808.450710
801.778227,76.609550,222.061783,9252.574275
801.778546,383.047749,370.102971,9326.594869
801.778865,229.828649,370.102971,9400.615463
801.779184,306.438199,444.123565,9326.594869
801.779503,306.438199,296.082377,9326.594869
801.779821,229.828649,296.082377,9252.574275
801.780140,306.438199,296.082377,9326.594869
801.780459,229.828649,518.144159,9252.574275
801.780778,0.000000,222.061783,9474.636058
801.781097,229.828649,444.123565,9326.594869
801.781416,229.828649,222.061783,9326.594869
801.781735,229.828649,370.102971,9178.553681
801.782054,306.438199,370.102971,9400.615463
801.782372,153.219100,592.164754,9474.636058
801.782691,306.438199,444.123565,9178.553681
801.783010,153.219100,370.102971,9474.636058
801.783329,153.219100,370.102971,9104.533087
801.783648,229.828649,444.123565,9252.574275
801.783967,306.438199,148.041188,9326.594869
801.784286,306.438199,518.144159,9326.594869
801.784605,383.047749,296.082377,9178.553681
801.784924,229.828649,222.061783,9252.574275
801.785242,383.047749,518.144159,9326.594869
801.785561,689.485948,444.123565,8956.491898
801.785880,306.438199,444.123565,9474.636058
801.786199,383.047749,222.061783,9400.615463
801.786518,383.047749,296.082377,9252.574275
801.786837,459.657299,222.061783,9252.574275
801.787156,229.828649,296.082377,9400.615463
801.787475,459.657299,444.123565,9252.574275
801.787793,383.047749,296.082377,9178.553681
801.788112,459.657299,518.144159,9326.594869
801.788431,995.924147,370.102971,9252.574275
801.788750,306.438199,518.144159,9252.574275
801.789069,536.266849,296.082377,9326.594869
801.789388,536.266849,518.144159,9474.636058
801.789707,459.657299,370.102971,9400.615463
801.790026,995.924147,296.082377,9252.574275
801.790344,536.266849,222.061783,9178.553681
801.790663,536.266849,444.123565,9252.574275
801.790982,383.047749,296.082377,9400.615463
801.791301,383.047749,444.123565,9252.574275
801.791620,459.657299,444.123565,9326.594869
801.791939,919.314598,370.102971,9326.594869
801.792258,459.657299,-0.000000,9474.636058
801.792577,536.266849,296.082377,9252.574275
801.792895,459.657299,370.102971,9400.615463
801.793214,612.876398,148.041188,9178.553681
801.793533,689.485948,370.102971,9326.594869
801.793852,383.047749,444.123565,9252.574275
801.794171,306.438199,148.041188,9252.574275
801.794490,459.657299,296.082377,9400.615463
801.794809,1302.362347,444.123565,9252.574275
801.795128,536.266849,370.102971,9178.553681
801.795447,229.828649,370.102971,9252.574275
801.795765,383.047749,444.123565,9178.553681
801.796084,612.876398,296.082377,9326.594869
801.796403,229.828649,518.144159,9178.553681
801.796722,536.266849,222.061783,9252.574275
801.797041,459.657299,444.123565,9326.594869
801.797360,229.828649,518.144159,9326.594869
801.797679,383.047749,370.102971,9474.636058
801.797998,689.485948,296.082377,9030.512492
801.798316,612.876398,444.123565,9326.594869
801.798635,229.828649,592.164754,9178.553681
801.798954,306.438199,296.082377,9104.533087
801.799273,-153.219100,-0.000000,8808.450710
801.799592,229.828649,296.082377,9326.594869
801.799911,459.657299,296.082377,9400.615463
801.800230,383.047749,296.082377,9474.636058
801.800549,459.657299,370.102971,9326.594869
801.800867,612.876398,592.164754,9178.553681
801.801186,612.876398,814.226536,9178.553681
801.801505,459.657299,370.102971,8956.491898
801.801824,459.657299,518.144159,9252.574275
801.802143,229.828649,370.102971,9178.553681
801.802462,229.828649,-0.000000,9178.553681
801.802781,459.657299,370.102971,9326.594869
801.803100,536.266849,444.123565,9474.636058
801.803418,229.828649,518.144159,9400.615463
801.803737,842.705048,888.247130,9548.656652
801.804056,612.876398,370.102971,9104.533087
801.804375,536.266849,370.102971,9252.574275
801.804694,689.485948,370.102971,9104.533087
801.805013,689.485948,296.082377,9326.594869
801.805332,766.095498,-0.000000,9326.594869
801.805651,612.876398,518.144159,9400.615463
801.805969,766.095498,296.082377,9104.533087
801.806288,459.657299,222.061783,9252.574275
801.806607,766.095498,518.144159,9474.636058
801.806926,536.266849,222.061783,8956.491898
801.807245,536.266849,444.123565,9326.594869
801.807564,919.314598,518.144159,9178.553681
801.807883,612.876398,370.102971,9326.594869
801.808202,306.438199,444.123565,9252.574275
801.808521,766.095498,-0.000000,9104.533087
801.808839,383.047749,222.061783,9178.553681
801.809158,536.266849,296.082377,9400.615463
801.809477,383.047749,444.123565,9252.574275
801.809796,459.657299,666.185348,8808.450710
801.810115,612.876398,370.102971,9326.594869
801.810434,536.266849,592.164754,9178.553681
801.810753,459.657299,222.061783,9252.574275
801.811072,536.266849,296.082377,9474.636058
801.811390,1072.533697,518.144159,9252.574275
801.811709,306.438199,296.082377,9326.594869
801.812028,459.657299,296.082377,9326.594869
801.812347,459.657299,370.102971,9252.574275
801.812666,612.876398,518.144159,9326.594869
801.812985,306.438199,444.123565,9178.553681
801.813304,459.657299,444.123565,9104.533087
801.813623,612.876398,444.123565,9326.594869
801.813941,612.876398,370.102971,9326.594869
801.814260,612.876398,222.061783,9548.656652
801.814579,383.047749,370.102971,9252.574275
801.814898,459.657299,222.061783,9326.594869
801.815217,153.219100,296.082377,9474.636058
801.815536,459.657299,444.123565,9474.636058
801.815855,612.876398,296.082377,9252.574275
801.816174,383.047749,666.185348,9252.574275
801.816492,612.876398,296.082377,9252.574275
801.816811,536.266849,370.102971,9252.574275
801.817130,689.485948,370.102971,9178.553681
801.817449,229.828649,370.102971,9104.533087
801.817768,459.657299,518.144159,9178.553681
801.818087,459.657299,296.082377,9474.636058
801.818406,689.485948,370.102971,9326.594869
801.818725,536.266849,-0.000000,9400.615463
801.819044,536.266849,296.082377,9252.574275
801.819362,766.095498,518.144159,9252.574275
801.819681,612.876398,296.082377,9178.553681
801.820000,689.485948,518.144159,9326.594869
801.820319,842.705048,592.164754,9400.615463
801.820638,689.485948,740.205942,9474.636058
801.820957,229.828649,74.020594,9400.615463
801.821276,612.876398,370.102971,9178.553681
801.821595,536.266849,518.144159,9400.615463
801.821913,153.219100,666.185348,9548.656652
801.822232,766.095498,148.041188,9178.553681
801.822551,612.876398,370.102971,9326.594869
801.822870,842.705048,370.102971,9104.533087
801.823189,612.876398,296.082377,9104.533087
801.823508,766.095498,444.123565,9400.615463
801.823827,459.657299,370.102971,9104.533087
801.824146,536.266849,222.061783,9178.553681
801.824464,536.266849,592.164754,9252.574275
801.824783,612.876398,296.082377,9252.574275
801.825102,383.047749,444.123565,9252.574275
801.825421,612.876398,296.082377,9178.553681
801.825740,536.266849,148.041188,9178.553681
801.826059,383.047749,370.102971,9326.594869
801.826378,842.705048,296.082377,9326.594869
801.826697,689.485948,-0.000000,9400.615463
801.827015,536.266849,740.205942,9326.594869
801.827334,229.828649,296.082377,9400.615463
801.827653,536.266849,370.102971,9252.574275
801.827972,306.438199,518.144159,9252.574275
801.828291,383.047749,444.123565,9474.636058
801.828610,383.047749,370.102971,9104.533087
801.828929,536.266849,370.102971,9252.574275
801.829248,459.657299,370.102971,9252.574275
801.829566,536.266849,222.061783,9178.553681
801.829885,459.657299,444.123565,9400.615463
801.830204,383.047749,370.102971,9326.594869
801.830523,383.047749,518.144159,9252.574275
801.830842,383.047749,370.102971,9178.553681
801.831161,383.047749,-0.000000,9104.533087
801.831480,229.828649,370.102971,9178.553681
801.831799,383.047749,370.102971,9178.553681
801.832118,306.438199,296.082377,9178.553681
801.832436,229.828649,-0.000000,9326.594869
801.832755,689.485948,518.144159,9400.615463
801.833074,229.828649,148.041188,9178.553681
801.833393,536.266849,444.123565,9104.533087
801.833712,612.876398,222.061783,9252.574275
801.834031,153.219100,222.061783,9326.594869
801.834350,459.657299,592.164754,9252.574275
801.834669,536.266849,222.061783,9326.594869
801.834987,383.047749,444.123565,9252.574275
801.835306,536.266849,296.082377,9178.553681
801.835625,612.876398,296.082377,9400.615463
801.835944,153.219100,370.102971,9400.615463
801.836263,459.657299,518.144159,9178.553681
801.836582,383.047749,666.185348,9474.636058
801.836901,229.828649,370.102971,9326.594869
801.837220,459.657299,-0.000000,9104.533087
801.837538,612.876398,296.082377,9252.574275
801.837857,383.047749,444.123565,9400.615463
801.838176,229.828649,370.102971,9178.553681
801.838495,612.876398,148.041188,9326.594869
801.838814,766.095498,370.102971,9474.636058
801.839133,536.266849,222.061783,9104.533087
801.839452,229.828649,296.082377,9400.615463
801.839771,459.657299,296.082377,9178.553681
801.840089,459.657299,370.102971,9178.553681
801.840408,383.047749,370.102971,9400.615463
801.840727,306.438199,296.082377,9252.574275
801.841046,536.266849,296.082377,9252.574275
801.841365,383.047749,444.123565,9326.594869
801.841684,383.047749,296.082377,9104.533087
801.842003,689.485948,592.164754,9178.553681
801.842322,383.047749,518.144159,9474.636058
801.842640,383.047749,222.061783,9178.553681
801.842959,612.876398,296.082377,9474.636058
801.843278,459.657299,370.102971,9400.615463
801.843597,383.047749,370.102971,9326.594869
801.843916,459.657299,370.102971,9104.533087
801.844235,459.657299,370.102971,9178.553681
801.844554,229.828649,370.102971,9178.553681
801.844873,306.438199,296.082377,9326.594869
801.845192,229.828649,370.102971,9326.594869
801.845510,229.828649,370.102971,9400.615463
801.845829,229.828649,222.061783,9400.615463
801.846148,536.266849,296.082377,9326.594869
801.846467,536.266849,444.123565,9252.574275
801.846786,153.219100,444.123565,9400.615463
801.847105,229.828649,518.144159,9252.574275
801.847424,536.266849,518.144159,9252.574275
801.847743,306.438199,444.123565,9252.574275
801.848061,459.657299,444.123565,9326.594869
801.848380,306.438199,444.123565,9326.594869
801.848699,459.657299,296.082377,9474.636058
801.849018,612.876398,444.123565,9326.594869
801.849337,0.000000,370.102971,9326.594869
801.849656,306.438199,370.102971,9030.512492
801.849975,229.828649,296.082377,9252.574275
801.850294,536.266849,444.123565,9326.594869
801.850612,689.485948,-0.000000,9326.594869
801.850931,459.657299,222.061783,9178.553681
801.851250,383.047749,370.102971,9326.594869
801.851569,383.047749,444.123565,9252.574275
801.851888,766.095498,444.123565,9474.636058
801.852207,459.657299,296.082377,9400.615463
801.852526,536.266849,370.102971,8956.491898
801.852845,383.047749,222.061783,9178.553681
801.853163,536.266849,592.164754,9178.553681
801.853482,306.438199,296.082377,9178.553681
801.853801,766.095498,-0.000000,9400.615463
801.854120,229.828649,222.061783,9326.594869
801.854439,229.828649,296.082377,9252.574275
801.854758,459.657299,370.102971,9400.615463
801.855077,229.828649,-0.000000,9400.615463
801.855396,766.095498,296.082377,9400.615463
801.855715,76.609550,-0.000000,9104.533087
801.856033,536.266849,370.102971,8882.471304
801.856352,229.828649,370.102971,9178.553681
801.856671,536.266849,370.102971,9104.533087
801.856990,383.047749,370.102971,9252.574275
801.857309,229.828649,148.041188,9252.574275
801.857628,306.438199,370.102971,9326.594869
801.857947,383.047749,518.144159,9326.594869
801.858266,459.657299,370.102971,9252.574275
801.858584,383.047749,444.123565,9104.533087
801.858903,0.000000,222.061783,9252.574275
801.859222,76.609550,444.123565,9326.594869
801.859541,306.438199,370.102971,9326.594869
801.859860,306.438199,444.123565,9474.636058
801.860179,229.828649,296.082377,9400.615463
801.860498,536.266849,444.123565,9326.594869
801.860817,459.657299,296.082377,9400.615463
801.861135,459.657299,444.123565,9178.553681
801.861454,536.266849,-0.000000,9474.636058
801.861773,383.047749,518.144159,9326.594869
801.862092,459.657299,296.082377,9474.636058
801.862411,229.828649,222.061783,9252.574275
801.862730,306.438199,518.144159,9400.615463
801.863049,383.047749,370.102971,9178.553681
801.863368,612.876398,370.102971,9326.594869
801.863686,383.047749,296.082377,9252.574275
801.864005,612.876398,370.102971,9178.553681
801.864324,766.095498,370.102971,9474.636058
801.864643,766.095498,666.185348,9400.615463
801.864962,459.657299,370.102971,9178.553681
801.865281,612.876398,370.102971,9252.574275
801.865600,459.657299,222.061783,9474.636058
801.865919,536.266849,518.144159,9326.594869
801.866237,842.705048,370.102971,9326.594869
801.866556,459.657299,444.123565,9326.594869
801.866875,459.657299,296.082377,9326.594869
801.867194,306.438199,518.144159,9104.533087
801.867513,536.266849,-0.000000,9030.512492
801.867832,153.219100,518.144159,9474.636058
801.868150,689.485948,296.082377,9400.615463
801.868469,383.047749,370.102971,9326.594869
801.868788,459.657299,740.205942,9474.636058
801.869107,76.609550,370.102971,9178.553681
801.869426,153.219100,222.061783,9104.533087
801.869744,459.657299,222.061783,9252.574275
801.870063,229.828649,370.102971,9400.615463
801.870382,306.438199,518.144159,9326.594869
801.870701,0.000000,518.144159,9252.574275
801.871020,153.219100,296.082377,9104.533087
801.871338,229.828649,666.185348,9400.615463
801.871657,306.438199,148.041188,9178.553681
801.871976,383.047749,444.123565,9252.574275
801.872295,153.219100,222.061783,9030.512492
801.872614,153.219100,370.102971,9326.594869
801.872932,153.219100,296.082377,9252.574275
801.873251,306.438199,518.144159,9326.594869
801.873570,0.000000,444.123565,9548.656652
801.873889,0.000000,370.102971,9326.594869
801.874208,459.657299,370.102971,9030.512492
801.874526,153.219100,296.082377,9400.615463
801.874845,306.438199,370.102971,9104.533087
801.875164,153.219100,814.226536,9474.636058
801.875483,459.657299,444.123565,9252.574275
801.875802,459.657299,222.061783,9178.553681
801.876120,383.047749,518.144159,9030.512492
801.876439,383.047749,370.102971,9326.594869
801.876758,612.876398,370.102971,9400.615463
801.877077,153.219100,444.123565,9326.594869
801.877396,153.219100,148.041188,9252.574275
801.877714,306.438199,296.082377,9326.594869
801.878033,383.047749,148.041188,9178.553681
801.878352,536.266849,518.144159,9178.553681
801.878671,383.047749,222.061783,9252.574275
801.878990,459.657299,296.082377,9326.594869
801.879308,536.266849,222.061783,9326.594869
801.879627,459.657299,370.102971,9400.615463
801.879946,383.047749,444.123565,9252.574275
801.880265,153.219100,370.102971,9178.553681
801.880584,306.438199,518.144159,9326.594869
801.880902,536.266849,222.061783,9252.574275
801.881221,153.219100,370.102971,9326.594869
801.881540,229.828649,444.123565,9400.615463
801.881859,612.876398,444.123565,9252.574275
801.882178,306.438199,370.102971,9252.574275
801.882496,689.485948,-0.000000,9326.594869
801.882815,383.047749,296.082377,9400.615463
801.883134,612.876398,444.123565,9252.574275
801.883453,459.657299,296.082377,9252.574275
801.883772,536.266849,148.041188,9178.553681
801.884090,842.705048,296.082377,9104.533087
801.884409,459.657299,296.082377,9400.615463
801.884728,459.657299,444.123565,9178.553681
801.885047,306.438199,148.041188,9178.553681
801.885366,459.657299,444.123565,9326.594869
801.885685,383.047749,370.102971,9030.512492
801.886003,459.657299,444.123565,9474.636058
801.886322,536.266849,518.144159,9252.574275
801.886641,459.657299,370.102971,9326.594869
801.886960,383.047749,888.247130,9252.574275
801.887279,689.485948,148.041188,9104.533087
801.887597,383.047749,222.061783,9326.594869
801.887916,536.266849,518.144159,9326.594869
801.888235,459.657299,444.123565,9400.615463
801.888554,536.266849,518.144159,9178.553681
801.888873,689.485948,370.102971,9178.553681
801.889191,689.485948,666.185348,9104.533087
801.889510,612.876398,518.144159,9400.615463
801.889829,536.266849,370.102971,9252.574275
801.890148,306.438199,518.144159,9326.594869
801.890467,612.876398,-148.041188,8808.450710
801.890785,689.485948,592.164754,9178.553681
801.891104,536.266849,518.144159,9252.574275
801.891423,383.047749,444.123565,9252.574275
801.891742,383.047749,-0.000000,9178.553681
801.892061,383.047749,444.123565,9252.574275
801.892379,383.047749,296.082377,9252.574275
801.892698,459.657299,296.082377,9252.574275
801.893017,229.828649,370.102971,9400.615463
801.893336,76.609550,370.102971,9252.574275
801.893655,229.828649,444.123565,9400.615463
801.893973,459.657299,296.082377,9178.553681
801.894292,612.876398,518.144159,9326.594869
801.894611,612.876398,518.144159,9326.594869
801.894930,766.095498,518.144159,9252.574275
801.895249,383.047749,444.123565,9178.553681
801.895567,306.438199,370.102971,9400.615463
801.895886,612.876398,444.123565,9104.533087
801.896205,995.924147,222.061783,9252.574275
801.896524,153.219100,-0.000000,9326.594869
801.896843,689.485948,370.102971,9178.553681
801.897161,536.266849,370.102971,9252.574275
801.897480,842.705048,444.123565,9400.615463
801.897799,536.266849,222.061783,9326.594869
801.898118,383.047749,-0.000000,9104.533087
801.898437,766.095498,296.082377,9178.553681
801.898755,536.266849,444.123565,9252.574275
801.899074,536.266849,444.123565,9326.594869
801.899393,766.095498,444.123565,9326.594869
801.899712,536.266849,222.061783,9400.615463
801.900031,383.047749,296.082377,9326.594869
801.900349,842.705048,222.061783,9252.574275
801.900668,229.828649,518.144159,9178.553681
801.900987,689.485948,518.144159,9178.553681
801.901306,459.657299,370.102971,9178.553681
801.901625,383.047749,444.123565,9252.574275
801.901943,383.047749,370.102971,9178.553681
801.902262,842.705048,592.164754,9474.636058
801.902581,153.219100,370.102971,9030.512492
801.902900,153.219100,444.123565,9474.636058
801.903219,689.485948,444.123565,9178.553681
801.903537,306.438199,444.123565,9326.594869
801.903856,919.314598,740.205942,9178.553681
801.904175,536.266849,370.102971,9400.615463
801.904494,459.657299,444.123565,9400.615463
801.904813,459.657299,444.123565,9252.574275
801.905132,536.266849,370.102971,9178.553681
801.905450,229.828649,518.144159,9252.574275
801.905769,612.876398,370.102971,9030.512492
801.906088,0.000000,296.082377,9326.594869
801.906407,536.266849,370.102971,9104.533087
801.906726,689.485948,-0.000000,9326.594869
801.907044,459.657299,296.082377,9252.574275
801.907363,459.657299,296.082377,9326.594869
801.907682,536.266849,370.102971,9474.636058
801.908001,383.047749,296.082377,9400.615463
801.908320,536.266849,518.144159,9474.636058
801.908638,459.657299,-0.000000,9400.615463
801.908957,383.047749,518.144159,9474.636058
801.909276,383.047749,370.102971,9326.594869
801.909595,383.047749,370.102971,9326.594869
801.909914,0.000000,222.061783,9178.553681
801.910232,766.095498,444.123565,9252.574275
801.910551,612.876398,296.082377,9326.594869
801.910870,536.266849,370.102971,9252.574275
801.911189,919.314598,222.061783,9030.512492
801.911508,459.657299,370.102971,9400.615463
801.911826,536.266849,296.082377,9326.594869
801.912145,306.438199,296.082377,9326.594869
801.912464,536.266849,370.102971,9400.615463
801.912783,229.828649,-0.000000,9400.615463
801.913102,459.657299,74.020594,9400.615463
801.913420,612.876398,370.102971,9252.574275
801.913739,459.657299,296.082377,9400.615463
801.914058,536.266849,370.102971,9252.574275
801.914377,383.047749,222.061783,9696.697840
801.914696,536.266849,296.082377,9326.594869
801.915014,612.876398,370.102971,9400.615463
801.915333,536.266849,296.082377,9104.533087
801.915652,689.485948,370.102971,9326.594869
801.915971,459.657299,222.061783,9030.512492
801.916290,383.047749,222.061783,9178.553681
801.916608,153.219100,296.082377,9326.594869
801.916927,612.876398,370.102971,9252.574275
801.917246,612.876398,370.102971,9252.574275
801.917565,306.438199,296.082377,9474.636058
801.917884,383.047749,370.102971,9252.574275
801.918202,306.438199,370.102971,9252.574275
801.918521,153.219100,296.082377,9326.594869
801.918840,536.266849,-0.000000,9474.636058
801.919159,383.047749,370.102971,9252.574275
801.919478,383.047749,592.164754,9474.636058
801.919796,229.828649,222.061783,9252.574275
801.920115,383.047749,370.102971,9326.594869
801.920434,229.828649,888.247130,9474.636058
801.920753,459.657299,370.102971,9030.512492
801.921072,536.266849,148.041188,9178.553681
801.921390,153.219100,222.061783,9178.553681
801.921709,383.047749,370.102971,9252.574275
801.922028,459.657299,296.082377,9178.553681
801.922347,459.657299,148.041188,9326.594869
801.922666,612.876398,444.123565,9104.533087
801.922985,689.485948,222.061783,9252.574275
801.923303,536.266849,370.102971,9326.594869
801.923622,383.047749,444.123565,9178.553681
801.923941,536.266849,296.082377,9252.574275
801.924260,306.438199,444.123565,9252.574275
801.924579,306.438199,296.082377,9474.636058
801.924897,536.266849,370.102971,9326.594869
801.925216,306.438199,296.082377,9178.553681
801.925535,229.828649,222.061783,9030.512492
801.925854,459.657299,518.144159,9400.615463
801.926173,459.657299,296.082377,9252.574275
801.926491,306.438199,370.102971,9474.636058
801.926810,306.438199,370.102971,9178.553681
801.927129,306.438199,222.061783,9326.594869
801.927448,536.266849,296.082377,9104.533087
801.927767,306.438199,296.082377,9326.594869
801.928085,306.438199,370.102971,9474.636058
801.928404,612.876398,222.061783,9252.574275
801.928723,459.657299,296.082377,9400.615463
801.929042,459.657299,222.061783,9326.594869
801.929361,306.438199,296.082377,9400.615463
801.929679,536.266849,296.082377,9326.594869
801.929998,306.438199,444.123565,9326.594869
801.930317,383.047749,444.123565,9326.594869
801.930636,306.438199,222.061783,9252.574275
801.930955,0.000000,-74.020594,9252.574275
801.931273,459.657299,74.020594,9326.594869
801.931592,612.876398,518.144159,9178.553681
801.931911,153.219100,-0.000000,9252.574275
801.932230,306.438199,444.123565,9474.636058
801.932549,612.876398,-0.000000,9178.553681
801.932867,229.828649,444.123565,9178.553681
801.933186,229.828649,444.123565,9400.615463
801.933505,536.266849,444.123565,9326.594869
801.933824,1302.362347,518.144159,9400.615463
801.934143,153.219100,444.123565,9400.615463
801.934461,229.828649,222.061783,9252.574275
801.934780,229.828649,518.144159,9400.615463
801.935099,383.047749,444.123565,9178.553681
801.935418,842.705048,-0.000000,9474.636058
801.935737,306.438199,518.144159,9400.615463
801.936055,229.828649,518.144159,9326.594869
801.936374,306.438199,222.061783,9252.574275
801.936693,612.876398,222.061783,9178.553681
801.937012,689.485948,444.123565,9326.594869
801.937331,383.047749,444.123565,9252.574275
801.937649,383.047749,370.102971,9178.553681
801.937968,153.219100,444.123565,9252.574275
801.938287,383.047749,-0.000000,9474.636058
801.938606,536.266849,222.061783,9178.553681
801.938925,76.609550,296.082377,9474.636058
801.939243,459.657299,592.164754,9400.615463
801.939562,229.828649,296.082377,9252.574275
801.939881,766.095498,-0.000000,9030.512492
801.940200,536.266849,222.061783,9104.533087
801.940519,536.266849,370.102971,9252.574275
801.940838,229.828649,296.082377,9326.594869
801.941156,153.219100,148.041188,9400.615463
801.941475,536.266849,370.102971,9252.574275
801.941794,229.828649,444.123565,9400.615463
801.942113,766.095498,370.102971,9474.636058
801.942432,153.219100,444.123565,9326.594869
801.942750,383.047749,370.102971,9252.574275
801.943069,842.705048,592.164754,9400.615463
801.943388,383.047749,296.082377,9326.594869
801.943707,536.266849,222.061783,9178.553681
801.944026,612.876398,370.102971,9474.636058
801.944344,383.047749,-0.000000,9326.594869
801.944663,306.438199,444.123565,9548.656652
801.944982,536.266849,518.144159,9400.615463
801.945301,76.609550,370.102971,9178.553681
801.945620,459.657299,296.082377,9326.594869
801.945938,459.657299,444.123565,9178.553681
801.946257,306.438199,222.061783,9400.615463
801.946576,459.657299,370.102971,9252.574275
801.946895,306.438199,370.102971,9474.636058
801.947214,459.657299,296.082377,9400.615463
801.947532,383.047749,370.102971,9548.656652
801.947851,306.438199,444.123565,9474.636058
801.948170,76.609550,370.102971,9104.533087
801.948489,383.047749,518.144159,9104.533087
801.948808,306.438199,444.123565,9104.533087
801.949126,76.609550,814.226536,9252.574275
801.949445,383.047749,518.144159,9178.553681
801.949764,536.266849,370.102971,9400.615463
801.950083,229.828649,222.061783,9474.636058
801.950402,459.657299,370.102971,9326.594869
801.950720,766.095498,148.041188,9696.697840
801.951039,76.609550,222.061783,9400.615463
801.951358,612.876398,666.185348,9252.574275
801.951677,383.047749,370.102971,9030.512492
801.951996,306.438199,296.082377,9104.533087
801.952314,306.438199,518.144159,9178.553681
801.952633,153.219100,444.123565,9326.594869
801.952952,229.828649,518.144159,9178.553681
801.953271,383.047749,370.102971,9326.594869
801.953590,459.657299,-0.000000,9326.594869
801.953908,153.219100,444.123565,9326.594869
801.954227,536.266849,592.164754,9252.574275
801.954546,76.609550,370.102971,9178.553681
801.954865,306.438199,370.102971,9252.574275
801.955184,612.876398,296.082377,9252.574275
801.955502,76.609550,444.123565,9326.594869
801.955821,459.657299,370.102971,9252.574275
801.956140,459.657299,296.082377,9178.553681
801.956459,459.657299,296.082377,9400.615463
801.956778,536.266849,296.082377,9326.594869
801.957096,536.266849,370.102971,9326.594869
801.957415,459.657299,-0.000000,9104.533087
801.957734,383.047749,518.144159,9252.574275
801.958053,612.876398,444.123565,9400.615463
801.958372,612.876398,518.144159,9474.636058
801.958691,459.657299,444.123565,9252.574275
801.959009,459.657299,518.144159,9400.615463
801.959328,459.657299,592.164754,9474.636058
801.959647,76.609550,148.041188,9474.636058
801.959966,229.828649,222.061783,9104.533087
801.960285,689.485948,444.123565,9178.553681
801.960603,229.828649,370.102971,9326.594869
801.960922,459.657299,518.144159,9252.574275
801.961241,306.438199,444.123565,9326.594869
801.961560,383.047749,370.102971,9178.553681
801.961879,383.047749,296.082377,9400.615463
801.962197,536.266849,444.123565,9326.594869
801.962516,689.485948,296.082377,9474.636058
801.962835,383.047749,592.164754,9326.594869
801.963154,459.657299,666.185348,9400.615463
801.963473,229.828649,296.082377,9178.553681
801.963791,153.219100,296.082377,8734.430116
801.964110,153.219100,296.082377,9104.533087
801.964429,306.438199,518.144159,9400.615463
801.964748,383.047749,222.061783,9400.615463
801.965067,306.438199,666.185348,9252.574275
801.965385,459.657299,296.082377,9326.594869
801.965704,612.876398,444.123565,9252.574275
801.966023,536.266849,370.102971,9326.594869
801.966342,383.047749,296.082377,9178.553681
801.966661,459.657299,444.123565,9326.594869
801.966980,383.047749,518.144159,9326.594869
801.967298,536.266849,444.123565,9104.533087
801.967617,153.219100,444.123565,9400.615463
801.967936,383.047749,296.082377,9474.636058
801.968255,383.047749,296.082377,9252.574275
801.968574,536.266849,592.164754,9474.636058
801.968893,689.485948,444.123565,9474.636058
801.969211,229.828649,518.144159,9400.615463
801.969530,383.047749,518.144159,9252.574275
801.969849,306.438199,444.123565,9252.574275
801.970168,459.657299,222.061783,9178.553681
801.970487,842.705048,148.041188,8808.450710
801.970805,536.266849,296.082377,9326.594869
801.971124,689.485948,370.102971,9252.574275
801.971443,459.657299,370.102971,9326.594869
801.971762,76.609550,370.102971,9474.636058
