#time,accel_x,accel_y,accel_z
1027.010494,612.876398,518.144159,9178.553681
1027.010813,536.266849,222.061783,9400.615463
1027.011132,766.095498,592.164754,9178.553681
1027.011451,536.266849,296.082377,9104.533087
1027.011770,459.657299,148.041188,8956.491898
1027.012089,536.266849,296.082377,9252.574275
1027.012407,383.047749,370.102971,9178.553681
1027.012726,536.266849,370.102971,9178.553681
1027.013045,229.828649,444.123565,9326.594869
1027.013364,229.828649,370.102971,9252.574275
1027.013683,689.485948,518.144159,9252.574275
1027.014002,306.438199,222.061783,9400.615463
1027.014320,229.828649,222.061783,9326.594869
1027.014639,689.485948,-0.000000,9326.594869
1027.014958,153.219100,370.102971,9252.574275
1027.015277,383.047749,370.102971,9400.615463
1027.015596,383.047749,296.082377,9252.574275
1027.015915,612.876398,370.102971,9326.594869
1027.016233,383.047749,222.061783,9474.636058
1027.016552,766.095498,296.082377,9252.574275
1027.016871,383.047749,296.082377,9400.615463
1027.017190,536.266849,518.144159,9252.574275
1027.017509,842.705048,444.123565,9252.574275
1027.017828,536.266849,740.205942,9400.615463
1027.018146,306.438199,222.061783,9252.574275
1027.018465,459.657299,444.123565,9326.594869
1027.018784,459.657299,296.082377,9178.553681
1027.019103,459.657299,148.041188,9178.553681
1027.019422,229.828649,296.082377,9400.615463
1027.019741,383.047749,370.102971,9400.615463
1027.020059,459.657299,296.082377,9252.574275
1027.020378,459.657299,-0.000000,9400.615463
1027.020697,689.485948,222.061783,9178.553681
1027.021016,459.657299,444.123565,9104.533087
1027.021335,229.828649,444.123565,9474.636058
1027.021654,306.438199,370.102971,9326.594869
1027.021973,383.047749,-0.000000,9178.553681
1027.022291,459.657299,444.123565,9474.636058
1027.022610,306.438199,518.144159,9252.574275
1027.022929,459.657299,444.123565,9326.594869
1027.023248,306.438199,444.123565,9474.636058
1027.023567,459.657299,222.061783,9326.594869
1027.023886,536.266849,592.164754,9104.533087
1027.024204,459.657299,222.061783,9474.636058
1027.024523,459.657299,296.082377,9326.594869
1027.024842,306.438199,296.082377,9326.594869
1027.025161,459.657299,222.061783,9104.533087
1027.025480,612.876398,222.061783,9326.594869
1027.025799,459.657299,296.082377,9326.594869
1027.026117,459.657299,370.102971,9326.594869
1027.026436,995.924147,444.123565,9252.574275
1027.026755,612.876398,-0.000000,9400.615463
1027.027074,689.485948,370.102971,8956.491898
1027.027393,383.047749,444.123565,9326.594869
1027.027712,459.657299,222.061783,9252.574275
1027.028030,153.219100,444.123565,9474.636058
1027.028349,383.047749,444.123565,9252.574275
1027.028668,459.657299,518.144159,9400.615463
1027.028987,306.438199,444.123565,9252.574275
1027.029306,612.876398,296.082377,9030.512492
1027.029625,689.485948,296.082377,9326.594869
1027.029943,612.876398,518.144159,9178.553681
1027.030262,153.219100,222.061783,9400.615463
1027.030581,383.047749,222.061783,9326.594869
1027.030900,229.828649,296.082377,9252.574275
1027.031219,612.876398,-148.041188,8734.430116
1027.031538,306.438199,222.061783,8882.471304
1027.031856,153.219100,-0.000000,9030.512492
1027.032175,229.828649,-222.061783,9252.574275
1027.032494,-153.219100,-296.082377,9178.553681
1027.032813,153.219100,-1036.288319,9104.533087
1027.033132,0.000000,-370.102971,8956.491898
1027.033451,0.000000,-814.226536,8956.491898
1027.033769,-383.047749,-666.185348,8882.471304
1027.034088,-306.438199,-814.226536,8808.450710
1027.034407,-459.657299,-740.205942,8512.368333
1027.034726,-919.314598,-962.267725,8216.285956
1027.035045,-1149.143247,-1184.329507,8512.368333
1027.035364,-1608.800546,-1480.411884,8808.450710
1027.035682,-1685.410096,-1406.391290,9104.533087
1027.036001,-1608.800546,-1332.370696,8734.430116
1027.036320,-1991.848295,-1332.370696,8808.450710
1027.036639,-2068.457845,-1110.308913,8290.306550
1027.036958,-1762.019645,-1036.288319,7994.224174
1027.037277,-2068.457845,-1332.370696,7402.059420
1027.037596,-2298.286494,-1554.432478,7624.121203
1027.037914,-2298.286494,-1850.514855,8142.265362
1027.038233,-2374.896044,-2220.617826,8734.430116
1027.038552,-2451.505594,-2516.700203,8956.491898
1027.038871,-2528.115143,-2442.679609,8882.471304
1027.039190,-2451.505594,-2220.617826,9252.574275
1027.039509,-2451.505594,-1924.535449,8956.491898
1027.039827,-2451.505594,-1924.535449,8438.347739
1027.040146,-2528.115143,-1924.535449,8438.347739
1027.040465,-2604.724693,-1776.494261,8438.347739
1027.040784,-3140.991542,-2368.659014,8438.347739
1027.041103,-3524.039291,-3552.988522,9178.553681
1027.041422,-3677.258390,-4293.194464,9992.780217
1027.041740,-3907.087040,-4515.256246,10584.944971
1027.042059,-3830.477490,-4589.276840,10807.006753
1027.042378,-4136.915689,-4219.173869,11843.295072
1027.042697,-3753.867940,-3552.988522,11473.192101
1027.043016,-2987.772442,-2812.782580,10881.027347
1027.043335,-2757.943793,-2146.597232,10955.047942
1027.043653,-2451.505594,-2220.617826,10436.903782
1027.043972,-2145.067394,-2220.617826,10140.821405
1027.044291,-1762.019645,-2368.659014,9844.739029
1027.044610,-2451.505594,-2664.741391,10362.883188
1027.044929,-2451.505594,-3108.864956,9474.636058
1027.045248,-2681.334243,-3552.988522,10066.800811
1027.045566,-2604.724693,-4145.153275,10436.903782
1027.045885,-3217.601092,-4367.215058,11399.171507
1027.046204,-3677.258390,-4367.215058,12139.377449
1027.046523,-4290.134789,-4293.194464,12139.377449
1027.046842,-4443.353888,-3775.050304,11843.295072
1027.047161,-4673.182538,-3404.947333,11843.295072
1027.047479,-4749.792088,-3182.885551,11695.253884
1027.047798,-4749.792088,-3108.864956,10510.924376
1027.048117,-4366.744339,-2664.741391,10362.883188
1027.048436,-3753.867940,-2960.823768,11399.171507
1027.048755,-2911.162892,-3478.967927,11547.212695
1027.049074,-1915.238745,-3108.864956,11325.150913
1027.049392,-766.095498,-1998.556043,10584.944971
1027.049711,0.000000,-444.123565,8808.450710
1027.050030,1302.362347,1184.329507,7624.121203
1027.050349,1838.629195,1924.535449,5699.585753
1027.050668,2298.286494,1702.473667,4737.318029
1027.050987,1762.019645,592.164754,5255.462188
1027.051305,1302.362347,-1036.288319,6883.915261
1027.051624,689.485948,-2072.576638,7994.224174
1027.051943,-383.047749,-2738.761985,8586.388927
1027.052262,-995.924147,-2738.761985,9696.697840
1027.052581,-383.047749,-1554.432478,9844.739029
1027.052900,-383.047749,-222.061783,9326.594869
1027.053219,459.657299,1480.411884,8142.265362
1027.053537,1072.533697,1480.411884,7846.182985
1027.053856,1225.752797,2146.597232,7105.977043
1027.054175,1455.581446,1924.535449,6291.750507
1027.054494,766.095498,1554.432478,5329.482782
1027.054813,383.047749,296.082377,5699.585753
1027.055132,0.000000,-444.123565,5403.503377
1027.055450,-1225.752797,-1702.473667,6439.791695
1027.055769,-1762.019645,-2294.638420,8512.368333
1027.056088,-2911.162892,-2812.782580,9918.759623
1027.056407,-3753.867940,-2368.659014,10807.006753
1027.056726,-3753.867940,-1924.535449,11103.089130
1027.057045,-4060.306139,-962.267725,10732.986159
1027.057363,-4290.134789,-666.185348,10510.924376
1027.057682,-4366.744339,-888.247130,9992.780217
1027.058001,-3677.258390,-1110.308913,9474.636058
1027.058320,-3830.477490,-1184.329507,8956.491898
1027.058639,-3294.210641,-1258.350101,8956.491898
1027.058958,-3064.381992,-2368.659014,9030.512492
1027.059276,-3140.991542,-2738.761985,8882.471304
1027.059595,-1991.848295,-3256.906145,9918.759623
1027.059914,-2145.067394,-2590.720797,10362.883188
1027.060233,-1762.019645,-2220.617826,10288.862594
1027.060552,-1991.848295,-1480.411884,9992.780217
1027.060871,-2528.115143,-1184.329507,10807.006753
1027.061189,-2757.943793,-1850.514855,10362.883188
1027.061508,-3217.601092,-1998.556043,9844.739029
1027.061827,-4366.744339,-3108.864956,10140.821405
1027.062146,-4136.915689,-3849.070898,11103.089130
1027.062465,-4136.915689,-5181.441594,12435.459826
1027.062784,-3524.039291,-5995.668130,14063.912898
1027.063102,-2451.505594,-5255.462188,13693.809927
1027.063421,-1149.143247,-3997.112087,12879.583391
1027.063740,612.876398,-2516.700203,11991.336260
1027.064059,1762.019645,-1332.370696,10214.842000
1027.064378,2911.162892,222.061783,7846.182985
1027.064697,3677.258390,1628.453072,5551.544565
1027.065015,3294.210641,-0.000000,5625.565159
1027.065334,3140.991542,-1702.473667,6883.915261
1027.065653,2068.457845,-2590.720797,8290.306550
1027.065972,1838.629195,-3552.988522,9326.594869
1027.066291,842.705048,-3997.112087,10732.986159
1027.066610,229.828649,-3849.070898,11843.295072
1027.066928,-766.095498,-3034.844362,11917.315666
1027.067247,153.219100,-666.185348,11251.130318
1027.067566,153.219100,296.082377,9918.759623
1027.067885,995.924147,1036.288319,8808.450710
1027.068204,1685.410096,1406.391290,8364.327145
1027.068523,2374.896044,1480.411884,6809.894666
1027.068842,2145.067394,1184.329507,6513.812290
1027.069160,2374.896044,740.205942,6735.874072
1027.069479,2451.505594,888.247130,6809.894666
1027.069798,2911.162892,2220.617826,5921.647536
1027.070117,2757.943793,2664.741391,5477.523971
1027.070436,1991.848295,2516.700203,5921.647536
1027.070755,1608.800546,1702.473667,7105.977043
1027.071073,1378.971896,1480.411884,7105.977043
1027.071392,383.047749,1110.308913,7328.038826
1027.071711,-689.485948,1184.329507,7846.182985
1027.072030,-1762.019645,592.164754,8660.409521
1027.072349,-2451.505594,370.102971,8512.368333
1027.072668,-2911.162892,444.123565,8512.368333
1027.072986,-3677.258390,814.226536,8660.409521
1027.073305,-2757.943793,1184.329507,9474.636058
1027.073624,-2528.115143,1184.329507,10510.924376
1027.073943,-2145.067394,1110.308913,10584.944971
1027.074262,-1685.410096,592.164754,10584.944971
1027.074581,-612.876398,1332.370696,10140.821405
1027.074899,-689.485948,1628.453072,9474.636058
1027.075218,0.000000,2072.576638,8364.327145
1027.075537,0.000000,1702.473667,7624.121203
1027.075856,153.219100,370.102971,8142.265362
1027.076175,-153.219100,-444.123565,9548.656652
1027.076493,0.000000,-1480.411884,10510.924376
1027.076812,-229.828649,-1702.473667,11029.068536
1027.077131,-536.266849,-2368.659014,11769.274478
1027.077449,-689.485948,-2590.720797,12805.562797
1027.077768,-689.485948,-2442.679609,12213.398043
1027.078087,-536.266849,-1850.514855,11251.130318
1027.078406,-459.657299,-1554.432478,10732.986159
1027.078724,-229.828649,-1850.514855,11177.109724
1027.079043,0.000000,-1850.514855,11695.253884
1027.079362,383.047749,-1628.453072,11621.233289
1027.079680,919.314598,-814.226536,10955.047942
1027.079999,1455.581446,-370.102971,11251.130318
1027.080318,1838.629195,962.267725,11399.171507
1027.080637,2604.724693,1998.556043,10288.862594
1027.080955,2681.334243,1850.514855,9178.553681
1027.081274,2604.724693,1110.308913,9622.677246
1027.081593,2987.772442,444.123565,9622.677246
1027.081912,3370.820191,296.082377,8142.265362
1027.082230,2451.505594,370.102971,7624.121203
1027.082549,2298.286494,-0.000000,7550.100608
1027.082868,1991.848295,-0.000000,7402.059420
1027.083186,1455.581446,518.144159,6883.915261
1027.083505,153.219100,296.082377,7105.977043
1027.083824,153.219100,370.102971,7846.182985
1027.084143,-306.438199,592.164754,9104.533087
1027.084461,-306.438199,518.144159,9770.718434
1027.084780,-306.438199,1110.308913,9918.759623
1027.085099,-612.876398,740.205942,10140.821405
1027.085418,-383.047749,666.185348,9696.697840
1027.085736,-153.219100,1702.473667,9400.615463
1027.086055,229.828649,2368.659014,7328.038826
1027.086374,919.314598,2664.741391,6513.812290
1027.086692,766.095498,1554.432478,6587.832884
1027.087011,1455.581446,1332.370696,7772.162391
1027.087330,1072.533697,1554.432478,7105.977043
1027.087649,919.314598,1184.329507,7179.997637
1027.087967,536.266849,-74.020594,7698.141797
1027.088286,0.000000,-222.061783,7994.224174
1027.088605,-842.705048,-518.144159,8290.306550
1027.088923,-1532.190996,-1110.308913,8142.265362
1027.089242,-1608.800546,-1998.556043,9030.512492
1027.089561,-1302.362347,-2516.700203,10066.800811
1027.089880,-1378.971896,-2886.803174,10881.027347
1027.090198,-1762.019645,-2664.741391,11177.109724
1027.090517,-995.924147,-1776.494261,11177.109724
1027.090836,0.000000,-296.082377,10955.047942
1027.091155,536.266849,1184.329507,10140.821405
1027.091473,1378.971896,1702.473667,9104.533087
1027.091792,2068.457845,1258.350101,8660.409521
1027.092111,2604.724693,370.102971,9030.512492
1027.092429,3294.210641,-296.082377,9178.553681
1027.092748,2681.334243,-148.041188,9252.574275
1027.093067,2451.505594,-1036.288319,8808.450710
1027.093386,2068.457845,-1850.514855,9474.636058
1027.093704,1378.971896,-1332.370696,9770.718434
1027.094023,612.876398,-888.247130,9548.656652
1027.094342,0.000000,-296.082377,9104.533087
1027.094661,-229.828649,-888.247130,9622.677246
1027.094979,-919.314598,-1480.411884,11177.109724
1027.095298,-689.485948,-962.267725,11843.295072
1027.095617,-919.314598,-1110.308913,10955.047942
1027.095935,-306.438199,-740.205942,10955.047942
1027.096254,0.000000,-0.000000,10732.986159
1027.096573,306.438199,1406.391290,9474.636058
1027.096892,766.095498,2590.720797,8660.409521
1027.097210,1685.410096,2664.741391,7994.224174
1027.097529,1685.410096,2294.638420,8290.306550
1027.097848,1991.848295,2812.782580,8512.368333
1027.098166,1608.800546,2886.803174,7698.141797
1027.098485,919.314598,2146.597232,8142.265362
1027.098804,153.219100,1480.411884,8956.491898
1027.099123,-306.438199,1332.370696,9178.553681
1027.099441,-1532.190996,1628.453072,8290.306550
1027.099760,-1608.800546,1110.308913,8290.306550
1027.100079,-2298.286494,148.041188,9178.553681
1027.100398,-1532.190996,222.061783,10658.965565
1027.100716,-1455.581446,1036.288319,9770.718434
1027.101035,-919.314598,1184.329507,9622.677246
1027.101354,-306.438199,1258.350101,9474.636058
1027.101672,0.000000,3034.844362,9030.512492
1027.101991,1225.752797,4071.132681,7476.080014
1027.102310,1685.410096,4145.153275,6883.915261
1027.102629,2834.553343,3256.906145,7624.121203
1027.102947,2604.724693,2516.700203,7994.224174
1027.103266,3294.210641,2960.823768,8438.347739
1027.103585,3447.429741,2442.679609,8586.388927
1027.103904,3140.991542,2146.597232,8660.409521
1027.104222,2911.162892,1998.556043,9030.512492
1027.104541,2298.286494,1702.473667,9696.697840
1027.104860,1072.533697,2146.597232,9400.615463
1027.105178,995.924147,1776.494261,9474.636058
1027.105497,842.705048,592.164754,10584.944971
1027.105816,153.219100,-222.061783,11769.274478
1027.106135,-229.828649,-296.082377,11177.109724
1027.106453,76.609550,-0.000000,11029.068536
1027.106772,76.609550,-296.082377,10510.924376
1027.107091,536.266849,740.205942,10066.800811
1027.107409,459.657299,1776.494261,8956.491898
1027.107728,1302.362347,1628.453072,8734.430116
1027.108047,1532.190996,814.226536,8956.491898
1027.108366,1838.629195,222.061783,10066.800811
1027.108684,1455.581446,444.123565,10214.842000
1027.109003,919.314598,296.082377,9474.636058
1027.109322,612.876398,-296.082377,9844.739029
1027.109641,0.000000,-370.102971,10214.842000
1027.109959,-1149.143247,-370.102971,10510.924376
1027.110278,-1838.629195,-74.020594,9474.636058
1027.110597,-1532.190996,-666.185348,10288.862594
1027.110915,-1608.800546,-1406.391290,11177.109724
1027.111234,-1915.238745,-1332.370696,11917.315666
1027.111553,-2221.676944,-1036.288319,11251.130318
1027.111872,-1532.190996,-888.247130,10881.027347
1027.112190,-766.095498,-444.123565,10658.965565
1027.112509,-306.438199,1110.308913,9474.636058
1027.112828,306.438199,1924.535449,7920.203579
1027.113146,1072.533697,1554.432478,7105.977043
1027.113465,1991.848295,740.205942,7698.141797
1027.113784,2604.724693,-0.000000,7994.224174
1027.114103,2528.115143,-0.000000,7402.059420
1027.114421,2145.067394,-148.041188,6809.894666
1027.114740,2068.457845,-666.185348,8142.265362
1027.115059,2145.067394,-1184.329507,8364.327145
1027.115378,1225.752797,222.061783,7846.182985
1027.115696,1149.143247,740.205942,7698.141797
1027.116015,919.314598,-0.000000,8956.491898
1027.116334,1149.143247,-0.000000,9696.697840
1027.116652,995.924147,-0.000000,9992.780217
1027.116971,1072.533697,-0.000000,9474.636058
1027.117290,1455.581446,-0.000000,9326.594869
1027.117609,2221.676944,814.226536,8956.491898
1027.117927,2834.553343,2220.617826,7846.182985
1027.118246,3064.381992,2664.741391,6735.874072
1027.118565,3524.039291,2516.700203,6143.709319
1027.118884,3907.087040,1998.556043,7031.956449
1027.119202,3983.696590,1628.453072,7476.080014
1027.119521,3370.820191,2220.617826,6365.771101
1027.119840,2298.286494,1480.411884,6661.853478
1027.120158,1608.800546,814.226536,7105.977043
1027.120477,536.266849,740.205942,7994.224174
1027.120796,-766.095498,740.205942,7846.182985
1027.121115,-1838.629195,814.226536,8216.285956
1027.121433,-2298.286494,-148.041188,9992.780217
1027.121752,-2145.067394,370.102971,11103.089130
1027.122071,-2068.457845,592.164754,11177.109724
1027.122389,-2374.896044,814.226536,11547.212695
1027.122708,-1915.238745,1924.535449,11547.212695
1027.123027,-766.095498,3108.864956,10955.047942
1027.123346,-612.876398,3627.009116,9770.718434
1027.123664,153.219100,3627.009116,9326.594869
1027.123983,842.705048,2960.823768,9326.594869
1027.124302,1072.533697,2368.659014,9474.636058
1027.124621,1532.190996,2294.638420,9030.512492
1027.124939,1532.190996,2146.597232,8734.430116
1027.125258,1072.533697,1406.391290,8808.450710
1027.125577,919.314598,296.082377,9252.574275
1027.125895,0.000000,296.082377,9844.739029
1027.126214,-1149.143247,-74.020594,9696.697840
1027.126533,-1302.362347,-962.267725,10066.800811
1027.126852,-1532.190996,-2072.576638,11769.274478
1027.127170,-1685.410096,-1998.556043,13175.665768
1027.127489,-2068.457845,-1480.411884,12361.439231
1027.127808,-1302.362347,-962.267725,12287.418637
1027.128127,-306.438199,-296.082377,12435.459826
1027.128445,0.000000,1332.370696,11621.233289
1027.128764,919.314598,2220.617826,10584.944971
1027.129083,1762.019645,2368.659014,9696.697840
1027.129401,3140.991542,1702.473667,9474.636058
1027.129720,3447.429741,1184.329507,9844.739029
1027.130039,3524.039291,888.247130,9696.697840
1027.130358,2987.772442,1184.329507,8808.450710
1027.130676,2987.772442,370.102971,9030.512492
1027.130995,1838.629195,-0.000000,9030.512492
1027.131314,1149.143247,-74.020594,8586.388927
1027.131632,76.609550,-518.144159,7550.100608
1027.131951,-153.219100,-888.247130,8512.368333
1027.132270,-229.828649,-1924.535449,9770.718434
1027.132589,-1072.533697,-1702.473667,9992.780217
1027.132907,-1302.362347,-1036.288319,9696.697840
1027.133226,-919.314598,-592.164754,9326.594869
1027.133545,-229.828649,370.102971,9252.574275
1027.133864,0.000000,1776.494261,8216.285956
1027.134182,0.000000,2516.700203,6883.915261
1027.134501,459.657299,1924.535449,7179.997637
1027.134820,842.705048,1628.453072,7772.162391
1027.135138,995.924147,1480.411884,7994.224174
1027.135457,1072.533697,888.247130,7476.080014
1027.135776,766.095498,888.247130,7550.100608
1027.136095,536.266849,-0.000000,8068.244768
1027.136413,0.000000,370.102971,8290.306550
1027.136732,-612.876398,962.267725,7402.059420
1027.137051,-1149.143247,444.123565,7105.977043
1027.137370,-1225.752797,-740.205942,8734.430116
1027.137688,-1302.362347,-2072.576638,9548.656652
1027.138007,-1685.410096,-1998.556043,9622.677246
1027.138326,-1838.629195,-2072.576638,9326.594869
1027.138644,-766.095498,-1850.514855,9252.574275
1027.138963,-306.438199,-1184.329507,9030.512492
1027.139282,459.657299,148.041188,8142.265362
1027.139601,1072.533697,1332.370696,7105.977043
1027.139919,1915.238745,962.267725,7105.977043
1027.140238,2757.943793,296.082377,8068.244768
1027.140557,2834.553343,148.041188,8808.450710
1027.140875,2757.943793,-222.061783,8660.409521
1027.141194,2221.676944,-296.082377,9252.574275
1027.141513,2145.067394,-666.185348,10214.842000
1027.141832,1532.190996,-740.205942,10658.965565
1027.142150,995.924147,-148.041188,10066.800811
1027.142469,689.485948,-74.020594,9992.780217
1027.142788,612.876398,-518.144159,10807.006753
1027.143107,842.705048,-740.205942,11695.253884
1027.143425,612.876398,-444.123565,11399.171507
1027.143744,612.876398,-1036.288319,10955.047942
1027.144063,383.047749,-814.226536,10658.965565
1027.144381,919.314598,222.061783,10807.006753
1027.144700,842.705048,1406.391290,9104.533087
1027.145019,919.314598,1702.473667,7920.203579
1027.145338,1685.410096,888.247130,8660.409521
1027.145656,1838.629195,370.102971,8586.388927
1027.145975,1455.581446,962.267725,8882.471304
1027.146294,1532.190996,814.226536,9474.636058
1027.146612,76.609550,1110.308913,8586.388927
1027.146931,0.000000,518.144159,9918.759623
1027.147250,-995.924147,1184.329507,9770.718434
1027.147569,-1685.410096,1850.514855,9474.636058
1027.147887,-1685.410096,-0.000000,10140.821405
1027.148206,-2451.505594,-222.061783,11029.068536
1027.148525,-1991.848295,-296.082377,13249.686362
1027.148844,-2298.286494,888.247130,11029.068536
1027.149162,-1685.410096,1036.288319,10214.842000
1027.149481,-995.924147,814.226536,11473.192101
1027.149800,-383.047749,2590.720797,9770.718434
1027.150118,-306.438199,3108.864956,6809.894666
1027.150437,766.095498,1480.411884,8438.347739
1027.150756,612.876398,666.185348,9104.533087
1027.151075,1378.971896,-0.000000,7772.162391
1027.151393,766.095498,-296.082377,7846.182985
1027.151712,229.828649,-888.247130,9474.636058
1027.152031,766.095498,-888.247130,8734.430116
1027.152350,0.000000,-592.164754,7920.203579
1027.152668,-1149.143247,-814.226536,9030.512492
1027.152987,-919.314598,-296.082377,8956.491898
1027.153306,-842.705048,-1110.308913,8882.471304
1027.153624,-612.876398,-1406.391290,10732.986159
1027.153943,-306.438199,-666.185348,10881.027347
1027.154262,-842.705048,-370.102971,9622.677246
1027.154581,0.000000,-1036.288319,10584.944971
1027.154899,1072.533697,-148.041188,10807.006753
1027.155218,1225.752797,740.205942,9770.718434
1027.155537,1149.143247,666.185348,8364.327145
1027.155855,2374.896044,-74.020594,9400.615463
1027.156174,2681.334243,-592.164754,8660.409521
1027.156493,2604.724693,-296.082377,8142.265362
1027.156812,2681.334243,-962.267725,8290.306550
1027.157130,2451.505594,-1184.329507,7698.141797
1027.157449,1685.410096,-1776.494261,6809.894666
1027.157768,1225.752797,-2294.638420,7920.203579
1027.158087,153.219100,-2072.576638,7772.162391
1027.158405,76.609550,-2516.700203,7476.080014
1027.158724,-1378.971896,-2960.823768,7994.224174
1027.159043,-919.314598,-3108.864956,10881.027347
1027.159361,-1608.800546,-2368.659014,10214.842000
1027.159680,-1532.190996,-888.247130,9918.759623
1027.159999,-995.924147,-666.185348,9992.780217
1027.160318,-689.485948,1406.391290,9992.780217
1027.160636,0.000000,2220.617826,8734.430116
1027.160955,76.609550,2664.741391,7846.182985
1027.161274,1378.971896,1406.391290,9474.636058
1027.161593,1378.971896,1480.411884,8364.327145
1027.161911,1455.581446,2146.597232,8660.409521
1027.162230,1532.190996,2220.617826,7105.977043
1027.162549,1455.581446,2294.638420,7698.141797
1027.162867,536.266849,592.164754,8216.285956
1027.163186,76.609550,148.041188,7105.977043
1027.163505,-1378.971896,1036.288319,6661.853478
1027.163824,-842.705048,296.082377,7550.100608
1027.164142,-1378.971896,-740.205942,8808.450710
1027.164461,-2528.115143,-1702.473667,9770.718434
1027.164780,-2451.505594,-1628.453072,10881.027347
1027.165098,-2604.724693,-740.205942,10288.862594
1027.165417,-1608.800546,222.061783,11103.089130
1027.165736,-689.485948,1702.473667,10881.027347
1027.166055,0.000000,3182.885551,9474.636058
1027.166373,842.705048,2442.679609,9918.759623
1027.166692,1991.848295,1998.556043,9770.718434
1027.167011,3370.820191,2220.617826,9622.677246
1027.167330,3370.820191,2072.576638,9622.677246
1027.167648,2757.943793,1258.350101,9548.656652
1027.167967,3294.210641,592.164754,10140.821405
1027.168286,2604.724693,296.082377,9474.636058
1027.168604,1685.410096,-0.000000,9696.697840
1027.168923,1149.143247,-370.102971,10214.842000
1027.169242,0.000000,-370.102971,10066.800811
1027.169561,612.876398,-1480.411884,10658.965565
1027.169879,-383.047749,-1480.411884,11251.130318
1027.170198,-689.485948,-1998.556043,11769.274478
1027.170517,-919.314598,-1628.453072,11399.171507
1027.170835,0.000000,-1702.473667,11251.130318
1027.171154,919.314598,-1406.391290,11251.130318
1027.171473,1302.362347,666.185348,9844.739029
1027.171792,2298.286494,2368.659014,8216.285956
1027.172110,2757.943793,2590.720797,7328.038826
1027.172429,3600.648841,1036.288319,8882.471304
1027.172748,3064.381992,1258.350101,9326.594869
1027.173067,2221.676944,1998.556043,8734.430116
1027.173385,1225.752797,1776.494261,7920.203579
1027.173704,842.705048,888.247130,9770.718434
1027.174023,0.000000,1258.350101,9030.512492
1027.174341,-1225.752797,370.102971,8512.368333
1027.174660,-2451.505594,-1258.350101,9548.656652
1027.174979,-2911.162892,-2442.679609,11251.130318
1027.175298,-2221.676944,-2738.761985,11547.212695
1027.175617,-2374.896044,-1480.411884,10214.842000
1027.175936,-2374.896044,-740.205942,9622.677246
1027.176255,-1762.019645,-0.000000,9696.697840
1027.176574,-1072.533697,518.144159,8364.327145
1027.176893,0.000000,1554.432478,6513.812290
1027.177212,536.266849,1776.494261,5625.565159
1027.177531,766.095498,814.226536,6439.791695
1027.177850,1302.362347,444.123565,6957.935855
1027.178169,1378.971896,296.082377,7624.121203
1027.178488,1302.362347,666.185348,6957.935855
1027.178807,1302.362347,-444.123565,7846.182985
1027.179126,919.314598,-444.123565,8734.430116
1027.179445,0.000000,-74.020594,8660.409521
1027.179764,-383.047749,-222.061783,8808.450710
1027.180083,-306.438199,-814.226536,9918.759623
1027.180402,-536.266849,-1258.350101,11399.171507
1027.180721,-1225.752797,-1036.288319,10955.047942
1027.181040,-995.924147,-592.164754,10732.986159
1027.181359,0.000000,-444.123565,9918.759623
1027.181678,842.705048,666.185348,9474.636058
1027.181997,1378.971896,1110.308913,8290.306550
1027.182316,2374.896044,1036.288319,7920.203579
1027.182635,3140.991542,-148.041188,7105.977043
1027.182954,3217.601092,-74.020594,8068.244768
1027.183273,4290.134789,666.185348,7624.121203
1027.183592,3600.648841,1332.370696,6587.832884
1027.183911,3294.210641,370.102971,7179.997637
1027.184230,2068.457845,222.061783,8512.368333
1027.184549,1072.533697,370.102971,9104.533087
1027.184868,0.000000,888.247130,8586.388927
1027.185187,0.000000,370.102971,9918.759623
1027.185506,-383.047749,-370.102971,11103.089130
1027.185825,-766.095498,-592.164754,11843.295072
1027.186144,-842.705048,296.082377,12213.398043
1027.186463,-766.095498,814.226536,11695.253884
1027.186782,-306.438199,1702.473667,10658.965565
1027.187101,229.828649,2590.720797,10066.800811
1027.187420,76.609550,3330.926739,9252.574275
1027.187739,612.876398,3701.029710,7476.080014
1027.188058,1455.581446,2960.823768,7846.182985
1027.188377,1149.143247,2294.638420,8364.327145
1027.188696,842.705048,1406.391290,8956.491898
1027.189015,383.047749,740.205942,9178.553681
1027.189334,-306.438199,814.226536,9548.656652
1027.189653,-229.828649,518.144159,9474.636058
1027.189972,-919.314598,1110.308913,9252.574275
1027.190291,-1225.752797,1258.350101,8956.491898
1027.190610,-995.924147,444.123565,9844.739029
1027.190929,-766.095498,-0.000000,10881.027347
1027.191248,-612.876398,-0.000000,11843.295072
1027.191567,-383.047749,444.123565,11251.130318
1027.191885,-153.219100,814.226536,10955.047942
1027.192204,612.876398,1332.370696,11251.130318
1027.192523,1455.581446,2368.659014,10510.924376
1027.192842,1838.629195,2664.741391,9400.615463
1027.193161,2987.772442,2886.803174,9030.512492
1027.193480,3524.039291,1998.556043,9178.553681
1027.193799,3217.601092,1554.432478,9696.697840
1027.194118,2911.162892,1110.308913,9474.636058
1027.194437,2604.724693,592.164754,8808.450710
1027.194756,2604.724693,-666.185348,8882.471304
1027.195075,1608.800546,-888.247130,9400.615463
1027.195394,689.485948,-444.123565,8956.491898
1027.195713,-153.219100,-518.144159,8586.388927
1027.196032,0.000000,-1258.350101,9252.574275
1027.196351,76.609550,-1850.514855,10510.924376
1027.196670,-383.047749,-1332.370696,10807.006753
1027.196989,-383.047749,-666.185348,10140.821405
1027.197308,306.438199,-296.082377,9696.697840
1027.197627,612.876398,444.123565,9548.656652
1027.197946,1225.752797,1406.391290,9030.512492
1027.198265,1149.143247,1776.494261,8216.285956
1027.198584,1762.019645,1850.514855,7698.141797
1027.198903,2221.676944,962.267725,8438.347739
1027.199222,2374.896044,1184.329507,8438.347739
1027.199541,2298.286494,1480.411884,8068.244768
1027.199860,1685.410096,592.164754,7624.121203
1027.200179,995.924147,-0.000000,8142.265362
1027.200498,229.828649,-296.082377,8068.244768
1027.200817,-612.876398,-74.020594,7476.080014
1027.201136,-1072.533697,-444.123565,7698.141797
1027.201455,-919.314598,-1258.350101,8216.285956
1027.201774,-1225.752797,-1702.473667,9400.615463
1027.202093,-1532.190996,-1406.391290,9474.636058
1027.202412,-459.657299,-962.267725,9178.553681
1027.202731,-689.485948,-0.000000,9104.533087
1027.203050,0.000000,1184.329507,8438.347739
1027.203369,383.047749,2220.617826,7772.162391
1027.203688,842.705048,2442.679609,7254.018232
1027.204007,1608.800546,1924.535449,7328.038826
1027.204326,2374.896044,1036.288319,8438.347739
1027.204645,2757.943793,1332.370696,8882.471304
1027.204964,2374.896044,1258.350101,9030.512492
1027.205283,1915.238745,814.226536,8808.450710
1027.205602,1685.410096,1110.308913,9178.553681
1027.205921,1302.362347,1332.370696,8956.491898
1027.206240,229.828649,1110.308913,8290.306550
1027.206559,-153.219100,888.247130,8438.347739
1027.206878,-612.876398,-74.020594,9548.656652
1027.207197,-536.266849,-592.164754,11177.109724
1027.207516,-919.314598,-666.185348,10955.047942
1027.207835,-995.924147,-666.185348,10658.965565
1027.208154,-536.266849,-222.061783,10436.903782
1027.208473,-153.219100,814.226536,10732.986159
1027.208792,229.828649,2220.617826,9178.553681
1027.209111,766.095498,2738.761985,8438.347739
1027.209430,1149.143247,2368.659014,8438.347739
1027.209749,1149.143247,1554.432478,9696.697840
1027.210068,1685.410096,1628.453072,9918.759623
1027.210386,1532.190996,1702.473667,9548.656652
1027.210705,1149.143247,1036.288319,9992.780217
1027.211024,689.485948,962.267725,10955.047942
1027.211343,-229.828649,1406.391290,10510.924376
1027.211662,306.438199,1480.411884,9992.780217
1027.211981,536.266849,1036.288319,10807.006753
1027.212300,536.266849,666.185348,11103.089130
1027.212619,229.828649,740.205942,11103.089130
1027.212938,766.095498,1184.329507,10362.883188
1027.213257,689.485948,1184.329507,9696.697840
1027.213576,612.876398,888.247130,10066.800811
1027.213895,612.876398,1776.494261,9548.656652
1027.214214,229.828649,1998.556043,8438.347739
1027.214533,842.705048,1554.432478,7994.224174
1027.214852,153.219100,888.247130,9252.574275
1027.215171,919.314598,888.247130,9474.636058
1027.215490,153.219100,1110.308913,9326.594869
1027.215809,-459.657299,666.185348,8956.491898
1027.216128,-383.047749,-0.000000,9326.594869
1027.216447,-995.924147,296.082377,9252.574275
1027.216766,-842.705048,-0.000000,9696.697840
1027.217085,-1608.800546,-0.000000,9474.636058
1027.217404,-1149.143247,-0.000000,9992.780217
1027.217723,-919.314598,-296.082377,10510.924376
1027.218042,-842.705048,592.164754,10436.903782
1027.218361,-689.485948,222.061783,10288.862594
1027.218680,0.000000,518.144159,9548.656652
1027.218999,536.266849,-74.020594,9178.553681
1027.219318,1225.752797,-0.000000,8882.471304
1027.219637,842.705048,370.102971,7994.224174
1027.219956,1378.971896,222.061783,7476.080014
1027.220275,2298.286494,-1110.308913,7624.121203
1027.220594,1225.752797,-1258.350101,8068.244768
1027.220913,1915.238745,-1110.308913,8290.306550
1027.221232,1302.362347,-1036.288319,7772.162391
1027.221551,1762.019645,-444.123565,7994.224174
1027.221870,1685.410096,-1036.288319,8438.347739
1027.222189,766.095498,-222.061783,8512.368333
1027.222508,689.485948,-888.247130,8216.285956
1027.222827,612.876398,-1258.350101,8808.450710
1027.223146,459.657299,-1480.411884,9770.718434
1027.223465,612.876398,-962.267725,9844.739029
1027.223784,919.314598,-222.061783,9474.636058
1027.224103,1685.410096,444.123565,8882.471304
1027.224422,1685.410096,1110.308913,8734.430116
1027.224741,1685.410096,1628.453072,8586.388927
1027.225060,2374.896044,1332.370696,7550.100608
1027.225379,1608.800546,962.267725,7105.977043
1027.225698,2068.457845,148.041188,8734.430116
1027.226017,1608.800546,-222.061783,9252.574275
1027.226336,1072.533697,-370.102971,8512.368333
1027.226655,229.828649,-592.164754,8290.306550
1027.226974,153.219100,-518.144159,8586.388927
1027.227293,-766.095498,-370.102971,8512.368333
1027.227612,-1378.971896,-0.000000,7920.203579
1027.227931,-1378.971896,-888.247130,8216.285956
1027.228250,-1915.238745,-1110.308913,10066.800811
1027.228568,-1762.019645,-1406.391290,11029.068536
1027.228887,-1762.019645,-370.102971,10881.027347
1027.229206,-1302.362347,-0.000000,10732.986159
1027.229525,-919.314598,814.226536,10955.047942
1027.229844,-536.266849,1332.370696,10362.883188
1027.230163,76.609550,2220.617826,9474.636058
1027.230482,689.485948,2442.679609,8512.368333
1027.230801,1608.800546,1776.494261,8364.327145
1027.231120,1685.410096,1332.370696,9474.636058
1027.231439,1532.190996,962.267725,9474.636058
1027.231758,1149.143247,1332.370696,9326.594869
1027.232077,1072.533697,370.102971,9548.656652
1027.232396,459.657299,370.102971,9474.636058
1027.232715,0.000000,740.205942,9770.718434
1027.233034,-689.485948,740.205942,9400.615463
1027.233353,-995.924147,-0.000000,9548.656652
1027.233672,-306.438199,-518.144159,10436.903782
1027.233991,-766.095498,-370.102971,10955.047942
1027.234310,-919.314598,-148.041188,10510.924376
1027.234629,-459.657299,-0.000000,10732.986159
1027.234948,-76.609550,592.164754,10732.986159
1027.235267,306.438199,1332.370696,10584.944971
1027.235586,459.657299,2368.659014,9326.594869
1027.235905,1378.971896,2516.700203,8660.409521
1027.236224,2145.067394,1924.535449,9178.553681
1027.236543,2068.457845,1036.288319,9548.656652
1027.236862,1532.190996,666.185348,9548.656652
1027.237181,1302.362347,740.205942,9474.636058
1027.237500,536.266849,-222.061783,9696.697840
1027.237819,153.219100,-222.061783,10066.800811
1027.238138,-612.876398,-0.000000,9474.636058
1027.238457,-995.924147,296.082377,8734.430116
1027.238776,-995.924147,-666.185348,9474.636058
1027.239095,-995.924147,-1258.350101,10658.965565
1027.239414,-1302.362347,-1554.432478,10807.006753
1027.239733,-1302.362347,-1110.308913,9918.759623
1027.240052,-1378.971896,-1110.308913,9918.759623
1027.240371,-536.266849,-370.102971,9622.677246
1027.240690,0.000000,-0.000000,8808.450710
1027.241009,306.438199,518.144159,7624.121203
1027.241328,1302.362347,592.164754,7328.038826
1027.241647,1608.800546,222.061783,8142.265362
1027.241966,2298.286494,444.123565,8216.285956
1027.242285,2068.457845,962.267725,7550.100608
1027.242604,1532.190996,740.205942,7179.997637
1027.242923,1302.362347,370.102971,7698.141797
1027.243242,1149.143247,592.164754,7994.224174
1027.243561,536.266849,222.061783,7846.182985
1027.243880,-306.438199,-222.061783,7476.080014
1027.244199,-536.266849,-1406.391290,9030.512492
1027.244518,-459.657299,-1998.556043,10288.862594
1027.244837,-383.047749,-1480.411884,9844.739029
1027.245156,-689.485948,-1184.329507,9696.697840
1027.245475,0.000000,-740.205942,9474.636058
1027.245794,766.095498,-222.061783,9474.636058
1027.246113,1302.362347,370.102971,8660.409521
1027.246432,995.924147,666.185348,7624.121203
1027.246750,1378.971896,-0.000000,7698.141797
1027.247069,2068.457845,-222.061783,8142.265362
1027.247388,2221.676944,-296.082377,8290.306550
1027.247707,2068.457845,-74.020594,8290.306550
1027.248026,1915.238745,-370.102971,8142.265362
1027.248345,1685.410096,-296.082377,8512.368333
1027.248664,1302.362347,-222.061783,9104.533087
1027.248983,153.219100,-370.102971,8956.491898
1027.249302,-612.876398,-814.226536,9252.574275
1027.249621,-766.095498,-1776.494261,11325.150913
1027.249940,-1072.533697,-1554.432478,11843.295072
1027.250259,-1072.533697,-1110.308913,11843.295072
1027.250578,-766.095498,-370.102971,11695.253884
1027.250897,-229.828649,296.082377,11473.192101
1027.251216,383.047749,888.247130,10510.924376
1027.251535,842.705048,2146.597232,9178.553681
1027.251854,2221.676944,1850.514855,7920.203579
1027.252173,1838.629195,1998.556043,8290.306550
1027.252492,2298.286494,1184.329507,9030.512492
1027.252811,2068.457845,1036.288319,8438.347739
1027.253130,1838.629195,888.247130,8586.388927
1027.253449,1378.971896,888.247130,8512.368333
1027.253768,1225.752797,592.164754,9178.553681
1027.254087,459.657299,1258.350101,8586.388927
1027.254406,-612.876398,1628.453072,8216.285956
1027.254725,-842.705048,814.226536,8956.491898
1027.255044,-995.924147,-0.000000,10510.924376
1027.255363,-1225.752797,-148.041188,11473.192101
1027.255682,-1378.971896,222.061783,11473.192101
1027.256001,-842.705048,888.247130,11251.130318
1027.256320,-459.657299,1258.350101,10807.006753
1027.256639,153.219100,1850.514855,10584.944971
1027.256958,383.047749,2442.679609,9104.533087
1027.257277,766.095498,2738.761985,8142.265362
1027.257596,1685.410096,1924.535449,8512.368333
1027.257915,1915.238745,1332.370696,8512.368333
1027.258234,1838.629195,814.226536,8290.306550
1027.258553,1378.971896,-0.000000,8290.306550
1027.258872,1072.533697,-518.144159,9252.574275
1027.259191,842.705048,-740.205942,8808.450710
1027.259510,0.000000,-666.185348,8734.430116
1027.259829,-1302.362347,-592.164754,8438.347739
1027.260148,-919.314598,-1406.391290,9474.636058
1027.260467,-766.095498,-2146.597232,10214.842000
1027.260786,-612.876398,-1628.453072,11325.150913
1027.261105,-536.266849,-962.267725,10881.027347
1027.261424,-536.266849,-148.041188,9844.739029
1027.261743,383.047749,518.144159,10362.883188
1027.262062,995.924147,1406.391290,9918.759623
1027.262381,1378.971896,2072.576638,8512.368333
1027.262700,2068.457845,2072.576638,7624.121203
1027.263019,3217.601092,1184.329507,8882.471304
1027.263338,2987.772442,666.185348,9030.512492
1027.263657,2604.724693,592.164754,7994.224174
1027.263976,2298.286494,370.102971,7846.182985
1027.264295,1838.629195,-0.000000,8068.244768
1027.264614,1149.143247,-222.061783,8068.244768
1027.264932,383.047749,-370.102971,7698.141797
1027.265251,-766.095498,-296.082377,7476.080014
1027.265570,-995.924147,-1406.391290,9104.533087
1027.265889,-1072.533697,-1924.535449,10214.842000
1027.266208,-1378.971896,-1776.494261,10214.842000
1027.266527,-1532.190996,-1184.329507,9548.656652
1027.266846,-766.095498,-666.185348,9992.780217
1027.267165,-689.485948,518.144159,9474.636058
1027.267484,-153.219100,1850.514855,8882.471304
1027.267803,459.657299,2516.700203,7624.121203
1027.268122,1072.533697,2072.576638,7698.141797
1027.268441,1532.190996,1258.350101,8660.409521
1027.268760,1685.410096,1184.329507,8882.471304
1027.269079,1685.410096,1554.432478,8364.327145
1027.269398,995.924147,1110.308913,8438.347739
1027.269717,919.314598,444.123565,9326.594869
1027.270036,689.485948,370.102971,9030.512492
1027.270355,-229.828649,962.267725,8364.327145
1027.270674,-536.266849,-0.000000,9178.553681
1027.270993,-689.485948,-962.267725,9992.780217
1027.271312,-612.876398,-1332.370696,10807.006753
1027.271631,-1149.143247,-962.267725,9992.780217
1027.271950,-306.438199,-0.000000,9770.718434
1027.272269,-306.438199,-222.061783,10362.883188
1027.272588,459.657299,592.164754,10066.800811
1027.272907,612.876398,1554.432478,8660.409521
1027.273226,1378.971896,1998.556043,8586.388927
1027.273545,2068.457845,1776.494261,8660.409521
1027.273864,2681.334243,1332.370696,9326.594869
1027.274183,2528.115143,1480.411884,9400.615463
1027.274502,2834.553343,1702.473667,9104.533087
1027.274821,2604.724693,1258.350101,9474.636058
1027.275140,2451.505594,1036.288319,10066.800811
1027.275459,1532.190996,1110.308913,9918.759623
1027.275778,1072.533697,962.267725,9252.574275
1027.276097,612.876398,592.164754,9622.677246
1027.276416,766.095498,-74.020594,10658.965565
1027.276735,306.438199,-0.000000,11103.089130
1027.277054,383.047749,-148.041188,10510.924376
1027.277372,229.828649,740.205942,10140.821405
1027.277691,536.266849,518.144159,10066.800811
1027.278010,612.876398,962.267725,9474.636058
1027.278329,536.266849,1850.514855,8290.306550
1027.278648,766.095498,1702.473667,7994.224174
1027.278967,842.705048,1184.329507,8512.368333
1027.279286,1455.581446,444.123565,9696.697840
1027.279605,1149.143247,1036.288319,9178.553681
1027.279924,1302.362347,1110.308913,8734.430116
1027.280242,689.485948,888.247130,8734.430116
1027.280561,536.266849,962.267725,9030.512492
1027.280880,229.828649,1258.350101,8142.265362
1027.281199,76.609550,1110.308913,7476.080014
1027.281518,-536.266849,-518.144159,9030.512492
1027.281837,-689.485948,-1258.350101,10510.924376
1027.282156,-1225.752797,-1036.288319,10732.986159
1027.282475,-1455.581446,-0.000000,10066.800811
1027.282793,-842.705048,518.144159,9918.759623
1027.283112,-536.266849,1036.288319,9992.780217
1027.283431,-229.828649,1480.411884,9178.553681
1027.283750,229.828649,1776.494261,7920.203579
1027.284069,536.266849,1258.350101,7846.182985
1027.284388,919.314598,-148.041188,8364.327145
1027.284707,766.095498,-518.144159,9030.512492
1027.285026,689.485948,-148.041188,8586.388927
1027.285344,612.876398,-0.000000,7846.182985
1027.285663,536.266849,-148.041188,8364.327145
1027.285982,536.266849,148.041188,8956.491898
1027.286301,459.657299,148.041188,8142.265362
1027.286620,76.609550,148.041188,7994.224174
1027.286939,76.609550,-518.144159,9474.636058
1027.287258,383.047749,-814.226536,10584.944971
1027.287577,76.609550,-592.164754,9696.697840
1027.287896,1455.581446,-0.000000,9770.718434
1027.288214,919.314598,444.123565,9918.759623
1027.288533,1838.629195,1036.288319,9622.677246
1027.288852,1378.971896,1628.453072,9104.533087
1027.289171,1608.800546,2072.576638,8586.388927
1027.289490,2221.676944,1628.453072,8660.409521
1027.289809,2604.724693,666.185348,9104.533087
1027.290128,2451.505594,518.144159,9474.636058
1027.290447,2374.896044,962.267725,8660.409521
1027.290765,1608.800546,370.102971,8142.265362
1027.291084,1685.410096,-0.000000,8734.430116
1027.291403,1225.752797,-444.123565,9104.533087
1027.291722,0.000000,-0.000000,8216.285956
1027.292041,-306.438199,-518.144159,8438.347739
1027.292360,0.000000,-740.205942,9696.697840
1027.292679,-612.876398,-444.123565,10436.903782
1027.292998,-1072.533697,-0.000000,9844.739029
1027.293316,-842.705048,1036.288319,9992.780217
1027.293635,-612.876398,1406.391290,9992.780217
1027.293954,-229.828649,1998.556043,9622.677246
1027.294273,0.000000,2590.720797,9326.594869
1027.294592,0.000000,2368.659014,8512.368333
1027.294911,76.609550,2072.576638,8882.471304
1027.295230,689.485948,1850.514855,9326.594869
1027.295549,842.705048,1924.535449,9696.697840
1027.295867,689.485948,1998.556043,8586.388927
1027.296186,766.095498,1776.494261,8734.430116
1027.296505,153.219100,814.226536,9178.553681
1027.296824,-383.047749,518.144159,9030.512492
1027.297143,-1302.362347,518.144159,8290.306550
1027.297462,-1149.143247,296.082377,8882.471304
1027.297781,-995.924147,-1036.288319,10510.924376
1027.298100,-1072.533697,-740.205942,10955.047942
1027.298419,-1378.971896,-518.144159,10584.944971
1027.298737,-459.657299,148.041188,10140.821405
1027.299056,153.219100,814.226536,10510.924376
1027.299375,919.314598,1036.288319,10066.800811
1027.299694,1225.752797,1998.556043,9178.553681
1027.300013,1532.190996,1998.556043,8734.430116
1027.300332,2298.286494,1184.329507,9252.574275
1027.300651,3140.991542,1036.288319,9770.718434
1027.300970,2834.553343,518.144159,9770.718434
1027.301288,2528.115143,666.185348,9326.594869
1027.301607,2221.676944,222.061783,9252.574275
1027.301926,1991.848295,148.041188,9326.594869
1027.302245,919.314598,-148.041188,9178.553681
1027.302564,0.000000,-444.123565,8956.491898
1027.302883,-459.657299,-1702.473667,9844.739029
1027.303202,-306.438199,-2146.597232,10807.006753
1027.303521,-995.924147,-2516.700203,11399.171507
1027.303839,-842.705048,-1702.473667,10658.965565
1027.304158,-536.266849,-814.226536,10362.883188
1027.304477,76.609550,-0.000000,9696.697840
1027.304796,306.438199,666.185348,8808.450710
1027.305115,612.876398,1332.370696,7550.100608
1027.305434,1608.800546,1480.411884,7105.977043
1027.305753,1762.019645,1036.288319,7624.121203
1027.306072,1991.848295,814.226536,8216.285956
1027.306391,1685.410096,1110.308913,7920.203579
1027.306709,1378.971896,1332.370696,7550.100608
1027.307028,459.657299,444.123565,8290.306550
1027.307347,76.609550,962.267725,9326.594869
1027.307666,-842.705048,740.205942,8438.347739
1027.307985,-1608.800546,370.102971,8142.265362
1027.308304,-1532.190996,-296.082377,9326.594869
1027.308623,-1838.629195,-666.185348,10140.821405
1027.308942,-1685.410096,-814.226536,10066.800811
1027.309260,-1608.800546,-296.082377,9474.636058
1027.309579,-919.314598,148.041188,9474.636058
1027.309898,-229.828649,518.144159,9104.533087
1027.310217,76.609550,1258.350101,8216.285956
1027.310536,766.095498,1406.391290,6587.832884
1027.310855,919.314598,1184.329507,7476.080014
1027.311174,1685.410096,444.123565,7920.203579
1027.311493,1762.019645,370.102971,8364.327145
1027.311811,1225.752797,222.061783,8142.265362
1027.312130,1762.019645,518.144159,8290.306550
1027.312449,1149.143247,-444.123565,9474.636058
1027.312768,459.657299,-370.102971,9622.677246
1027.313087,0.000000,-74.020594,8956.491898
1027.313406,-536.266849,-962.267725,9474.636058
1027.313725,-612.876398,-1036.288319,11177.109724
1027.314044,153.219100,-740.205942,11103.089130
1027.314362,0.000000,-444.123565,10732.986159
1027.314681,306.438199,-222.061783,10881.027347
1027.315000,459.657299,370.102971,10732.986159
1027.315319,689.485948,592.164754,9622.677246
1027.315638,612.876398,814.226536,9030.512492
1027.315957,1072.533697,666.185348,8216.285956
1027.316276,1532.190996,-0.000000,8216.285956
1027.316595,2374.896044,-370.102971,9696.697840
1027.316914,1455.581446,-74.020594,9400.615463
1027.317232,766.095498,444.123565,8512.368333
1027.317551,459.657299,444.123565,8956.491898
1027.317870,459.657299,222.061783,9548.656652
1027.318189,-229.828649,592.164754,9104.533087
1027.318508,-842.705048,814.226536,8586.388927
1027.318827,-689.485948,296.082377,9770.718434
1027.319146,-153.219100,-0.000000,10732.986159
1027.319465,0.000000,518.144159,10881.027347
1027.319783,-306.438199,370.102971,10658.965565
1027.320102,-229.828649,888.247130,10436.903782
1027.320421,306.438199,1554.432478,9622.677246
1027.320740,229.828649,2368.659014,9104.533087
1027.321059,383.047749,3108.864956,8364.327145
1027.321378,306.438199,2220.617826,7920.203579
1027.321697,459.657299,1480.411884,8586.388927
1027.322016,383.047749,592.164754,9400.615463
1027.322334,229.828649,-0.000000,9400.615463
1027.322653,0.000000,-74.020594,9474.636058
1027.322972,0.000000,-666.185348,9622.677246
1027.323291,0.000000,-1184.329507,9770.718434
1027.323610,-919.314598,-740.205942,9178.553681
1027.323929,-1072.533697,-740.205942,8808.450710
1027.324248,-689.485948,-888.247130,9326.594869
1027.324567,0.000000,-666.185348,10214.842000
1027.324885,0.000000,-370.102971,10066.800811
1027.325204,536.266849,-74.020594,9770.718434
1027.325523,689.485948,592.164754,9474.636058
1027.325842,1378.971896,1258.350101,9326.594869
1027.326161,1608.800546,1332.370696,9178.553681
1027.326480,1608.800546,1776.494261,8290.306550
1027.326799,1762.019645,962.267725,8586.388927
1027.327118,2374.896044,-74.020594,8882.471304
1027.327437,2298.286494,296.082377,9178.553681
1027.327755,2528.115143,296.082377,9326.594869
1027.328074,1991.848295,518.144159,8660.409521
1027.328393,1685.410096,-296.082377,9030.512492
1027.328712,766.095498,-296.082377,9252.574275
1027.329031,459.657299,-0.000000,8586.388927
1027.329350,76.609550,-592.164754,7920.203579
1027.329669,76.609550,-1110.308913,9104.533087
1027.329988,153.219100,-1776.494261,10584.944971
1027.330306,153.219100,-1184.329507,10140.821405
1027.330625,153.219100,-518.144159,9400.615463
1027.330944,842.705048,148.041188,9400.615463
1027.331263,995.924147,1110.308913,9030.512492
1027.331582,842.705048,1702.473667,7772.162391
1027.331901,1302.362347,1554.432478,7624.121203
1027.332220,1455.581446,1036.288319,7994.224174
1027.332539,1302.362347,-74.020594,9104.533087
1027.332857,1685.410096,-74.020594,9400.615463
1027.333176,612.876398,-0.000000,9030.512492
1027.333495,229.828649,-0.000000,8956.491898
1027.333814,-383.047749,-0.000000,9178.553681
1027.334133,-995.924147,-518.144159,9326.594869
1027.334452,-1838.629195,-592.164754,8734.430116
1027.334771,-1608.800546,-962.267725,9104.533087
1027.335090,-1455.581446,-1628.453072,10214.842000
1027.335409,-1455.581446,-1702.473667,10732.986159
1027.335727,-919.314598,-1184.329507,10436.903782
1027.336046,-1455.581446,-592.164754,10288.862594
1027.336365,-689.485948,148.041188,9770.718434
1027.336684,0.000000,666.185348,9696.697840
1027.337003,153.219100,888.247130,9104.533087
1027.337322,459.657299,1184.329507,8290.306550
1027.337641,1072.533697,666.185348,8586.388927
1027.337960,1838.629195,74.020594,9474.636058
1027.338278,2068.457845,592.164754,9400.615463
1027.338597,2145.067394,888.247130,8142.265362
1027.338916,2298.286494,666.185348,8216.285956
1027.339235,1608.800546,-0.000000,8956.491898
1027.339554,1072.533697,222.061783,9030.512492
1027.339873,229.828649,444.123565,8586.388927
1027.340192,0.000000,148.041188,8956.491898
1027.340511,-306.438199,-222.061783,10732.986159
1027.340829,0.000000,-0.000000,11103.089130
1027.341148,-612.876398,222.061783,10214.842000
1027.341467,0.000000,962.267725,10362.883188
1027.341786,383.047749,740.205942,10288.862594
1027.342105,689.485948,1480.411884,9992.780217
1027.342424,689.485948,1406.391290,8808.450710
1027.342743,1072.533697,1554.432478,8142.265362
1027.343062,1685.410096,592.164754,9178.553681
1027.343380,1838.629195,592.164754,9474.636058
1027.343699,2221.676944,888.247130,8882.471304
1027.344018,2068.457845,1702.473667,8142.265362
1027.344337,1762.019645,1332.370696,8216.285956
1027.344656,1149.143247,1110.308913,8216.285956
1027.344975,153.219100,814.226536,8438.347739
1027.345294,-459.657299,666.185348,7920.203579
1027.345613,-306.438199,-0.000000,9326.594869
1027.345932,-842.705048,-1036.288319,10584.944971
1027.346250,-1378.971896,-814.226536,10955.047942
1027.346569,-1532.190996,-296.082377,10658.965565
1027.346888,-1455.581446,370.102971,10510.924376
1027.347207,-1072.533697,1110.308913,10288.862594
1027.347526,-612.876398,1628.453072,9252.574275
1027.347845,-229.828649,2146.597232,8734.430116
1027.348164,689.485948,1480.411884,8956.491898
1027.348483,1072.533697,962.267725,8808.450710
1027.348801,1455.581446,888.247130,9326.594869
1027.349120,1838.629195,370.102971,8808.450710
1027.349439,1532.190996,1184.329507,7846.182985
1027.349758,1532.190996,-74.020594,8142.265362
1027.350077,1225.752797,-148.041188,8364.327145
1027.350396,459.657299,592.164754,7994.224174
1027.350715,383.047749,296.082377,7772.162391
1027.351034,76.609550,-370.102971,9400.615463
1027.351352,306.438199,-1184.329507,10732.986159
1027.351671,-383.047749,-814.226536,11177.109724
1027.351990,-383.047749,-592.164754,10288.862594
1027.352309,0.000000,-296.082377,10732.986159
1027.352628,383.047749,666.185348,10658.965565
1027.352947,612.876398,814.226536,9178.553681
1027.353266,1072.533697,740.205942,8586.388927
1027.353585,1608.800546,222.061783,8956.491898
1027.353903,2757.943793,-592.164754,9326.594869
1027.354222,2451.505594,-148.041188,9030.512492
1027.354541,1838.629195,-148.041188,8660.409521
1027.354860,2221.676944,-296.082377,8290.306550
1027.355179,1149.143247,-148.041188,8734.430116
1027.355498,766.095498,-296.082377,9400.615463
1027.355817,306.438199,-148.041188,8512.368333
1027.356136,0.000000,-444.123565,8290.306550
1027.356455,0.000000,-1036.288319,10066.800811
1027.356773,153.219100,-962.267725,10510.924376
1027.357092,0.000000,-296.082377,10214.842000
1027.357411,153.219100,-0.000000,9474.636058
1027.357730,306.438199,740.205942,9622.677246
1027.358049,689.485948,1776.494261,9326.594869
1027.358368,689.485948,2812.782580,8290.306550
1027.358687,1532.190996,2442.679609,7476.080014
1027.359006,1532.190996,1924.535449,7994.224174
1027.359324,1532.190996,1480.411884,8808.450710
1027.359643,1378.971896,1184.329507,8438.347739
1027.359962,1072.533697,1258.350101,8438.347739
1027.360281,306.438199,962.267725,8586.388927
1027.360600,-306.438199,-0.000000,9030.512492
1027.360919,-919.314598,-74.020594,9326.594869
1027.361238,-1532.190996,-148.041188,8882.471304
1027.361557,-1455.581446,-222.061783,9326.594869
1027.361875,-766.095498,-592.164754,10362.883188
1027.362194,-689.485948,-518.144159,10881.027347
1027.362513,-153.219100,-0.000000,10066.800811
1027.362832,383.047749,444.123565,9696.697840
1027.363151,1149.143247,1110.308913,9400.615463
1027.363470,1225.752797,1554.432478,8882.471304
1027.363789,1685.410096,2294.638420,7920.203579
1027.364108,2145.067394,2146.597232,7698.141797
1027.364427,2298.286494,1036.288319,8808.450710
1027.364745,1915.238745,592.164754,9474.636058
1027.365064,1838.629195,666.185348,10066.800811
1027.365383,1608.800546,740.205942,9104.533087
1027.365702,842.705048,148.041188,9770.718434
1027.366021,459.657299,-148.041188,10584.944971
1027.366340,-766.095498,-296.082377,9548.656652
1027.366659,-919.314598,-222.061783,9548.656652
1027.366978,-1072.533697,-666.185348,10658.965565
1027.367296,-919.314598,-962.267725,11547.212695
1027.367615,-766.095498,-592.164754,11399.171507
1027.367934,-612.876398,592.164754,10510.924376
1027.368253,0.000000,1184.329507,10214.842000
1027.368572,306.438199,1480.411884,9474.636058
1027.368891,842.705048,2368.659014,8956.491898
1027.369210,1302.362347,2072.576638,8364.327145
1027.369529,1685.410096,1480.411884,8438.347739
1027.369847,1838.629195,814.226536,8808.450710
1027.370166,1608.800546,1184.329507,8956.491898
1027.370485,1608.800546,1110.308913,8586.388927
1027.370804,1455.581446,1036.288319,8364.327145
1027.371123,1149.143247,1036.288319,8882.471304
1027.371442,0.000000,1110.308913,9252.574275
1027.371761,-459.657299,1110.308913,8438.347739
1027.372080,-689.485948,1258.350101,9030.512492
1027.372398,-842.705048,-0.000000,9696.697840
1027.372717,-1302.362347,-444.123565,10658.965565
1027.373036,-1532.190996,-592.164754,10732.986159
1027.373355,-766.095498,-222.061783,9770.718434
1027.373674,-153.219100,518.144159,9326.594869
1027.373993,0.000000,1258.350101,9030.512492
1027.374312,0.000000,1480.411884,8660.409521
1027.374631,612.876398,1776.494261,7476.080014
1027.374950,1378.971896,1332.370696,8290.306550
1027.375268,1532.190996,962.267725,8660.409521
1027.375587,1915.238745,888.247130,8882.471304
1027.375906,1532.190996,666.185348,8660.409521
1027.376225,1455.581446,296.082377,8512.368333
1027.376544,1608.800546,-222.061783,9326.594869
1027.376862,459.657299,370.102971,8956.491898
1027.377181,383.047749,296.082377,8660.409521
1027.377500,306.438199,-0.000000,8438.347739
1027.377819,459.657299,-222.061783,9770.718434
1027.378138,0.000000,-814.226536,10732.986159
1027.378456,0.000000,-148.041188,10214.842000
1027.378775,153.219100,-0.000000,10214.842000
1027.379094,383.047749,962.267725,10214.842000
1027.379413,383.047749,888.247130,10288.862594
1027.379732,383.047749,1110.308913,8734.430116
1027.380050,689.485948,888.247130,8956.491898
1027.380369,1225.752797,-0.000000,8660.409521
1027.380688,1762.019645,-370.102971,9474.636058
1027.381007,1608.800546,-0.000000,9474.636058
1027.381326,1762.019645,296.082377,9030.512492
1027.381644,1302.362347,296.082377,8364.327145
1027.381963,1149.143247,370.102971,8882.471304
1027.382282,-229.828649,-296.082377,9252.574275
1027.382601,-153.219100,-296.082377,8660.409521
1027.382920,-383.047749,-296.082377,9030.512492
1027.383238,-536.266849,-370.102971,10288.862594
1027.383557,-612.876398,-814.226536,11029.068536
1027.383876,0.000000,-370.102971,10658.965565
1027.384195,-536.266849,148.041188,9992.780217
1027.384514,459.657299,1480.411884,10066.800811
1027.384832,153.219100,2072.576638,9622.677246
1027.385151,229.828649,2368.659014,8364.327145
1027.385470,919.314598,2368.659014,8882.471304
1027.385789,995.924147,1406.391290,9474.636058
1027.386108,1378.971896,666.185348,9474.636058
1027.386426,1378.971896,296.082377,9252.574275
1027.386745,1302.362347,666.185348,9178.553681
1027.387064,995.924147,-0.000000,8586.388927
1027.387383,612.876398,-296.082377,8734.430116
1027.387702,-229.828649,-592.164754,7994.224174
1027.388020,-229.828649,-962.267725,7550.100608
1027.388339,-229.828649,-1924.535449,8734.430116
1027.388658,-383.047749,-2442.679609,9844.739029
1027.388977,-459.657299,-2368.659014,10510.924376
1027.389296,-612.876398,-962.267725,9918.759623
1027.389614,-689.485948,148.041188,9104.533087
1027.389933,-153.219100,888.247130,9178.553681
1027.390252,0.000000,2294.638420,8438.347739
1027.390571,612.876398,2960.823768,7846.182985
1027.390890,1149.143247,3182.885551,7105.977043
1027.391208,2145.067394,2664.741391,8142.265362
1027.391527,2451.505594,1406.391290,8734.430116
1027.391846,2221.676944,1850.514855,8290.306550
1027.392165,2145.067394,1184.329507,8438.347739
1027.392484,1762.019645,888.247130,9104.533087
1027.392802,1072.533697,592.164754,9178.553681
1027.393121,459.657299,888.247130,8512.368333
1027.393440,0.000000,1406.391290,8660.409521
1027.393759,0.000000,444.123565,9548.656652
1027.394078,459.657299,370.102971,10362.883188
1027.394396,612.876398,-0.000000,10066.800811
1027.394715,689.485948,222.061783,9548.656652
1027.395034,842.705048,370.102971,9770.718434
1027.395353,919.314598,444.123565,9918.759623
1027.395672,995.924147,370.102971,8956.491898
1027.395990,1149.143247,518.144159,8882.471304
1027.396309,1608.800546,296.082377,9770.718434
1027.396628,1532.190996,-370.102971,10214.842000
1027.396947,1762.019645,222.061783,10066.800811
1027.397266,1225.752797,814.226536,9474.636058
1027.397584,766.095498,1036.288319,9104.533087
1027.397903,-536.266849,518.144159,9474.636058
1027.398222,-1225.752797,222.061783,10140.821405
1027.398541,-1915.238745,-74.020594,10066.800811
1027.398860,-2528.115143,-592.164754,10214.842000
1027.399178,-2604.724693,-1702.473667,11769.274478
1027.399497,-2834.553343,-2072.576638,12287.418637
1027.399816,-2987.772442,-1036.288319,11917.315666
1027.400135,-2145.067394,-148.041188,10807.006753
1027.400454,-1455.581446,666.185348,10584.944971
1027.400772,-689.485948,1406.391290,9400.615463
1027.401091,-306.438199,2146.597232,8364.327145
1027.401410,536.266849,2368.659014,7328.038826
1027.401729,1532.190996,1406.391290,7698.141797
1027.402048,1302.362347,1036.288319,8290.306550
1027.402366,1532.190996,740.205942,8216.285956
1027.402685,1302.362347,814.226536,7550.100608
1027.403004,766.095498,1406.391290,8290.306550
1027.403323,842.705048,370.102971,8956.491898
1027.403642,0.000000,740.205942,8882.471304
1027.403961,-306.438199,296.082377,9030.512492
1027.404279,-459.657299,-888.247130,9770.718434
1027.404598,-612.876398,-1480.411884,11325.150913
1027.404917,-689.485948,-1332.370696,11251.130318
1027.405236,-153.219100,-518.144159,10510.924376
1027.405555,306.438199,-222.061783,10214.842000
1027.405873,1302.362347,222.061783,9326.594869
1027.406192,1991.848295,888.247130,8512.368333
1027.406511,2298.286494,962.267725,7476.080014
1027.406830,3294.210641,222.061783,7476.080014
1027.407149,3753.867940,-222.061783,7846.182985
1027.407467,4060.306139,-222.061783,8290.306550
1027.407786,3983.696590,-0.000000,7772.162391
1027.408105,3447.429741,-0.000000,7402.059420
1027.408424,2911.162892,-0.000000,7846.182985
1027.408743,2145.067394,-148.041188,8734.430116
1027.409061,536.266849,-296.082377,8512.368333
1027.409380,0.000000,-148.041188,8586.388927
1027.409699,-612.876398,-814.226536,9918.759623
1027.410018,-1302.362347,-962.267725,11177.109724
1027.410337,-2145.067394,-1184.329507,11473.192101
1027.410655,-1532.190996,-0.000000,10732.986159
1027.410974,-1149.143247,1036.288319,10732.986159
1027.411293,-689.485948,1702.473667,9622.677246
1027.411612,0.000000,1702.473667,8882.471304
1027.411931,153.219100,2220.617826,7550.100608
1027.412249,612.876398,1998.556043,6809.894666
1027.412568,1302.362347,740.205942,8068.244768
1027.412887,1149.143247,518.144159,8438.347739
1027.413206,536.266849,1110.308913,7846.182985
1027.413525,306.438199,518.144159,7846.182985
1027.413843,-153.219100,962.267725,8882.471304
1027.414162,-766.095498,-444.123565,9252.574275
1027.414481,-1455.581446,-370.102971,8956.491898
1027.414800,-1991.848295,-518.144159,9918.759623
1027.415119,-1685.410096,-370.102971,10140.821405
1027.415437,-1378.971896,-962.267725,11029.068536
1027.415756,-842.705048,-888.247130,11843.295072
1027.416075,-842.705048,-666.185348,11473.192101
1027.416394,-612.876398,1184.329507,9252.574275
1027.416713,383.047749,666.185348,9770.718434
1027.417031,1149.143247,1036.288319,9474.636058
1027.417350,1225.752797,1554.432478,8438.347739
1027.417669,1838.629195,296.082377,8882.471304
1027.417988,1838.629195,-814.226536,10288.862594
1027.418307,2068.457845,-1036.288319,10288.862594
1027.418625,2374.896044,-1036.288319,9548.656652
1027.418944,1225.752797,-592.164754,9474.636058
1027.419263,1532.190996,-1036.288319,9992.780217
1027.419582,766.095498,-1036.288319,9252.574275
1027.419901,612.876398,-1110.308913,9030.512492
1027.420219,1149.143247,-1036.288319,9104.533087
1027.420538,995.924147,-740.205942,9844.739029
1027.420857,919.314598,-888.247130,10658.965565
1027.421176,919.314598,370.102971,9918.759623
1027.421495,1302.362347,1554.432478,8956.491898
1027.421813,1685.410096,2738.761985,9104.533087
1027.422132,1838.629195,2812.782580,8512.368333
1027.422451,1532.190996,2812.782580,7698.141797
1027.422770,1915.238745,3108.864956,7772.162391
1027.423089,1685.410096,1850.514855,8512.368333
1027.423407,612.876398,1258.350101,8734.430116
1027.423726,229.828649,1776.494261,8734.430116
1027.424045,0.000000,2072.576638,8364.327145
1027.424364,-842.705048,1702.473667,8142.265362
1027.424683,-1302.362347,962.267725,8956.491898
1027.425001,-1838.629195,962.267725,8438.347739
1027.425320,-2528.115143,222.061783,7846.182985
1027.425639,-1991.848295,-888.247130,9178.553681
1027.425958,-2451.505594,-1850.514855,10510.924376
1027.426277,-2681.334243,-1628.453072,10362.883188
1027.426595,-1378.971896,-74.020594,9844.739029
1027.426914,-1225.752797,370.102971,9474.636058
1027.427233,-459.657299,518.144159,9400.615463
1027.427552,0.000000,888.247130,9326.594869
1027.427871,229.828649,1702.473667,8438.347739
1027.428189,842.705048,1110.308913,7772.162391
1027.428508,1532.190996,888.247130,9178.553681
1027.428827,1608.800546,-148.041188,10214.842000
1027.429146,1838.629195,-0.000000,9548.656652
1027.429465,1762.019645,296.082377,8882.471304
1027.429783,1991.848295,-370.102971,9696.697840
1027.430102,1225.752797,-1110.308913,10214.842000
1027.430421,1225.752797,-740.205942,9474.636058
1027.430740,842.705048,-1480.411884,9548.656652
1027.431059,1378.971896,-1480.411884,10140.821405
1027.431377,689.485948,-2220.617826,11029.068536
1027.431696,459.657299,-1628.453072,11103.089130
1027.432015,1225.752797,-518.144159,10140.821405
1027.432334,1455.581446,148.041188,9548.656652
1027.432653,1991.848295,444.123565,9770.718434
1027.432971,2145.067394,666.185348,9252.574275
1027.433290,2298.286494,1184.329507,8142.265362
1027.433609,2681.334243,1332.370696,7772.162391
1027.433928,2681.334243,814.226536,8586.388927
1027.434247,2757.943793,592.164754,8956.491898
1027.434565,2451.505594,1998.556043,8438.347739
1027.434884,2221.676944,2220.617826,8290.306550
1027.435203,1302.362347,1332.370696,8660.409521
1027.435522,383.047749,962.267725,8808.450710
1027.435841,-229.828649,962.267725,8734.430116
1027.436159,-1149.143247,666.185348,8216.285956
1027.436478,-1455.581446,-0.000000,8956.491898
1027.436797,-2221.676944,-222.061783,9918.759623
1027.437116,-2221.676944,-74.020594,10288.862594
1027.437435,-2145.067394,-666.185348,9770.718434
1027.437753,-1762.019645,-0.000000,10288.862594
1027.438072,-1838.629195,888.247130,10510.924376
1027.438391,-1072.533697,2294.638420,8216.285956
1027.438710,0.000000,1776.494261,7624.121203
1027.439029,612.876398,444.123565,9030.512492
1027.439347,1149.143247,-0.000000,9696.697840
1027.439666,1072.533697,740.205942,7994.224174
1027.439985,1762.019645,1110.308913,8438.347739
1027.440304,1991.848295,1258.350101,8216.285956
1027.440623,2068.457845,1406.391290,7846.182985
1027.440941,689.485948,222.061783,8068.244768
1027.441260,536.266849,-370.102971,8586.388927
1027.441579,689.485948,-518.144159,9548.656652
1027.441898,842.705048,-1332.370696,10584.944971
1027.442217,153.219100,-1110.308913,11843.295072
1027.442535,76.609550,-0.000000,11473.192101
1027.442854,306.438199,370.102971,10807.006753
1027.443173,1685.410096,740.205942,10881.027347
1027.443492,1149.143247,1406.391290,9622.677246
1027.443811,1532.190996,2294.638420,8364.327145
1027.444129,1838.629195,2294.638420,7994.224174
1027.444448,2528.115143,962.267725,8438.347739
1027.444767,2757.943793,518.144159,8808.450710
1027.445086,2528.115143,296.082377,8882.471304
1027.445405,2221.676944,222.061783,8734.430116
1027.445723,1991.848295,-0.000000,8512.368333
1027.446042,1225.752797,518.144159,8586.388927
1027.446361,383.047749,666.185348,8882.471304
1027.446680,-689.485948,-0.000000,8734.430116
1027.446999,-1072.533697,-444.123565,9770.718434
1027.447317,-1608.800546,-1702.473667,11029.068536
1027.447636,-2145.067394,-1036.288319,11103.089130
1027.447955,-2068.457845,-222.061783,10584.944971
1027.448274,-1762.019645,148.041188,10658.965565
1027.448593,-1532.190996,444.123565,10510.924376
1027.448911,-1149.143247,888.247130,10140.821405
1027.449230,-842.705048,1776.494261,8586.388927
1027.449549,229.828649,1554.432478,8142.265362
1027.449868,766.095498,814.226536,8882.471304
1027.450187,919.314598,-0.000000,9400.615463
1027.450505,995.924147,74.020594,8882.471304
1027.450824,383.047749,-0.000000,8216.285956
1027.451143,766.095498,-0.000000,9104.533087
1027.451462,306.438199,-0.000000,8956.491898
1027.451781,153.219100,-296.082377,8290.306550
1027.452099,76.609550,-222.061783,7550.100608
1027.452418,0.000000,-814.226536,8956.491898
1027.452737,0.000000,-1406.391290,9918.759623
1027.453056,0.000000,-1110.308913,9844.739029
1027.453375,0.000000,-0.000000,9770.718434
1027.453693,153.219100,444.123565,9844.739029
1027.454012,229.828649,814.226536,9400.615463
1027.454331,1072.533697,1850.514855,8586.388927
1027.454650,1225.752797,2516.700203,7476.080014
1027.454969,1838.629195,1998.556043,7624.121203
1027.455287,1991.848295,1406.391290,8808.450710
1027.455606,2221.676944,1554.432478,8956.491898
1027.455925,2298.286494,1702.473667,8290.306550
1027.456244,1685.410096,1332.370696,8290.306550
1027.456563,1532.190996,962.267725,8660.409521
1027.456881,1378.971896,962.267725,8734.430116
1027.457200,383.047749,740.205942,8290.306550
1027.457519,153.219100,-296.082377,9326.594869
1027.457838,229.828649,-962.267725,9548.656652
1027.458157,0.000000,-1184.329507,10140.821405
1027.458475,153.219100,-1184.329507,10510.924376
1027.458794,612.876398,-0.000000,9844.739029
1027.459113,842.705048,740.205942,9326.594869
1027.459432,766.095498,888.247130,9474.636058
1027.459751,383.047749,1258.350101,8882.471304
1027.460070,919.314598,1776.494261,8142.265362
1027.460388,1455.581446,1406.391290,8438.347739
1027.460707,1149.143247,-0.000000,9696.697840
1027.461026,612.876398,-0.000000,9918.759623
1027.461345,459.657299,814.226536,9844.739029
1027.461664,306.438199,666.185348,9474.636058
1027.461982,-459.657299,222.061783,10140.821405
1027.462301,-995.924147,296.082377,10140.821405
1027.462620,-1455.581446,370.102971,9252.574275
1027.462939,-1225.752797,-370.102971,10214.842000
1027.463258,-1762.019645,-888.247130,11399.171507
1027.463576,-1149.143247,-518.144159,11029.068536
1027.463895,-1149.143247,-0.000000,10214.842000
1027.464214,76.609550,740.205942,9770.718434
1027.464533,306.438199,888.247130,9770.718434
1027.464852,306.438199,1480.411884,9030.512492
1027.465170,995.924147,1998.556043,7846.182985
1027.465489,1532.190996,1628.453072,7550.100608
1027.465808,1455.581446,592.164754,8216.285956
1027.466127,1455.581446,148.041188,9326.594869
1027.466446,1149.143247,296.082377,9400.615463
1027.466764,1302.362347,666.185348,8512.368333
1027.467083,1149.143247,740.205942,9030.512492
1027.467402,612.876398,222.061783,10140.821405
1027.467721,229.828649,370.102971,9326.594869
1027.468040,-306.438199,-0.000000,8808.450710
1027.468358,-229.828649,-666.185348,9696.697840
1027.468677,153.219100,-1406.391290,10732.986159
1027.468996,-229.828649,-1184.329507,10881.027347
1027.469315,-689.485948,-444.123565,10288.862594
1027.469634,306.438199,444.123565,9696.697840
1027.469952,689.485948,666.185348,9548.656652
1027.470271,536.266849,1110.308913,8882.471304
1027.470590,1072.533697,888.247130,7846.182985
1027.470909,1762.019645,740.205942,7920.203579
1027.471228,2145.067394,-0.000000,8734.430116
1027.471546,2068.457845,-370.102971,9326.594869
1027.471865,1915.238745,-0.000000,8438.347739
1027.472184,1532.190996,222.061783,8216.285956
1027.472503,1302.362347,370.102971,8438.347739
1027.472822,459.657299,-370.102971,8734.430116
1027.473140,0.000000,-0.000000,8512.368333
1027.473459,-842.705048,-0.000000,8586.388927
1027.473778,-919.314598,-370.102971,9252.574275
1027.474097,-995.924147,-592.164754,10066.800811
1027.474416,-1149.143247,-0.000000,9992.780217
1027.474734,-842.705048,444.123565,9548.656652
1027.475053,-536.266849,1036.288319,9474.636058
1027.475372,-306.438199,1554.432478,9474.636058
1027.475691,-153.219100,1702.473667,8438.347739
1027.476010,76.609550,1998.556043,7402.059420
1027.476329,612.876398,1702.473667,8438.347739
1027.476648,766.095498,814.226536,8808.450710
1027.476966,1225.752797,444.123565,8882.471304
1027.477285,1302.362347,740.205942,8512.368333
1027.477604,1225.752797,666.185348,8216.285956
1027.477923,766.095498,296.082377,8586.388927
1027.478242,76.609550,-0.000000,9178.553681
1027.478561,0.000000,222.061783,8586.388927
1027.478880,-459.657299,-0.000000,8956.491898
1027.479198,-229.828649,-444.123565,10214.842000
1027.479517,-306.438199,-1258.350101,11325.150913
1027.479836,-459.657299,-0.000000,10732.986159
1027.480155,0.000000,592.164754,10362.883188
1027.480474,612.876398,666.185348,10140.821405
1027.480793,306.438199,962.267725,9770.718434
1027.481112,612.876398,1628.453072,9252.574275
1027.481430,1149.143247,1776.494261,8512.368333
1027.481749,1685.410096,1258.350101,9326.594869
1027.482068,1838.629195,370.102971,9918.759623
1027.482387,1455.581446,370.102971,9474.636058
1027.482706,1378.971896,518.144159,9030.512492
1027.483025,1072.533697,666.185348,8956.491898
1027.483344,229.828649,-74.020594,9548.656652
1027.483662,153.219100,-1036.288319,9696.697840
1027.483981,-383.047749,-740.205942,9770.718434
1027.484300,-612.876398,-666.185348,10362.883188
1027.484619,-689.485948,-1036.288319,10584.944971
1027.484938,-842.705048,-1258.350101,11399.171507
1027.485257,-76.609550,-370.102971,10658.965565
1027.485576,-229.828649,1110.308913,9548.656652
1027.485894,229.828649,1850.514855,9474.636058
1027.486213,919.314598,1998.556043,9104.533087
1027.486532,1302.362347,2738.761985,7846.182985
1027.486851,1762.019645,2590.720797,7105.977043
1027.487170,1991.848295,1480.411884,8142.265362
1027.487489,1685.410096,444.123565,8956.491898
1027.487808,2068.457845,148.041188,8808.450710
1027.488126,1149.143247,444.123565,8364.327145
1027.488445,842.705048,666.185348,9400.615463
1027.488764,0.000000,370.102971,9622.677246
1027.489083,-842.705048,296.082377,9104.533087
1027.489402,-536.266849,-74.020594,8882.471304
1027.489721,-689.485948,-370.102971,9474.636058
1027.490040,-766.095498,-1554.432478,10732.986159
1027.490358,-612.876398,-1554.432478,10732.986159
1027.490677,0.000000,-740.205942,10288.862594
1027.490996,536.266849,666.185348,9474.636058
1027.491315,1302.362347,888.247130,9104.533087
1027.491634,1608.800546,962.267725,8512.368333
1027.491953,2298.286494,1184.329507,7328.038826
1027.492272,2757.943793,1406.391290,7179.997637
1027.492590,2987.772442,370.102971,8290.306550
1027.492909,2528.115143,-296.082377,8734.430116
1027.493228,1532.190996,-222.061783,8216.285956
1027.493547,1608.800546,222.061783,8438.347739
1027.493866,842.705048,-222.061783,9252.574275
1027.494185,0.000000,-370.102971,9178.553681
1027.494503,-1225.752797,-518.144159,9400.615463
1027.494822,-1455.581446,-518.144159,9178.553681
1027.495141,-1225.752797,-1036.288319,10658.965565
1027.495460,-1532.190996,-2072.576638,11769.274478
1027.495779,-1225.752797,-1554.432478,11325.150913
1027.496098,-1608.800546,-740.205942,10658.965565
1027.496417,0.000000,1110.308913,9400.615463
1027.496735,383.047749,1702.473667,9104.533087
1027.497054,536.266849,1776.494261,7994.224174
1027.497373,1072.533697,1998.556043,7402.059420
1027.497692,1302.362347,1332.370696,7254.018232
1027.498011,1072.533697,-74.020594,8364.327145
1027.498330,995.924147,-74.020594,8882.471304
1027.498649,689.485948,222.061783,8512.368333
1027.498967,383.047749,148.041188,8290.306550
1027.499286,-306.438199,-148.041188,9622.677246
1027.499605,-689.485948,-74.020594,9844.739029
1027.499924,-995.924147,-222.061783,9178.553681
1027.500243,-1225.752797,-148.041188,9622.677246
1027.500562,-536.266849,-1184.329507,10881.027347
1027.500881,-1378.971896,-740.205942,11325.150913
1027.501199,-383.047749,-370.102971,10510.924376
1027.501518,0.000000,444.123565,10066.800811
1027.501837,153.219100,1110.308913,10066.800811
1027.502156,229.828649,1332.370696,9622.677246
1027.502475,1608.800546,1924.535449,8216.285956
1027.502794,2298.286494,2368.659014,7624.121203
1027.503113,2451.505594,1554.432478,7846.182985
1027.503431,2528.115143,740.205942,8660.409521
1027.503750,2374.896044,370.102971,9326.594869
1027.504069,2221.676944,592.164754,8586.388927
1027.504388,1608.800546,518.144159,8808.450710
1027.504707,1225.752797,296.082377,9474.636058
1027.505026,153.219100,518.144159,8956.491898
1027.505345,76.609550,888.247130,8438.347739
1027.505663,76.609550,370.102971,8586.388927
1027.505982,0.000000,-370.102971,10214.842000
1027.506301,-459.657299,-666.185348,10807.006753
1027.506620,0.000000,814.226536,10066.800811
1027.506939,306.438199,1258.350101,9474.636058
1027.507258,612.876398,1406.391290,9548.656652
1027.507577,383.047749,1776.494261,9400.615463
1027.507895,536.266849,2146.597232,8512.368333
1027.508214,1149.143247,2738.761985,7698.141797
1027.508533,1685.410096,1924.535449,8512.368333
1027.508852,1915.238745,740.205942,9474.636058
1027.509171,1378.971896,1184.329507,8512.368333
1027.509490,766.095498,740.205942,8290.306550
1027.509809,383.047749,444.123565,9030.512492
1027.510127,0.000000,-592.164754,9104.533087
1027.510446,-536.266849,-518.144159,8734.430116
1027.510765,-1072.533697,-296.082377,9030.512492
1027.511084,-1455.581446,-740.205942,9918.759623
1027.511403,-995.924147,-888.247130,11251.130318
1027.511722,-1149.143247,-888.247130,10807.006753
1027.512041,-919.314598,-444.123565,9918.759623
1027.512359,-383.047749,444.123565,9622.677246
1027.512678,0.000000,-0.000000,9992.780217
1027.512997,0.000000,444.123565,9474.636058
1027.513316,536.266849,1184.329507,8882.471304
1027.513635,995.924147,888.247130,8734.430116
1027.513954,1302.362347,-0.000000,9770.718434
1027.514273,1532.190996,-222.061783,9622.677246
1027.514591,1762.019645,222.061783,9178.553681
1027.514910,1991.848295,962.267725,8660.409521
1027.515229,1608.800546,296.082377,8882.471304
1027.515548,1532.190996,-222.061783,9326.594869
1027.515867,766.095498,-740.205942,8956.491898
1027.516186,459.657299,-888.247130,8808.450710
1027.516505,306.438199,-1406.391290,9770.718434
1027.516823,536.266849,-1702.473667,10214.842000
1027.517142,766.095498,-592.164754,9548.656652
1027.517461,842.705048,-296.082377,9474.636058
1027.517780,1302.362347,888.247130,9474.636058
1027.518099,1149.143247,740.205942,9770.718434
1027.518418,1455.581446,1036.288319,8364.327145
1027.518736,1532.190996,1850.514855,7846.182985
1027.519055,1838.629195,1332.370696,8142.265362
1027.519374,1991.848295,-0.000000,9030.512492
1027.519693,1532.190996,-0.000000,8734.430116
1027.520012,2068.457845,444.123565,8734.430116
1027.520331,1685.410096,888.247130,8216.285956
1027.520650,689.485948,1110.308913,8142.265362
1027.520968,0.000000,962.267725,8438.347739
1027.521287,-383.047749,814.226536,8290.306550
1027.521606,-536.266849,-0.000000,8512.368333
1027.521925,-1072.533697,-1036.288319,9622.677246
1027.522244,-1991.848295,-1628.453072,11029.068536
1027.522563,-1762.019645,-1110.308913,10807.006753
1027.522882,-1225.752797,148.041188,9918.759623
1027.523200,-919.314598,444.123565,10140.821405
1027.523519,-842.705048,518.144159,9548.656652
1027.523838,-842.705048,962.267725,9104.533087
1027.524157,383.047749,1998.556043,8290.306550
1027.524476,1072.533697,1924.535449,8216.285956
1027.524795,1302.362347,1332.370696,9104.533087
1027.525114,1378.971896,1184.329507,8586.388927
1027.525432,1378.971896,1036.288319,8512.368333
1027.525751,1378.971896,518.144159,8438.347739
1027.526070,1072.533697,222.061783,8882.471304
1027.526389,536.266849,148.041188,8734.430116
1027.526708,-306.438199,740.205942,8586.388927
1027.527027,0.000000,-518.144159,9696.697840
1027.527346,-306.438199,-1406.391290,11029.068536
1027.527664,-612.876398,-1036.288319,11991.336260
1027.527983,-229.828649,-0.000000,10881.027347
1027.528302,76.609550,1406.391290,9918.759623
1027.528621,689.485948,814.226536,10881.027347
1027.528940,689.485948,1184.329507,10140.821405
1027.529259,1149.143247,1924.535449,8290.306550
1027.529578,1915.238745,1776.494261,7920.203579
1027.529896,2911.162892,1480.411884,8956.491898
1027.530215,2757.943793,444.123565,9252.574275
1027.530534,2987.772442,1110.308913,7846.182985
1027.530853,2681.334243,1406.391290,7994.224174
1027.531172,2298.286494,1110.308913,8438.347739
1027.531491,1608.800546,370.102971,8882.471304
1027.531810,459.657299,-222.061783,9474.636058
1027.532128,0.000000,222.061783,9252.574275
1027.532447,-842.705048,-296.082377,9474.636058
1027.532766,-1378.971896,-1776.494261,11769.274478
1027.533085,-1532.190996,-1332.370696,11769.274478
1027.533404,-1838.629195,-222.061783,10732.986159
1027.533723,-1378.971896,888.247130,10140.821405
1027.534042,-919.314598,1036.288319,10584.944971
1027.534360,-383.047749,1924.535449,9104.533087
1027.534679,0.000000,2960.823768,7846.182985
1027.534998,1225.752797,1554.432478,7772.162391
1027.535317,1149.143247,1258.350101,8290.306550
1027.535636,1149.143247,592.164754,8586.388927
1027.535955,842.705048,740.205942,8290.306550
1027.536274,612.876398,1036.288319,8142.265362
1027.536592,0.000000,296.082377,8808.450710
1027.536911,-536.266849,-0.000000,9252.574275
1027.537230,-842.705048,-0.000000,9252.574275
1027.537549,-1149.143247,-0.000000,9030.512492
1027.537868,-1302.362347,-518.144159,9918.759623
1027.538187,-536.266849,-1110.308913,11325.150913
1027.538506,-612.876398,-1036.288319,10955.047942
1027.538824,-536.266849,370.102971,9992.780217
1027.539143,153.219100,666.185348,9770.718434
1027.539462,536.266849,444.123565,9474.636058
1027.539781,1302.362347,1036.288319,8808.450710
1027.540100,1915.238745,1850.514855,7550.100608
1027.540419,2528.115143,1924.535449,7772.162391
1027.540738,2834.553343,740.205942,9030.512492
1027.541056,3294.210641,740.205942,8882.471304
1027.541375,2757.943793,444.123565,8512.368333
1027.541694,2451.505594,296.082377,8660.409521
1027.542013,1762.019645,-222.061783,8956.491898
1027.542332,995.924147,-740.205942,8956.491898
1027.542651,153.219100,-1110.308913,9252.574275
1027.542969,0.000000,-1184.329507,9474.636058
1027.543288,-689.485948,-1776.494261,10362.883188
1027.543607,-306.438199,-1924.535449,10881.027347
1027.543926,0.000000,-1110.308913,10362.883188
1027.544245,153.219100,296.082377,9474.636058
1027.544564,536.266849,592.164754,8734.430116
1027.544883,689.485948,962.267725,8808.450710
1027.545201,1149.143247,1554.432478,7994.224174
1027.545520,1915.238745,1924.535449,7031.956449
1027.545839,1608.800546,962.267725,8216.285956
1027.546158,1608.800546,444.123565,9178.553681
1027.546477,919.314598,666.185348,8438.347739
1027.546796,842.705048,1184.329507,8290.306550
1027.547115,153.219100,962.267725,9252.574275
1027.547433,-766.095498,370.102971,9400.615463
1027.547752,-1532.190996,296.082377,9178.553681
1027.548071,-1915.238745,370.102971,9030.512492
1027.548390,-1838.629195,148.041188,9622.677246
1027.548709,-1762.019645,-0.000000,10510.924376
1027.549028,-1685.410096,-0.000000,10584.944971
1027.549347,-842.705048,518.144159,9696.697840
1027.549665,-536.266849,1258.350101,9400.615463
1027.549984,229.828649,1110.308913,9548.656652
1027.550303,689.485948,1554.432478,8882.471304
1027.550622,842.705048,1850.514855,7772.162391
1027.550941,1762.019645,1554.432478,7994.224174
1027.551260,1838.629195,814.226536,8734.430116
1027.551579,1532.190996,-0.000000,9696.697840
1027.551897,1608.800546,296.082377,8882.471304
1027.552216,1378.971896,518.144159,8882.471304
1027.552535,842.705048,592.164754,9474.636058
1027.552854,0.000000,-0.000000,9918.759623
1027.553173,-842.705048,-296.082377,9696.697840
1027.553492,-995.924147,-444.123565,9918.759623
1027.553811,-766.095498,-740.205942,10955.047942
1027.554129,-919.314598,-1258.350101,11695.253884
1027.554448,-612.876398,-740.205942,11695.253884
1027.554767,-153.219100,148.041188,10732.986159
1027.555086,536.266849,1110.308913,10140.821405
1027.555405,1072.533697,1110.308913,9696.697840
1027.555724,1685.410096,2072.576638,8586.388927
1027.556043,2068.457845,2146.597232,7698.141797
1027.556361,2221.676944,2146.597232,7698.141797
1027.556680,2604.724693,962.267725,8734.430116
1027.556999,2298.286494,740.205942,8956.491898
1027.557318,2145.067394,1036.288319,8290.306550
1027.557637,842.705048,1110.308913,8290.306550
1027.557956,536.266849,740.205942,9474.636058
1027.558275,0.000000,296.082377,9622.677246
1027.558593,-919.314598,666.185348,9030.512492
1027.558912,-1149.143247,518.144159,9104.533087
1027.559231,-536.266849,-518.144159,10214.842000
1027.559550,-919.314598,-518.144159,10807.006753
1027.559869,-995.924147,-296.082377,10436.903782
1027.560188,-612.876398,962.267725,9474.636058
1027.560507,0.000000,1332.370696,9104.533087
1027.560825,229.828649,1480.411884,9030.512492
1027.561144,76.609550,2146.597232,7994.224174
1027.561463,766.095498,2294.638420,7254.018232
1027.561782,1149.143247,1184.329507,7698.141797
1027.562101,1072.533697,-444.123565,9252.574275
1027.562420,1532.190996,-148.041188,9474.636058
1027.562739,689.485948,-74.020594,8808.450710
1027.563057,459.657299,-296.082377,8660.409521
1027.563376,0.000000,-1110.308913,9696.697840
1027.563695,-536.266849,-1258.350101,9474.636058
1027.564014,-842.705048,-370.102971,9104.533087
1027.564333,-612.876398,-888.247130,9400.615463
1027.564652,-612.876398,-1332.370696,10881.027347
1027.564971,-612.876398,-2368.659014,11029.068536
1027.565289,0.000000,-1406.391290,10510.924376
1027.565608,-153.219100,-666.185348,10066.800811
1027.565927,612.876398,666.185348,9622.677246
1027.566246,1072.533697,814.226536,9030.512492
1027.566565,1378.971896,1480.411884,8290.306550
1027.566884,2374.896044,1924.535449,7328.038826
1027.567202,2681.334243,1184.329507,7772.162391
1027.567521,2604.724693,148.041188,8734.430116
1027.567840,2451.505594,296.082377,8882.471304
1027.568159,1991.848295,962.267725,7550.100608
1027.568478,1149.143247,740.205942,8364.327145
1027.568797,229.828649,-0.000000,9252.574275
1027.569116,-153.219100,-0.000000,8734.430116
1027.569434,-612.876398,-0.000000,8808.450710
1027.569753,-383.047749,-444.123565,10066.800811
1027.570072,-612.876398,-1480.411884,10955.047942
1027.570391,-536.266849,-1258.350101,10732.986159
1027.570710,-536.266849,-0.000000,10362.883188
1027.571029,-306.438199,1258.350101,9548.656652
1027.571348,919.314598,1628.453072,9252.574275
1027.571666,1072.533697,1850.514855,8512.368333
1027.571985,1685.410096,2368.659014,8142.265362
1027.572304,2221.676944,2368.659014,7105.977043
1027.572623,2451.505594,740.205942,7920.203579
1027.572942,2374.896044,-296.082377,8660.409521
1027.573261,1685.410096,-0.000000,8364.327145
1027.573580,1532.190996,-0.000000,8586.388927
1027.573898,536.266849,-0.000000,8808.450710
1027.574217,-459.657299,-370.102971,9548.656652
1027.574536,-1608.800546,-0.000000,9770.718434
1027.574855,-1838.629195,-0.000000,9474.636058
1027.575174,-1838.629195,-592.164754,10362.883188
1027.575493,-2068.457845,-1406.391290,11917.315666
1027.575812,-2298.286494,-1554.432478,12213.398043
1027.576130,-1608.800546,-296.082377,10881.027347
1027.576449,-995.924147,444.123565,10362.883188
1027.576768,-153.219100,888.247130,10510.924376
1027.577087,-229.828649,740.205942,9622.677246
1027.577406,1455.581446,2072.576638,8142.265362
1027.577725,2528.115143,2146.597232,7846.182985
1027.578044,2528.115143,1998.556043,8364.327145
1027.578363,2681.334243,962.267725,8290.306550
1027.578682,2528.115143,1036.288319,8290.306550
1027.579000,1915.238745,1036.288319,7920.203579
1027.579319,1072.533697,-0.000000,8660.409521
1027.579638,0.000000,-888.247130,9474.636058
1027.579957,-689.485948,-1184.329507,9326.594869
1027.580276,-995.924147,-1036.288319,9548.656652
1027.580595,-1072.533697,-1036.288319,10584.944971
1027.580914,-1149.143247,-1036.288319,11473.192101
1027.581233,-919.314598,-74.020594,10510.924376
1027.581552,306.438199,814.226536,10214.842000
1027.581870,459.657299,1480.411884,9548.656652
1027.582189,995.924147,1184.329507,9104.533087
1027.582508,1455.581446,1110.308913,8216.285956
1027.582827,1838.629195,1480.411884,7550.100608
1027.583146,2451.505594,1406.391290,7550.100608
1027.583465,2528.115143,296.082377,8290.306550
1027.583784,2528.115143,444.123565,7994.224174
1027.584103,2145.067394,1036.288319,7698.141797
1027.584422,1685.410096,1406.391290,8068.244768
1027.584740,766.095498,296.082377,8364.327145
1027.585059,-689.485948,-740.205942,9104.533087
1027.585378,-1378.971896,-666.185348,9400.615463
1027.585697,-1685.410096,-1036.288319,10362.883188
1027.586016,-2145.067394,-962.267725,10214.842000
1027.586335,-1991.848295,-1110.308913,11103.089130
1027.586654,-1685.410096,-370.102971,10732.986159
1027.586973,-1072.533697,888.247130,9252.574275
1027.587292,-383.047749,962.267725,9104.533087
1027.587610,306.438199,1110.308913,9104.533087
1027.587929,612.876398,1924.535449,8068.244768
1027.588248,1149.143247,2072.576638,7105.977043
1027.588567,1685.410096,1998.556043,7698.141797
1027.588886,1838.629195,814.226536,8956.491898
1027.589205,1608.800546,222.061783,9030.512492
1027.589524,1072.533697,740.205942,8438.347739
1027.589843,766.095498,296.082377,9104.533087
1027.590161,-306.438199,-148.041188,9622.677246
1027.590480,-612.876398,-444.123565,9622.677246
1027.590799,-459.657299,-74.020594,9326.594869
1027.591118,-229.828649,-148.041188,10140.821405
1027.591437,-536.266849,-1406.391290,10955.047942
1027.591756,0.000000,-1554.432478,11325.150913
1027.592075,383.047749,-370.102971,10732.986159
1027.592394,1302.362347,370.102971,9696.697840
1027.592713,1532.190996,592.164754,9474.636058
1027.593031,1915.238745,814.226536,8734.430116
1027.593350,2145.067394,1702.473667,7846.182985
1027.593669,2834.553343,2072.576638,7328.038826
1027.593988,2911.162892,1036.288319,8290.306550
1027.594307,2834.553343,518.144159,9400.615463
1027.594626,2298.286494,370.102971,9030.512492
1027.594945,1608.800546,74.020594,9178.553681
1027.595264,1302.362347,-0.000000,10214.842000
1027.595583,229.828649,-666.185348,10362.883188
1027.595901,-306.438199,-592.164754,9770.718434
1027.596220,-689.485948,-296.082377,9992.780217
1027.596539,-383.047749,-444.123565,10214.842000
1027.596858,-995.924147,-888.247130,10732.986159
1027.597177,-306.438199,-592.164754,11029.068536
1027.597496,-459.657299,370.102971,9548.656652
1027.597815,383.047749,1776.494261,9030.512492
1027.598134,536.266849,1924.535449,8660.409521
1027.598453,612.876398,2072.576638,8438.347739
1027.598771,1225.752797,2442.679609,7254.018232
1027.599090,1532.190996,2146.597232,7698.141797
1027.599409,1455.581446,592.164754,8956.491898
1027.599728,1072.533697,222.061783,9474.636058
1027.600047,766.095498,222.061783,9178.553681
1027.600366,76.609550,666.185348,8438.347739
1027.600685,0.000000,592.164754,8882.471304
1027.601004,-842.705048,-0.000000,9252.574275
1027.601323,-1532.190996,518.144159,8956.491898
1027.601641,-1608.800546,296.082377,8882.471304
1027.601960,-1608.800546,-666.185348,9992.780217
1027.602279,-1225.752797,-1332.370696,11029.068536
1027.602598,-1378.971896,-1036.288319,10881.027347
1027.602917,-306.438199,222.061783,9696.697840
1027.603236,306.438199,962.267725,9474.636058
1027.603555,842.705048,666.185348,9548.656652
1027.603874,1225.752797,1406.391290,8290.306550
1027.604193,1991.848295,1702.473667,7624.121203
1027.604511,2451.505594,1184.329507,7994.224174
1027.604830,2604.724693,370.102971,8808.450710
1027.605149,2451.505594,-74.020594,9030.512492
1027.605468,2451.505594,296.082377,8512.368333
1027.605787,1991.848295,370.102971,8438.347739
1027.606106,1225.752797,-296.082377,8882.471304
1027.606425,766.095498,-518.144159,9178.553681
1027.606744,76.609550,-888.247130,9104.533087
1027.607063,0.000000,-962.267725,9548.656652
1027.607381,0.000000,-2072.576638,10584.944971
1027.607700,-536.266849,-2442.679609,11473.192101
1027.608019,-383.047749,-1258.350101,10732.986159
1027.608338,0.000000,-0.000000,9770.718434
1027.608657,153.219100,814.226536,9622.677246
1027.608976,306.438199,1258.350101,9696.697840
1027.609295,766.095498,2072.576638,8216.285956
1027.609614,919.314598,2294.638420,7550.100608
1027.609933,1532.190996,1554.432478,8142.265362
1027.610251,1838.629195,518.144159,8808.450710
1027.610570,1608.800546,740.205942,8216.285956
1027.610889,1072.533697,1110.308913,7772.162391
1027.611208,612.876398,814.226536,8216.285956
1027.611527,-229.828649,222.061783,9326.594869
1027.611846,-919.314598,222.061783,9178.553681
1027.612165,-1302.362347,666.185348,8734.430116
1027.612484,-1532.190996,370.102971,9474.636058
1027.612802,-1685.410096,-592.164754,11251.130318
1027.613121,-1225.752797,-222.061783,10955.047942
1027.613440,-1378.971896,740.205942,9770.718434
1027.613759,-766.095498,1406.391290,9474.636058
1027.614078,0.000000,1702.473667,9696.697840
1027.614397,229.828649,1702.473667,8586.388927
1027.614716,1762.019645,2220.617826,7920.203579
1027.615035,1608.800546,2294.638420,8216.285956
1027.615354,2298.286494,1332.370696,8808.450710
1027.615672,2298.286494,592.164754,9400.615463
1027.615991,2451.505594,666.185348,9178.553681
1027.616310,1532.190996,888.247130,8734.430116
1027.616629,1608.800546,814.226536,9030.512492
1027.616948,1072.533697,-222.061783,9326.594869
1027.617267,536.266849,-740.205942,9918.759623
1027.617586,0.000000,-148.041188,9400.615463
1027.617905,-383.047749,-370.102971,10214.842000
1027.618224,-229.828649,-1258.350101,11473.192101
1027.618542,-153.219100,-740.205942,11103.089130
1027.618861,306.438199,-296.082377,10066.800811
1027.619180,995.924147,296.082377,9992.780217
1027.619499,1072.533697,666.185348,10066.800811
1027.619818,1302.362347,1110.308913,8734.430116
1027.620137,1991.848295,1554.432478,8290.306550
1027.620456,2068.457845,1110.308913,8512.368333
1027.620775,2451.505594,222.061783,9178.553681
1027.621094,2068.457845,222.061783,8956.491898
1027.621412,2221.676944,592.164754,8660.409521
1027.621731,1915.238745,1036.288319,8068.244768
1027.622050,1072.533697,592.164754,8808.450710
1027.622369,-229.828649,-0.000000,8956.491898
1027.622688,-842.705048,-0.000000,8438.347739
1027.623007,-766.095498,-0.000000,8512.368333
1027.623326,-842.705048,-444.123565,10362.883188
1027.623645,-1225.752797,-888.247130,10881.027347
1027.623964,-1149.143247,-814.226536,10362.883188
1027.624282,-842.705048,370.102971,9992.780217
1027.624601,-383.047749,666.185348,9844.739029
1027.624920,-383.047749,962.267725,9178.553681
1027.625239,766.095498,1702.473667,8438.347739
1027.625558,995.924147,2072.576638,7624.121203
1027.625877,1455.581446,1554.432478,7402.059420
1027.626196,766.095498,740.205942,8364.327145
1027.626515,1225.752797,444.123565,8956.491898
1027.626834,1532.190996,592.164754,7920.203579
1027.627152,995.924147,148.041188,8734.430116
1027.627471,-383.047749,-1184.329507,9252.574275
1027.627790,-1072.533697,-1036.288319,9770.718434
1027.628109,-1378.971896,-1184.329507,9474.636058
1027.628428,-1225.752797,-962.267725,9548.656652
1027.628747,-1225.752797,-2146.597232,10807.006753
1027.629066,-1225.752797,-1332.370696,11473.192101
1027.629385,-459.657299,-518.144159,10510.924376
1027.629704,0.000000,-0.000000,9326.594869
1027.630022,919.314598,518.144159,9400.615463
1027.630341,1072.533697,1036.288319,8882.471304
1027.630660,1532.190996,1776.494261,7624.121203
1027.630979,2221.676944,2072.576638,7105.977043
1027.631298,2757.943793,1924.535449,7994.224174
1027.631617,3064.381992,740.205942,8512.368333
1027.631936,2221.676944,740.205942,8586.388927
1027.632255,2221.676944,814.226536,8512.368333
1027.632574,1225.752797,148.041188,9252.574275
1027.632892,306.438199,-592.164754,9326.594869
1027.633211,-842.705048,-1036.288319,9696.697840
1027.633530,-1225.752797,-296.082377,10214.842000
1027.633849,-1762.019645,-444.123565,10510.924376
1027.634168,-766.095498,-1332.370696,11695.253884
1027.634487,-1378.971896,-444.123565,11547.212695
1027.634806,-766.095498,592.164754,10140.821405
1027.635125,0.000000,1628.453072,9030.512492
1027.635443,536.266849,2146.597232,9178.553681
1027.635762,1838.629195,1924.535449,8808.450710
1027.636081,1455.581446,2590.720797,7031.956449
1027.636400,2068.457845,2368.659014,7328.038826
1027.636719,2068.457845,1110.308913,8364.327145
1027.637038,1838.629195,-0.000000,8882.471304
1027.637357,1302.362347,296.082377,8882.471304
1027.637676,919.314598,666.185348,8956.491898
1027.637995,0.000000,592.164754,8882.471304
1027.638313,-842.705048,-0.000000,9474.636058
1027.638632,-1149.143247,370.102971,9400.615463
1027.638951,-1762.019645,148.041188,9474.636058
1027.639270,-1762.019645,-74.020594,10214.842000
1027.639589,-1915.238745,-740.205942,11473.192101
1027.639908,-1302.362347,-518.144159,11251.130318
1027.640227,-153.219100,518.144159,10214.842000
1027.640546,383.047749,1332.370696,9474.636058
1027.640865,612.876398,1480.411884,9104.533087
1027.641183,1072.533697,1924.535449,8364.327145
1027.641502,2068.457845,2368.659014,7254.018232
1027.641821,1991.848295,2516.700203,7772.162391
1027.642140,2757.943793,1480.411884,8364.327145
1027.642459,2451.505594,666.185348,8956.491898
1027.642778,1915.238745,740.205942,8142.265362
1027.643097,1685.410096,740.205942,8956.491898
1027.643416,612.876398,222.061783,9622.677246
1027.643735,-689.485948,-222.061783,9622.677246
1027.644053,-919.314598,-740.205942,9770.718434
1027.644372,-1225.752797,-518.144159,10066.800811
1027.644691,-1225.752797,-1036.288319,10955.047942
1027.645010,-995.924147,-2442.679609,12139.377449
1027.645329,-995.924147,-1480.411884,11325.150913
1027.645648,-766.095498,-222.061783,9696.697840
1027.645967,229.828649,740.205942,9474.636058
1027.646286,459.657299,222.061783,9622.677246
1027.646605,1225.752797,1184.329507,7994.224174
1027.646923,1685.410096,1702.473667,7031.956449
1027.647242,2068.457845,1110.308913,8438.347739
1027.647561,1915.238745,-0.000000,9178.553681
1027.647880,1608.800546,-74.020594,9030.512492
1027.648199,1838.629195,444.123565,8216.285956
1027.648518,766.095498,666.185348,8512.368333
1027.648837,383.047749,-74.020594,9178.553681
1027.649156,-153.219100,-518.144159,8956.491898
1027.649475,0.000000,-814.226536,9474.636058
1027.649793,-459.657299,-592.164754,9622.677246
1027.650112,-459.657299,-962.267725,10584.944971
1027.650431,-383.047749,-1406.391290,10955.047942
1027.650750,-459.657299,222.061783,10140.821405
1027.651069,689.485948,1702.473667,9030.512492
1027.651388,612.876398,1406.391290,8808.450710
1027.651707,766.095498,1628.453072,8512.368333
1027.652026,1762.019645,2220.617826,7550.100608
1027.652345,2221.676944,2516.700203,7105.977043
1027.652663,2374.896044,1184.329507,8142.265362
1027.652982,2068.457845,-0.000000,9104.533087
1027.653301,1532.190996,370.102971,8586.388927
1027.653620,1302.362347,814.226536,8068.244768
1027.653939,842.705048,-0.000000,8808.450710
1027.654258,-536.266849,-592.164754,9844.739029
1027.654577,-612.876398,-0.000000,9252.574275
1027.654896,-1072.533697,222.061783,8734.430116
1027.655215,-1225.752797,-518.144159,10140.821405
1027.655533,-1532.190996,-1628.453072,11621.233289
1027.655852,-1378.971896,-1406.391290,11103.089130
1027.656171,-612.876398,-148.041188,9992.780217
1027.656490,-229.828649,518.144159,10066.800811
1027.656809,0.000000,-0.000000,9844.739029
1027.657128,459.657299,370.102971,8808.450710
1027.657447,919.314598,1036.288319,8290.306550
1027.657766,1608.800546,1184.329507,7920.203579
1027.658084,1608.800546,222.061783,8808.450710
1027.658403,1532.190996,370.102971,8808.450710
1027.658722,1532.190996,518.144159,8438.347739
1027.659041,1225.752797,518.144159,8512.368333
1027.659360,383.047749,-444.123565,9622.677246
1027.659679,76.609550,-814.226536,9548.656652
1027.659998,-766.095498,-0.000000,8734.430116
1027.660317,-689.485948,-74.020594,9030.512492
1027.660636,-536.266849,-666.185348,10658.965565
1027.660954,-842.705048,-1332.370696,11177.109724
1027.661273,-689.485948,-0.000000,10807.006753
1027.661592,536.266849,1184.329507,9992.780217
1027.661911,1302.362347,2664.741391,9474.636058
1027.662230,1149.143247,2738.761985,9252.574275
1027.662549,1608.800546,3330.926739,7846.182985
1027.662868,2221.676944,3478.967927,7105.977043
1027.663187,2145.067394,2294.638420,7254.018232
1027.663506,2604.724693,1110.308913,8512.368333
1027.663824,2374.896044,888.247130,8364.327145
1027.664143,1991.848295,1110.308913,7920.203579
1027.664462,1378.971896,740.205942,8364.327145
1027.664781,383.047749,-148.041188,9548.656652
1027.665100,-383.047749,-444.123565,9844.739029
1027.665419,-1072.533697,296.082377,9474.636058
1027.665738,-766.095498,-0.000000,9992.780217
1027.666057,-1685.410096,-814.226536,10881.027347
1027.666376,-1838.629195,-1406.391290,11843.295072
1027.666694,-1838.629195,-888.247130,11029.068536
1027.667013,-1072.533697,296.082377,10066.800811
1027.667332,76.609550,1184.329507,9844.739029
1027.667651,383.047749,1036.288319,9400.615463
1027.667970,1149.143247,1332.370696,8438.347739
1027.668289,1378.971896,2220.617826,7698.141797
1027.668608,1762.019645,1258.350101,8586.388927
1027.668927,1302.362347,370.102971,9400.615463
1027.669246,1608.800546,814.226536,9178.553681
1027.669564,1302.362347,1110.308913,8734.430116
1027.669883,383.047749,592.164754,9400.615463
1027.670202,0.000000,-666.185348,9844.739029
1027.670521,-612.876398,-592.164754,9918.759623
1027.670840,-1302.362347,-666.185348,9770.718434
1027.671159,-1532.190996,-1184.329507,10436.903782
1027.671478,-1225.752797,-2220.617826,11251.130318
1027.671797,-1149.143247,-2220.617826,11843.295072
1027.672116,-229.828649,-888.247130,10955.047942
1027.672434,459.657299,222.061783,9696.697840
1027.672753,1455.581446,962.267725,8956.491898
1027.673072,1915.238745,592.164754,8512.368333
1027.673391,2374.896044,1258.350101,7105.977043
1027.673710,3140.991542,1998.556043,6217.729913
1027.674029,3600.648841,1110.308913,7105.977043
1027.674348,3600.648841,518.144159,7698.141797
1027.674667,3064.381992,444.123565,7624.121203
1027.674986,2451.505594,962.267725,7328.038826
1027.675304,1455.581446,296.082377,8216.285956
1027.675623,76.609550,-222.061783,9178.553681
1027.675942,-536.266849,-296.082377,8956.491898
1027.676261,-995.924147,-0.000000,9252.574275
1027.676580,-2145.067394,-740.205942,10436.903782
1027.676899,-1302.362347,-1554.432478,11177.109724
1027.677218,-995.924147,-1332.370696,11621.233289
1027.677537,-459.657299,444.123565,9770.718434
1027.677856,689.485948,1406.391290,9178.553681
1027.678174,842.705048,1628.453072,8808.450710
1027.678493,1762.019645,1998.556043,7846.182985
1027.678812,2451.505594,2368.659014,6957.935855
1027.679131,2681.334243,2294.638420,6735.874072
1027.679450,2757.943793,1036.288319,7920.203579
1027.679769,2451.505594,592.164754,8290.306550
1027.680088,1838.629195,518.144159,7846.182985
1027.680407,995.924147,-0.000000,8290.306550
1027.680726,0.000000,-814.226536,9548.656652
1027.681045,-995.924147,-1850.514855,10362.883188
1027.681364,-2374.896044,-1554.432478,9992.780217
1027.681683,-1915.238745,-1036.288319,10510.924376
1027.682002,-2068.457845,-1036.288319,11103.089130
1027.682321,-1762.019645,-888.247130,11843.295072
1027.682639,-1225.752797,-222.061783,11177.109724
1027.682958,-689.485948,1110.308913,10288.862594
1027.683277,0.000000,1480.411884,9622.677246
1027.683596,766.095498,1406.391290,9474.636058
1027.683915,919.314598,1776.494261,8438.347739
1027.684234,1378.971896,1554.432478,8068.244768
1027.684553,1915.238745,1110.308913,8142.265362
1027.684872,1991.848295,222.061783,9104.533087
1027.685191,1991.848295,-148.041188,9104.533087
1027.685510,1838.629195,518.144159,8734.430116
1027.685829,1302.362347,370.102971,8956.491898
1027.686148,229.828649,-222.061783,9548.656652
1027.686467,-536.266849,-370.102971,10066.800811
1027.686786,-766.095498,-0.000000,9622.677246
1027.687104,0.000000,444.123565,8956.491898
1027.687423,-229.828649,-222.061783,10214.842000
1027.687742,0.000000,-962.267725,11029.068536
1027.688061,76.609550,-0.000000,10436.903782
1027.688380,995.924147,1258.350101,9030.512492
1027.688699,1302.362347,1776.494261,9104.533087
1027.689018,1685.410096,1628.453072,9030.512492
1027.689337,1915.238745,2516.700203,8290.306550
1027.689656,1991.848295,2738.761985,7920.203579
1027.689975,1685.410096,1184.329507,8438.347739
1027.690294,1685.410096,222.061783,9474.636058
1027.690613,1149.143247,-222.061783,9844.739029
1027.690932,689.485948,444.123565,9178.553681
1027.691251,229.828649,592.164754,9030.512492
1027.691570,-383.047749,-0.000000,9474.636058
1027.691888,-1072.533697,-148.041188,9252.574275
1027.692207,-766.095498,-0.000000,9696.697840
1027.692526,-612.876398,-0.000000,9474.636058
1027.692845,-1149.143247,-518.144159,10436.903782
1027.693164,153.219100,-1258.350101,10436.903782
1027.693483,-459.657299,666.185348,9474.636058
1027.693802,536.266849,1184.329507,9178.553681
1027.694121,842.705048,1258.350101,8956.491898
1027.694440,919.314598,1332.370696,9104.533087
1027.694759,1149.143247,1924.535449,7698.141797
1027.695078,766.095498,2368.659014,7550.100608
1027.695397,842.705048,1184.329507,9030.512492
1027.695716,766.095498,592.164754,9474.636058
1027.696035,306.438199,962.267725,9178.553681
1027.696354,536.266849,518.144159,9400.615463
1027.696672,153.219100,740.205942,9474.636058
1027.696991,-383.047749,-74.020594,9770.718434
1027.697310,-459.657299,-962.267725,9474.636058
1027.697629,-306.438199,-1110.308913,8734.430116
1027.697948,0.000000,-962.267725,9696.697840
1027.698267,0.000000,-1628.453072,10584.944971
1027.698586,153.219100,-1110.308913,10288.862594
1027.698905,1149.143247,148.041188,9622.677246
1027.699224,766.095498,1406.391290,9474.636058
1027.699543,1378.971896,1184.329507,9400.615463
1027.699862,1685.410096,1258.350101,8438.347739
1027.700181,1838.629195,1628.453072,8290.306550
1027.700500,2374.896044,1332.370696,8142.265362
1027.700819,2145.067394,592.164754,9104.533087
1027.701137,1838.629195,-296.082377,9474.636058
1027.701456,1762.019645,-148.041188,9548.656652
1027.701775,1225.752797,-0.000000,8808.450710
1027.702094,689.485948,-740.205942,9474.636058
1027.702413,-229.828649,-666.185348,9770.718434
1027.702732,-766.095498,-148.041188,8438.347739
1027.703051,-306.438199,888.247130,8216.285956
1027.703370,0.000000,-148.041188,9400.615463
1027.703689,-306.438199,-1850.514855,11029.068536
1027.704008,-689.485948,-1850.514855,10732.986159
1027.704327,0.000000,-0.000000,10066.800811
1027.704646,306.438199,1702.473667,9474.636058
1027.704965,766.095498,1998.556043,8364.327145
1027.705284,689.485948,1702.473667,8364.327145
1027.705603,1378.971896,1850.514855,8364.327145
1027.705921,1838.629195,2146.597232,7254.018232
1027.706240,1608.800546,1406.391290,7920.203579
1027.706559,1991.848295,1110.308913,8882.471304
1027.706878,1685.410096,1850.514855,8290.306550
1027.707197,766.095498,1776.494261,7476.080014
1027.707516,-229.828649,-0.000000,8956.491898
1027.707835,-1685.410096,-518.144159,9400.615463
1027.708154,-1455.581446,-0.000000,9030.512492
1027.708473,-1302.362347,-222.061783,10066.800811
1027.708792,-2068.457845,-444.123565,10955.047942
1027.709111,-1762.019645,-1184.329507,12139.377449
1027.709430,-1455.581446,-740.205942,10955.047942
1027.709749,-689.485948,-0.000000,10510.924376
1027.710068,0.000000,444.123565,9696.697840
1027.710387,76.609550,814.226536,9178.553681
1027.710705,766.095498,1258.350101,8364.327145
1027.711024,1685.410096,1554.432478,7772.162391
1027.711343,1991.848295,814.226536,8512.368333
1027.711662,2221.676944,-370.102971,9178.553681
1027.711981,2528.115143,-444.123565,8734.430116
1027.712300,2451.505594,296.082377,8512.368333
1027.712619,1762.019645,814.226536,8438.347739
1027.712938,766.095498,222.061783,9252.574275
1027.713257,0.000000,-0.000000,9696.697840
1027.713576,-306.438199,-0.000000,10214.842000
1027.713895,-689.485948,-296.082377,10214.842000
1027.714214,-536.266849,-1406.391290,11177.109724
1027.714533,-919.314598,-1406.391290,11251.130318
1027.714852,-766.095498,-444.123565,10955.047942
1027.715170,0.000000,1184.329507,9474.636058
1027.715489,0.000000,1406.391290,9622.677246
1027.715808,689.485948,1850.514855,9178.553681
1027.716127,1838.629195,2442.679609,7772.162391
1027.716446,2451.505594,2886.803174,6883.915261
1027.716765,2757.943793,2220.617826,7402.059420
1027.717084,2374.896044,666.185348,7994.224174
1027.717403,2298.286494,1036.288319,7698.141797
1027.717722,1838.629195,1110.308913,7698.141797
1027.718041,1072.533697,296.082377,8586.388927
1027.718360,0.000000,-444.123565,9326.594869
1027.718679,-1302.362347,-888.247130,9400.615463
1027.718998,-1685.410096,518.144159,9326.594869
1027.719317,-1915.238745,-222.061783,10066.800811
1027.719636,-2451.505594,-1406.391290,11547.212695
1027.719954,-2604.724693,-1406.391290,11917.315666
1027.720273,-1915.238745,296.082377,10732.986159
1027.720592,-1378.971896,1702.473667,9474.636058
1027.720911,-766.095498,1258.350101,9474.636058
1027.721230,0.000000,1332.370696,8882.471304
1027.721549,766.095498,1628.453072,7846.182985
1027.721868,1302.362347,1184.329507,7994.224174
1027.722187,1455.581446,518.144159,8882.471304
1027.722506,1838.629195,74.020594,9178.553681
1027.722825,2068.457845,814.226536,8660.409521
1027.723144,1378.971896,592.164754,8142.265362
1027.723463,1149.143247,-296.082377,9104.533087
1027.723782,-229.828649,-1258.350101,9844.739029
1027.724101,-536.266849,-962.267725,9622.677246
1027.724420,-229.828649,-1258.350101,9770.718434
1027.724738,-153.219100,-1702.473667,11177.109724
1027.725057,-612.876398,-2516.700203,11991.336260
1027.725376,153.219100,-1110.308913,11177.109724
1027.725695,842.705048,518.144159,9918.759623
1027.726014,1762.019645,1480.411884,9474.636058
1027.726333,1838.629195,1628.453072,9400.615463
1027.726652,2528.115143,1776.494261,8586.388927
1027.726971,2834.553343,2368.659014,7179.997637
1027.727290,2834.553343,1850.514855,7624.121203
1027.727609,2987.772442,370.102971,8142.265362
1027.727928,2757.943793,222.061783,8290.306550
1027.728247,2145.067394,592.164754,8512.368333
1027.728566,1149.143247,814.226536,8142.265362
1027.728885,76.609550,148.041188,8882.471304
1027.729203,-612.876398,-444.123565,9400.615463
1027.729522,-1149.143247,-74.020594,9400.615463
1027.729841,-1378.971896,-0.000000,9474.636058
1027.730160,-1225.752797,-962.267725,9992.780217
1027.730479,-1532.190996,-1184.329507,10510.924376
1027.730798,-1149.143247,-666.185348,10510.924376
1027.731117,-459.657299,740.205942,9104.533087
1027.731436,0.000000,1332.370696,9252.574275
1027.731755,536.266849,1998.556043,8956.491898
1027.732074,536.266849,2590.720797,7328.038826
1027.732393,1762.019645,3552.988522,7624.121203
1027.732712,1838.629195,3108.864956,7698.141797
1027.733031,1838.629195,1554.432478,8512.368333
1027.733350,1378.971896,1332.370696,8808.450710
1027.733669,995.924147,1036.288319,8512.368333
1027.733987,-229.828649,296.082377,8956.491898
1027.734306,-1455.581446,-962.267725,9918.759623
1027.734625,-1762.019645,-1480.411884,11103.089130
1027.734944,-1838.629195,-1110.308913,9992.780217
1027.735263,-1072.533697,-888.247130,10066.800811
1027.735582,-1378.971896,-1998.556043,11843.295072
1027.735901,-1072.533697,-2294.638420,11917.315666
1027.736220,-766.095498,-1110.308913,10584.944971
1027.736539,536.266849,666.185348,9474.636058
1027.736858,766.095498,518.144159,9770.718434
1027.737177,1225.752797,888.247130,9474.636058
1027.737496,1991.848295,1850.514855,8216.285956
1027.737815,2987.772442,2072.576638,7772.162391
1027.738134,3524.039291,1036.288319,8438.347739
1027.738453,3064.381992,-370.102971,9252.574275
1027.738771,2834.553343,592.164754,8586.388927
1027.739090,2451.505594,1110.308913,8216.285956
1027.739409,1532.190996,370.102971,9326.594869
1027.739728,229.828649,-592.164754,10066.800811
1027.740047,-612.876398,-592.164754,9548.656652
1027.740366,-459.657299,666.185348,9474.636058
1027.740685,-1149.143247,-592.164754,10584.944971
1027.741004,-1378.971896,-1628.453072,11251.130318
1027.741323,-1378.971896,-1554.432478,11029.068536
1027.741642,-842.705048,-0.000000,9918.759623
1027.741961,-306.438199,666.185348,9326.594869
1027.742280,306.438199,518.144159,9400.615463
1027.742599,1532.190996,962.267725,8956.491898
1027.742918,1225.752797,2072.576638,7476.080014
1027.743237,1762.019645,2368.659014,6809.894666
1027.743555,2068.457845,1036.288319,7846.182985
1027.743874,2298.286494,666.185348,8364.327145
1027.744193,1838.629195,962.267725,7476.080014
1027.744512,1532.190996,1628.453072,7254.018232
1027.744831,383.047749,370.102971,8364.327145
1027.745150,-383.047749,-296.082377,8734.430116
1027.745469,-1378.971896,-74.020594,8290.306550
1027.745788,-1685.410096,-0.000000,8734.430116
1027.746107,-1991.848295,-296.082377,9992.780217
1027.746426,-2374.896044,-888.247130,10732.986159
1027.746745,-1762.019645,-222.061783,10807.006753
1027.747064,-1225.752797,962.267725,9770.718434
1027.747383,-459.657299,1480.411884,9844.739029
1027.747702,0.000000,888.247130,9474.636058
1027.748020,766.095498,1258.350101,8586.388927
1027.748339,1915.238745,2072.576638,7846.182985
1027.748658,2604.724693,2294.638420,7846.182985
1027.748977,2451.505594,1036.288319,8660.409521
1027.749296,2834.553343,888.247130,8512.368333
1027.749615,3294.210641,2294.638420,7550.100608
1027.749934,2834.553343,1406.391290,7476.080014
1027.750253,1685.410096,-740.205942,9474.636058
1027.750572,842.705048,-1480.411884,10436.903782
1027.750891,0.000000,-592.164754,9178.553681
1027.751210,-153.219100,-740.205942,9474.636058
1027.751529,-842.705048,-1924.535449,11695.253884
1027.751848,-689.485948,-3108.864956,12953.603985
1027.752167,-995.924147,-1998.556043,11547.212695
1027.752486,-383.047749,-148.041188,10140.821405
1027.752804,0.000000,592.164754,10288.862594
1027.753123,689.485948,962.267725,9918.759623
1027.753442,919.314598,1554.432478,8512.368333
1027.753761,1378.971896,2072.576638,7994.224174
1027.754080,2298.286494,1332.370696,8364.327145
1027.754399,2221.676944,148.041188,8734.430116
1027.754718,2681.334243,-74.020594,8290.306550
1027.755037,2068.457845,1258.350101,7846.182985
1027.755356,1378.971896,666.185348,8364.327145
1027.755675,306.438199,-444.123565,9400.615463
1027.755994,-459.657299,-518.144159,9400.615463
1027.756313,-1149.143247,148.041188,9474.636058
1027.756632,-1685.410096,592.164754,10362.883188
1027.756951,-1302.362347,-296.082377,10881.027347
1027.757270,-1685.410096,-592.164754,11399.171507
1027.757588,-995.924147,962.267725,10436.903782
1027.757907,536.266849,1480.411884,9548.656652
1027.758226,229.828649,1332.370696,9030.512492
1027.758545,995.924147,1628.453072,8808.450710
1027.758864,1991.848295,2590.720797,7476.080014
1027.759183,2451.505594,3034.844362,6735.874072
1027.759502,3600.648841,1554.432478,8586.388927
1027.759821,2834.553343,296.082377,9104.533087
1027.760140,2145.067394,666.185348,8364.327145
1027.760459,1915.238745,666.185348,7476.080014
1027.760778,612.876398,296.082377,8290.306550
1027.761097,-306.438199,-1258.350101,9770.718434
1027.761416,-1532.190996,-1554.432478,9326.594869
1027.761735,-2298.286494,-666.185348,9548.656652
1027.762053,-1915.238745,-1702.473667,11029.068536
1027.762372,-2451.505594,-2072.576638,12435.459826
1027.762691,-1991.848295,-1850.514855,12657.521608
1027.763010,-1225.752797,-0.000000,10732.986159
1027.763329,0.000000,1554.432478,9770.718434
1027.763648,229.828649,814.226536,9770.718434
1027.763967,1762.019645,1036.288319,9474.636058
1027.764286,2298.286494,2146.597232,7476.080014
1027.764605,2911.162892,2072.576638,7031.956449
1027.764924,2834.553343,592.164754,8142.265362
1027.765243,2528.115143,222.061783,8438.347739
1027.765562,2757.943793,518.144159,7179.997637
1027.765881,1608.800546,1258.350101,7254.018232
1027.766200,612.876398,-370.102971,8956.491898
1027.766519,-919.314598,-962.267725,9178.553681
1027.766837,-842.705048,-592.164754,9178.553681
1027.767156,-1838.629195,-814.226536,9770.718434
1027.767475,-2451.505594,-1628.453072,11399.171507
1027.767794,-2451.505594,-2590.720797,11843.295072
1027.768113,-1685.410096,-1110.308913,11399.171507
1027.768432,-766.095498,814.226536,10584.944971
1027.768751,153.219100,1110.308913,9696.697840
1027.769070,689.485948,1554.432478,8956.491898
1027.769389,1762.019645,2368.659014,7698.141797
1027.769708,2374.896044,3256.906145,6439.791695
1027.770027,3064.381992,2442.679609,6735.874072
1027.770346,3064.381992,1184.329507,8142.265362
1027.770665,2604.724693,592.164754,8364.327145
1027.770984,2298.286494,1258.350101,7698.141797
1027.771303,1455.581446,888.247130,8290.306550
1027.771621,383.047749,-666.185348,9696.697840
1027.771940,-842.705048,-1406.391290,9474.636058
1027.772259,-1532.190996,-962.267725,9474.636058
1027.772578,-1685.410096,-888.247130,9918.759623
1027.772897,-995.924147,-1628.453072,11177.109724
1027.773216,-1685.410096,-1628.453072,11621.233289
1027.773535,-1149.143247,-0.000000,10436.903782
1027.773854,-689.485948,962.267725,9548.656652
1027.774173,153.219100,1110.308913,9474.636058
1027.774492,1149.143247,1184.329507,8956.491898
1027.774811,1762.019645,2294.638420,7698.141797
1027.775130,2451.505594,3182.885551,7328.038826
1027.775449,3294.210641,1924.535449,8438.347739
1027.775768,3294.210641,1258.350101,9030.512492
1027.776086,2834.553343,1332.370696,8216.285956
1027.776405,2528.115143,2294.638420,7846.182985
1027.776724,1685.410096,1332.370696,8586.388927
1027.777043,459.657299,-0.000000,9696.697840
1027.777363,-689.485948,-222.061783,9696.697840
1027.777682,-1225.752797,-148.041188,9696.697840
1027.778001,-1225.752797,-666.185348,10658.965565
1027.778320,-1838.629195,-2072.576638,11695.253884
1027.778639,-1838.629195,-1406.391290,11621.233289
1027.778958,-766.095498,518.144159,10584.944971
1027.779277,-383.047749,1258.350101,9770.718434
1027.779596,0.000000,740.205942,9992.780217
1027.779915,842.705048,1480.411884,9252.574275
1027.780234,1532.190996,1702.473667,8364.327145
1027.780553,1762.019645,1258.350101,8290.306550
1027.780872,2528.115143,370.102971,9030.512492
1027.781191,2374.896044,-0.000000,9104.533087
1027.781510,2681.334243,740.205942,8660.409521
1027.781829,2298.286494,1184.329507,8290.306550
1027.782148,1455.581446,592.164754,8660.409521
1027.782467,306.438199,-0.000000,9178.553681
1027.782786,153.219100,296.082377,8882.471304
1027.783105,-689.485948,-0.000000,8734.430116
1027.783424,-995.924147,-1258.350101,10288.862594
1027.783743,-1532.190996,-2664.741391,11695.253884
1027.784062,-1762.019645,-2368.659014,11547.212695
1027.784381,-1149.143247,-296.082377,10732.986159
1027.784700,-383.047749,1110.308913,10066.800811
1027.785019,0.000000,666.185348,10066.800811
1027.785338,766.095498,1480.411884,8364.327145
1027.785657,1455.581446,2590.720797,7105.977043
1027.785976,2528.115143,2442.679609,7328.038826
1027.786295,2604.724693,1110.308913,7846.182985
1027.786614,2528.115143,444.123565,8438.347739
1027.786933,2374.896044,962.267725,7846.182985
1027.787252,2145.067394,1036.288319,7698.141797
1027.787571,1455.581446,-518.144159,8290.306550
1027.787890,0.000000,-1258.350101,9326.594869
1027.788209,0.000000,-444.123565,8586.388927
1027.788528,-612.876398,-444.123565,9178.553681
1027.788847,-612.876398,-1184.329507,10362.883188
1027.789165,-1225.752797,-2072.576638,11547.212695
1027.789484,-919.314598,-444.123565,11177.109724
1027.789803,-842.705048,888.247130,9770.718434
1027.790122,-229.828649,1258.350101,9622.677246
1027.790441,0.000000,666.185348,9548.656652
1027.790760,459.657299,1480.411884,8734.430116
1027.791079,919.314598,1998.556043,7698.141797
1027.791398,1685.410096,1480.411884,7920.203579
1027.791717,1762.019645,-0.000000,8586.388927
1027.792036,1762.019645,148.041188,8660.409521
1027.792355,1991.848295,1036.288319,7920.203579
1027.792674,536.266849,444.123565,7994.224174
1027.792993,76.609550,-1110.308913,9474.636058
1027.793312,-1302.362347,-1110.308913,8808.450710
1027.793631,-1762.019645,-370.102971,8586.388927
1027.793950,-1455.581446,-1554.432478,9844.739029
1027.794269,-1991.848295,-1924.535449,11399.171507
1027.794588,-1455.581446,-1554.432478,11843.295072
1027.794907,-1072.533697,-0.000000,10436.903782
1027.795226,-766.095498,1702.473667,9696.697840
1027.795545,306.438199,1258.350101,10658.965565
1027.795864,1225.752797,1702.473667,9696.697840
1027.796183,1608.800546,3034.844362,7254.018232
1027.796502,2681.334243,3182.885551,6883.915261
1027.796821,2681.334243,2664.741391,7846.182985
1027.797140,3753.867940,2294.638420,8512.368333
1027.797459,2757.943793,2294.638420,7402.059420
1027.797778,2451.505594,2442.679609,7179.997637
1027.798097,1838.629195,1110.308913,8216.285956
1027.798416,153.219100,-444.123565,9252.574275
1027.798735,-1302.362347,-0.000000,9474.636058
1027.799054,-2145.067394,-0.000000,10140.821405
1027.799373,-2911.162892,-518.144159,10955.047942
1027.799692,-2451.505594,-2516.700203,11843.295072
1027.800011,-2834.553343,-2442.679609,12435.459826
1027.800330,-2298.286494,-740.205942,11621.233289
1027.800649,-995.924147,1554.432478,9474.636058
1027.800968,76.609550,1702.473667,9844.739029
1027.801287,383.047749,1184.329507,9474.636058
1027.801606,1532.190996,1776.494261,8734.430116
1027.801925,2221.676944,1924.535449,7328.038826
1027.802244,2451.505594,1036.288319,8438.347739
1027.802563,2374.896044,-0.000000,9178.553681
1027.802882,2068.457845,1406.391290,8438.347739
1027.803201,1991.848295,1924.535449,7772.162391
1027.803520,1072.533697,740.205942,8956.491898
1027.803839,76.609550,-814.226536,9992.780217
1027.804158,-1072.533697,-888.247130,9844.739029
1027.804477,-842.705048,-1406.391290,9992.780217
1027.804796,-2145.067394,-2590.720797,11769.274478
1027.805115,-2145.067394,-3627.009116,12731.542202
1027.805434,-2221.676944,-2886.803174,12287.418637
1027.805753,-995.924147,-222.061783,10807.006753
1027.806072,383.047749,888.247130,9844.739029
1027.806391,1378.971896,1110.308913,9474.636058
1027.806710,2604.724693,1628.453072,8290.306550
1027.807029,3830.477490,2886.803174,6587.832884
1027.807348,4519.963438,3108.864956,5847.626942
1027.807667,4366.744339,888.247130,7105.977043
1027.807986,3907.087040,592.164754,8068.244768
1027.808305,3600.648841,1184.329507,6883.915261
1027.808624,2681.334243,1628.453072,7179.997637
1027.808943,1608.800546,518.144159,8586.388927
1027.809262,0.000000,-444.123565,8808.450710
1027.809581,-842.705048,-814.226536,9178.553681
1027.809900,-1685.410096,-814.226536,9844.739029
1027.810219,-2451.505594,-1480.411884,11103.089130
1027.810538,-2451.505594,-1850.514855,11547.212695
1027.810857,-1991.848295,-74.020594,10436.903782
1027.811176,-1225.752797,1258.350101,9104.533087
1027.811495,-459.657299,2072.576638,8216.285956
1027.811814,0.000000,1406.391290,7994.224174
1027.812133,766.095498,1850.514855,7328.038826
1027.812452,1838.629195,2368.659014,6513.812290
1027.812771,2145.067394,1554.432478,6809.894666
