#time,accel_x,accel_y,accel_z
1410.170717,1838.629195,-2294.638420,7550.100608
1410.171034,1915.238745,-1332.370696,5921.647536
1410.171351,1991.848295,-740.205942,5551.544565
1410.171668,1915.238745,-518.144159,4737.318029
1410.171986,1455.581446,-444.123565,4071.132681
1410.172303,1225.752797,-296.082377,4441.235652
1410.172620,689.485948,-814.226536,5773.606348
1410.172937,0.000000,-1258.350101,6957.935855
1410.173255,-995.924147,-1184.329507,8216.285956
1410.173572,-1302.362347,-814.226536,8808.450710
1410.173889,-1685.410096,-0.000000,9030.512492
1410.174206,-995.924147,740.205942,8290.306550
1410.174524,-689.485948,888.247130,8068.244768
1410.174841,-306.438199,1110.308913,7698.141797
1410.175158,-383.047749,370.102971,7624.121203
1410.175475,-612.876398,-222.061783,8216.285956
1410.175793,-995.924147,-592.164754,9400.615463
1410.176110,-1455.581446,-1110.308913,10436.903782
1410.176427,-2221.676944,-888.247130,11103.089130
1410.176744,-1378.971896,-148.041188,11547.212695
1410.177062,-766.095498,296.082377,11843.295072
1410.177379,-689.485948,814.226536,11103.089130
1410.177696,-229.828649,1184.329507,10881.027347
1410.178013,689.485948,666.185348,10584.944971
1410.178331,1991.848295,296.082377,10881.027347
1410.178648,995.924147,-444.123565,11917.315666
1410.178965,612.876398,-592.164754,12361.439231
1410.179282,306.438199,296.082377,12435.459826
1410.179600,306.438199,740.205942,12731.542202
1410.179917,995.924147,1554.432478,13027.624579
1410.180234,383.047749,2368.659014,12065.356855
1410.180551,919.314598,3478.967927,10510.924376
1410.180869,842.705048,2886.803174,10510.924376
1410.181186,1149.143247,2442.679609,10510.924376
1410.181503,1608.800546,2368.659014,10436.903782
1410.181820,1302.362347,1998.556043,10140.821405
1410.182138,919.314598,1184.329507,10584.944971
1410.182455,766.095498,1258.350101,10881.027347
1410.182772,919.314598,2294.638420,10436.903782
1410.183089,919.314598,3108.864956,9918.759623
1410.183406,0.000000,3034.844362,9474.636058
1410.183724,-612.876398,2664.741391,9844.739029
1410.184041,0.000000,2664.741391,9252.574275
1410.184358,-229.828649,2294.638420,9474.636058
1410.184675,-153.219100,1702.473667,9770.718434
1410.184993,76.609550,1036.288319,9770.718434
1410.185310,306.438199,814.226536,9844.739029
1410.185627,689.485948,592.164754,9918.759623
1410.185944,995.924147,666.185348,9992.780217
1410.186262,995.924147,666.185348,9844.739029
1410.186579,536.266849,444.123565,9622.677246
1410.186896,459.657299,518.144159,9474.636058
1410.187213,689.485948,-0.000000,9770.718434
1410.187531,842.705048,-666.185348,9918.759623
1410.187848,842.705048,-1036.288319,9548.656652
1410.188165,1072.533697,-1406.391290,9548.656652
1410.188482,1455.581446,-1554.432478,9770.718434
1410.188800,1762.019645,-2294.638420,9770.718434
1410.189117,1685.410096,-2072.576638,9844.739029
1410.189434,1455.581446,-1628.453072,9844.739029
1410.189751,1149.143247,-1702.473667,9548.656652
1410.190069,842.705048,-2072.576638,9844.739029
1410.190386,919.314598,-1776.494261,10066.800811
1410.190703,1225.752797,-1554.432478,9622.677246
1410.191020,1072.533697,-1258.350101,9474.636058
1410.191338,1378.971896,-1480.411884,9252.574275
1410.191655,1455.581446,-1480.411884,8882.471304
1410.191972,1762.019645,-1702.473667,8438.347739
1410.192289,1608.800546,-1850.514855,8216.285956
1410.192607,1149.143247,-1776.494261,7772.162391
1410.192924,1072.533697,-1776.494261,7846.182985
1410.193241,766.095498,-1850.514855,7698.141797
1410.193558,306.438199,-2072.576638,7994.224174
1410.193876,0.000000,-1998.556043,7772.162391
1410.194193,-612.876398,-1924.535449,7772.162391
1410.194510,-1072.533697,-1924.535449,7698.141797
1410.194827,-766.095498,-1924.535449,7772.162391
1410.195145,-995.924147,-2294.638420,7994.224174
1410.195462,-1149.143247,-2220.617826,8216.285956
1410.195779,-689.485948,-1924.535449,7920.203579
1410.196096,-1149.143247,-1850.514855,8216.285956
1410.196414,-459.657299,-1628.453072,8364.327145
1410.196731,-536.266849,-1184.329507,8216.285956
1410.197048,-459.657299,-740.205942,8438.347739
1410.197365,-229.828649,-518.144159,8216.285956
1410.197682,0.000000,-518.144159,8216.285956
1410.198000,76.609550,-296.082377,8438.347739
1410.198317,459.657299,-740.205942,8364.327145
1410.198634,153.219100,-1110.308913,8956.491898
1410.198951,306.438199,-1036.288319,9104.533087
1410.199269,383.047749,-1110.308913,9474.636058
1410.199586,383.047749,-740.205942,9770.718434
1410.199903,459.657299,-740.205942,9918.759623
1410.200220,766.095498,-518.144159,9992.780217
1410.200538,536.266849,-0.000000,9992.780217
1410.200855,459.657299,592.164754,10066.800811
1410.201173,842.705048,814.226536,9992.780217
1410.201491,842.705048,666.185348,10066.800811
1410.201808,1225.752797,592.164754,10140.821405
1410.202126,919.314598,518.144159,10288.862594
1410.202443,1378.971896,814.226536,9992.780217
1410.202761,612.876398,666.185348,10066.800811
1410.203078,919.314598,1036.288319,10436.903782
1410.203396,995.924147,1258.350101,10436.903782
1410.203713,383.047749,1184.329507,10214.842000
1410.204031,1302.362347,740.205942,9622.677246
1410.204348,612.876398,1258.350101,9844.739029
1410.204666,306.438199,1184.329507,9844.739029
1410.204983,153.219100,1184.329507,9770.718434
1410.205301,0.000000,1036.288319,10140.821405
1410.205618,-306.438199,962.267725,10584.944971
1410.205936,-612.876398,888.247130,10584.944971
1410.206253,-612.876398,962.267725,10584.944971
1410.206571,-306.438199,814.226536,10436.903782
1410.206888,153.219100,1036.288319,10584.944971
1410.207206,229.828649,740.205942,10362.883188
1410.207523,536.266849,888.247130,10066.800811
1410.207841,612.876398,740.205942,10140.821405
1410.208158,766.095498,962.267725,9844.739029
1410.208476,1455.581446,740.205942,10066.800811
1410.208794,995.924147,814.226536,9696.697840
1410.209111,689.485948,740.205942,9918.759623
1410.209429,1072.533697,666.185348,9918.759623
1410.209746,919.314598,592.164754,9918.759623
1410.210064,1378.971896,148.041188,9918.759623
1410.210381,1455.581446,222.061783,9770.718434
1410.210699,1762.019645,-296.082377,9622.677246
1410.211016,1532.190996,-148.041188,9474.636058
1410.211334,1608.800546,-148.041188,9400.615463
1410.211651,2451.505594,148.041188,9474.636058
1410.211969,1915.238745,444.123565,9326.594869
1410.212286,1685.410096,370.102971,9178.553681
1410.212604,1762.019645,148.041188,9030.512492
1410.212921,1685.410096,222.061783,9252.574275
1410.213239,1838.629195,-0.000000,8882.471304
1410.213556,1685.410096,-0.000000,8882.471304
1410.213874,1608.800546,-222.061783,8882.471304
1410.214191,1532.190996,-444.123565,8734.430116
1410.214509,1608.800546,-296.082377,8808.450710
1410.214826,1302.362347,-518.144159,8512.368333
1410.215144,1532.190996,-222.061783,8364.327145
1410.215461,919.314598,-370.102971,8586.388927
1410.215779,766.095498,-296.082377,8438.347739
1410.216096,919.314598,-296.082377,8364.327145
1410.216414,229.828649,-666.185348,8586.388927
1410.216732,0.000000,-518.144159,8512.368333
1410.217049,0.000000,-740.205942,8882.471304
1410.217367,76.609550,-814.226536,8882.471304
1410.217684,76.609550,-814.226536,8956.491898
1410.218002,0.000000,-740.205942,9030.512492
1410.218319,-229.828649,-666.185348,9104.533087
1410.218637,-153.219100,-444.123565,9252.574275
1410.218954,-612.876398,-666.185348,9252.574275
1410.219272,-306.438199,-592.164754,9622.677246
1410.219589,-459.657299,-370.102971,9548.656652
1410.219907,-76.609550,-666.185348,9696.697840
1410.220224,-153.219100,-814.226536,9474.636058
1410.220542,0.000000,-518.144159,9474.636058
1410.220859,229.828649,-666.185348,9696.697840
1410.221177,306.438199,-296.082377,9474.636058
1410.221494,612.876398,-370.102971,9696.697840
1410.221812,536.266849,-0.000000,9548.656652
1410.222129,842.705048,148.041188,9474.636058
1410.222447,766.095498,222.061783,9696.697840
1410.222764,766.095498,518.144159,9844.739029
1410.223082,842.705048,518.144159,9622.677246
1410.223399,995.924147,814.226536,9696.697840
1410.223717,1608.800546,740.205942,9548.656652
1410.224035,1608.800546,1036.288319,9400.615463
1410.224352,1532.190996,1332.370696,9326.594869
1410.224670,2068.457845,1628.453072,9474.636058
1410.224987,1915.238745,1702.473667,9104.533087
1410.225305,1762.019645,1628.453072,9178.553681
1410.225622,1762.019645,1850.514855,9474.636058
1410.225940,1608.800546,1702.473667,9474.636058
1410.226257,1455.581446,1850.514855,9474.636058
1410.226575,1225.752797,1850.514855,9474.636058
1410.226892,1455.581446,1850.514855,9474.636058
1410.227210,1302.362347,2220.617826,9548.656652
1410.227527,1378.971896,1628.453072,9252.574275
1410.227845,1225.752797,1776.494261,9400.615463
1410.228162,1072.533697,1406.391290,9474.636058
1410.228480,919.314598,1332.370696,9548.656652
1410.228797,766.095498,1628.453072,9696.697840
1410.229115,612.876398,1258.350101,9770.718434
1410.229432,536.266849,1406.391290,9992.780217
1410.229750,536.266849,888.247130,10066.800811
1410.230067,229.828649,962.267725,9918.759623
1410.230385,459.657299,1332.370696,9696.697840
1410.230702,0.000000,740.205942,9548.656652
1410.231020,0.000000,666.185348,9770.718434
1410.231338,306.438199,222.061783,9918.759623
1410.231655,306.438199,370.102971,9918.759623
1410.231973,383.047749,-0.000000,9770.718434
1410.232290,383.047749,370.102971,10140.821405
1410.232608,229.828649,-0.000000,9918.759623
1410.232925,536.266849,-0.000000,9474.636058
1410.233243,459.657299,296.082377,9326.594869
1410.233560,383.047749,518.144159,9252.574275
1410.233878,766.095498,148.041188,9178.553681
1410.234195,766.095498,296.082377,9474.636058
1410.234513,612.876398,222.061783,8586.388927
1410.234830,842.705048,-0.000000,8808.450710
1410.235148,842.705048,148.041188,8956.491898
1410.235465,766.095498,222.061783,8808.450710
1410.235783,919.314598,74.020594,8364.327145
1410.236100,766.095498,444.123565,8808.450710
1410.236418,919.314598,370.102971,8882.471304
1410.236735,995.924147,444.123565,8882.471304
1410.237053,1072.533697,148.041188,8734.430116
1410.237370,1532.190996,-0.000000,9030.512492
1410.237688,995.924147,-0.000000,8882.471304
1410.238005,1378.971896,-0.000000,9030.512492
1410.238323,1455.581446,-148.041188,9104.533087
1410.238640,1378.971896,-74.020594,9030.512492
1410.238958,1455.581446,-222.061783,9104.533087
1410.239276,1302.362347,-74.020594,9030.512492
1410.239593,1532.190996,-222.061783,9252.574275
1410.239911,1378.971896,-74.020594,9104.533087
1410.240228,1149.143247,-296.082377,9252.574275
1410.240546,1225.752797,-444.123565,9548.656652
1410.240863,1072.533697,-370.102971,9770.718434
1410.241181,919.314598,-296.082377,9770.718434
1410.241498,1072.533697,-148.041188,9918.759623
1410.241816,919.314598,-148.041188,9918.759623
1410.242133,689.485948,-148.041188,9844.739029
1410.242451,612.876398,-0.000000,9696.697840
1410.242768,689.485948,-0.000000,9844.739029
1410.243086,766.095498,222.061783,9844.739029
1410.243403,995.924147,444.123565,9622.677246
1410.243721,612.876398,296.082377,9622.677246
1410.244038,1302.362347,962.267725,9696.697840
1410.244356,612.876398,888.247130,9622.677246
1410.244673,842.705048,1036.288319,9622.677246
1410.244991,612.876398,888.247130,9696.697840
1410.245308,689.485948,1258.350101,9474.636058
1410.245626,1149.143247,1480.411884,9474.636058
1410.245943,1225.752797,1628.453072,9400.615463
1410.246261,1072.533697,1702.473667,9326.594869
1410.246579,1455.581446,1702.473667,9178.553681
1410.246896,1455.581446,1850.514855,9104.533087
1410.247214,1378.971896,1924.535449,9104.533087
1410.247531,1378.971896,1850.514855,9252.574275
1410.247849,1302.362347,1924.535449,9252.574275
1410.248166,1302.362347,1850.514855,9400.615463
1410.248484,995.924147,1998.556043,9178.553681
1410.248801,1149.143247,1850.514855,9252.574275
1410.249119,1072.533697,1702.473667,9326.594869
1410.249436,1608.800546,1850.514855,9326.594869
1410.249754,1378.971896,1480.411884,9474.636058
1410.250071,1455.581446,1702.473667,9548.656652
1410.250389,766.095498,1332.370696,9696.697840
1410.250706,1072.533697,1406.391290,9548.656652
1410.251024,919.314598,1332.370696,9696.697840
1410.251341,1072.533697,1258.350101,9770.718434
1410.251659,842.705048,1036.288319,9770.718434
1410.251976,459.657299,814.226536,9918.759623
1410.252294,536.266849,592.164754,9844.739029
1410.252611,153.219100,518.144159,10066.800811
1410.252929,76.609550,148.041188,9992.780217
1410.253246,383.047749,296.082377,9992.780217
1410.253564,0.000000,-148.041188,10140.821405
1410.253881,-306.438199,-74.020594,10140.821405
1410.254199,-229.828649,-962.267725,10140.821405
1410.254517,-306.438199,-444.123565,9622.677246
1410.254834,-229.828649,-148.041188,9696.697840
1410.255152,-229.828649,-370.102971,9622.677246
1410.255469,-306.438199,-296.082377,9696.697840
1410.255787,-536.266849,-888.247130,9622.677246
1410.256104,-306.438199,-888.247130,9548.656652
1410.256422,-229.828649,-666.185348,9178.553681
1410.256739,0.000000,-888.247130,9252.574275
1410.257057,-383.047749,-1036.288319,8956.491898
1410.257374,76.609550,-888.247130,9030.512492
1410.257692,306.438199,-814.226536,9104.533087
1410.258009,689.485948,-962.267725,8660.409521
1410.258327,612.876398,-1036.288319,8734.430116
1410.258644,842.705048,-1110.308913,8660.409521
1410.258962,766.095498,-962.267725,8734.430116
1410.259279,919.314598,-1258.350101,8882.471304
1410.259597,919.314598,-888.247130,9104.533087
1410.259914,1149.143247,-962.267725,8882.471304
1410.260232,1762.019645,-1184.329507,8734.430116
1410.260549,1302.362347,-1036.288319,8586.388927
1410.260867,1455.581446,-888.247130,8660.409521
1410.261184,1762.019645,-666.185348,8660.409521
1410.261502,1991.848295,-592.164754,8660.409521
1410.261820,2145.067394,-740.205942,8808.450710
1410.262137,1762.019645,-962.267725,8808.450710
1410.262455,2145.067394,-666.185348,9178.553681
1410.262772,2068.457845,-444.123565,8734.430116
1410.263090,1915.238745,-814.226536,9030.512492
1410.263407,1838.629195,-1258.350101,9178.553681
1410.263725,1762.019645,-592.164754,9178.553681
1410.264042,1762.019645,-444.123565,9104.533087
1410.264360,1762.019645,-370.102971,9252.574275
1410.264677,1685.410096,-296.082377,9178.553681
1410.264995,1302.362347,-222.061783,9252.574275
1410.265312,1302.362347,-74.020594,9474.636058
1410.265630,919.314598,-0.000000,9548.656652
1410.265947,1149.143247,296.082377,9548.656652
1410.266265,536.266849,-0.000000,9474.636058
1410.266582,689.485948,444.123565,9474.636058
1410.266900,766.095498,666.185348,9400.615463
1410.267217,612.876398,592.164754,9326.594869
1410.267535,459.657299,814.226536,9252.574275
1410.267852,459.657299,814.226536,9474.636058
1410.268170,0.000000,1258.350101,9474.636058
1410.268487,0.000000,1258.350101,9548.656652
1410.268805,0.000000,1258.350101,9326.594869
1410.269123,-536.266849,1258.350101,9622.677246
1410.269440,-306.438199,1406.391290,9696.697840
1410.269758,-306.438199,1110.308913,9622.677246
1410.270075,-153.219100,962.267725,9770.718434
1410.270393,-306.438199,1036.288319,9844.739029
1410.270710,-229.828649,962.267725,9918.759623
1410.271028,-383.047749,962.267725,9844.739029
1410.271345,-306.438199,1110.308913,10066.800811
1410.271663,0.000000,1110.308913,10066.800811
1410.271980,0.000000,592.164754,10140.821405
1410.272298,0.000000,814.226536,9992.780217
1410.272615,0.000000,740.205942,10288.862594
1410.272933,229.828649,888.247130,10214.842000
1410.273250,153.219100,592.164754,10362.883188
1410.273568,229.828649,518.144159,10288.862594
1410.273885,459.657299,296.082377,10510.924376
1410.274203,459.657299,-0.000000,10288.862594
1410.274520,612.876398,-0.000000,10436.903782
1410.274838,689.485948,-0.000000,10288.862594
1410.275155,536.266849,-0.000000,10140.821405
1410.275473,919.314598,-148.041188,9992.780217
1410.275790,995.924147,-0.000000,10214.842000
1410.276108,689.485948,-296.082377,9770.718434
1410.276425,842.705048,-222.061783,9918.759623
1410.276743,766.095498,-148.041188,9918.759623
1410.277061,689.485948,-296.082377,9696.697840
1410.277378,766.095498,-296.082377,9844.739029
1410.277696,766.095498,-444.123565,9622.677246
1410.278013,689.485948,-518.144159,9548.656652
1410.278331,1072.533697,-740.205942,9474.636058
1410.278648,766.095498,-518.144159,9252.574275
1410.278966,612.876398,-740.205942,9178.553681
1410.279283,536.266849,-518.144159,8956.491898
1410.279601,536.266849,-518.144159,8882.471304
1410.279918,1072.533697,-592.164754,8956.491898
1410.280236,612.876398,-740.205942,8660.409521
1410.280553,536.266849,-592.164754,8512.368333
1410.280871,459.657299,-444.123565,8586.388927
1410.281188,536.266849,-666.185348,8586.388927
1410.281506,383.047749,-740.205942,8364.327145
1410.281823,612.876398,-740.205942,8216.285956
1410.282141,689.485948,-962.267725,8216.285956
1410.282458,919.314598,-740.205942,8512.368333
1410.282776,995.924147,-592.164754,8512.368333
1410.283093,459.657299,-666.185348,8586.388927
1410.283411,919.314598,-814.226536,8290.306550
1410.283728,919.314598,-518.144159,8364.327145
1410.284046,995.924147,-518.144159,8512.368333
1410.284364,842.705048,-444.123565,8512.368333
1410.284681,1149.143247,-740.205942,8808.450710
1410.284999,1072.533697,-370.102971,8512.368333
1410.285316,842.705048,-444.123565,8734.430116
1410.285634,766.095498,-444.123565,8660.409521
1410.285951,995.924147,-296.082377,8734.430116
1410.286269,766.095498,-296.082377,8882.471304
1410.286586,919.314598,-74.020594,8956.491898
1410.286904,536.266849,-0.000000,9178.553681
1410.287221,842.705048,-0.000000,9030.512492
1410.287539,1225.752797,-74.020594,9400.615463
1410.287856,0.000000,-148.041188,9252.574275
1410.288174,383.047749,-0.000000,9474.636058
1410.288491,536.266849,222.061783,9474.636058
1410.288809,383.047749,296.082377,9548.656652
1410.289126,459.657299,222.061783,9548.656652
1410.289444,383.047749,296.082377,9844.739029
1410.289761,536.266849,592.164754,9696.697840
1410.290079,153.219100,592.164754,9844.739029
1410.290396,459.657299,370.102971,9696.697840
1410.290714,536.266849,592.164754,9622.677246
1410.291031,536.266849,444.123565,9844.739029
1410.291349,689.485948,814.226536,9918.759623
1410.291666,459.657299,666.185348,9992.780217
1410.291984,612.876398,592.164754,9992.780217
1410.292302,842.705048,1036.288319,10436.903782
1410.292619,306.438199,740.205942,10066.800811
1410.292937,306.438199,666.185348,10140.821405
1410.293254,459.657299,888.247130,10066.800811
1410.293572,459.657299,888.247130,10140.821405
1410.293889,766.095498,962.267725,10288.862594
1410.294207,689.485948,962.267725,10066.800811
1410.294524,766.095498,814.226536,10288.862594
1410.294842,689.485948,962.267725,10214.842000
1410.295159,842.705048,740.205942,10214.842000
1410.295477,919.314598,592.164754,10214.842000
1410.295794,1072.533697,888.247130,10140.821405
1410.296112,1149.143247,962.267725,9992.780217
1410.296429,1378.971896,888.247130,10140.821405
1410.296747,1378.971896,666.185348,9992.780217
1410.297064,995.924147,740.205942,9992.780217
1410.297382,1608.800546,1036.288319,9696.697840
1410.297699,1149.143247,444.123565,9844.739029
1410.298017,1378.971896,592.164754,9622.677246
1410.298334,1608.800546,370.102971,9474.636058
1410.298652,1149.143247,518.144159,9548.656652
1410.298969,1225.752797,518.144159,9548.656652
1410.299287,1149.143247,444.123565,9474.636058
1410.299605,919.314598,296.082377,9178.553681
1410.299922,1072.533697,370.102971,9104.533087
1410.300240,1072.533697,518.144159,9104.533087
1410.300557,919.314598,370.102971,9178.553681
1410.300875,1149.143247,370.102971,8882.471304
1410.301192,919.314598,518.144159,9104.533087
1410.301510,766.095498,148.041188,9252.574275
1410.301827,919.314598,370.102971,8660.409521
1410.302145,919.314598,370.102971,8660.409521
1410.302462,842.705048,370.102971,8586.388927
1410.302780,689.485948,148.041188,8660.409521
1410.303097,689.485948,296.082377,8956.491898
1410.303414,229.828649,-0.000000,8364.327145
1410.303732,306.438199,148.041188,8734.430116
1410.304049,383.047749,148.041188,8734.430116
1410.304367,689.485948,296.082377,8882.471304
1410.304684,612.876398,148.041188,9104.533087
1410.305002,76.609550,-74.020594,8882.471304
1410.305319,0.000000,-0.000000,8734.430116
1410.305637,153.219100,-148.041188,8734.430116
1410.305954,76.609550,-0.000000,8882.471304
1410.306271,229.828649,-74.020594,9104.533087
1410.306589,0.000000,-148.041188,8882.471304
1410.306906,76.609550,-222.061783,9030.512492
1410.307224,0.000000,-0.000000,9104.533087
1410.307541,306.438199,-74.020594,9104.533087
1410.307859,0.000000,-296.082377,9326.594869
1410.308176,383.047749,-222.061783,9104.533087
1410.308494,229.828649,-222.061783,9178.553681
1410.308811,306.438199,-0.000000,9474.636058
1410.309128,459.657299,-74.020594,9474.636058
1410.309446,612.876398,-74.020594,9622.677246
1410.309763,842.705048,-0.000000,9474.636058
1410.310081,919.314598,-0.000000,9622.677246
1410.310398,919.314598,-0.000000,9622.677246
1410.310716,842.705048,-0.000000,9474.636058
1410.311033,919.314598,222.061783,9548.656652
1410.311351,1072.533697,370.102971,9548.656652
1410.311668,1072.533697,444.123565,9696.697840
1410.311985,1072.533697,444.123565,9548.656652
1410.312303,689.485948,518.144159,9992.780217
1410.312620,1302.362347,444.123565,9696.697840
1410.312938,1072.533697,740.205942,10066.800811
1410.313255,1072.533697,814.226536,9770.718434
1410.313573,1302.362347,592.164754,9622.677246
1410.313890,1225.752797,740.205942,9622.677246
1410.314208,1302.362347,888.247130,9696.697840
1410.314525,1149.143247,740.205942,9770.718434
1410.314843,1072.533697,962.267725,9918.759623
1410.315160,1378.971896,1110.308913,10140.821405
1410.315477,1149.143247,888.247130,9918.759623
1410.315795,1455.581446,1036.288319,9992.780217
1410.316112,919.314598,814.226536,9770.718434
1410.316430,1072.533697,666.185348,9622.677246
1410.316747,1225.752797,1258.350101,9770.718434
1410.317065,1378.971896,1110.308913,9622.677246
1410.317382,1149.143247,1110.308913,9474.636058
1410.317700,1072.533697,1110.308913,9622.677246
1410.318017,1149.143247,1036.288319,9548.656652
1410.318334,1225.752797,962.267725,9770.718434
1410.318652,995.924147,1036.288319,9474.636058
1410.318969,1149.143247,1110.308913,9474.636058
1410.319287,995.924147,1036.288319,9400.615463
1410.319604,1378.971896,1258.350101,9326.594869
1410.319922,1302.362347,1258.350101,9548.656652
1410.320239,1149.143247,1184.329507,9474.636058
1410.320557,995.924147,1036.288319,9326.594869
1410.320874,1072.533697,962.267725,9252.574275
1410.321191,766.095498,518.144159,9252.574275
1410.321509,1072.533697,1036.288319,9474.636058
1410.321826,766.095498,888.247130,9252.574275
1410.322144,842.705048,740.205942,9252.574275
1410.322461,766.095498,888.247130,9474.636058
1410.322779,842.705048,592.164754,9252.574275
1410.323096,1072.533697,666.185348,9252.574275
1410.323414,612.876398,444.123565,9400.615463
1410.323731,689.485948,592.164754,9400.615463
1410.324048,536.266849,296.082377,9326.594869
1410.324366,1302.362347,-0.000000,9104.533087
1410.324683,766.095498,296.082377,9400.615463
1410.325001,689.485948,296.082377,9252.574275
1410.325318,689.485948,370.102971,9474.636058
1410.325636,229.828649,148.041188,9252.574275
1410.325953,306.438199,148.041188,9548.656652
1410.326271,459.657299,-74.020594,9474.636058
1410.326588,1072.533697,-74.020594,9252.574275
1410.326906,689.485948,-222.061783,9474.636058
1410.327223,459.657299,-148.041188,9474.636058
1410.327540,536.266849,-222.061783,9326.594869
1410.327858,766.095498,-148.041188,9474.636058
1410.328175,689.485948,-74.020594,9474.636058
1410.328493,766.095498,-74.020594,9326.594869
1410.328810,1149.143247,-222.061783,9400.615463
1410.329128,919.314598,-74.020594,9400.615463
1410.329445,842.705048,-148.041188,9474.636058
1410.329763,842.705048,-296.082377,9474.636058
1410.330080,612.876398,-222.061783,9400.615463
1410.330397,766.095498,-222.061783,9548.656652
1410.330715,842.705048,-148.041188,9400.615463
1410.331032,842.705048,-148.041188,9400.615463
1410.331350,689.485948,-148.041188,9474.636058
1410.331667,689.485948,-148.041188,9326.594869
1410.331985,842.705048,-0.000000,9474.636058
1410.332302,995.924147,-0.000000,9474.636058
1410.332620,1072.533697,-74.020594,9104.533087
1410.332937,842.705048,-0.000000,9474.636058
1410.333254,1149.143247,148.041188,9400.615463
1410.333572,1302.362347,-0.000000,9474.636058
1410.333889,1225.752797,370.102971,9474.636058
1410.334207,1225.752797,222.061783,9474.636058
1410.334524,1149.143247,148.041188,9400.615463
1410.334842,1225.752797,-0.000000,9400.615463
1410.335159,1225.752797,370.102971,9474.636058
1410.335477,1302.362347,-0.000000,9326.594869
1410.335794,766.095498,-0.000000,9400.615463
1410.336112,919.314598,592.164754,9474.636058
1410.336429,689.485948,370.102971,9474.636058
1410.336746,689.485948,296.082377,9474.636058
1410.337064,766.095498,370.102971,9474.636058
1410.337381,612.876398,444.123565,9474.636058
1410.337699,689.485948,370.102971,9548.656652
1410.338016,689.485948,444.123565,9474.636058
1410.338334,383.047749,296.082377,9844.739029
1410.338651,383.047749,518.144159,9622.677246
1410.338969,76.609550,370.102971,9622.677246
1410.339286,306.438199,518.144159,9622.677246
1410.339603,689.485948,370.102971,9548.656652
1410.339921,306.438199,518.144159,9474.636058
1410.340238,306.438199,370.102971,9474.636058
1410.340556,306.438199,296.082377,9474.636058
1410.340873,459.657299,296.082377,9326.594869
1410.341191,-306.438199,370.102971,9696.697840
1410.341508,383.047749,222.061783,9474.636058
1410.341826,306.438199,-0.000000,9474.636058
1410.342143,0.000000,222.061783,9548.656652
1410.342460,459.657299,-0.000000,9474.636058
1410.342778,306.438199,-0.000000,9474.636058
1410.343095,306.438199,222.061783,9474.636058
1410.343413,229.828649,296.082377,9400.615463
1410.343730,306.438199,-0.000000,9326.594869
1410.344048,0.000000,-296.082377,9622.677246
1410.344365,383.047749,-222.061783,9400.615463
1410.344683,153.219100,-0.000000,9474.636058
1410.345000,536.266849,-148.041188,9622.677246
1410.345317,689.485948,-592.164754,9474.636058
1410.345635,536.266849,-74.020594,9474.636058
1410.345952,689.485948,-74.020594,9326.594869
1410.346270,689.485948,-74.020594,9400.615463
1410.346587,766.095498,-296.082377,9178.553681
1410.346905,995.924147,-148.041188,9400.615463
1410.347222,1072.533697,-222.061783,9474.636058
1410.347540,995.924147,-370.102971,9474.636058
1410.347857,766.095498,-444.123565,9400.615463
1410.348175,689.485948,-370.102971,9548.656652
1410.348492,1072.533697,-296.082377,9622.677246
1410.348809,995.924147,-518.144159,9400.615463
1410.349127,1225.752797,-222.061783,9326.594869
1410.349444,1072.533697,-222.061783,9326.594869
1410.349762,1302.362347,-370.102971,9400.615463
1410.350079,1072.533697,-148.041188,8956.491898
1410.350397,1225.752797,-444.123565,9400.615463
1410.350714,1149.143247,-296.082377,9474.636058
1410.351032,1225.752797,-148.041188,9474.636058
1410.351349,1532.190996,-74.020594,9326.594869
1410.351666,1378.971896,-0.000000,9474.636058
1410.351984,995.924147,-0.000000,9326.594869
1410.352301,1072.533697,-0.000000,9400.615463
1410.352619,1225.752797,-0.000000,9104.533087
1410.352936,1072.533697,-0.000000,9178.553681
1410.353254,1302.362347,148.041188,9030.512492
1410.353571,1302.362347,222.061783,9252.574275
1410.353889,1225.752797,-0.000000,9326.594869
1410.354206,995.924147,296.082377,9178.553681
1410.354523,1225.752797,148.041188,9400.615463
1410.354841,919.314598,370.102971,9474.636058
1410.355158,919.314598,666.185348,8882.471304
1410.355476,995.924147,518.144159,9178.553681
1410.355793,919.314598,444.123565,9178.553681
1410.356111,689.485948,370.102971,9178.553681
1410.356428,689.485948,518.144159,9326.594869
1410.356746,689.485948,370.102971,9474.636058
1410.357063,459.657299,370.102971,9474.636058
1410.357380,383.047749,370.102971,9326.594869
1410.357698,459.657299,370.102971,9326.594869
1410.358015,153.219100,370.102971,9622.677246
1410.358333,689.485948,370.102971,9474.636058
1410.358650,306.438199,148.041188,9548.656652
1410.358968,459.657299,370.102971,9622.677246
1410.359285,-76.609550,444.123565,9622.677246
1410.359603,229.828649,444.123565,9696.697840
1410.359920,0.000000,-0.000000,9622.677246
1410.360238,76.609550,296.082377,9696.697840
1410.360555,0.000000,148.041188,9770.718434
1410.360872,383.047749,-0.000000,9696.697840
1410.361190,306.438199,296.082377,9548.656652
1410.361507,0.000000,-0.000000,9696.697840
1410.361825,0.000000,74.020594,9696.697840
1410.362142,306.438199,-0.000000,9770.718434
1410.362460,306.438199,-74.020594,9992.780217
1410.362777,0.000000,-0.000000,9844.739029
1410.363095,153.219100,-74.020594,9696.697840
1410.363412,0.000000,148.041188,9622.677246
1410.363729,76.609550,-0.000000,9548.656652
1410.364047,0.000000,296.082377,9770.718434
1410.364364,306.438199,-74.020594,9400.615463
1410.364682,153.219100,-222.061783,9474.636058
1410.364999,306.438199,-148.041188,9474.636058
1410.365317,459.657299,-0.000000,9474.636058
1410.365634,459.657299,-296.082377,9844.739029
1410.365952,536.266849,-148.041188,9252.574275
1410.366269,612.876398,-148.041188,9252.574275
1410.366586,536.266849,-0.000000,9104.533087
1410.366904,919.314598,-222.061783,9326.594869
1410.367221,612.876398,-370.102971,9252.574275
1410.367539,689.485948,-222.061783,9252.574275
1410.367856,919.314598,-0.000000,9178.553681
1410.368174,995.924147,-148.041188,9178.553681
1410.368491,1072.533697,-0.000000,9326.594869
1410.368809,919.314598,-148.041188,9104.533087
1410.369126,1149.143247,-0.000000,9178.553681
1410.369443,1072.533697,-0.000000,8956.491898
1410.369761,1149.143247,-0.000000,8956.491898
1410.370078,612.876398,-0.000000,9326.594869
1410.370396,1149.143247,-148.041188,8660.409521
1410.370713,1149.143247,-0.000000,9178.553681
1410.371031,1302.362347,296.082377,9178.553681
1410.371348,1302.362347,-0.000000,9030.512492
1410.371666,1378.971896,148.041188,9104.533087
1410.371983,1225.752797,222.061783,9252.574275
1410.372301,1149.143247,666.185348,9178.553681
1410.372618,1149.143247,296.082377,8956.491898
1410.372935,1149.143247,518.144159,9400.615463
1410.373253,995.924147,296.082377,9252.574275
1410.373570,919.314598,222.061783,9326.594869
1410.373888,766.095498,296.082377,9474.636058
1410.374205,612.876398,518.144159,9326.594869
1410.374523,766.095498,370.102971,9474.636058
1410.374840,766.095498,592.164754,9474.636058
1410.375158,689.485948,666.185348,9474.636058
1410.375475,842.705048,518.144159,9474.636058
1410.375792,306.438199,444.123565,9474.636058
1410.376110,383.047749,592.164754,9548.656652
1410.376427,306.438199,740.205942,9474.636058
1410.376745,306.438199,444.123565,9622.677246
1410.377062,306.438199,592.164754,9474.636058
1410.377380,383.047749,518.144159,9770.718434
1410.377697,229.828649,592.164754,9696.697840
1410.378015,229.828649,444.123565,9844.739029
1410.378332,306.438199,592.164754,9770.718434
1410.378649,306.438199,666.185348,9770.718434
1410.378967,459.657299,592.164754,9548.656652
1410.379284,306.438199,518.144159,9992.780217
1410.379602,153.219100,296.082377,9844.739029
1410.379919,76.609550,444.123565,9844.739029
1410.380237,229.828649,518.144159,9844.739029
1410.380554,459.657299,148.041188,9992.780217
1410.380872,536.266849,148.041188,9696.697840
1410.381189,459.657299,370.102971,9844.739029
1410.381506,536.266849,370.102971,9844.739029
1410.381824,689.485948,592.164754,9696.697840
1410.382141,766.095498,444.123565,9696.697840
1410.382459,612.876398,444.123565,9770.718434
1410.382776,612.876398,222.061783,9770.718434
1410.383094,842.705048,444.123565,9548.656652
1410.383411,919.314598,592.164754,9622.677246
1410.383729,1149.143247,296.082377,9474.636058
1410.384046,1149.143247,296.082377,9326.594869
1410.384364,995.924147,222.061783,9548.656652
1410.384681,919.314598,148.041188,9622.677246
1410.384998,1149.143247,-0.000000,9474.636058
1410.385316,1302.362347,444.123565,9548.656652
1410.385633,766.095498,370.102971,9474.636058
1410.385951,842.705048,222.061783,9400.615463
1410.386268,1685.410096,-0.000000,9474.636058
1410.386586,1225.752797,222.061783,9326.594869
1410.386903,1532.190996,-148.041188,9104.533087
1410.387221,1302.362347,296.082377,9104.533087
1410.387538,1225.752797,-0.000000,9030.512492
1410.387855,1302.362347,296.082377,9178.553681
1410.388173,1225.752797,444.123565,9030.512492
1410.388490,1149.143247,370.102971,8882.471304
1410.388808,1225.752797,444.123565,8956.491898
1410.389125,1225.752797,222.061783,8808.450710
1410.389443,1072.533697,444.123565,9104.533087
1410.389760,1302.362347,370.102971,9252.574275
1410.390078,1149.143247,592.164754,9178.553681
1410.390395,1149.143247,296.082377,9030.512492
1410.390712,842.705048,444.123565,9104.533087
1410.391030,919.314598,592.164754,8808.450710
1410.391347,1149.143247,592.164754,9104.533087
1410.391665,919.314598,518.144159,8956.491898
1410.391982,766.095498,518.144159,9030.512492
1410.392300,919.314598,740.205942,9178.553681
1410.392617,689.485948,592.164754,8956.491898
1410.392935,383.047749,296.082377,9030.512492
1410.393252,612.876398,592.164754,9178.553681
1410.393570,383.047749,370.102971,9326.594869
1410.393887,383.047749,518.144159,9400.615463
1410.394204,153.219100,444.123565,9326.594869
1410.394522,229.828649,296.082377,9252.574275
1410.394839,383.047749,444.123565,9400.615463
1410.395157,306.438199,518.144159,9326.594869
1410.395474,306.438199,444.123565,9548.656652
1410.395792,536.266849,370.102971,9622.677246
1410.396109,76.609550,518.144159,9400.615463
1410.396427,153.219100,666.185348,9474.636058
1410.396744,306.438199,296.082377,9474.636058
1410.397061,536.266849,444.123565,9474.636058
1410.397379,766.095498,370.102971,9770.718434
1410.397696,383.047749,444.123565,9770.718434
1410.398014,459.657299,222.061783,9844.739029
1410.398331,383.047749,444.123565,9770.718434
1410.398649,766.095498,370.102971,9918.759623
1410.398966,766.095498,370.102971,9696.697840
1410.399284,612.876398,518.144159,9918.759623
1410.399601,995.924147,370.102971,9696.697840
1410.399918,689.485948,370.102971,9844.739029
1410.400236,689.485948,370.102971,9844.739029
1410.400553,766.095498,370.102971,9622.677246
1410.400871,842.705048,444.123565,9770.718434
1410.401188,919.314598,148.041188,9696.697840
1410.401506,995.924147,370.102971,9696.697840
1410.401823,1225.752797,-74.020594,9770.718434
1410.402141,306.438199,-74.020594,9622.677246
1410.402458,1072.533697,222.061783,9622.677246
1410.402775,1149.143247,296.082377,9548.656652
1410.403093,1302.362347,222.061783,9474.636058
1410.403410,1149.143247,222.061783,9474.636058
1410.403728,1378.971896,296.082377,9474.636058
1410.404045,1072.533697,370.102971,9548.656652
1410.404362,1149.143247,296.082377,9474.636058
1410.404679,1149.143247,222.061783,9474.636058
1410.404996,1302.362347,-0.000000,9252.574275
1410.405314,1378.971896,-74.020594,8882.471304
1410.405631,1072.533697,222.061783,9030.512492
1410.405948,1225.752797,148.041188,9252.574275
1410.406265,995.924147,296.082377,9400.615463
1410.406582,1225.752797,444.123565,9252.574275
1410.406900,1072.533697,370.102971,9178.553681
1410.407217,1225.752797,370.102971,9104.533087
1410.407534,1072.533697,296.082377,9104.533087
1410.407851,1225.752797,222.061783,9030.512492
1410.408168,1072.533697,444.123565,8956.491898
1410.408486,1225.752797,296.082377,9104.533087
1410.408803,1149.143247,518.144159,9104.533087
1410.409120,919.314598,148.041188,9030.512492
1410.409437,766.095498,222.061783,9030.512492
1410.409754,612.876398,222.061783,9252.574275
1410.410071,766.095498,370.102971,9178.553681
1410.410389,459.657299,148.041188,9104.533087
1410.410706,536.266849,-0.000000,9104.533087
1410.411023,459.657299,-0.000000,9104.533087
1410.411340,229.828649,-0.000000,9252.574275
1410.411657,383.047749,444.123565,9252.574275
1410.411975,536.266849,-0.000000,9252.574275
1410.412292,153.219100,74.020594,9474.636058
1410.412609,306.438199,222.061783,9400.615463
1410.412926,383.047749,-148.041188,9326.594869
1410.413243,383.047749,-0.000000,9474.636058
1410.413561,383.047749,74.020594,9474.636058
1410.413878,153.219100,-74.020594,9474.636058
1410.414195,383.047749,-0.000000,9326.594869
1410.414512,306.438199,-74.020594,9030.512492
1410.414829,0.000000,-0.000000,9400.615463
1410.415147,536.266849,-0.000000,9326.594869
1410.415464,229.828649,148.041188,9548.656652
1410.415781,919.314598,-74.020594,9548.656652
1410.416098,383.047749,-0.000000,9696.697840
1410.416415,536.266849,-0.000000,9548.656652
1410.416733,459.657299,-0.000000,9696.697840
1410.417050,536.266849,-0.000000,9696.697840
1410.417367,689.485948,-0.000000,9548.656652
1410.417684,459.657299,-148.041188,9622.677246
1410.418001,459.657299,-0.000000,9770.718434
1410.418319,612.876398,-0.000000,9622.677246
1410.418636,612.876398,-0.000000,9844.739029
1410.418953,919.314598,-74.020594,9622.677246
1410.419270,689.485948,-74.020594,9622.677246
1410.419587,689.485948,-74.020594,9622.677246
1410.419905,919.314598,-148.041188,9696.697840
1410.420222,842.705048,370.102971,10066.800811
1410.420539,842.705048,-222.061783,9548.656652
1410.420856,536.266849,-444.123565,9696.697840
1410.421173,1072.533697,-0.000000,9474.636058
1410.421491,919.314598,-74.020594,9548.656652
1410.421808,995.924147,222.061783,9696.697840
1410.422125,995.924147,-0.000000,9474.636058
1410.422442,1072.533697,222.061783,9696.697840
1410.422759,1072.533697,148.041188,9474.636058
1410.423076,842.705048,222.061783,9474.636058
1410.423394,919.314598,222.061783,9474.636058
1410.423711,1149.143247,-0.000000,9252.574275
1410.424028,1072.533697,-0.000000,9400.615463
1410.424345,1302.362347,222.061783,9400.615463
1410.424662,1762.019645,-0.000000,9326.594869
1410.424980,1225.752797,296.082377,9326.594869
1410.425297,1225.752797,370.102971,9326.594869
1410.425614,919.314598,370.102971,9252.574275
1410.425931,1072.533697,370.102971,9252.574275
1410.426248,1072.533697,-0.000000,9178.553681
1410.426566,995.924147,518.144159,9400.615463
1410.426883,919.314598,370.102971,9252.574275
1410.427200,919.314598,296.082377,9104.533087
1410.427517,766.095498,444.123565,9326.594869
1410.427834,766.095498,222.061783,9178.553681
1410.428152,995.924147,296.082377,8882.471304
1410.428469,766.095498,222.061783,9252.574275
1410.428786,612.876398,296.082377,9178.553681
1410.429103,459.657299,296.082377,9252.574275
1410.429420,383.047749,296.082377,9252.574275
1410.429738,459.657299,370.102971,9104.533087
1410.430055,229.828649,444.123565,9326.594869
1410.430372,459.657299,444.123565,9400.615463
1410.430689,0.000000,518.144159,9326.594869
1410.431006,536.266849,-0.000000,9252.574275
1410.431324,459.657299,370.102971,9326.594869
1410.431641,383.047749,296.082377,9326.594869
1410.431958,383.047749,296.082377,9474.636058
1410.432275,459.657299,222.061783,9474.636058
1410.432592,306.438199,-0.000000,9548.656652
1410.432910,229.828649,-0.000000,9548.656652
1410.433227,383.047749,-0.000000,9474.636058
1410.433544,459.657299,-74.020594,9474.636058
1410.433861,306.438199,148.041188,9622.677246
1410.434178,153.219100,-0.000000,9696.697840
1410.434496,536.266849,-0.000000,9696.697840
1410.434813,612.876398,-0.000000,9622.677246
1410.435130,536.266849,-0.000000,9474.636058
1410.435447,919.314598,-0.000000,9622.677246
1410.435764,612.876398,-0.000000,9548.656652
1410.436081,612.876398,-0.000000,9622.677246
1410.436399,689.485948,-0.000000,9696.697840
1410.436716,689.485948,-0.000000,9696.697840
1410.437033,689.485948,-0.000000,9770.718434
1410.437350,919.314598,-0.000000,9622.677246
1410.437667,919.314598,-0.000000,9548.656652
1410.437985,919.314598,-0.000000,9548.656652
1410.438302,1072.533697,-0.000000,9474.636058
1410.438619,1072.533697,296.082377,9696.697840
1410.438936,995.924147,-0.000000,9400.615463
1410.439253,1072.533697,-0.000000,9548.656652
1410.439571,995.924147,-0.000000,9474.636058
1410.439888,919.314598,222.061783,9548.656652
1410.440205,766.095498,-0.000000,9548.656652
1410.440522,1149.143247,74.020594,9400.615463
1410.440839,995.924147,370.102971,9326.594869
1410.441157,995.924147,-0.000000,9326.594869
1410.441474,842.705048,222.061783,9326.594869
1410.441791,1149.143247,222.061783,9252.574275
1410.442108,842.705048,296.082377,9178.553681
1410.442425,842.705048,296.082377,9326.594869
1410.442743,766.095498,296.082377,9178.553681
1410.443060,459.657299,370.102971,9474.636058
1410.443377,766.095498,-74.020594,9326.594869
1410.443694,536.266849,444.123565,9252.574275
1410.444011,766.095498,222.061783,9400.615463
1410.444329,689.485948,296.082377,9400.615463
1410.444646,536.266849,-0.000000,9400.615463
1410.444963,612.876398,148.041188,9400.615463
1410.445280,536.266849,222.061783,9326.594869
1410.445597,459.657299,148.041188,9474.636058
1410.445915,536.266849,148.041188,9252.574275
1410.446232,689.485948,-0.000000,9474.636058
1410.446549,153.219100,-0.000000,9326.594869
1410.446866,612.876398,222.061783,9104.533087
1410.447183,229.828649,148.041188,9474.636058
1410.447501,153.219100,222.061783,9178.553681
1410.447818,383.047749,-0.000000,9474.636058
1410.448135,153.219100,370.102971,9474.636058
1410.448452,153.219100,-0.000000,9252.574275
1410.448769,229.828649,-0.000000,9474.636058
1410.449086,153.219100,-0.000000,9474.636058
1410.449404,153.219100,-0.000000,9252.574275
1410.449721,306.438199,148.041188,9474.636058
1410.450038,306.438199,222.061783,9326.594869
1410.450355,383.047749,148.041188,9474.636058
1410.450672,229.828649,-0.000000,9474.636058
1410.450990,995.924147,-74.020594,9770.718434
1410.451307,536.266849,222.061783,9474.636058
1410.451624,459.657299,-0.000000,9548.656652
1410.451941,459.657299,148.041188,9474.636058
1410.452258,766.095498,-0.000000,9474.636058
1410.452576,689.485948,148.041188,9474.636058
1410.452893,459.657299,-0.000000,9548.656652
1410.453210,612.876398,222.061783,9326.594869
1410.453527,766.095498,-0.000000,9474.636058
1410.453844,766.095498,148.041188,9474.636058
1410.454162,766.095498,222.061783,9326.594869
1410.454479,919.314598,296.082377,9474.636058
1410.454796,1072.533697,148.041188,9474.636058
1410.455113,919.314598,-0.000000,9474.636058
1410.455430,1225.752797,592.164754,9474.636058
1410.455748,995.924147,518.144159,9622.677246
1410.456065,1455.581446,444.123565,9474.636058
1410.456382,1225.752797,296.082377,9474.636058
1410.456699,1302.362347,444.123565,9474.636058
1410.457016,1608.800546,-0.000000,9622.677246
1410.457334,1302.362347,518.144159,9548.656652
1410.457651,1302.362347,370.102971,9622.677246
1410.457968,1455.581446,296.082377,9474.636058
1410.458285,1378.971896,370.102971,9252.574275
1410.458602,1225.752797,518.144159,9474.636058
1410.458920,1455.581446,444.123565,9474.636058
1410.459237,1378.971896,814.226536,9474.636058
1410.459554,1302.362347,592.164754,9400.615463
1410.459871,1455.581446,740.205942,9474.636058
1410.460188,1149.143247,888.247130,9548.656652
1410.460506,1302.362347,666.185348,9474.636058
1410.460823,1149.143247,592.164754,9326.594869
1410.461140,995.924147,814.226536,9474.636058
1410.461457,1072.533697,444.123565,9548.656652
1410.461774,919.314598,740.205942,9474.636058
1410.462091,919.314598,814.226536,9474.636058
1410.462409,919.314598,592.164754,9474.636058
1410.462726,842.705048,740.205942,9400.615463
1410.463043,612.876398,740.205942,9474.636058
1410.463360,766.095498,740.205942,9474.636058
1410.463677,612.876398,666.185348,9474.636058
1410.463995,689.485948,592.164754,9400.615463
1410.464312,842.705048,666.185348,9474.636058
1410.464629,383.047749,592.164754,9474.636058
1410.464946,306.438199,592.164754,9400.615463
1410.465263,306.438199,518.144159,9474.636058
1410.465581,536.266849,666.185348,9474.636058
1410.465898,995.924147,444.123565,9918.759623
1410.466215,536.266849,666.185348,9474.636058
1410.466532,0.000000,592.164754,9474.636058
1410.466849,229.828649,444.123565,9474.636058
1410.467167,229.828649,444.123565,9400.615463
1410.467484,612.876398,370.102971,9474.636058
1410.467801,383.047749,518.144159,9474.636058
1410.468118,383.047749,222.061783,9474.636058
1410.468435,383.047749,-148.041188,9400.615463
1410.468753,536.266849,-0.000000,9326.594869
1410.469070,612.876398,-0.000000,9474.636058
1410.469387,459.657299,-0.000000,9474.636058
1410.469704,536.266849,148.041188,9474.636058
1410.470021,995.924147,222.061783,9474.636058
1410.470339,612.876398,-0.000000,9474.636058
1410.470656,995.924147,-296.082377,9030.512492
1410.470973,766.095498,-0.000000,9252.574275
1410.471290,689.485948,-74.020594,9474.636058
1410.471607,689.485948,-74.020594,9400.615463
1410.471925,842.705048,-222.061783,9548.656652
1410.472242,1378.971896,222.061783,9326.594869
1410.472559,689.485948,-0.000000,9548.656652
1410.472876,1072.533697,-0.000000,9474.636058
1410.473193,995.924147,-74.020594,9474.636058
1410.473511,919.314598,148.041188,9252.574275
1410.473828,1225.752797,-0.000000,9474.636058
1410.474145,995.924147,-0.000000,9326.594869
1410.474462,919.314598,222.061783,9400.615463
1410.474779,1072.533697,148.041188,9252.574275
1410.475096,1225.752797,-0.000000,9252.574275
1410.475414,842.705048,-0.000000,9474.636058
1410.475731,612.876398,148.041188,9178.553681
1410.476048,995.924147,222.061783,9104.533087
1410.476365,995.924147,370.102971,9178.553681
1410.476682,995.924147,444.123565,9252.574275
1410.477000,1072.533697,370.102971,9400.615463
1410.477317,919.314598,370.102971,9178.553681
1410.477634,919.314598,370.102971,9474.636058
1410.477951,1149.143247,222.061783,9178.553681
1410.478268,612.876398,148.041188,9178.553681
1410.478586,689.485948,296.082377,9474.636058
1410.478903,1149.143247,740.205942,9252.574275
1410.479220,919.314598,518.144159,9104.533087
1410.479537,919.314598,296.082377,9178.553681
1410.479854,1072.533697,-0.000000,9326.594869
1410.480172,919.314598,518.144159,9474.636058
1410.480489,689.485948,444.123565,9326.594869
1410.480806,995.924147,666.185348,9474.636058
1410.481123,689.485948,444.123565,9474.636058
1410.481440,536.266849,666.185348,9474.636058
1410.481758,612.876398,518.144159,9326.594869
1410.482075,536.266849,370.102971,9474.636058
1410.482392,689.485948,444.123565,9474.636058
1410.482709,689.485948,740.205942,9548.656652
1410.483026,689.485948,814.226536,9622.677246
1410.483344,536.266849,370.102971,9770.718434
1410.483661,459.657299,370.102971,9770.718434
1410.483978,306.438199,370.102971,9548.656652
1410.484295,689.485948,296.082377,9770.718434
1410.484612,1532.190996,-0.000000,9770.718434
1410.484930,459.657299,148.041188,9548.656652
1410.485247,306.438199,444.123565,9770.718434
1410.485564,536.266849,-0.000000,9548.656652
1410.485881,536.266849,222.061783,9474.636058
1410.486198,459.657299,370.102971,9696.697840
1410.486516,689.485948,222.061783,9696.697840
1410.486833,536.266849,296.082377,9770.718434
1410.487150,383.047749,222.061783,9696.697840
1410.487467,612.876398,-0.000000,9474.636058
1410.487784,689.485948,-0.000000,9548.656652
1410.488102,842.705048,296.082377,9622.677246
1410.488419,459.657299,-0.000000,9548.656652
1410.488736,919.314598,-0.000000,9548.656652
1410.489053,766.095498,-148.041188,9770.718434
1410.489370,766.095498,-0.000000,9622.677246
1410.489687,766.095498,-74.020594,9548.656652
1410.490005,689.485948,-0.000000,9474.636058
1410.490322,842.705048,-0.000000,9326.594869
1410.490639,995.924147,-148.041188,9474.636058
1410.490956,1149.143247,-0.000000,9474.636058
1410.491273,612.876398,-148.041188,9474.636058
1410.491591,1149.143247,-0.000000,9474.636058
1410.491908,1225.752797,-148.041188,9400.615463
1410.492225,1149.143247,-0.000000,9400.615463
1410.492542,1225.752797,-0.000000,9252.574275
1410.492859,1149.143247,148.041188,9326.594869
1410.493177,1225.752797,-0.000000,9178.553681
1410.493494,1149.143247,-370.102971,9178.553681
1410.493811,1532.190996,-74.020594,9326.594869
1410.494128,1378.971896,222.061783,9104.533087
1410.494445,1532.190996,-0.000000,8808.450710
1410.494763,1225.752797,-0.000000,9030.512492
1410.495080,1455.581446,-0.000000,9252.574275
1410.495397,1225.752797,-0.000000,9104.533087
1410.495714,995.924147,148.041188,9178.553681
1410.496031,1149.143247,-0.000000,9178.553681
1410.496349,1149.143247,222.061783,9178.553681
1410.496666,1225.752797,518.144159,9252.574275
1410.496983,1225.752797,370.102971,9104.533087
1410.497300,842.705048,222.061783,9178.553681
1410.497617,842.705048,296.082377,9252.574275
1410.497935,612.876398,370.102971,9326.594869
1410.498252,1149.143247,370.102971,9400.615463
1410.498569,689.485948,296.082377,9326.594869
1410.498886,689.485948,444.123565,9400.615463
1410.499203,689.485948,444.123565,9326.594869
1410.499521,306.438199,148.041188,9400.615463
1410.499838,689.485948,296.082377,9548.656652
1410.500155,229.828649,592.164754,9474.636058
1410.500472,229.828649,444.123565,9474.636058
1410.500789,76.609550,222.061783,9474.636058
1410.501107,306.438199,296.082377,9548.656652
1410.501424,306.438199,518.144159,9696.697840
1410.501741,0.000000,444.123565,9622.677246
1410.502058,76.609550,296.082377,9474.636058
1410.502376,153.219100,370.102971,9548.656652
1410.502693,229.828649,-0.000000,9474.636058
1410.503010,459.657299,296.082377,9474.636058
1410.503327,0.000000,-0.000000,9548.656652
1410.503644,0.000000,296.082377,9622.677246
1410.503961,76.609550,370.102971,9622.677246
1410.504279,306.438199,296.082377,9844.739029
1410.504596,229.828649,296.082377,9696.697840
1410.504913,536.266849,370.102971,9844.739029
1410.505230,612.876398,222.061783,9548.656652
1410.505547,612.876398,-0.000000,9770.718434
1410.505864,612.876398,222.061783,9622.677246
1410.506182,459.657299,-0.000000,9548.656652
1410.506499,459.657299,-0.000000,9770.718434
1410.506816,766.095498,-0.000000,9622.677246
1410.507133,459.657299,-148.041188,9326.594869
1410.507450,689.485948,-74.020594,9622.677246
1410.507767,689.485948,-0.000000,9622.677246
1410.508085,919.314598,-0.000000,9474.636058
1410.508402,919.314598,-0.000000,9622.677246
1410.508719,842.705048,-0.000000,9474.636058
1410.509036,842.705048,-74.020594,9548.656652
1410.509353,919.314598,-0.000000,9474.636058
1410.509670,842.705048,-0.000000,9474.636058
1410.509988,1149.143247,-148.041188,9104.533087
1410.510305,1302.362347,-222.061783,9548.656652
1410.510622,1302.362347,222.061783,9400.615463
1410.510939,766.095498,-0.000000,9104.533087
1410.511256,1072.533697,-0.000000,9104.533087
1410.511573,995.924147,-0.000000,9252.574275
1410.511890,1302.362347,-0.000000,9252.574275
1410.512208,995.924147,-0.000000,9104.533087
1410.512525,919.314598,-74.020594,9252.574275
1410.512842,1072.533697,-0.000000,9178.553681
1410.513159,1225.752797,-0.000000,9178.553681
1410.513476,1149.143247,-0.000000,8734.430116
1410.513793,1072.533697,74.020594,9104.533087
1410.514111,995.924147,148.041188,9030.512492
1410.514428,919.314598,148.041188,8956.491898
1410.514745,766.095498,-0.000000,9178.553681
1410.515062,919.314598,148.041188,9178.553681
1410.515379,842.705048,370.102971,8956.491898
1410.515696,919.314598,148.041188,9104.533087
1410.516014,995.924147,-0.000000,9104.533087
1410.516331,766.095498,-0.000000,9326.594869
1410.516648,536.266849,370.102971,9178.553681
1410.516965,766.095498,296.082377,9178.553681
1410.517282,459.657299,296.082377,9252.574275
1410.517599,459.657299,222.061783,9178.553681
1410.517917,459.657299,74.020594,9178.553681
1410.518234,459.657299,222.061783,9474.636058
1410.518551,306.438199,296.082377,9400.615463
1410.518868,153.219100,222.061783,9548.656652
1410.519185,153.219100,148.041188,9474.636058
1410.519502,536.266849,-0.000000,9548.656652
1410.519820,383.047749,148.041188,9622.677246
1410.520137,612.876398,518.144159,9474.636058
1410.520454,459.657299,370.102971,9622.677246
1410.520771,459.657299,222.061783,9400.615463
1410.521088,0.000000,222.061783,9622.677246
1410.521405,459.657299,-0.000000,9548.656652
1410.521723,383.047749,222.061783,9696.697840
1410.522040,306.438199,148.041188,9844.739029
1410.522357,842.705048,444.123565,9770.718434
1410.522674,536.266849,-74.020594,9622.677246
1410.522991,383.047749,148.041188,9770.718434
1410.523308,536.266849,296.082377,9696.697840
1410.523626,536.266849,-0.000000,9622.677246
1410.523943,536.266849,148.041188,9696.697840
1410.524260,689.485948,-0.000000,9992.780217
1410.524577,612.876398,222.061783,9770.718434
1410.524894,459.657299,148.041188,9622.677246
1410.525211,766.095498,222.061783,9548.656652
1410.525529,383.047749,222.061783,9696.697840
1410.525846,766.095498,-0.000000,9696.697840
1410.526163,1072.533697,-0.000000,9474.636058
1410.526480,766.095498,222.061783,9622.677246
1410.526797,919.314598,-0.000000,9474.636058
1410.527114,1072.533697,148.041188,9622.677246
1410.527432,919.314598,222.061783,9622.677246
1410.527749,995.924147,296.082377,9474.636058
1410.528066,1072.533697,370.102971,9474.636058
1410.528383,1072.533697,222.061783,9548.656652
1410.528700,1225.752797,296.082377,9548.656652
1410.529017,1302.362347,222.061783,9326.594869
1410.529334,1455.581446,444.123565,9474.636058
1410.529652,1072.533697,148.041188,9178.553681
1410.529969,1225.752797,444.123565,9400.615463
1410.530286,1455.581446,-0.000000,9326.594869
1410.530603,995.924147,222.061783,9104.533087
1410.530920,1302.362347,444.123565,9252.574275
1410.531237,1302.362347,370.102971,9178.553681
1410.531555,1072.533697,666.185348,9252.574275
1410.531872,995.924147,592.164754,9104.533087
1410.532189,842.705048,444.123565,9178.553681
1410.532506,1072.533697,592.164754,8956.491898
1410.532823,1072.533697,518.144159,8956.491898
1410.533140,995.924147,296.082377,9178.553681
1410.533458,766.095498,592.164754,9326.594869
1410.533775,612.876398,518.144159,9104.533087
1410.534092,612.876398,592.164754,9252.574275
1410.534409,766.095498,666.185348,9178.553681
1410.534726,536.266849,370.102971,9178.553681
1410.535043,919.314598,444.123565,9104.533087
1410.535361,459.657299,518.144159,9326.594869
1410.535678,383.047749,296.082377,9326.594869
1410.535995,306.438199,444.123565,9252.574275
1410.536312,383.047749,444.123565,9474.636058
1410.536629,459.657299,370.102971,9474.636058
1410.536946,153.219100,518.144159,9548.656652
1410.537264,153.219100,444.123565,9400.615463
1410.537581,459.657299,518.144159,9474.636058
1410.537898,383.047749,592.164754,9622.677246
1410.538215,689.485948,370.102971,9474.636058
1410.538532,459.657299,222.061783,9400.615463
1410.538849,536.266849,444.123565,9622.677246
1410.539167,536.266849,370.102971,9548.656652
1410.539484,383.047749,-0.000000,9844.739029
1410.539801,536.266849,222.061783,9696.697840
1410.540118,689.485948,148.041188,9696.697840
1410.540435,689.485948,370.102971,9622.677246
1410.540752,995.924147,296.082377,9622.677246
1410.541070,536.266849,-0.000000,9696.697840
1410.541387,995.924147,296.082377,9474.636058
1410.541704,766.095498,370.102971,9548.656652
1410.542021,689.485948,-0.000000,9696.697840
1410.542338,612.876398,-0.000000,9696.697840
1410.542655,1149.143247,296.082377,9696.697840
1410.542973,995.924147,444.123565,9474.636058
1410.543290,995.924147,222.061783,9696.697840
1410.543607,1072.533697,222.061783,9400.615463
1410.543924,919.314598,-0.000000,9622.677246
1410.544241,1072.533697,222.061783,9400.615463
1410.544558,1225.752797,-0.000000,9622.677246
1410.544875,1149.143247,-0.000000,9474.636058
1410.545193,1608.800546,-0.000000,9474.636058
1410.545510,919.314598,296.082377,9548.656652
1410.545827,995.924147,148.041188,9474.636058
1410.546144,1149.143247,148.041188,9326.594869
1410.546461,1072.533697,222.061783,9474.636058
1410.546778,1072.533697,-0.000000,9326.594869
1410.547096,1149.143247,296.082377,9252.574275
1410.547413,919.314598,296.082377,9326.594869
1410.547730,1072.533697,74.020594,9252.574275
1410.548047,919.314598,148.041188,9474.636058
1410.548364,842.705048,-0.000000,9252.574275
1410.548681,766.095498,370.102971,9252.574275
1410.548999,995.924147,518.144159,9326.594869
1410.549316,1072.533697,444.123565,9178.553681
1410.549633,995.924147,370.102971,9178.553681
1410.549950,995.924147,444.123565,9252.574275
1410.550267,995.924147,296.082377,9104.533087
1410.550584,842.705048,370.102971,9030.512492
1410.550902,689.485948,222.061783,9178.553681
1410.551219,766.095498,-0.000000,9178.553681
1410.551536,995.924147,222.061783,9178.553681
1410.551853,689.485948,814.226536,9326.594869
1410.552170,459.657299,518.144159,9178.553681
1410.552487,612.876398,370.102971,9104.533087
1410.552805,536.266849,-0.000000,9400.615463
1410.553122,689.485948,444.123565,9178.553681
1410.553439,306.438199,222.061783,9400.615463
1410.553756,536.266849,296.082377,9326.594869
1410.554073,306.438199,222.061783,9178.553681
1410.554390,306.438199,222.061783,9326.594869
1410.554708,459.657299,370.102971,9474.636058
1410.555025,76.609550,-0.000000,9400.615463
1410.555342,229.828649,148.041188,9400.615463
1410.555659,536.266849,370.102971,9474.636058
1410.555976,383.047749,296.082377,9548.656652
1410.556293,76.609550,296.082377,9474.636058
1410.556611,383.047749,148.041188,9548.656652
1410.556928,306.438199,222.061783,9622.677246
1410.557245,689.485948,-0.000000,9474.636058
1410.557562,306.438199,-0.000000,9548.656652
1410.557879,383.047749,-0.000000,9622.677246
1410.558196,689.485948,370.102971,9548.656652
1410.558514,689.485948,222.061783,9548.656652
1410.558831,459.657299,-0.000000,9474.636058
1410.559148,306.438199,-0.000000,9770.718434
1410.559465,689.485948,-0.000000,9474.636058
1410.559782,689.485948,-0.000000,9622.677246
1410.560099,689.485948,222.061783,9844.739029
1410.560417,919.314598,-0.000000,9696.697840
1410.560734,612.876398,-0.000000,9918.759623
1410.561051,842.705048,-0.000000,9474.636058
1410.561368,919.314598,-0.000000,9622.677246
1410.561685,995.924147,222.061783,9548.656652
1410.562002,919.314598,-0.000000,9548.656652
1410.562319,383.047749,-148.041188,9474.636058
1410.562637,1072.533697,-0.000000,9474.636058
1410.562954,1072.533697,-0.000000,9474.636058
1410.563271,1149.143247,148.041188,9474.636058
1410.563588,1149.143247,222.061783,9400.615463
1410.563905,1302.362347,-148.041188,9252.574275
1410.564222,1149.143247,-0.000000,9474.636058
1410.564540,1455.581446,222.061783,9326.594869
1410.564857,1225.752797,222.061783,9474.636058
1410.565174,1378.971896,296.082377,9252.574275
1410.565491,1072.533697,370.102971,9400.615463
1410.565808,1072.533697,370.102971,9400.615463
1410.566125,1072.533697,222.061783,9326.594869
1410.566443,1149.143247,222.061783,9252.574275
1410.566760,1072.533697,296.082377,9252.574275
1410.567077,1225.752797,370.102971,9252.574275
1410.567394,995.924147,370.102971,9252.574275
1410.567711,1149.143247,444.123565,9252.574275
1410.568028,1072.533697,518.144159,9178.553681
1410.568346,1149.143247,296.082377,9252.574275
1410.568663,919.314598,370.102971,9400.615463
1410.568980,842.705048,296.082377,9326.594869
1410.569297,766.095498,370.102971,9252.574275
1410.569614,689.485948,370.102971,9326.594869
1410.569931,766.095498,148.041188,9474.636058
1410.570249,612.876398,296.082377,9474.636058
1410.570566,383.047749,296.082377,9400.615463
1410.570883,383.047749,444.123565,9326.594869
1410.571200,536.266849,-0.000000,9252.574275
1410.571517,842.705048,148.041188,9474.636058
1410.571834,536.266849,296.082377,9326.594869
1410.572152,536.266849,296.082377,9474.636058
1410.572469,536.266849,444.123565,9474.636058
1410.572786,459.657299,370.102971,9474.636058
1410.573103,383.047749,-0.000000,9400.615463
1410.573420,153.219100,-0.000000,9400.615463
1410.573737,383.047749,222.061783,9474.636058
1410.574055,459.657299,-0.000000,9474.636058
1410.574372,306.438199,-0.000000,9474.636058
1410.574689,383.047749,-0.000000,9474.636058
1410.575006,306.438199,-0.000000,9474.636058
1410.575323,383.047749,-0.000000,9548.656652
1410.575640,383.047749,-0.000000,9474.636058
1410.575958,229.828649,-0.000000,9548.656652
1410.576275,766.095498,-0.000000,9622.677246
1410.576592,536.266849,-0.000000,9400.615463
1410.576909,919.314598,-0.000000,9474.636058
1410.577226,689.485948,-0.000000,9548.656652
1410.577543,689.485948,-222.061783,9474.636058
1410.577860,919.314598,-0.000000,9474.636058
1410.578178,919.314598,-74.020594,9622.677246
1410.578495,842.705048,-0.000000,9622.677246
1410.578812,919.314598,-0.000000,9400.615463
1410.579129,919.314598,-74.020594,9548.656652
1410.579446,995.924147,-0.000000,9548.656652
1410.579763,995.924147,-0.000000,9474.636058
1410.580081,1072.533697,74.020594,9696.697840
1410.580398,842.705048,-222.061783,9400.615463
1410.580715,306.438199,-296.082377,9622.677246
1410.581032,919.314598,-296.082377,9474.636058
1410.581349,842.705048,-0.000000,9400.615463
1410.581666,995.924147,222.061783,9474.636058
1410.581984,1302.362347,-148.041188,9252.574275
1410.582301,1149.143247,-74.020594,9474.636058
1410.582618,1225.752797,-0.000000,9178.553681
1410.582935,919.314598,74.020594,9400.615463
1410.583252,842.705048,-0.000000,9252.574275
1410.583569,1455.581446,-222.061783,9178.553681
1410.583887,842.705048,222.061783,9400.615463
1410.584204,995.924147,-0.000000,9178.553681
1410.584521,919.314598,296.082377,9252.574275
1410.584838,766.095498,370.102971,9178.553681
1410.585155,612.876398,-0.000000,9326.594869
1410.585472,766.095498,296.082377,9104.533087
1410.585790,766.095498,148.041188,9400.615463
1410.586107,766.095498,296.082377,9178.553681
1410.586424,612.876398,518.144159,9326.594869
1410.586741,612.876398,296.082377,9474.636058
1410.587058,612.876398,222.061783,9104.533087
1410.587375,306.438199,296.082377,9252.574275
1410.587693,536.266849,296.082377,9326.594869
1410.588010,842.705048,296.082377,9104.533087
1410.588327,229.828649,370.102971,9252.574275
1410.588644,536.266849,296.082377,9326.594869
1410.588961,383.047749,518.144159,9400.615463
1410.589278,306.438199,-0.000000,9400.615463
1410.589596,76.609550,148.041188,10066.800811
1410.589913,0.000000,-0.000000,9474.636058
1410.590230,229.828649,444.123565,9548.656652
1410.590547,229.828649,222.061783,9474.636058
1410.590864,153.219100,370.102971,9474.636058
1410.591181,383.047749,-0.000000,9474.636058
1410.591499,383.047749,370.102971,9474.636058
1410.591816,383.047749,148.041188,9474.636058
1410.592133,459.657299,148.041188,9622.677246
1410.592450,612.876398,-0.000000,9622.677246
1410.592767,153.219100,-74.020594,9622.677246
1410.593084,306.438199,-74.020594,9770.718434
1410.593402,306.438199,370.102971,9622.677246
1410.593719,383.047749,296.082377,9696.697840
1410.594036,306.438199,296.082377,9548.656652
1410.594353,612.876398,148.041188,9548.656652
1410.594670,995.924147,222.061783,9622.677246
1410.594987,612.876398,-0.000000,9622.677246
1410.595304,612.876398,-0.000000,9622.677246
1410.595622,689.485948,148.041188,9474.636058
1410.595939,766.095498,296.082377,9770.718434
1410.596256,612.876398,-0.000000,9400.615463
1410.596573,919.314598,-0.000000,9400.615463
1410.596890,842.705048,296.082377,9474.636058
1410.597207,766.095498,-0.000000,9474.636058
1410.597525,842.705048,296.082377,9474.636058
1410.597842,1072.533697,370.102971,9548.656652
1410.598159,1072.533697,296.082377,9474.636058
1410.598476,995.924147,-0.000000,9400.615463
1410.598793,919.314598,-0.000000,9622.677246
1410.599110,1302.362347,-0.000000,9622.677246
1410.599428,766.095498,296.082377,9474.636058
1410.599745,995.924147,444.123565,9326.594869
1410.600062,919.314598,148.041188,9252.574275
1410.600379,1072.533697,222.061783,9178.553681
1410.600696,1149.143247,370.102971,9252.574275
1410.601013,1072.533697,444.123565,9252.574275
1410.601331,1149.143247,370.102971,9252.574275
1410.601648,1225.752797,518.144159,9400.615463
1410.601965,995.924147,814.226536,9326.594869
1410.602282,919.314598,888.247130,9474.636058
1410.602599,689.485948,666.185348,9178.553681
1410.602916,919.314598,518.144159,9326.594869
1410.603234,919.314598,592.164754,9326.594869
1410.603551,1072.533697,592.164754,9622.677246
1410.603868,766.095498,444.123565,9474.636058
1410.604185,842.705048,592.164754,9474.636058
1410.604502,919.314598,666.185348,9474.636058
1410.604820,612.876398,370.102971,9178.553681
1410.605137,383.047749,814.226536,9474.636058
1410.605454,612.876398,592.164754,9326.594869
1410.605771,306.438199,370.102971,9252.574275
1410.606088,306.438199,666.185348,9474.636058
1410.606406,459.657299,518.144159,9474.636058
1410.606723,766.095498,296.082377,9548.656652
1410.607040,383.047749,-0.000000,9474.636058
1410.607357,306.438199,370.102971,9474.636058
1410.607675,306.438199,444.123565,9548.656652
1410.607992,229.828649,444.123565,9474.636058
1410.608309,76.609550,-0.000000,9548.656652
1410.608626,612.876398,444.123565,9696.697840
1410.608943,153.219100,370.102971,9548.656652
1410.609261,612.876398,148.041188,9474.636058
1410.609578,153.219100,222.061783,9400.615463
1410.609895,459.657299,296.082377,9474.636058
1410.610212,306.438199,296.082377,9696.697840
1410.610529,459.657299,148.041188,9548.656652
1410.610847,536.266849,74.020594,9696.697840
1410.611164,612.876398,-74.020594,9548.656652
1410.611481,766.095498,-0.000000,9474.636058
1410.611798,536.266849,-0.000000,9474.636058
1410.612115,842.705048,296.082377,9696.697840
1410.612433,689.485948,148.041188,9474.636058
1410.612750,229.828649,296.082377,9770.718434
1410.613067,766.095498,222.061783,9474.636058
1410.613384,612.876398,-74.020594,9474.636058
1410.613702,919.314598,-0.000000,9474.636058
1410.614019,842.705048,-0.000000,9400.615463
1410.614336,842.705048,-0.000000,9400.615463
1410.614653,995.924147,74.020594,9474.636058
1410.614970,1455.581446,222.061783,9474.636058
1410.615288,919.314598,148.041188,9326.594869
1410.615605,1149.143247,222.061783,9474.636058
1410.615922,1225.752797,222.061783,9400.615463
1410.616239,1072.533697,-0.000000,9252.574275
1410.616556,1072.533697,222.061783,9474.636058
1410.616874,1149.143247,148.041188,9252.574275
1410.617191,1378.971896,-0.000000,9400.615463
1410.617508,1378.971896,-0.000000,9474.636058
1410.617825,766.095498,444.123565,9326.594869
1410.618142,995.924147,-0.000000,8956.491898
1410.618460,1302.362347,222.061783,9178.553681
1410.618777,1149.143247,296.082377,9178.553681
1410.619094,995.924147,296.082377,9474.636058
1410.619411,1072.533697,222.061783,9326.594869
1410.619729,995.924147,370.102971,9326.594869
1410.620046,842.705048,370.102971,9474.636058
1410.620363,766.095498,296.082377,9030.512492
1410.620680,1225.752797,518.144159,9252.574275
1410.620997,842.705048,370.102971,9400.615463
1410.621315,1072.533697,444.123565,9326.594869
1410.621632,919.314598,444.123565,9326.594869
1410.621949,1072.533697,518.144159,9474.636058
1410.622266,612.876398,370.102971,9400.615463
1410.622583,536.266849,370.102971,9474.636058
1410.622901,612.876398,444.123565,9474.636058
1410.623218,459.657299,518.144159,9474.636058
1410.623535,536.266849,-0.000000,9474.636058
1410.623852,306.438199,518.144159,9696.697840
1410.624169,689.485948,666.185348,9474.636058
1410.624487,612.876398,444.123565,9548.656652
1410.624804,76.609550,370.102971,9474.636058
1410.625121,459.657299,666.185348,9622.677246
1410.625438,383.047749,296.082377,9474.636058
1410.625756,383.047749,370.102971,9474.636058
1410.626073,229.828649,222.061783,9622.677246
1410.626390,536.266849,222.061783,9770.718434
1410.626707,383.047749,518.144159,9474.636058
1410.627024,612.876398,296.082377,9548.656652
1410.627342,383.047749,444.123565,9474.636058
1410.627659,689.485948,148.041188,9548.656652
1410.627976,536.266849,74.020594,9548.656652
1410.628293,383.047749,222.061783,9548.656652
1410.628610,536.266849,-0.000000,9474.636058
1410.628928,612.876398,222.061783,9474.636058
1410.629245,536.266849,444.123565,9548.656652
1410.629562,612.876398,296.082377,9474.636058
1410.629879,766.095498,296.082377,9474.636058
1410.630196,842.705048,148.041188,9622.677246
1410.630514,842.705048,148.041188,9622.677246
1410.630831,919.314598,-0.000000,9474.636058
1410.631148,383.047749,-148.041188,9400.615463
1410.631465,842.705048,-0.000000,9474.636058
1410.631783,612.876398,148.041188,9474.636058
1410.632100,995.924147,-0.000000,9474.636058
1410.632417,995.924147,-0.000000,9474.636058
1410.632734,689.485948,222.061783,9474.636058
1410.633051,842.705048,148.041188,9400.615463
1410.633369,919.314598,148.041188,9474.636058
1410.633686,842.705048,-0.000000,9400.615463
1410.634003,919.314598,-148.041188,9178.553681
1410.634320,919.314598,222.061783,9474.636058
1410.634637,689.485948,-0.000000,9474.636058
1410.634955,919.314598,-0.000000,9326.594869
1410.635272,1149.143247,-0.000000,9178.553681
1410.635589,1225.752797,222.061783,9178.553681
1410.635906,1149.143247,222.061783,9252.574275
1410.636223,995.924147,222.061783,9252.574275
1410.636541,995.924147,148.041188,9252.574275
1410.636858,919.314598,518.144159,9548.656652
1410.637175,1378.971896,-0.000000,8882.471304
1410.637492,1149.143247,148.041188,9252.574275
1410.637810,842.705048,296.082377,9326.594869
1410.638127,1072.533697,370.102971,9030.512492
1410.638444,919.314598,296.082377,9178.553681
1410.638761,919.314598,444.123565,9548.656652
1410.639078,995.924147,370.102971,9252.574275
1410.639396,995.924147,444.123565,9474.636058
1410.639713,995.924147,444.123565,9326.594869
1410.640030,995.924147,592.164754,9326.594869
1410.640347,1225.752797,148.041188,9474.636058
1410.640664,766.095498,592.164754,9474.636058
1410.640982,459.657299,148.041188,9326.594869
1410.641299,459.657299,148.041188,9400.615463
1410.641616,766.095498,296.082377,9474.636058
1410.641933,612.876398,296.082377,9474.636058
1410.642250,536.266849,370.102971,9474.636058
1410.642568,459.657299,518.144159,9474.636058
1410.642885,612.876398,444.123565,9622.677246
1410.643202,229.828649,370.102971,9622.677246
1410.643519,536.266849,74.020594,9622.677246
1410.643837,153.219100,-0.000000,9548.656652
1410.644154,536.266849,444.123565,9474.636058
1410.644471,306.438199,370.102971,9548.656652
1410.644788,612.876398,-0.000000,9474.636058
1410.645105,459.657299,-0.000000,9548.656652
1410.645423,536.266849,-0.000000,9696.697840
1410.645740,229.828649,-74.020594,9622.677246
1410.646057,383.047749,148.041188,9474.636058
1410.646374,459.657299,148.041188,9696.697840
1410.646691,612.876398,222.061783,9992.780217
1410.647009,536.266849,-0.000000,9400.615463
1410.647326,766.095498,370.102971,9474.636058
1410.647643,842.705048,-0.000000,9474.636058
1410.647960,766.095498,74.020594,9622.677246
1410.648277,689.485948,-0.000000,9474.636058
1410.648595,766.095498,-0.000000,9400.615463
1410.648912,766.095498,-0.000000,9474.636058
1410.649229,919.314598,-0.000000,9326.594869
1410.649546,1225.752797,-0.000000,9326.594869
1410.649864,1149.143247,-0.000000,9622.677246
1410.650181,919.314598,-0.000000,9474.636058
1410.650498,995.924147,-0.000000,9400.615463
1410.650815,1072.533697,-0.000000,9326.594869
1410.651132,1072.533697,-0.000000,9178.553681
1410.651450,1072.533697,-0.000000,9400.615463
1410.651767,1072.533697,-0.000000,9252.574275
1410.652084,1072.533697,-0.000000,9474.636058
1410.652401,1072.533697,-0.000000,9326.594869
1410.652718,842.705048,-0.000000,9474.636058
1410.653036,995.924147,-0.000000,9104.533087
1410.653353,1072.533697,296.082377,9104.533087
1410.653670,919.314598,-0.000000,9178.553681
1410.653987,995.924147,-0.000000,9474.636058
1410.654304,1302.362347,-74.020594,8808.450710
1410.654622,1072.533697,-0.000000,9178.553681
1410.654939,1149.143247,222.061783,9252.574275
1410.655256,919.314598,222.061783,9252.574275
1410.655573,842.705048,-0.000000,9178.553681
1410.655891,766.095498,148.041188,9178.553681
1410.656208,766.095498,148.041188,9104.533087
1410.656525,766.095498,222.061783,9104.533087
1410.656842,766.095498,222.061783,9178.553681
1410.657159,689.485948,296.082377,9326.594869
1410.657477,536.266849,444.123565,9548.656652
1410.657794,766.095498,148.041188,9326.594869
1410.658111,536.266849,222.061783,9252.574275
1410.658428,612.876398,296.082377,9400.615463
1410.658745,612.876398,296.082377,9400.615463
1410.659063,1532.190996,-148.041188,9104.533087
1410.659380,766.095498,222.061783,9326.594869
1410.659697,383.047749,-0.000000,9474.636058
1410.660014,229.828649,148.041188,9326.594869
1410.660331,536.266849,296.082377,9548.656652
1410.660649,459.657299,-0.000000,9474.636058
1410.660966,383.047749,296.082377,9474.636058
1410.661283,612.876398,296.082377,9548.656652
1410.661600,612.876398,222.061783,9474.636058
1410.661918,383.047749,-0.000000,9400.615463
1410.662235,459.657299,-0.000000,9548.656652
1410.662552,306.438199,148.041188,9622.677246
1410.662869,229.828649,148.041188,9622.677246
1410.663186,229.828649,148.041188,9696.697840
1410.663504,842.705048,74.020594,9548.656652
1410.663821,536.266849,-0.000000,9474.636058
1410.664138,612.876398,-0.000000,9548.656652
1410.664455,383.047749,-0.000000,9548.656652
1410.664772,459.657299,-0.000000,9548.656652
1410.665090,612.876398,-222.061783,9622.677246
1410.665407,612.876398,-0.000000,9474.636058
1410.665724,536.266849,-74.020594,9474.636058
1410.666041,689.485948,-0.000000,9548.656652
1410.666358,689.485948,222.061783,9548.656652
1410.666676,842.705048,-0.000000,9474.636058
1410.666993,612.876398,148.041188,9770.718434
1410.667310,919.314598,-0.000000,9400.615463
1410.667627,919.314598,148.041188,9400.615463
1410.667945,612.876398,-0.000000,9474.636058
1410.668262,1149.143247,-0.000000,9474.636058
1410.668579,766.095498,-0.000000,9696.697840
1410.668896,842.705048,-0.000000,9326.594869
1410.669213,842.705048,-0.000000,9474.636058
1410.669531,842.705048,-0.000000,9474.636058
1410.669848,919.314598,148.041188,9178.553681
1410.670165,919.314598,296.082377,9400.615463
1410.670482,1072.533697,370.102971,9326.594869
1410.670799,1225.752797,222.061783,9178.553681
1410.671117,1072.533697,296.082377,9252.574275
1410.671434,995.924147,74.020594,9400.615463
1410.671751,1072.533697,-0.000000,9252.574275
1410.672068,919.314598,370.102971,9178.553681
1410.672385,1149.143247,444.123565,9400.615463
1410.672703,1225.752797,222.061783,9326.594869
1410.673020,1225.752797,444.123565,9104.533087
1410.673337,1149.143247,370.102971,9178.553681
1410.673654,842.705048,444.123565,9326.594869
1410.673972,1455.581446,740.205942,9326.594869
1410.674289,1225.752797,518.144159,9252.574275
1410.674606,689.485948,518.144159,9400.615463
1410.674923,766.095498,222.061783,9474.636058
1410.675240,919.314598,370.102971,9400.615463
1410.675558,995.924147,444.123565,9474.636058
1410.675875,919.314598,592.164754,9326.594869
1410.676192,919.314598,444.123565,9252.574275
1410.676509,842.705048,518.144159,9326.594869
1410.676826,689.485948,592.164754,9326.594869
1410.677144,383.047749,518.144159,9326.594869
1410.677461,459.657299,740.205942,9474.636058
1410.677778,536.266849,296.082377,9400.615463
1410.678095,459.657299,444.123565,9400.615463
1410.678412,536.266849,222.061783,9548.656652
1410.678730,459.657299,370.102971,9474.636058
1410.679047,459.657299,444.123565,9548.656652
1410.679364,536.266849,444.123565,9474.636058
1410.679681,306.438199,370.102971,9474.636058
1410.679999,383.047749,-0.000000,9474.636058
1410.680316,612.876398,148.041188,9474.636058
1410.680633,459.657299,148.041188,9400.615463
1410.680950,536.266849,222.061783,9548.656652
1410.681267,229.828649,222.061783,9548.656652
1410.681585,229.828649,-0.000000,9474.636058
1410.681902,766.095498,444.123565,9548.656652
1410.682219,459.657299,370.102971,9474.636058
1410.682536,766.095498,-0.000000,9622.677246
1410.682853,919.314598,296.082377,9474.636058
1410.683171,919.314598,-74.020594,9474.636058
1410.683488,1225.752797,222.061783,9474.636058
1410.683805,842.705048,-0.000000,9548.656652
1410.684122,766.095498,-0.000000,9548.656652
1410.684439,689.485948,-0.000000,9474.636058
1410.684757,536.266849,-74.020594,9474.636058
1410.685074,995.924147,-0.000000,9474.636058
1410.685391,1225.752797,-0.000000,9474.636058
1410.685708,919.314598,-0.000000,9326.594869
1410.686026,1378.971896,-0.000000,9252.574275
1410.686343,1149.143247,-148.041188,9326.594869
1410.686660,995.924147,148.041188,9474.636058
1410.686977,1072.533697,-0.000000,9474.636058
1410.687294,1072.533697,-0.000000,9474.636058
1410.687612,1072.533697,222.061783,9622.677246
1410.687929,842.705048,-0.000000,9622.677246
1410.688246,1149.143247,-0.000000,9252.574275
1410.688563,766.095498,-0.000000,9178.553681
1410.688880,995.924147,74.020594,9252.574275
1410.689198,842.705048,-0.000000,9474.636058
1410.689515,919.314598,148.041188,9252.574275
1410.689832,919.314598,296.082377,9252.574275
1410.690149,919.314598,222.061783,9252.574275
1410.690466,1072.533697,-0.000000,9252.574275
1410.690784,1302.362347,370.102971,9252.574275
1410.691101,536.266849,518.144159,9178.553681
1410.691418,459.657299,296.082377,9400.615463
1410.691735,536.266849,444.123565,9178.553681
1410.692053,612.876398,444.123565,9252.574275
1410.692370,612.876398,-222.061783,9030.512492
1410.692687,689.485948,296.082377,9326.594869
1410.693004,459.657299,296.082377,9326.594869
1410.693321,689.485948,296.082377,9178.553681
1410.693639,766.095498,444.123565,9400.615463
1410.693956,842.705048,-0.000000,9622.677246
1410.694273,229.828649,370.102971,9178.553681
1410.694590,306.438199,444.123565,9326.594869
1410.694907,306.438199,370.102971,9326.594869
1410.695225,459.657299,444.123565,9474.636058
1410.695542,612.876398,296.082377,9474.636058
1410.695859,306.438199,370.102971,9548.656652
1410.696176,536.266849,296.082377,9474.636058
1410.696493,612.876398,296.082377,9548.656652
1410.696811,383.047749,296.082377,9844.739029
1410.697128,306.438199,518.144159,9622.677246
1410.697445,229.828649,296.082377,9844.739029
1410.697762,536.266849,370.102971,9474.636058
1410.698080,459.657299,296.082377,9474.636058
1410.698397,612.876398,-74.020594,9474.636058
1410.698714,459.657299,-0.000000,9622.677246
1410.699031,459.657299,-0.000000,9474.636058
1410.699348,536.266849,222.061783,9696.697840
1410.699666,612.876398,222.061783,9696.697840
1410.699983,459.657299,296.082377,9622.677246
1410.700300,919.314598,296.082377,9548.656652
1410.700617,842.705048,222.061783,9548.656652
1410.700934,842.705048,-0.000000,9474.636058
1410.701252,766.095498,148.041188,9548.656652
1410.701569,995.924147,-0.000000,9844.739029
1410.701886,995.924147,-0.000000,9474.636058
1410.702203,689.485948,148.041188,9474.636058
1410.702520,842.705048,148.041188,9474.636058
1410.702838,1072.533697,148.041188,9474.636058
1410.703155,995.924147,-0.000000,9548.656652
1410.703472,842.705048,222.061783,9474.636058
1410.703789,919.314598,-0.000000,9104.533087
1410.704107,842.705048,-0.000000,9400.615463
1410.704424,1149.143247,148.041188,9400.615463
1410.704741,842.705048,-0.000000,9474.636058
1410.705058,995.924147,148.041188,9400.615463
1410.705376,1149.143247,222.061783,9474.636058
1410.705693,995.924147,222.061783,9400.615463
1410.706010,995.924147,-0.000000,9474.636058
1410.706327,842.705048,296.082377,9474.636058
1410.706645,689.485948,-0.000000,9400.615463
1410.706962,995.924147,148.041188,9178.553681
1410.707279,1225.752797,148.041188,9252.574275
1410.707597,1225.752797,370.102971,9104.533087
1410.707914,1302.362347,296.082377,9252.574275
1410.708231,1149.143247,444.123565,9252.574275
1410.708548,919.314598,370.102971,9104.533087
1410.708866,842.705048,296.082377,9030.512492
1410.709183,1072.533697,370.102971,9178.553681
1410.709500,1149.143247,296.082377,9178.553681
1410.709818,612.876398,148.041188,9252.574275
1410.710135,689.485948,370.102971,9400.615463
1410.710452,689.485948,148.041188,9326.594869
1410.710769,459.657299,222.061783,9104.533087
1410.711087,612.876398,296.082377,9474.636058
1410.711404,612.876398,444.123565,9252.574275
1410.711721,536.266849,296.082377,9400.615463
1410.712039,1225.752797,370.102971,9474.636058
1410.712356,229.828649,222.061783,9474.636058
1410.712673,536.266849,518.144159,9474.636058
1410.712990,459.657299,370.102971,9252.574275
1410.713308,612.876398,370.102971,9474.636058
1410.713625,1149.143247,222.061783,9252.574275
1410.713942,612.876398,370.102971,9474.636058
1410.714260,612.876398,296.082377,9474.636058
1410.714577,612.876398,370.102971,9400.615463
1410.714894,689.485948,518.144159,9474.636058
1410.715211,612.876398,296.082377,9548.656652
1410.715529,612.876398,370.102971,9474.636058
1410.715846,689.485948,296.082377,9548.656652
1410.716163,766.095498,296.082377,9622.677246
1410.716481,1072.533697,-148.041188,9474.636058
1410.716798,459.657299,-0.000000,9474.636058
1410.717115,536.266849,-0.000000,9474.636058
1410.717432,766.095498,296.082377,9622.677246
1410.717750,842.705048,370.102971,9622.677246
1410.718067,612.876398,-0.000000,9474.636058
1410.718384,766.095498,-0.000000,9474.636058
1410.718702,612.876398,-0.000000,9474.636058
1410.719019,536.266849,-0.000000,9474.636058
1410.719336,766.095498,-0.000000,9548.656652
1410.719653,842.705048,-74.020594,9474.636058
1410.719971,842.705048,74.020594,9400.615463
1410.720288,612.876398,-0.000000,9474.636058
1410.720605,689.485948,-0.000000,9548.656652
1410.720923,919.314598,-0.000000,9474.636058
1410.721240,842.705048,-0.000000,9474.636058
1410.721557,766.095498,-0.000000,9400.615463
1410.721874,612.876398,-0.000000,9474.636058
1410.722192,919.314598,-0.000000,9474.636058
1410.722509,766.095498,-0.000000,9252.574275
1410.722826,536.266849,-0.000000,9474.636058
1410.723144,1149.143247,222.061783,9252.574275
1410.723461,842.705048,296.082377,9400.615463
1410.723778,766.095498,370.102971,9474.636058
1410.724095,919.314598,-0.000000,9400.615463
1410.724413,1225.752797,222.061783,9474.636058
1410.724730,1072.533697,-0.000000,9252.574275
1410.725047,1072.533697,148.041188,9252.574275
1410.725365,1072.533697,74.020594,9252.574275
1410.725682,1455.581446,-0.000000,9178.553681
1410.725999,995.924147,-0.000000,9326.594869
1410.726316,1225.752797,222.061783,9030.512492
1410.726634,995.924147,370.102971,9252.574275
1410.726951,766.095498,222.061783,9178.553681
1410.727268,842.705048,222.061783,9326.594869
1410.727586,536.266849,148.041188,9178.553681
1410.727903,842.705048,-0.000000,9178.553681
1410.728220,459.657299,370.102971,9400.615463
1410.728537,766.095498,-0.000000,9178.553681
1410.728855,919.314598,370.102971,9474.636058
1410.729172,383.047749,518.144159,9622.677246
1410.729489,842.705048,518.144159,9400.615463
1410.729807,536.266849,444.123565,9326.594869
1410.730124,459.657299,148.041188,9474.636058
1410.730441,612.876398,-0.000000,9474.636058
1410.730758,536.266849,-0.000000,9474.636058
1410.731076,536.266849,-0.000000,9474.636058
1410.731393,306.438199,148.041188,9474.636058
1410.731710,229.828649,222.061783,9696.697840
1410.732028,76.609550,-0.000000,9474.636058
1410.732345,306.438199,74.020594,9844.739029
1410.732662,459.657299,296.082377,9474.636058
1410.732979,229.828649,-0.000000,9474.636058
1410.733297,612.876398,-0.000000,9548.656652
1410.733614,76.609550,370.102971,9696.697840
1410.733931,383.047749,-0.000000,9548.656652
1410.734249,612.876398,148.041188,9696.697840
1410.734566,536.266849,-0.000000,9548.656652
1410.734883,919.314598,148.041188,9918.759623
1410.735200,689.485948,-0.000000,9400.615463
1410.735518,612.876398,-0.000000,9622.677246
1410.735835,766.095498,-0.000000,9474.636058
1410.736152,842.705048,222.061783,9474.636058
1410.736470,1072.533697,-0.000000,9622.677246
1410.736787,766.095498,-0.000000,9474.636058
1410.737104,919.314598,-0.000000,9474.636058
1410.737421,919.314598,-0.000000,9696.697840
1410.737739,689.485948,148.041188,9548.656652
1410.738056,766.095498,-0.000000,9326.594869
1410.738373,1072.533697,-0.000000,9252.574275
1410.738691,919.314598,-74.020594,9548.656652
1410.739008,995.924147,-0.000000,9400.615463
1410.739325,1072.533697,-0.000000,9400.615463
1410.739642,842.705048,-0.000000,9696.697840
1410.739960,1302.362347,-0.000000,9400.615463
1410.740277,1302.362347,222.061783,9252.574275
1410.740594,1302.362347,148.041188,9400.615463
1410.740912,1302.362347,296.082377,9400.615463
1410.741229,1302.362347,222.061783,9252.574275
1410.741546,1455.581446,518.144159,9252.574275
1410.741863,1149.143247,-0.000000,9252.574275
1410.742181,1072.533697,-0.000000,9252.574275
1410.742498,1225.752797,-0.000000,9326.594869
1410.742815,1378.971896,518.144159,9400.615463
1410.743133,995.924147,296.082377,9178.553681
1410.743450,1302.362347,-0.000000,9252.574275
1410.743767,1225.752797,518.144159,9252.574275
1410.744084,1762.019645,148.041188,9030.512492
1410.744402,919.314598,296.082377,9326.594869
1410.744719,995.924147,518.144159,9252.574275
1410.745036,612.876398,222.061783,9104.533087
1410.745354,766.095498,370.102971,9400.615463
1410.745671,76.609550,370.102971,9474.636058
1410.745988,459.657299,518.144159,9326.594869
1410.746305,766.095498,370.102971,9178.553681
1410.746623,536.266849,370.102971,9178.553681
1410.746940,536.266849,518.144159,9178.553681
1410.747257,536.266849,592.164754,9400.615463
1410.747575,536.266849,592.164754,9474.636058
1410.747892,459.657299,370.102971,9326.594869
1410.748209,383.047749,370.102971,9548.656652
1410.748526,153.219100,444.123565,9474.636058
1410.748844,612.876398,148.041188,9326.594869
1410.749161,306.438199,370.102971,9548.656652
1410.749478,76.609550,222.061783,9474.636058
1410.749796,153.219100,74.020594,9548.656652
1410.750113,0.000000,-0.000000,9622.677246
1410.750430,0.000000,148.041188,9474.636058
1410.750747,306.438199,444.123565,9770.718434
1410.751065,229.828649,-0.000000,9474.636058
1410.751382,306.438199,-0.000000,9548.656652
1410.751699,383.047749,-0.000000,9474.636058
1410.752017,536.266849,-0.000000,9622.677246
1410.752334,383.047749,296.082377,9622.677246
1410.752651,383.047749,296.082377,9548.656652
1410.752968,612.876398,148.041188,9474.636058
1410.753286,919.314598,222.061783,9326.594869
1410.753603,919.314598,222.061783,9474.636058
1410.753920,842.705048,370.102971,9548.656652
1410.754238,536.266849,148.041188,9548.656652
1410.754555,995.924147,222.061783,9696.697840
1410.754872,689.485948,-222.061783,9622.677246
1410.755189,689.485948,-0.000000,9474.636058
1410.755507,842.705048,-0.000000,9474.636058
1410.755824,995.924147,-0.000000,9474.636058
1410.756141,1072.533697,148.041188,9474.636058
1410.756459,1072.533697,-0.000000,9474.636058
1410.756776,919.314598,-0.000000,9400.615463
1410.757093,1149.143247,148.041188,9400.615463
1410.757410,1072.533697,-0.000000,9400.615463
1410.757728,1838.629195,222.061783,9622.677246
1410.758045,919.314598,148.041188,9474.636058
1410.758362,1302.362347,-0.000000,9326.594869
1410.758680,1225.752797,-0.000000,9326.594869
1410.758997,1302.362347,444.123565,9326.594869
1410.759314,1072.533697,296.082377,9474.636058
1410.759631,1072.533697,296.082377,9252.574275
1410.759949,919.314598,-0.000000,9178.553681
1410.760266,842.705048,-0.000000,9400.615463
1410.760583,995.924147,-0.000000,9326.594869
1410.760901,919.314598,370.102971,9400.615463
1410.761218,995.924147,370.102971,9474.636058
1410.761535,766.095498,444.123565,9326.594869
1410.761852,995.924147,370.102971,9178.553681
1410.762170,1225.752797,518.144159,9178.553681
1410.762487,842.705048,370.102971,9178.553681
1410.762804,689.485948,444.123565,9326.594869
1410.763122,689.485948,296.082377,9252.574275
1410.763439,459.657299,296.082377,9326.594869
1410.763756,612.876398,518.144159,9474.636058
1410.764073,306.438199,222.061783,9400.615463
1410.764391,612.876398,740.205942,9474.636058
1410.764708,459.657299,370.102971,9400.615463
1410.765025,459.657299,370.102971,9326.594869
1410.765343,383.047749,148.041188,9400.615463
1410.765660,383.047749,444.123565,9474.636058
1410.765977,229.828649,370.102971,9400.615463
1410.766295,0.000000,296.082377,9474.636058
1410.766612,229.828649,296.082377,9474.636058
1410.766929,689.485948,370.102971,9696.697840
1410.767246,229.828649,296.082377,9474.636058
1410.767564,76.609550,-0.000000,9474.636058
1410.767881,612.876398,518.144159,9474.636058
1410.768198,306.438199,370.102971,9474.636058
1410.768516,459.657299,-0.000000,9770.718434
1410.768833,383.047749,148.041188,9474.636058
1410.769150,459.657299,296.082377,9474.636058
1410.769467,459.657299,-0.000000,9548.656652
1410.769785,1072.533697,444.123565,9622.677246
1410.770102,1302.362347,-0.000000,9474.636058
1410.770419,536.266849,370.102971,9844.739029
1410.770737,612.876398,222.061783,9548.656652
1410.771054,766.095498,-0.000000,9622.677246
1410.771371,842.705048,-0.000000,9622.677246
1410.771688,842.705048,-0.000000,9548.656652
1410.772006,766.095498,222.061783,9548.656652
1410.772323,689.485948,-0.000000,9474.636058
1410.772640,842.705048,-0.000000,9622.677246
1410.772958,919.314598,-0.000000,9770.718434
1410.773275,919.314598,148.041188,9696.697840
1410.773592,995.924147,296.082377,9326.594869
1410.773909,766.095498,-74.020594,9474.636058
1410.774227,842.705048,-0.000000,9548.656652
1410.774544,842.705048,-0.000000,9474.636058
1410.774861,919.314598,-0.000000,9400.615463
1410.775179,842.705048,-0.000000,9474.636058
1410.775496,766.095498,-0.000000,9474.636058
1410.775813,919.314598,222.061783,9474.636058
1410.776130,995.924147,-0.000000,9474.636058
1410.776448,1149.143247,444.123565,9844.739029
1410.776765,1225.752797,74.020594,9474.636058
1410.777082,1149.143247,296.082377,9548.656652
1410.777400,919.314598,148.041188,9326.594869
1410.777717,1072.533697,-0.000000,9326.594869
1410.778034,1149.143247,370.102971,9326.594869
1410.778351,842.705048,296.082377,9400.615463
1410.778669,1149.143247,-0.000000,9178.553681
1410.778986,842.705048,444.123565,9326.594869
1410.779303,1072.533697,370.102971,9178.553681
1410.779621,1072.533697,222.061783,9030.512492
1410.779938,766.095498,370.102971,9178.553681
1410.780255,1072.533697,444.123565,9326.594869
1410.780572,842.705048,370.102971,9178.553681
1410.780890,1149.143247,592.164754,9178.553681
1410.781207,842.705048,296.082377,9252.574275
1410.781524,919.314598,518.144159,9326.594869
1410.781842,612.876398,444.123565,9252.574275
1410.782159,919.314598,370.102971,9474.636058
1410.782476,229.828649,444.123565,9104.533087
1410.782793,842.705048,740.205942,9104.533087
1410.783111,766.095498,370.102971,9326.594869
1410.783428,459.657299,370.102971,9400.615463
1410.783745,689.485948,444.123565,9474.636058
1410.784063,383.047749,222.061783,9400.615463
1410.784380,536.266849,444.123565,9474.636058
1410.784697,459.657299,296.082377,9548.656652
1410.785014,459.657299,444.123565,9474.636058
1410.785332,842.705048,-0.000000,9400.615463
1410.785649,229.828649,370.102971,9400.615463
1410.785966,383.047749,370.102971,9474.636058
1410.786284,383.047749,370.102971,9548.656652
1410.786601,229.828649,222.061783,9770.718434
1410.786918,459.657299,-148.041188,9770.718434
1410.787235,76.609550,148.041188,9622.677246
1410.787553,459.657299,222.061783,9696.697840
1410.787870,306.438199,296.082377,9474.636058
1410.788187,229.828649,-0.000000,9474.636058
1410.788505,536.266849,74.020594,9770.718434
1410.788822,536.266849,148.041188,9474.636058
1410.789139,383.047749,-0.000000,9696.697840
1410.789456,689.485948,-0.000000,9548.656652
1410.789774,612.876398,-0.000000,9696.697840
1410.790091,459.657299,148.041188,9474.636058
1410.790408,689.485948,148.041188,9622.677246
1410.790726,1225.752797,148.041188,9474.636058
1410.791043,919.314598,-0.000000,9400.615463
1410.791360,766.095498,-0.000000,9548.656652
1410.791677,842.705048,148.041188,9474.636058
1410.791995,842.705048,-0.000000,9474.636058
1410.792312,689.485948,-0.000000,9474.636058
1410.792629,1378.971896,-0.000000,9622.677246
1410.792947,689.485948,-0.000000,9474.636058
1410.793264,995.924147,148.041188,9474.636058
1410.793581,919.314598,-0.000000,9474.636058
1410.793898,1072.533697,-0.000000,9400.615463
1410.794216,1149.143247,-0.000000,9104.533087
1410.794533,1072.533697,296.082377,9326.594869
1410.794850,1072.533697,148.041188,9400.615463
1410.795168,1072.533697,148.041188,9326.594869
1410.795485,1225.752797,-0.000000,9400.615463
1410.795802,995.924147,148.041188,9326.594869
1410.796119,842.705048,74.020594,9474.636058
1410.796437,919.314598,296.082377,9326.594869
1410.796754,995.924147,148.041188,9400.615463
1410.797071,1149.143247,370.102971,9252.574275
1410.797389,842.705048,222.061783,9326.594869
1410.797706,766.095498,-0.000000,9326.594869
1410.798023,919.314598,222.061783,9400.615463
1410.798340,536.266849,-0.000000,9400.615463
1410.798658,689.485948,-0.000000,9252.574275
1410.798975,1225.752797,-0.000000,9400.615463
1410.799292,689.485948,296.082377,9178.553681
1410.799610,612.876398,-0.000000,9474.636058
1410.799927,536.266849,222.061783,9400.615463
1410.800244,689.485948,296.082377,9474.636058
1410.800561,612.876398,148.041188,9474.636058
1410.800879,536.266849,222.061783,9326.594869
1410.801196,459.657299,148.041188,9400.615463
1410.801513,229.828649,-0.000000,9400.615463
1410.801831,306.438199,370.102971,9474.636058
1410.802148,689.485948,-0.000000,9622.677246
1410.802465,459.657299,148.041188,9400.615463
1410.802782,306.438199,296.082377,9400.615463
1410.803100,459.657299,-0.000000,9326.594869
1410.803417,459.657299,-0.000000,9696.697840
1410.803734,459.657299,-0.000000,9400.615463
1410.804052,383.047749,-0.000000,9326.594869
1410.804369,536.266849,-0.000000,9474.636058
1410.804686,306.438199,-0.000000,9474.636058
1410.805003,383.047749,-0.000000,9622.677246
1410.805321,229.828649,-0.000000,9474.636058
1410.805638,689.485948,-0.000000,9400.615463
1410.805955,536.266849,296.082377,9474.636058
1410.806273,536.266849,-0.000000,9474.636058
1410.806590,612.876398,-0.000000,9400.615463
1410.806907,536.266849,-0.000000,9474.636058
1410.807224,689.485948,-0.000000,9548.656652
1410.807541,536.266849,-0.000000,9474.636058
1410.807859,536.266849,-0.000000,9474.636058
1410.808176,919.314598,-0.000000,9844.739029
1410.808493,536.266849,74.020594,9474.636058
1410.808810,995.924147,148.041188,9326.594869
1410.809127,766.095498,-0.000000,9178.553681
1410.809445,919.314598,-0.000000,9548.656652
1410.809762,995.924147,-0.000000,9548.656652
1410.810079,919.314598,-0.000000,9548.656652
1410.810396,995.924147,-0.000000,9474.636058
1410.810713,919.314598,370.102971,9474.636058
1410.811031,1532.190996,-0.000000,9400.615463
1410.811348,1072.533697,370.102971,9548.656652
1410.811665,1149.143247,296.082377,9326.594869
1410.811982,1072.533697,222.061783,9252.574275
1410.812299,1072.533697,370.102971,9400.615463
1410.812617,1149.143247,370.102971,9326.594869
1410.812934,1149.143247,296.082377,9326.594869
1410.813251,995.924147,370.102971,9400.615463
1410.813568,1072.533697,222.061783,9178.553681
1410.813885,1225.752797,444.123565,9474.636058
1410.814203,1378.971896,592.164754,9548.656652
1410.814520,1072.533697,444.123565,9400.615463
1410.814837,1072.533697,518.144159,9474.636058
1410.815154,1072.533697,444.123565,9326.594869
1410.815472,1149.143247,444.123565,9252.574275
1410.815789,1302.362347,370.102971,9622.677246
1410.816106,689.485948,518.144159,9474.636058
1410.816423,766.095498,592.164754,9400.615463
1410.816740,919.314598,592.164754,9548.656652
1410.817058,689.485948,592.164754,9400.615463
1410.817375,1149.143247,370.102971,9474.636058
1410.817692,766.095498,296.082377,9326.594869
1410.818009,459.657299,592.164754,9326.594869
1410.818326,536.266849,370.102971,9474.636058
1410.818644,383.047749,296.082377,9400.615463
1410.818961,842.705048,-0.000000,9474.636058
1410.819278,612.876398,296.082377,9474.636058
1410.819595,459.657299,370.102971,9474.636058
1410.819912,229.828649,444.123565,9622.677246
1410.820230,0.000000,518.144159,9622.677246
1410.820547,459.657299,740.205942,9474.636058
1410.820864,459.657299,-0.000000,9474.636058
1410.821181,383.047749,-0.000000,9474.636058
1410.821498,459.657299,296.082377,9474.636058
1410.821816,842.705048,-0.000000,9548.656652
1410.822133,459.657299,-0.000000,9548.656652
1410.822450,536.266849,-0.000000,9474.636058
1410.822767,306.438199,-0.000000,9622.677246
1410.823084,459.657299,-0.000000,9474.636058
1410.823402,536.266849,148.041188,9622.677246
1410.823719,306.438199,222.061783,9474.636058
1410.824036,612.876398,-0.000000,9474.636058
1410.824353,536.266849,-0.000000,9474.636058
1410.824670,306.438199,-0.000000,9474.636058
1410.824988,766.095498,-0.000000,9696.697840
1410.825305,459.657299,148.041188,9622.677246
1410.825622,689.485948,-0.000000,9474.636058
1410.825939,612.876398,-0.000000,9548.656652
1410.826256,383.047749,-0.000000,9474.636058
1410.826574,1149.143247,-0.000000,9474.636058
1410.826891,995.924147,-0.000000,9474.636058
1410.827208,995.924147,-0.000000,9326.594869
1410.827525,1072.533697,-0.000000,9400.615463
1410.827842,919.314598,-0.000000,9474.636058
1410.828160,919.314598,-0.000000,9400.615463
1410.828477,766.095498,-0.000000,9400.615463
1410.828794,1072.533697,-0.000000,9252.574275
1410.829111,842.705048,148.041188,9252.574275
1410.829428,766.095498,-74.020594,9474.636058
1410.829746,842.705048,222.061783,9326.594869
1410.830063,919.314598,222.061783,9104.533087
1410.830380,842.705048,-0.000000,9400.615463
1410.830697,689.485948,74.020594,9326.594869
1410.831015,919.314598,296.082377,9030.512492
1410.831332,995.924147,148.041188,9326.594869
1410.831649,919.314598,296.082377,9326.594869
1410.831966,766.095498,222.061783,9252.574275
1410.832283,766.095498,222.061783,9178.553681
1410.832601,689.485948,518.144159,9400.615463
1410.832918,842.705048,444.123565,9178.553681
1410.833235,995.924147,444.123565,9326.594869
1410.833552,842.705048,592.164754,9400.615463
1410.833869,1072.533697,-0.000000,9400.615463
1410.834187,459.657299,-0.000000,9326.594869
1410.834504,842.705048,518.144159,9400.615463
1410.834821,919.314598,444.123565,9400.615463
1410.835138,766.095498,444.123565,9474.636058
1410.835455,842.705048,148.041188,9622.677246
1410.835773,536.266849,296.082377,9400.615463
1410.836090,459.657299,666.185348,9474.636058
1410.836407,383.047749,370.102971,9400.615463
1410.836724,459.657299,518.144159,9474.636058
1410.837041,1072.533697,370.102971,9622.677246
1410.837359,612.876398,518.144159,9844.739029
1410.837676,459.657299,592.164754,9474.636058
1410.837993,689.485948,296.082377,9474.636058
1410.838310,612.876398,222.061783,9474.636058
1410.838627,689.485948,222.061783,9548.656652
1410.838945,612.876398,296.082377,9474.636058
1410.839262,689.485948,370.102971,9622.677246
1410.839579,536.266849,296.082377,9548.656652
1410.839896,153.219100,-0.000000,9770.718434
1410.840213,766.095498,444.123565,9770.718434
1410.840531,689.485948,-0.000000,9474.636058
1410.840848,612.876398,-0.000000,9548.656652
1410.841165,459.657299,148.041188,9474.636058
1410.841482,459.657299,74.020594,9474.636058
1410.841799,612.876398,-0.000000,9474.636058
1410.842117,612.876398,-0.000000,9622.677246
1410.842434,612.876398,74.020594,9622.677246
1410.842751,689.485948,-0.000000,9622.677246
1410.843068,536.266849,-0.000000,9474.636058
1410.843385,995.924147,370.102971,9548.656652
1410.843703,919.314598,370.102971,9326.594869
1410.844020,995.924147,-0.000000,9474.636058
1410.844337,919.314598,-0.000000,9474.636058
1410.844654,1072.533697,-148.041188,9474.636058
1410.844971,842.705048,-0.000000,9400.615463
1410.845289,1149.143247,-0.000000,9474.636058
1410.845606,1072.533697,-0.000000,9400.615463
1410.845923,1072.533697,-0.000000,9326.594869
1410.846240,1149.143247,-0.000000,9474.636058
1410.846558,612.876398,-0.000000,9400.615463
1410.846875,1149.143247,296.082377,9178.553681
1410.847192,1149.143247,-0.000000,9252.574275
1410.847509,1072.533697,148.041188,9326.594869
1410.847826,1225.752797,-0.000000,9474.636058
1410.848144,1072.533697,148.041188,9252.574275
1410.848461,1302.362347,222.061783,9252.574275
1410.848778,1225.752797,296.082377,9326.594869
1410.849095,1149.143247,518.144159,9474.636058
1410.849412,689.485948,370.102971,9178.553681
1410.849730,1072.533697,222.061783,9104.533087
1410.850047,919.314598,148.041188,9326.594869
1410.850364,1072.533697,518.144159,9178.553681
1410.850681,919.314598,296.082377,9030.512492
1410.850998,995.924147,296.082377,9104.533087
1410.851316,1225.752797,518.144159,9178.553681
1410.851633,689.485948,296.082377,9400.615463
1410.851950,766.095498,370.102971,9400.615463
1410.852267,995.924147,-0.000000,9400.615463
1410.852584,383.047749,592.164754,9474.636058
1410.852902,612.876398,666.185348,9400.615463
1410.853219,612.876398,370.102971,9400.615463
1410.853536,689.485948,592.164754,9400.615463
1410.853853,689.485948,592.164754,9474.636058
1410.854170,689.485948,444.123565,9474.636058
1410.854488,459.657299,370.102971,9474.636058
1410.854805,689.485948,222.061783,9474.636058
1410.855122,459.657299,296.082377,9474.636058
1410.855439,766.095498,370.102971,9548.656652
1410.855756,306.438199,222.061783,9400.615463
1410.856074,612.876398,370.102971,9474.636058
1410.856391,306.438199,370.102971,9548.656652
1410.856708,383.047749,518.144159,9474.636058
1410.857025,689.485948,222.061783,9548.656652
1410.857342,383.047749,370.102971,9622.677246
1410.857660,383.047749,296.082377,9474.636058
1410.857977,612.876398,296.082377,9548.656652
1410.858294,536.266849,444.123565,9474.636058
1410.858611,536.266849,-0.000000,9696.697840
1410.858928,459.657299,444.123565,9770.718434
1410.859246,919.314598,370.102971,9474.636058
1410.859563,612.876398,370.102971,9548.656652
1410.859880,766.095498,222.061783,9770.718434
1410.860197,919.314598,-0.000000,9696.697840
1410.860515,689.485948,222.061783,9548.656652
1410.860832,995.924147,-0.000000,9474.636058
1410.861149,766.095498,222.061783,9622.677246
1410.861466,1072.533697,296.082377,9474.636058
1410.861783,842.705048,-0.000000,9474.636058
1410.862101,766.095498,148.041188,9622.677246
1410.862418,689.485948,-0.000000,9474.636058
1410.862735,842.705048,-0.000000,9326.594869
1410.863052,919.314598,-222.061783,9622.677246
1410.863369,842.705048,148.041188,9548.656652
1410.863687,1072.533697,-0.000000,9474.636058
1410.864004,919.314598,222.061783,9474.636058
1410.864321,919.314598,222.061783,9400.615463
1410.864638,919.314598,222.061783,9474.636058
1410.864955,919.314598,-0.000000,9400.615463
1410.865273,1378.971896,222.061783,9326.594869
1410.865590,1149.143247,222.061783,9326.594869
1410.865907,1149.143247,-0.000000,9252.574275
1410.866224,919.314598,222.061783,9178.553681
1410.866541,842.705048,296.082377,9252.574275
1410.866859,919.314598,-0.000000,9178.553681
1410.867176,919.314598,148.041188,9252.574275
1410.867493,1302.362347,-0.000000,9474.636058
1410.867810,919.314598,148.041188,9252.574275
1410.868127,842.705048,296.082377,9400.615463
1410.868445,766.095498,370.102971,9326.594869
1410.868762,995.924147,222.061783,9178.553681
1410.869079,1762.019645,296.082377,9030.512492
1410.869396,766.095498,148.041188,9178.553681
1410.869713,842.705048,-0.000000,9178.553681
1410.870031,766.095498,222.061783,9400.615463
1410.870348,459.657299,370.102971,9326.594869
1410.870665,536.266849,296.082377,9474.636058
1410.870982,842.705048,370.102971,9326.594869
1410.871299,766.095498,148.041188,9400.615463
1410.871617,383.047749,-0.000000,9474.636058
1410.871934,689.485948,-0.000000,9622.677246
1410.872251,383.047749,148.041188,9548.656652
1410.872568,536.266849,-0.000000,9474.636058
1410.872885,459.657299,222.061783,9474.636058
1410.873203,459.657299,222.061783,9622.677246
1410.873520,459.657299,-0.000000,9474.636058
1410.873837,383.047749,148.041188,9474.636058
1410.874154,459.657299,148.041188,9474.636058
1410.874471,459.657299,-0.000000,9474.636058
1410.874789,306.438199,222.061783,9548.656652
1410.875106,459.657299,-74.020594,9326.594869
1410.875423,612.876398,-74.020594,9474.636058
1410.875740,459.657299,-0.000000,9548.656652
1410.876058,612.876398,-0.000000,9474.636058
1410.876375,612.876398,-0.000000,9474.636058
1410.876692,612.876398,-0.000000,9474.636058
1410.877009,689.485948,-0.000000,9474.636058
1410.877326,689.485948,296.082377,9474.636058
1410.877644,689.485948,148.041188,9474.636058
1410.877961,995.924147,-74.020594,9474.636058
1410.878278,842.705048,-0.000000,9622.677246
1410.878595,612.876398,-0.000000,9548.656652
1410.878912,766.095498,-0.000000,9474.636058
1410.879230,842.705048,296.082377,9696.697840
1410.879547,842.705048,-0.000000,9326.594869
1410.879864,919.314598,148.041188,9474.636058
1410.880181,995.924147,-0.000000,9474.636058
1410.880498,919.314598,148.041188,9474.636058
1410.880816,766.095498,-0.000000,9474.636058
1410.881133,689.485948,148.041188,9474.636058
1410.881450,995.924147,-0.000000,9474.636058
1410.881767,842.705048,-0.000000,9548.656652
1410.882084,842.705048,148.041188,9474.636058
1410.882402,995.924147,296.082377,9326.594869
1410.882719,1378.971896,222.061783,9178.553681
1410.883036,995.924147,370.102971,9252.574275
1410.883353,1072.533697,370.102971,9252.574275
1410.883670,1149.143247,296.082377,9178.553681
1410.883988,995.924147,444.123565,9400.615463
1410.884305,1455.581446,444.123565,9400.615463
1410.884622,919.314598,296.082377,9400.615463
1410.884939,1149.143247,592.164754,9400.615463
1410.885256,995.924147,444.123565,9252.574275
1410.885574,766.095498,518.144159,9252.574275
1410.885891,689.485948,592.164754,9474.636058
1410.886208,919.314598,518.144159,9326.594869
1410.886525,842.705048,592.164754,9178.553681
1410.886842,842.705048,444.123565,9178.553681
1410.887160,995.924147,296.082377,9400.615463
1410.887477,766.095498,222.061783,9474.636058
1410.887794,459.657299,518.144159,9400.615463
1410.888111,766.095498,518.144159,9178.553681
1410.888428,459.657299,592.164754,9400.615463
1410.888746,612.876398,592.164754,9474.636058
1410.889063,383.047749,444.123565,9474.636058
1410.889380,459.657299,296.082377,9326.594869
1410.889697,383.047749,148.041188,9474.636058
1410.890015,536.266849,222.061783,9474.636058
1410.890332,229.828649,296.082377,9548.656652
1410.890649,536.266849,148.041188,9622.677246
1410.890966,306.438199,-0.000000,9474.636058
1410.891283,153.219100,222.061783,9548.656652
1410.891601,459.657299,444.123565,9474.636058
1410.891918,536.266849,148.041188,9770.718434
1410.892235,459.657299,-0.000000,9548.656652
1410.892552,536.266849,-0.000000,9622.677246
1410.892869,612.876398,-0.000000,9548.656652
1410.893187,459.657299,-0.000000,9696.697840
1410.893504,766.095498,148.041188,9696.697840
1410.893821,536.266849,-0.000000,9622.677246
1410.894138,612.876398,148.041188,9548.656652
1410.894455,383.047749,296.082377,9770.718434
1410.894773,766.095498,-0.000000,9548.656652
1410.895090,919.314598,-0.000000,9992.780217
1410.895407,766.095498,-0.000000,9548.656652
1410.895724,842.705048,-148.041188,9548.656652
1410.896041,612.876398,222.061783,9622.677246
1410.896359,995.924147,-0.000000,9474.636058
1410.896676,689.485948,74.020594,9474.636058
1410.896993,919.314598,-0.000000,9474.636058
1410.897310,995.924147,-0.000000,9548.656652
1410.897627,842.705048,-0.000000,9400.615463
1410.897945,1072.533697,-0.000000,9400.615463
1410.898262,1149.143247,-0.000000,9474.636058
1410.898579,995.924147,-0.000000,9400.615463
1410.898896,919.314598,-0.000000,9474.636058
1410.899213,919.314598,-0.000000,9326.594869
1410.899531,1072.533697,148.041188,9326.594869
1410.899848,1072.533697,222.061783,9474.636058
1410.900165,1072.533697,-0.000000,9474.636058
1410.900482,1072.533697,148.041188,9326.594869
1410.900799,1149.143247,296.082377,9178.553681
1410.901117,1072.533697,-0.000000,9474.636058
1410.901434,1072.533697,148.041188,9326.594869
1410.901751,842.705048,222.061783,9178.553681
1410.902068,995.924147,370.102971,9252.574275
1410.902385,1149.143247,222.061783,9326.594869
1410.902703,1149.143247,370.102971,9400.615463
1410.903020,995.924147,370.102971,9178.553681
1410.903337,919.314598,370.102971,9104.533087
1410.903654,766.095498,148.041188,9326.594869
1410.903971,766.095498,222.061783,9252.574275
1410.904289,842.705048,370.102971,9326.594869
1410.904606,842.705048,592.164754,9474.636058
1410.904923,383.047749,444.123565,9252.574275
1410.905240,612.876398,370.102971,9326.594869
1410.905557,536.266849,222.061783,9474.636058
1410.905875,459.657299,444.123565,9474.636058
1410.906192,383.047749,370.102971,9326.594869
1410.906509,383.047749,370.102971,9326.594869
1410.906826,612.876398,444.123565,9622.677246
1410.907143,459.657299,518.144159,9474.636058
1410.907460,229.828649,518.144159,9474.636058
1410.907777,459.657299,370.102971,9474.636058
1410.908095,383.047749,518.144159,9474.636058
1410.908412,459.657299,444.123565,9770.718434
1410.908729,766.095498,444.123565,9474.636058
1410.909046,229.828649,370.102971,9622.677246
1410.909363,459.657299,444.123565,9622.677246
1410.909680,689.485948,222.061783,9548.656652
1410.909998,383.047749,666.185348,9844.739029
1410.910315,536.266849,222.061783,9622.677246
1410.910632,536.266849,222.061783,9622.677246
1410.910949,383.047749,222.061783,9548.656652
1410.911266,383.047749,222.061783,9622.677246
1410.911583,689.485948,-0.000000,9622.677246
1410.911901,612.876398,296.082377,9548.656652
1410.912218,383.047749,-0.000000,9474.636058
1410.912535,766.095498,296.082377,9474.636058
1410.912852,689.485948,-0.000000,9622.677246
1410.913169,919.314598,-0.000000,9622.677246
1410.913486,842.705048,-0.000000,9548.656652
1410.913803,766.095498,-0.000000,9474.636058
1410.914121,612.876398,-74.020594,9474.636058
1410.914438,766.095498,-0.000000,9548.656652
1410.914755,919.314598,222.061783,9622.677246
1410.915072,766.095498,-0.000000,9622.677246
1410.915389,919.314598,-0.000000,9474.636058
1410.915706,842.705048,-148.041188,9400.615463
1410.916024,1225.752797,-0.000000,9622.677246
1410.916341,1225.752797,-0.000000,9696.697840
1410.916658,766.095498,-0.000000,9474.636058
1410.916975,995.924147,-0.000000,9474.636058
1410.917292,919.314598,148.041188,9474.636058
1410.917609,1072.533697,148.041188,9400.615463
1410.917927,1149.143247,-0.000000,9400.615463
1410.918244,1225.752797,222.061783,9252.574275
1410.918561,1149.143247,148.041188,9326.594869
1410.918878,1225.752797,222.061783,9326.594869
1410.919195,995.924147,296.082377,9326.594869
1410.919512,1072.533697,148.041188,9474.636058
1410.919829,1378.971896,222.061783,9326.594869
1410.920147,1149.143247,444.123565,9252.574275
1410.920464,995.924147,444.123565,9252.574275
1410.920781,1225.752797,296.082377,9104.533087
1410.921098,919.314598,222.061783,9178.553681
1410.921415,919.314598,444.123565,9178.553681
1410.921732,1072.533697,444.123565,9326.594869
1410.922050,919.314598,518.144159,9252.574275
1410.922367,1072.533697,370.102971,9474.636058
1410.922684,995.924147,296.082377,9104.533087
1410.923001,919.314598,444.123565,9326.594869
1410.923318,842.705048,370.102971,9326.594869
1410.923635,842.705048,518.144159,9326.594869
1410.923953,459.657299,370.102971,9474.636058
1410.924270,766.095498,370.102971,9252.574275
1410.924587,459.657299,370.102971,9326.594869
1410.924904,536.266849,444.123565,9474.636058
1410.925221,612.876398,296.082377,9252.574275
1410.925538,459.657299,370.102971,9696.697840
1410.925855,306.438199,296.082377,9696.697840
1410.926173,306.438199,444.123565,9474.636058
1410.926490,383.047749,518.144159,9548.656652
1410.926807,306.438199,444.123565,9474.636058
1410.927124,153.219100,518.144159,9770.718434
1410.927441,229.828649,444.123565,9400.615463
1410.927758,229.828649,296.082377,9548.656652
1410.928076,383.047749,296.082377,9622.677246
1410.928393,229.828649,222.061783,9622.677246
1410.928710,0.000000,370.102971,9770.718434
1410.929027,842.705048,444.123565,9474.636058
1410.929344,76.609550,74.020594,9696.697840
1410.929661,459.657299,370.102971,9548.656652
1410.929979,612.876398,296.082377,9622.677246
1410.930296,612.876398,74.020594,9696.697840
1410.930613,842.705048,222.061783,9696.697840
1410.930930,842.705048,-0.000000,9548.656652
1410.931247,689.485948,296.082377,9696.697840
1410.931564,919.314598,222.061783,9770.718434
1410.931881,842.705048,370.102971,9622.677246
1410.932199,306.438199,-0.000000,9400.615463
1410.932516,536.266849,148.041188,9474.636058
1410.932833,689.485948,-0.000000,9696.697840
1410.933150,1532.190996,444.123565,9548.656652
1410.933467,919.314598,-0.000000,9474.636058
1410.933784,919.314598,222.061783,9548.656652
1410.934102,842.705048,222.061783,9622.677246
1410.934419,1072.533697,-74.020594,9474.636058
1410.934736,842.705048,-0.000000,9474.636058
1410.935053,919.314598,148.041188,9474.636058
1410.935370,1302.362347,-0.000000,9400.615463
1410.935687,919.314598,296.082377,9400.615463
1410.936005,995.924147,370.102971,9326.594869
1410.936322,1685.410096,148.041188,9474.636058
1410.936639,1302.362347,-0.000000,9252.574275
1410.936956,842.705048,148.041188,9474.636058
1410.937273,766.095498,148.041188,9400.615463
1410.937590,1072.533697,148.041188,9326.594869
1410.937907,1072.533697,-0.000000,9326.594869
1410.938225,842.705048,-0.000000,9326.594869
1410.938542,995.924147,296.082377,9104.533087
1410.938859,842.705048,370.102971,9474.636058
1410.939176,766.095498,296.082377,9178.553681
1410.939493,689.485948,148.041188,9104.533087
1410.939810,689.485948,296.082377,9400.615463
1410.940128,612.876398,-0.000000,9178.553681
1410.940445,842.705048,296.082377,9252.574275
1410.940762,766.095498,-0.000000,9400.615463
1410.941079,536.266849,222.061783,9104.533087
1410.941396,689.485948,148.041188,9104.533087
1410.941713,536.266849,370.102971,9326.594869
1410.942031,536.266849,222.061783,9252.574275
1410.942348,536.266849,222.061783,9326.594869
1410.942665,612.876398,-0.000000,9326.594869
1410.942982,383.047749,-0.000000,9104.533087
1410.943299,383.047749,222.061783,9326.594869
1410.943616,536.266849,-0.000000,9474.636058
1410.943933,383.047749,222.061783,9474.636058
1410.944251,306.438199,-148.041188,9400.615463
1410.944568,383.047749,296.082377,9622.677246
1410.944885,459.657299,-0.000000,9252.574275
1410.945202,306.438199,-0.000000,9474.636058
1410.945519,612.876398,-0.000000,9622.677246
1410.945836,459.657299,-0.000000,9622.677246
1410.946154,536.266849,-0.000000,9548.656652
1410.946471,306.438199,-0.000000,9548.656652
1410.946788,229.828649,-0.000000,9548.656652
1410.947105,383.047749,-0.000000,9548.656652
1410.947422,536.266849,296.082377,9696.697840
1410.947739,536.266849,-0.000000,9474.636058
1410.948057,536.266849,74.020594,9622.677246
1410.948374,612.876398,-0.000000,9474.636058
1410.948691,536.266849,-0.000000,9548.656652
1410.949008,612.876398,-0.000000,9622.677246
1410.949325,689.485948,-0.000000,9622.677246
1410.949642,766.095498,-0.000000,9622.677246
1410.949959,689.485948,148.041188,9474.636058
1410.950277,919.314598,222.061783,9548.656652
1410.950594,995.924147,148.041188,9252.574275
1410.950911,1149.143247,222.061783,9548.656652
1410.951228,919.314598,148.041188,9474.636058
1410.951545,1149.143247,222.061783,9548.656652
1410.951862,995.924147,370.102971,9474.636058
1410.952180,1149.143247,-0.000000,9548.656652
1410.952497,995.924147,444.123565,9474.636058
1410.952814,1225.752797,296.082377,9474.636058
1410.953131,1149.143247,370.102971,9326.594869
1410.953448,1378.971896,518.144159,9326.594869
1410.953765,1225.752797,370.102971,9326.594869
1410.954083,1149.143247,296.082377,9104.533087
1410.954400,1455.581446,592.164754,9474.636058
1410.954717,1225.752797,296.082377,9400.615463
1410.955034,1302.362347,592.164754,9252.574275
1410.955351,1378.971896,296.082377,9400.615463
1410.955668,1149.143247,518.144159,9400.615463
1410.955986,1072.533697,592.164754,9178.553681
1410.956303,1072.533697,518.144159,9252.574275
1410.956620,995.924147,666.185348,9178.553681
1410.956937,1072.533697,518.144159,9178.553681
1410.957254,842.705048,666.185348,9400.615463
1410.957571,536.266849,296.082377,9474.636058
1410.957888,1072.533697,592.164754,9252.574275
1410.958206,689.485948,296.082377,9400.615463
1410.958523,689.485948,370.102971,9400.615463
1410.958840,919.314598,296.082377,9326.594869
1410.959157,689.485948,296.082377,9400.615463
1410.959474,459.657299,296.082377,9252.574275
1410.959791,536.266849,296.082377,9400.615463
1410.960109,383.047749,296.082377,9178.553681
1410.960426,536.266849,370.102971,9474.636058
1410.960743,229.828649,148.041188,9400.615463
1410.961060,153.219100,444.123565,9474.636058
1410.961377,153.219100,-0.000000,9474.636058
1410.961694,459.657299,296.082377,9400.615463
1410.962012,612.876398,296.082377,9770.718434
1410.962329,536.266849,222.061783,9474.636058
1410.962646,459.657299,-0.000000,9474.636058
1410.962963,536.266849,-0.000000,9474.636058
1410.963280,459.657299,-0.000000,9400.615463
1410.963597,766.095498,148.041188,9844.739029
1410.963914,689.485948,-0.000000,9474.636058
1410.964232,153.219100,-74.020594,9474.636058
1410.964549,689.485948,-0.000000,9548.656652
1410.964866,306.438199,-0.000000,9696.697840
1410.965183,766.095498,-74.020594,9326.594869
1410.965500,689.485948,-0.000000,9474.636058
1410.965817,766.095498,-0.000000,9474.636058
1410.966135,612.876398,-0.000000,9474.636058
1410.966452,689.485948,-518.144159,9400.615463
1410.966769,1149.143247,-444.123565,9548.656652
1410.967086,689.485948,-74.020594,9400.615463
1410.967403,919.314598,296.082377,9474.636058
1410.967720,995.924147,-74.020594,9474.636058
1410.968038,766.095498,-0.000000,9474.636058
1410.968355,919.314598,-0.000000,9400.615463
1410.968672,1149.143247,-0.000000,9400.615463
1410.968989,995.924147,-74.020594,9326.594869
1410.969306,1149.143247,-0.000000,9326.594869
1410.969623,766.095498,-0.000000,9326.594869
1410.969940,1149.143247,-0.000000,9696.697840
1410.970258,842.705048,-74.020594,9326.594869
1410.970575,1072.533697,296.082377,9400.615463
1410.970892,1072.533697,222.061783,9326.594869
1410.971209,919.314598,-0.000000,9474.636058
1410.971526,919.314598,296.082377,9178.553681
1410.971843,995.924147,222.061783,9400.615463
1410.972161,1149.143247,370.102971,9252.574275
1410.972478,995.924147,444.123565,9178.553681
1410.972795,1072.533697,518.144159,9326.594869
1410.973112,919.314598,296.082377,9474.636058
1410.973429,995.924147,222.061783,9400.615463
1410.973746,995.924147,148.041188,9400.615463
1410.974064,1072.533697,370.102971,9400.615463
1410.974381,842.705048,592.164754,9400.615463
1410.974698,919.314598,518.144159,9400.615463
1410.975015,536.266849,444.123565,9326.594869
1410.975332,689.485948,444.123565,9252.574275
1410.975649,612.876398,-0.000000,9400.615463
1410.975966,612.876398,666.185348,9474.636058
1410.976284,612.876398,370.102971,9326.594869
1410.976601,536.266849,518.144159,9474.636058
1410.976918,459.657299,370.102971,9548.656652
1410.977235,612.876398,296.082377,9400.615463
1410.977552,459.657299,370.102971,9326.594869
1410.977869,612.876398,370.102971,9326.594869
1410.978187,536.266849,518.144159,9474.636058
1410.978504,306.438199,296.082377,9548.656652
1410.978821,306.438199,148.041188,9622.677246
1410.979138,612.876398,-0.000000,9548.656652
1410.979455,536.266849,74.020594,9474.636058
1410.979772,689.485948,222.061783,9548.656652
1410.980090,612.876398,-0.000000,9474.636058
1410.980407,766.095498,148.041188,9474.636058
1410.980724,383.047749,-0.000000,9400.615463
1410.981041,612.876398,148.041188,9622.677246
1410.981358,612.876398,148.041188,9622.677246
1410.981675,689.485948,148.041188,9548.656652
1410.981992,536.266849,296.082377,9474.636058
1410.982310,536.266849,370.102971,9474.636058
1410.982627,459.657299,148.041188,9326.594869
1410.982944,536.266849,222.061783,9474.636058
1410.983261,612.876398,-0.000000,9326.594869
1410.983578,536.266849,-0.000000,9548.656652
1410.983895,459.657299,-0.000000,9548.656652
1410.984213,536.266849,148.041188,9622.677246
1410.984530,919.314598,-0.000000,9548.656652
1410.984847,919.314598,222.061783,9696.697840
1410.985164,842.705048,-0.000000,9474.636058
1410.985481,766.095498,-0.000000,9474.636058
1410.985798,459.657299,-74.020594,9252.574275
1410.986116,842.705048,-0.000000,9474.636058
1410.986433,995.924147,-222.061783,9400.615463
1410.986750,842.705048,-0.000000,9400.615463
1410.987067,919.314598,-0.000000,9400.615463
1410.987384,1072.533697,-0.000000,9400.615463
1410.987701,842.705048,-0.000000,9474.636058
1410.988018,842.705048,-0.000000,9474.636058
1410.988336,766.095498,-0.000000,9400.615463
1410.988653,1149.143247,222.061783,9326.594869
1410.988970,766.095498,-0.000000,9252.574275
1410.989287,1608.800546,296.082377,9252.574275
1410.989604,919.314598,296.082377,9326.594869
1410.989921,1072.533697,148.041188,9178.553681
1410.990239,1072.533697,148.041188,9326.594869
1410.990556,1225.752797,370.102971,9326.594869
1410.990873,1225.752797,370.102971,9326.594869
1410.991190,1225.752797,370.102971,9400.615463
1410.991507,1149.143247,370.102971,9178.553681
1410.991824,1072.533697,296.082377,9178.553681
1410.992142,1072.533697,444.123565,9400.615463
1410.992459,995.924147,296.082377,9474.636058
1410.992776,1302.362347,444.123565,9326.594869
1410.993093,766.095498,296.082377,9474.636058
1410.993410,995.924147,222.061783,9326.594869
1410.993727,1072.533697,370.102971,9252.574275
1410.994044,612.876398,444.123565,9252.574275
1410.994362,689.485948,370.102971,9326.594869
1410.994679,612.876398,370.102971,9252.574275
1410.994996,459.657299,444.123565,9400.615463
1410.995313,842.705048,444.123565,9400.615463
