#time,accel_x,accel_y,accel_z
1634.609855,612.876398,148.041188,9622.677246
1634.610173,536.266849,296.082377,9548.656652
1634.610490,689.485948,296.082377,9474.636058
1634.610807,842.705048,-222.061783,9326.594869
1634.611124,766.095498,-0.000000,9474.636058
1634.611441,612.876398,296.082377,9474.636058
1634.611758,612.876398,444.123565,9548.656652
1634.612075,766.095498,370.102971,9474.636058
1634.612392,919.314598,222.061783,9400.615463
1634.612709,842.705048,-0.000000,9400.615463
1634.613026,612.876398,222.061783,9178.553681
1634.613343,919.314598,296.082377,9474.636058
1634.613661,536.266849,296.082377,9400.615463
1634.613978,842.705048,-0.000000,9252.574275
1634.614295,612.876398,148.041188,9474.636058
1634.614612,689.485948,296.082377,9474.636058
1634.614929,689.485948,296.082377,9400.615463
1634.615246,1302.362347,296.082377,9474.636058
1634.615563,306.438199,370.102971,9548.656652
1634.615880,612.876398,-0.000000,9474.636058
1634.616197,995.924147,370.102971,9474.636058
1634.616514,919.314598,296.082377,9474.636058
1634.616831,689.485948,-0.000000,9548.656652
1634.617149,383.047749,222.061783,9400.615463
1634.617466,766.095498,148.041188,9474.636058
1634.617783,919.314598,222.061783,9474.636058
1634.618100,612.876398,222.061783,9474.636058
1634.618417,919.314598,-0.000000,9252.574275
1634.618734,689.485948,296.082377,9400.615463
1634.619051,919.314598,296.082377,9178.553681
1634.619368,995.924147,74.020594,9474.636058
1634.619685,842.705048,296.082377,9252.574275
1634.620002,766.095498,296.082377,9400.615463
1634.620319,919.314598,-0.000000,9178.553681
1634.620637,766.095498,296.082377,9326.594869
1634.620954,842.705048,-0.000000,9326.594869
1634.621271,0.000000,222.061783,9770.718434
1634.621588,766.095498,222.061783,9474.636058
1634.621905,766.095498,222.061783,9474.636058
1634.622222,536.266849,222.061783,9474.636058
1634.622539,919.314598,-0.000000,9474.636058
1634.622856,1149.143247,-0.000000,9622.677246
1634.623173,766.095498,296.082377,9474.636058
1634.623490,536.266849,148.041188,9326.594869
1634.623808,459.657299,148.041188,9326.594869
1634.624125,612.876398,-0.000000,9474.636058
1634.624442,1149.143247,148.041188,9474.636058
1634.624759,689.485948,222.061783,9474.636058
1634.625076,689.485948,296.082377,9474.636058
1634.625393,689.485948,370.102971,9474.636058
1634.625710,536.266849,222.061783,9326.594869
1634.626027,766.095498,-518.144159,9622.677246
1634.626344,1225.752797,370.102971,9474.636058
1634.626661,689.485948,148.041188,9400.615463
1634.626978,842.705048,148.041188,9474.636058
1634.627296,612.876398,296.082377,9252.574275
1634.627613,766.095498,296.082377,9548.656652
1634.627930,842.705048,-0.000000,9400.615463
1634.628247,689.485948,-0.000000,9326.594869
1634.628564,766.095498,-0.000000,9326.594869
1634.628881,842.705048,-0.000000,9622.677246
1634.629198,536.266849,-148.041188,9548.656652
1634.629515,383.047749,-0.000000,9400.615463
1634.629832,689.485948,-222.061783,9252.574275
1634.630149,536.266849,-148.041188,9400.615463
1634.630466,306.438199,-518.144159,9474.636058
1634.630784,229.828649,-814.226536,9326.594869
1634.631101,-153.219100,-740.205942,9252.574275
1634.631418,0.000000,-666.185348,9326.594869
1634.631735,0.000000,-666.185348,9400.615463
1634.632052,0.000000,-1036.288319,9104.533087
1634.632369,0.000000,-518.144159,9104.533087
1634.632686,-306.438199,-962.267725,8660.409521
1634.633003,-536.266849,-1110.308913,9030.512492
1634.633320,-842.705048,-1554.432478,8808.450710
1634.633637,-1225.752797,-1850.514855,9252.574275
1634.633955,-1072.533697,-1776.494261,9474.636058
1634.634272,-1072.533697,-1554.432478,9474.636058
1634.634589,-995.924147,-1258.350101,9178.553681
1634.634906,-766.095498,-740.205942,8808.450710
1634.635223,-1072.533697,-962.267725,8290.306550
1634.635540,-766.095498,-444.123565,7846.182985
1634.635857,-1302.362347,-814.226536,8068.244768
1634.636174,-1149.143247,-1554.432478,8660.409521
1634.636491,-1378.971896,-2146.597232,9252.574275
1634.636808,-1378.971896,-2516.700203,9844.739029
1634.637125,-1532.190996,-2664.741391,10362.883188
1634.637443,-1608.800546,-2590.720797,10214.842000
1634.637760,-1455.581446,-1998.556043,10066.800811
1634.638077,-1378.971896,-1480.411884,9178.553681
1634.638394,-1608.800546,-1258.350101,8808.450710
1634.638711,-1455.581446,-1480.411884,8734.430116
1634.639028,-1915.238745,-1998.556043,8956.491898
1634.639345,-2068.457845,-2738.761985,9400.615463
1634.639662,-2451.505594,-3404.947333,10140.821405
1634.639979,-3064.381992,-4219.173869,10584.944971
1634.640296,-3217.601092,-4441.235652,11029.068536
1634.640613,-3294.210641,-4515.256246,10658.965565
1634.640931,-3524.039291,-3997.112087,10732.986159
1634.641248,-3447.429741,-3701.029710,10436.903782
1634.641565,-3064.381992,-3552.988522,10510.924376
1634.641882,-3294.210641,-3478.967927,9992.780217
1634.642199,-3677.258390,-3404.947333,10288.862594
1634.642516,-3753.867940,-3997.112087,10140.821405
1634.642833,-3677.258390,-3923.091493,10214.842000
1634.643150,-4443.353888,-3997.112087,10288.862594
1634.643467,-4213.525239,-3701.029710,10066.800811
1634.643784,-4366.744339,-3552.988522,10066.800811
1634.644101,-4060.306139,-3701.029710,10066.800811
1634.644419,-4443.353888,-3627.009116,10732.986159
1634.644736,-3830.477490,-3701.029710,11177.109724
1634.645053,-3830.477490,-3627.009116,11251.130318
1634.645370,-3830.477490,-3108.864956,11251.130318
1634.645687,-3753.867940,-2738.761985,10881.027347
1634.646004,-3217.601092,-2368.659014,9992.780217
1634.646321,-2987.772442,-2146.597232,9622.677246
1634.646638,-2604.724693,-2294.638420,9548.656652
1634.646955,-2528.115143,-2738.761985,9696.697840
1634.647272,-1838.629195,-3330.926739,9992.780217
1634.647590,-1378.971896,-3997.112087,9844.739029
1634.647907,-1149.143247,-3627.009116,10140.821405
1634.648224,-689.485948,-3627.009116,9474.636058
1634.648541,0.000000,-3256.906145,8808.450710
1634.648858,919.314598,-2812.782580,8512.368333
1634.649175,1072.533697,-2590.720797,8068.244768
1634.649492,1532.190996,-2664.741391,8438.347739
1634.649809,919.314598,-2738.761985,7846.182985
1634.650126,842.705048,-2812.782580,8290.306550
1634.650443,306.438199,-2738.761985,8438.347739
1634.650760,-229.828649,-2368.659014,8142.265362
1634.651078,0.000000,-1998.556043,7994.224174
1634.651395,383.047749,-1924.535449,8290.306550
1634.651712,153.219100,-1702.473667,8290.306550
1634.652029,229.828649,-2442.679609,9400.615463
1634.652346,-153.219100,-2294.638420,9474.636058
1634.652663,0.000000,-2146.597232,9548.656652
1634.652980,-229.828649,-1850.514855,9326.594869
1634.653297,0.000000,-592.164754,9326.594869
1634.653614,0.000000,-0.000000,9548.656652
1634.653931,229.828649,592.164754,8660.409521
1634.654248,842.705048,814.226536,8882.471304
1634.654566,383.047749,296.082377,8290.306550
1634.654883,612.876398,814.226536,8142.265362
1634.655200,383.047749,518.144159,7698.141797
1634.655517,383.047749,370.102971,7846.182985
1634.655834,383.047749,-0.000000,8290.306550
1634.656151,76.609550,-296.082377,9252.574275
1634.656468,-306.438199,-0.000000,9622.677246
1634.656785,-612.876398,518.144159,10140.821405
1634.657102,-766.095498,1480.411884,9326.594869
1634.657419,-1225.752797,2368.659014,9252.574275
1634.657736,-2068.457845,1850.514855,9326.594869
1634.658054,-3140.991542,1776.494261,8882.471304
1634.658371,-3524.039291,1110.308913,8956.491898
1634.658688,-4213.525239,222.061783,9622.677246
1634.659005,-4596.572988,-666.185348,10140.821405
1634.659322,-5286.058936,-1702.473667,11325.150913
1634.659639,-5592.497135,-2368.659014,12139.377449
1634.659956,-5898.935335,-2368.659014,12435.459826
1634.660273,-5669.106685,-1628.453072,11991.336260
1634.660590,-5286.058936,-962.267725,11843.295072
1634.660907,-4519.963438,-370.102971,11695.253884
1634.661225,-3524.039291,-0.000000,10881.027347
1634.661542,-3370.820191,222.061783,10584.944971
1634.661859,-2834.553343,-296.082377,10214.842000
1634.662176,-2834.553343,-518.144159,10362.883188
1634.662493,-2221.676944,-962.267725,11473.192101
1634.662810,-1685.410096,-1702.473667,10732.986159
1634.663127,-1532.190996,-2368.659014,10584.944971
1634.663444,-1685.410096,-3182.885551,11177.109724
1634.663761,-1302.362347,-3034.844362,11103.089130
1634.664078,-1072.533697,-3701.029710,10288.862594
1634.664395,-1532.190996,-3701.029710,9696.697840
1634.664713,-1762.019645,-4441.235652,10658.965565
1634.665030,-2221.676944,-4663.297435,11177.109724
1634.665347,-1838.629195,-4737.318029,11399.171507
1634.665664,-2145.067394,-4811.338623,11843.295072
1634.665981,-2145.067394,-4737.318029,11843.295072
1634.666298,-995.924147,-4219.173869,12065.356855
1634.666615,0.000000,-3330.926739,10955.047942
1634.666932,1225.752797,-2442.679609,9844.739029
1634.667249,2145.067394,-2590.720797,9696.697840
1634.667566,2298.286494,-2664.741391,9400.615463
1634.667883,3447.429741,-2812.782580,8364.327145
1634.668201,3830.477490,-3330.926739,7550.100608
1634.668518,3140.991542,-4071.132681,7179.997637
1634.668835,2604.724693,-4071.132681,7179.997637
1634.669152,1532.190996,-3849.070898,6291.750507
1634.669469,612.876398,-4071.132681,6661.853478
1634.669786,0.000000,-5329.482782,8068.244768
1634.670103,-1072.533697,-5181.441594,8364.327145
1634.670420,-2068.457845,-4737.318029,8142.265362
1634.670737,-2374.896044,-5255.462188,8734.430116
1634.671054,-2451.505594,-5329.482782,9326.594869
1634.671372,-1991.848295,-4515.256246,9474.636058
1634.671689,-1072.533697,-3108.864956,8068.244768
1634.672006,-1072.533697,-3034.844362,8586.388927
1634.672323,-459.657299,-2516.700203,8068.244768
1634.672640,76.609550,-1776.494261,6365.771101
1634.672958,153.219100,-1036.288319,5699.585753
1634.673275,0.000000,-1924.535449,5551.544565
1634.673592,-842.705048,-2220.617826,4367.215058
1634.673909,-1685.410096,-3108.864956,5181.441594
1634.674227,-2757.943793,-3997.112087,6291.750507
1634.674544,-3830.477490,-5181.441594,7402.059420
1634.674861,-5439.278036,-5551.544565,9104.533087
1634.675178,-5515.887586,-5995.668130,11325.150913
1634.675496,-5132.839837,-5625.565159,11917.315666
1634.675813,-4060.306139,-4219.173869,12361.439231
1634.676130,-2451.505594,-2812.782580,13471.748144
1634.676447,-383.047749,-74.020594,11621.233289
1634.676765,2221.676944,2516.700203,8512.368333
1634.677082,3677.258390,3627.009116,7624.121203
1634.677399,5362.668486,5255.462188,5033.400406
1634.677716,6052.154434,5255.462188,2738.761985
1634.678034,6588.421283,2812.782580,5255.462188
1634.678351,4213.525239,2442.679609,4811.338623
1634.678668,3600.648841,296.082377,6513.812290
1634.678985,1225.752797,-962.267725,8068.244768
1634.679303,-689.485948,-3256.906145,12213.398043
1634.679620,-612.876398,-3108.864956,13915.871710
1634.679937,-1685.410096,-1258.350101,13841.851115
1634.680254,-459.657299,518.144159,15766.386565
1634.680571,306.438199,3701.029710,14359.995275
1634.680889,1991.848295,5921.647536,12583.501014
1634.681206,3064.381992,7846.182985,9474.636058
1634.681523,3830.477490,8734.430116,8290.306550
1634.681840,4136.915689,7920.203579,6217.729913
1634.682158,4443.353888,6217.729913,5699.585753
1634.682475,4673.182538,4441.235652,6809.894666
1634.682792,3524.039291,1406.391290,7994.224174
1634.683109,1378.971896,-814.226536,9548.656652
1634.683427,0.000000,-1110.308913,11843.295072
1634.683744,-229.828649,-740.205942,13249.686362
1634.684061,-1072.533697,370.102971,13767.830521
1634.684378,-1915.238745,2220.617826,14656.077652
1634.684696,-2221.676944,3256.906145,13841.851115
1634.685013,-2604.724693,5107.421000,12435.459826
1634.685330,-2221.676944,5107.421000,13471.748144
1634.685647,-1378.971896,5995.668130,11029.068536
1634.685965,-1302.362347,5921.647536,8882.471304
1634.686282,-153.219100,4663.297435,9252.574275
1634.686599,0.000000,2442.679609,9474.636058
1634.686916,1455.581446,-518.144159,11103.089130
1634.687234,1302.362347,-2220.617826,11251.130318
1634.687551,1762.019645,-2590.720797,12139.377449
1634.687868,1455.581446,-1776.494261,11769.274478
1634.688185,1455.581446,-1258.350101,13027.624579
1634.688502,1149.143247,666.185348,13027.624579
1634.688820,0.000000,3775.050304,10584.944971
1634.689137,-536.266849,4737.318029,9992.780217
1634.689454,-689.485948,4441.235652,10510.924376
1634.689771,-919.314598,3923.091493,9918.759623
1634.690089,-919.314598,3256.906145,8142.265362
1634.690406,-842.705048,962.267725,8512.368333
1634.690723,229.828649,-2072.576638,8142.265362
1634.691040,306.438199,-5033.400406,7920.203579
1634.691358,995.924147,-6661.853478,9474.636058
1634.691675,306.438199,-6365.771101,9918.759623
1634.691992,612.876398,-5625.565159,9992.780217
1634.692309,1302.362347,-3997.112087,10881.027347
1634.692627,1225.752797,-1776.494261,11177.109724
1634.692944,612.876398,1110.308913,9474.636058
1634.693261,0.000000,2368.659014,7698.141797
1634.693578,306.438199,3182.885551,7624.121203
1634.693896,766.095498,2368.659014,7105.977043
1634.694213,1302.362347,518.144159,5921.647536
1634.694530,842.705048,-1998.556043,5625.565159
1634.694847,1762.019645,-4367.215058,6143.709319
1634.695165,1532.190996,-5921.647536,5773.606348
1634.695482,1532.190996,-8660.409521,7698.141797
1634.695799,766.095498,-8364.327145,8068.244768
1634.696116,919.314598,-6883.915261,8142.265362
1634.696433,995.924147,-5699.585753,9474.636058
1634.696751,1685.410096,-2812.782580,10510.924376
1634.697068,2681.334243,-444.123565,8512.368333
1634.697385,2681.334243,2368.659014,7105.977043
1634.697702,3524.039291,3478.967927,8512.368333
1634.698020,3294.210641,3997.112087,6439.791695
1634.698337,3140.991542,1924.535449,5773.606348
1634.698654,2834.553343,-0.000000,7328.038826
1634.698971,2911.162892,-2294.638420,7328.038826
1634.699289,2221.676944,-3404.947333,6735.874072
1634.699606,1378.971896,-5477.523971,7846.182985
1634.699923,1455.581446,-5625.565159,9252.574275
1634.700240,1838.629195,-4145.153275,8216.285956
1634.700558,2145.067394,-3034.844362,9622.677246
1634.700875,2298.286494,-814.226536,9474.636058
1634.701192,2528.115143,1924.535449,8512.368333
1634.701509,2451.505594,3552.988522,8290.306550
1634.701827,2834.553343,5107.421000,8216.285956
1634.702144,2068.457845,6513.812290,7328.038826
1634.702461,612.876398,5255.462188,7772.162391
1634.702778,-536.266849,3552.988522,8660.409521
1634.703096,-1225.752797,2072.576638,8956.491898
1634.703413,-1915.238745,-296.082377,9696.697840
1634.703730,-2374.896044,-2294.638420,11325.150913
1634.704047,-1915.238745,-2368.659014,11621.233289
1634.704364,-1685.410096,-1702.473667,10807.006753
1634.704682,-1302.362347,-1110.308913,11695.253884
1634.704999,-459.657299,1110.308913,10510.924376
1634.705316,459.657299,4367.215058,9400.615463
1634.705633,536.266849,6513.812290,8956.491898
1634.705951,306.438199,8216.285956,8586.388927
1634.706268,229.828649,8586.388927,8586.388927
1634.706585,-995.924147,7402.059420,9474.636058
1634.706902,-1838.629195,5477.523971,10807.006753
1634.707220,-1991.848295,3627.009116,11029.068536
1634.707537,-1838.629195,888.247130,12509.480420
1634.707854,-2068.457845,-1258.350101,13619.789333
1634.708171,-919.314598,-1776.494261,14063.912898
1634.708489,229.828649,-1110.308913,13693.809927
1634.708806,383.047749,-74.020594,13693.809927
1634.709123,1608.800546,2664.741391,12287.418637
1634.709440,1762.019645,4589.276840,10214.842000
1634.709758,2145.067394,6217.729913,9992.780217
1634.710075,2221.676944,8660.409521,8586.388927
1634.710392,2068.457845,9326.594869,7105.977043
1634.710709,2451.505594,7846.182985,7254.018232
1634.711027,1838.629195,4441.235652,9474.636058
1634.711344,1225.752797,1406.391290,9326.594869
1634.711661,995.924147,-814.226536,10066.800811
1634.711978,1302.362347,-2664.741391,13101.645173
1634.712295,1455.581446,-3256.906145,13693.809927
1634.712613,1991.848295,-2516.700203,13101.645173
1634.712930,2068.457845,-1480.411884,13915.871710
1634.713247,1991.848295,814.226536,12657.521608
1634.713564,1685.410096,3627.009116,10214.842000
1634.713882,2221.676944,5181.441594,9104.533087
1634.714199,2528.115143,6661.853478,6957.935855
1634.714516,2374.896044,6809.894666,4885.359217
1634.714833,2911.162892,3923.091493,5995.668130
1634.715151,2528.115143,1332.370696,6439.791695
1634.715468,2834.553343,-1924.535449,6957.935855
1634.715785,1838.629195,-4367.215058,7920.203579
1634.716102,1608.800546,-7105.977043,11103.089130
1634.716420,1072.533697,-6439.791695,10510.924376
1634.716737,1838.629195,-4885.359217,11177.109724
1634.717054,1225.752797,-3182.885551,11769.274478
1634.717371,1302.362347,-148.041188,10214.842000
1634.717689,1149.143247,1776.494261,8142.265362
1634.718006,1149.143247,2516.700203,8216.285956
1634.718323,1915.238745,2812.782580,7105.977043
1634.718640,1838.629195,1554.432478,5477.523971
1634.718958,1838.629195,-0.000000,5847.626942
1634.719275,1762.019645,-2146.597232,5847.626942
1634.719592,1608.800546,-4145.153275,5995.668130
1634.719909,995.924147,-5847.626942,8068.244768
1634.720226,919.314598,-6217.729913,9992.780217
1634.720544,612.876398,-4663.297435,9178.553681
1634.720861,766.095498,-3627.009116,9548.656652
1634.721178,766.095498,-1924.535449,10881.027347
1634.721495,766.095498,814.226536,9474.636058
1634.721813,1072.533697,2294.638420,7624.121203
1634.722130,1378.971896,3552.988522,7994.224174
1634.722447,1685.410096,4589.276840,6291.750507
1634.722764,1685.410096,3404.947333,4811.338623
1634.723082,1378.971896,1110.308913,6143.709319
1634.723399,536.266849,-592.164754,6587.832884
1634.723716,0.000000,-2442.679609,7476.080014
1634.724033,-536.266849,-4737.318029,9104.533087
1634.724351,-1532.190996,-5107.421000,11251.130318
1634.724668,-1455.581446,-3923.091493,10436.903782
1634.724985,-1149.143247,-2886.803174,10955.047942
1634.725302,-689.485948,-1184.329507,12139.377449
1634.725620,689.485948,1480.411884,10658.965565
1634.725937,689.485948,4293.194464,9326.594869
1634.726254,1378.971896,5551.544565,8808.450710
1634.726571,1455.581446,5921.647536,7994.224174
1634.726889,1685.410096,5477.523971,7031.956449
1634.727206,766.095498,3034.844362,7698.141797
1634.727523,-76.609550,1184.329507,8290.306550
1634.727840,-536.266849,-1258.350101,8956.491898
1634.728157,-1991.848295,-3404.947333,11843.295072
1634.728475,-1915.238745,-4145.153275,13471.748144
1634.728792,-1302.362347,-2886.803174,12805.562797
1634.729109,-1378.971896,-2442.679609,13471.748144
1634.729426,0.000000,-370.102971,14137.933492
1634.729744,1072.533697,3552.988522,10658.965565
1634.730061,2068.457845,5773.606348,10214.842000
1634.730378,2528.115143,6587.832884,10066.800811
1634.730695,2451.505594,7846.182985,8438.347739
1634.731013,2604.724693,7328.038826,6661.853478
1634.731330,1532.190996,4441.235652,8808.450710
1634.731647,842.705048,2442.679609,9104.533087
1634.731964,153.219100,-148.041188,8808.450710
1634.732282,-612.876398,-3182.885551,11029.068536
1634.732599,-842.705048,-3997.112087,12731.542202
1634.732916,-229.828649,-3330.926739,12287.418637
1634.733233,0.000000,-2738.761985,12879.583391
1634.733551,536.266849,-222.061783,13767.830521
1634.733868,536.266849,2738.761985,11325.150913
1634.734185,1072.533697,4811.338623,10584.944971
1634.734502,1608.800546,6069.688724,10584.944971
1634.734820,1685.410096,7328.038826,8290.306550
1634.735137,2298.286494,6291.750507,7105.977043
1634.735454,1455.581446,4219.173869,6957.935855
1634.735771,2374.896044,1036.288319,8216.285956
1634.736088,1762.019645,-1332.370696,7105.977043
1634.736406,1608.800546,-3923.091493,8734.430116
1634.736723,1532.190996,-5551.544565,9474.636058
1634.737040,842.705048,-5477.523971,9844.739029
1634.737357,995.924147,-5773.606348,11325.150913
1634.737675,153.219100,-3478.967927,11843.295072
1634.737992,919.314598,-740.205942,11103.089130
1634.738309,-383.047749,1702.473667,9548.656652
1634.738626,0.000000,3849.070898,9770.718434
1634.738944,689.485948,4811.338623,7402.059420
1634.739261,842.705048,3849.070898,6291.750507
1634.739578,1991.848295,962.267725,8216.285956
1634.739895,1455.581446,-962.267725,7179.997637
1634.740213,2221.676944,-3552.988522,7698.141797
1634.740530,1685.410096,-5403.503377,8808.450710
1634.740847,2068.457845,-5995.668130,10436.903782
1634.741164,1762.019645,-5403.503377,9252.574275
1634.741482,1455.581446,-4737.318029,9474.636058
1634.741799,1225.752797,-1998.556043,9474.636058
1634.742116,1072.533697,-222.061783,8808.450710
1634.742433,459.657299,1184.329507,8216.285956
1634.742751,229.828649,1998.556043,8142.265362
1634.743068,-229.828649,3034.844362,6735.874072
1634.743385,-383.047749,1036.288319,7402.059420
1634.743702,-383.047749,-666.185348,7994.224174
1634.744019,306.438199,-1554.432478,7846.182985
1634.744337,229.828649,-3256.906145,8512.368333
1634.744654,306.438199,-4811.338623,10140.821405
1634.744971,459.657299,-4737.318029,10732.986159
1634.745288,536.266849,-4219.173869,9770.718434
1634.745606,1072.533697,-2886.803174,10288.862594
1634.745923,1225.752797,-666.185348,10510.924376
1634.746240,2068.457845,1554.432478,8438.347739
1634.746557,1915.238745,2442.679609,7402.059420
1634.746875,1455.581446,3923.091493,8068.244768
1634.747192,1072.533697,3701.029710,7105.977043
1634.747509,383.047749,2368.659014,7105.977043
1634.747826,0.000000,666.185348,7994.224174
1634.748144,-612.876398,-1110.308913,9474.636058
1634.748461,-1532.190996,-3108.864956,10066.800811
1634.748778,-1302.362347,-4737.318029,11399.171507
1634.749095,-766.095498,-3923.091493,11325.150913
1634.749413,-306.438199,-2738.761985,11251.130318
1634.749730,0.000000,-1628.453072,11473.192101
1634.750047,995.924147,592.164754,11325.150913
1634.750364,1149.143247,2516.700203,10140.821405
1634.750682,1378.971896,3330.926739,9918.759623
1634.750999,919.314598,4885.359217,9104.533087
1634.751316,1225.752797,5033.400406,7846.182985
1634.751633,612.876398,3701.029710,8660.409521
1634.751950,-306.438199,1702.473667,9326.594869
1634.752268,-383.047749,370.102971,9622.677246
1634.752585,-1455.581446,-1776.494261,10066.800811
1634.752902,-919.314598,-4071.132681,12065.356855
1634.753219,-1149.143247,-3627.009116,11991.336260
1634.753537,-536.266849,-3108.864956,11547.212695
1634.753854,-612.876398,-2294.638420,12287.418637
1634.754171,459.657299,-0.000000,11621.233289
1634.754488,1685.410096,2812.782580,9622.677246
1634.754806,1838.629195,4515.256246,8882.471304
1634.755123,1838.629195,5699.585753,8660.409521
1634.755440,1302.362347,6069.688724,6513.812290
1634.755757,995.924147,4589.276840,7772.162391
1634.756075,153.219100,1554.432478,8734.430116
1634.756392,-612.876398,-1110.308913,9178.553681
1634.756709,-1378.971896,-3182.885551,10288.862594
1634.757026,-1608.800546,-5699.585753,12435.459826
1634.757344,-1378.971896,-4885.359217,11917.315666
1634.757661,-919.314598,-4737.318029,11843.295072
1634.757978,-689.485948,-3404.947333,12139.377449
1634.758295,0.000000,-0.000000,10881.027347
1634.758613,1072.533697,2960.823768,8882.471304
1634.758930,2068.457845,4293.194464,8438.347739
1634.759247,2374.896044,5033.400406,8142.265362
1634.759564,2451.505594,4737.318029,5921.647536
1634.759881,2145.067394,3108.864956,6291.750507
1634.760199,2374.896044,740.205942,7476.080014
1634.760516,2604.724693,-1110.308913,7920.203579
1634.760833,1915.238745,-3478.967927,9104.533087
1634.761150,995.924147,-5403.503377,10584.944971
1634.761468,459.657299,-5181.441594,10510.924376
1634.761785,0.000000,-4737.318029,10436.903782
1634.762102,0.000000,-2812.782580,11695.253884
1634.762419,536.266849,-666.185348,10214.842000
1634.762737,306.438199,1998.556043,7846.182985
1634.763054,612.876398,2368.659014,8290.306550
1634.763371,766.095498,3108.864956,7402.059420
1634.763688,1608.800546,2590.720797,6735.874072
1634.764006,1915.238745,1776.494261,6439.791695
1634.764323,1762.019645,-74.020594,7772.162391
1634.764640,1532.190996,-1554.432478,7772.162391
1634.764957,919.314598,-2812.782580,8660.409521
1634.765275,383.047749,-3849.070898,10362.883188
1634.765592,383.047749,-3256.906145,10066.800811
1634.765909,0.000000,-2960.823768,9622.677246
1634.766226,-383.047749,-2072.576638,10658.965565
1634.766544,-536.266849,-740.205942,10066.800811
1634.766861,-842.705048,592.164754,9326.594869
1634.767178,-995.924147,1776.494261,9030.512492
1634.767495,-689.485948,2960.823768,8512.368333
1634.767812,0.000000,3404.947333,7254.018232
1634.768130,-459.657299,2146.597232,7624.121203
1634.768447,766.095498,888.247130,8586.388927
1634.768764,766.095498,-666.185348,8660.409521
1634.769081,766.095498,-2442.679609,9622.677246
1634.769399,1072.533697,-3478.967927,11399.171507
1634.769716,1378.971896,-3034.844362,10955.047942
1634.770033,2145.067394,-1998.556043,11177.109724
1634.770350,2681.334243,-740.205942,11695.253884
1634.770668,2298.286494,1850.514855,10288.862594
1634.770985,3217.601092,3701.029710,9400.615463
1634.771302,2451.505594,3997.112087,8660.409521
1634.771619,2068.457845,5625.565159,8216.285956
1634.771937,1915.238745,3923.091493,7105.977043
1634.772254,229.828649,2516.700203,9326.594869
1634.772571,1149.143247,1036.288319,10732.986159
1634.772888,153.219100,-370.102971,9696.697840
1634.773202,0.000000,-2294.638420,11473.192101
1634.773519,383.047749,-2886.803174,13619.789333
1634.773837,459.657299,-1628.453072,11325.150913
1634.774154,1378.971896,-444.123565,11991.336260
1634.774471,1149.143247,222.061783,12361.439231
1634.774788,1991.848295,2294.638420,11177.109724
1634.775105,2145.067394,5255.462188,8808.450710
1634.775423,2451.505594,5699.585753,9326.594869
1634.775740,1608.800546,6587.832884,7105.977043
1634.776057,1378.971896,4737.318029,7328.038826
1634.776374,306.438199,2590.720797,7624.121203
1634.776691,0.000000,444.123565,8808.450710
1634.777008,-459.657299,-1998.556043,9326.594869
1634.777326,-1225.752797,-4589.276840,11917.315666
1634.777643,-1225.752797,-4885.359217,12435.459826
1634.777960,-1225.752797,-3627.009116,11621.233289
1634.778277,-306.438199,-2886.803174,12435.459826
1634.778594,153.219100,-518.144159,12583.501014
1634.778911,919.314598,2664.741391,10510.924376
1634.779229,1762.019645,4515.256246,8438.347739
1634.779546,1685.410096,5551.544565,8808.450710
1634.779863,2681.334243,5551.544565,7476.080014
1634.780180,2298.286494,5403.503377,5773.606348
1634.780497,2451.505594,2886.803174,7105.977043
1634.780814,1532.190996,592.164754,7254.018232
1634.781132,689.485948,-1998.556043,7476.080014
1634.781449,919.314598,-4441.235652,9770.718434
1634.781766,459.657299,-4293.194464,10732.986159
1634.782083,383.047749,-3997.112087,10140.821405
1634.782400,153.219100,-3256.906145,11103.089130
1634.782717,0.000000,-1110.308913,11029.068536
1634.783035,766.095498,1332.370696,11029.068536
1634.783352,1378.971896,3330.926739,9104.533087
1634.783669,2145.067394,5033.400406,8364.327145
1634.783986,1225.752797,6365.771101,5477.523971
1634.784303,1915.238745,4959.379811,5847.626942
1634.784620,1378.971896,2738.761985,6661.853478
1634.784938,1378.971896,-296.082377,7105.977043
1634.785255,229.828649,-2738.761985,7476.080014
1634.785572,-842.705048,-4367.215058,9252.574275
1634.785889,-306.438199,-4737.318029,10658.965565
1634.786206,-689.485948,-4293.194464,10584.944971
1634.786523,-1225.752797,-3775.050304,10955.047942
1634.786841,-1149.143247,-1998.556043,11325.150913
1634.787158,-842.705048,1036.288319,9178.553681
1634.787475,-383.047749,2516.700203,8438.347739
1634.787792,0.000000,4071.132681,8586.388927
1634.788109,689.485948,4663.297435,6587.832884
1634.788427,306.438199,4071.132681,5995.668130
1634.788744,306.438199,1406.391290,7698.141797
1634.789061,612.876398,-370.102971,8956.491898
1634.789378,612.876398,-2220.617826,8734.430116
1634.789695,612.876398,-3552.988522,10362.883188
1634.790012,612.876398,-4589.276840,11399.171507
1634.790330,766.095498,-4145.153275,11473.192101
1634.790647,612.876398,-2738.761985,11251.130318
1634.790964,1302.362347,-296.082377,11103.089130
1634.791281,1838.629195,2442.679609,9104.533087
1634.791598,1685.410096,4367.215058,8956.491898
1634.791915,1838.629195,5403.503377,8216.285956
1634.792233,1302.362347,4811.338623,8142.265362
1634.792550,1762.019645,4071.132681,8364.327145
1634.792867,1378.971896,1258.350101,9326.594869
1634.793184,1302.362347,592.164754,9252.574275
1634.793501,1838.629195,-2072.576638,10066.800811
1634.793818,1685.410096,-2738.761985,11177.109724
1634.794136,1838.629195,-3404.947333,11769.274478
1634.794453,1608.800546,-2516.700203,11177.109724
1634.794770,1762.019645,-1332.370696,11621.233289
1634.795087,1608.800546,1628.453072,11917.315666
1634.795404,2221.676944,3182.885551,10732.986159
1634.795721,2068.457845,3849.070898,10140.821405
1634.796039,1762.019645,5847.626942,8734.430116
1634.796356,1532.190996,5551.544565,7624.121203
1634.796673,1991.848295,3849.070898,7476.080014
1634.796990,1455.581446,666.185348,8438.347739
1634.797307,1608.800546,-148.041188,9252.574275
1634.797624,459.657299,-2664.741391,9548.656652
1634.797942,0.000000,-3627.009116,10955.047942
1634.798259,766.095498,-3775.050304,11917.315666
1634.798576,0.000000,-2812.782580,11251.130318
1634.798893,76.609550,-1406.391290,12435.459826
1634.799210,153.219100,-0.000000,11991.336260
1634.799528,306.438199,3034.844362,10066.800811
1634.799845,1685.410096,3849.070898,10362.883188
1634.800162,1302.362347,6069.688724,8290.306550
1634.800479,2068.457845,5773.606348,6809.894666
1634.800796,1302.362347,4441.235652,6513.812290
1634.801113,1225.752797,1554.432478,7624.121203
1634.801431,1608.800546,-0.000000,8216.285956
1634.801748,766.095498,-2294.638420,8882.471304
1634.802065,229.828649,-3775.050304,10881.027347
1634.802382,306.438199,-3034.844362,10510.924376
1634.802699,919.314598,-2738.761985,10510.924376
1634.803016,1225.752797,-1332.370696,10658.965565
1634.803334,1532.190996,888.247130,10732.986159
1634.803651,1991.848295,3701.029710,7772.162391
1634.803968,2374.896044,4737.318029,7772.162391
1634.804285,2757.943793,6513.812290,8068.244768
1634.804602,2221.676944,5033.400406,6661.853478
1634.804919,1378.971896,3108.864956,6883.915261
1634.805237,459.657299,962.267725,7846.182985
1634.805554,0.000000,-1036.288319,8068.244768
1634.805871,-689.485948,-3182.885551,8512.368333
1634.806188,-459.657299,-4293.194464,10510.924376
1634.806505,-995.924147,-4219.173869,9548.656652
1634.806822,-612.876398,-3627.009116,10510.924376
1634.807140,-383.047749,-3256.906145,10881.027347
1634.807457,76.609550,-296.082377,9696.697840
1634.807774,536.266849,1924.535449,8808.450710
1634.808091,306.438199,3627.009116,8290.306550
1634.808408,153.219100,5033.400406,7328.038826
1634.808725,229.828649,4885.359217,7328.038826
1634.809043,0.000000,3034.844362,7105.977043
1634.809360,76.609550,888.247130,8068.244768
1634.809677,0.000000,-1110.308913,8956.491898
1634.809994,0.000000,-4367.215058,9770.718434
1634.810311,-689.485948,-5699.585753,11029.068536
1634.810628,-536.266849,-5255.462188,11769.274478
1634.810946,0.000000,-4441.235652,11695.253884
1634.811263,383.047749,-2146.597232,11029.068536
1634.811580,1302.362347,370.102971,10807.006753
1634.811897,1302.362347,2368.659014,9104.533087
1634.812214,1608.800546,3701.029710,9104.533087
1634.812532,1302.362347,4293.194464,8290.306550
1634.812849,1455.581446,3997.112087,7476.080014
1634.813166,995.924147,2590.720797,7550.100608
1634.813483,919.314598,666.185348,9326.594869
1634.813800,766.095498,-1258.350101,8438.347739
1634.814117,995.924147,-3108.864956,9696.697840
1634.814435,766.095498,-4737.318029,11843.295072
1634.814752,306.438199,-5255.462188,11843.295072
1634.815069,229.828649,-4737.318029,11917.315666
1634.815386,306.438199,-3404.947333,12509.480420
1634.815703,229.828649,-370.102971,11917.315666
1634.816020,995.924147,2516.700203,9918.759623
1634.816338,1608.800546,3997.112087,9474.636058
1634.816655,1685.410096,4811.338623,8142.265362
1634.816972,2374.896044,4589.276840,7476.080014
1634.817289,1991.848295,2886.803174,7254.018232
1634.817606,1838.629195,-0.000000,8660.409521
1634.817923,766.095498,-1998.556043,8364.327145
1634.818241,306.438199,-4367.215058,9474.636058
1634.818558,459.657299,-5403.503377,11843.295072
1634.818875,536.266849,-4663.297435,11399.171507
1634.819192,612.876398,-3478.967927,10584.944971
1634.819509,842.705048,-1776.494261,11473.192101
1634.819826,689.485948,592.164754,10955.047942
1634.820144,536.266849,2368.659014,9030.512492
1634.820461,1225.752797,3478.967927,9474.636058
1634.820778,689.485948,4367.215058,8068.244768
1634.821095,1302.362347,3849.070898,7328.038826
1634.821412,995.924147,2294.638420,7624.121203
1634.821729,1378.971896,-0.000000,8586.388927
1634.822047,1072.533697,-1554.432478,7994.224174
1634.822364,0.000000,-3478.967927,9400.615463
1634.822681,536.266849,-4737.318029,11547.212695
1634.822998,612.876398,-3701.029710,9548.656652
1634.823315,1455.581446,-2516.700203,10066.800811
1634.823632,1225.752797,-518.144159,10362.883188
1634.823950,1991.848295,1480.411884,9400.615463
1634.824267,1915.238745,3997.112087,6957.935855
1634.824584,1532.190996,5107.421000,7105.977043
1634.824901,1149.143247,5033.400406,6735.874072
1634.825218,536.266849,4663.297435,6365.771101
1634.825536,0.000000,2220.617826,7698.141797
1634.825853,-919.314598,-0.000000,8660.409521
1634.826170,-1072.533697,-2220.617826,9474.636058
1634.826487,-1455.581446,-4219.173869,11103.089130
1634.826804,-1378.971896,-4293.194464,11843.295072
1634.827121,-229.828649,-2738.761985,10658.965565
1634.827439,612.876398,-2368.659014,11103.089130
1634.827756,459.657299,-148.041188,10807.006753
1634.828073,1302.362347,2368.659014,9030.512492
1634.828390,1608.800546,4441.235652,7994.224174
1634.828707,1302.362347,5255.462188,7402.059420
1634.829024,1455.581446,4885.359217,7476.080014
1634.829342,459.657299,4737.318029,6069.688724
1634.829659,229.828649,1850.514855,8216.285956
1634.829976,-383.047749,-592.164754,8660.409521
1634.830293,-919.314598,-2886.803174,9918.759623
1634.830610,-919.314598,-4737.318029,11695.253884
1634.830927,-995.924147,-4293.194464,11917.315666
1634.831245,-612.876398,-4145.153275,12139.377449
1634.831562,0.000000,-2812.782580,12953.603985
1634.831879,0.000000,-444.123565,12509.480420
1634.832196,689.485948,2146.597232,10584.944971
1634.832513,842.705048,3775.050304,9992.780217
1634.832830,1149.143247,5181.441594,8882.471304
1634.833148,1378.971896,5477.523971,8290.306550
1634.833465,1762.019645,4663.297435,7179.997637
1634.833782,1455.581446,2368.659014,7698.141797
1634.834099,1685.410096,444.123565,7772.162391
1634.834416,919.314598,-2072.576638,8364.327145
1634.834733,229.828649,-4737.318029,11029.068536
1634.835051,-536.266849,-4737.318029,11843.295072
1634.835368,-459.657299,-4441.235652,11843.295072
1634.835685,-995.924147,-3330.926739,12731.542202
1634.836002,-612.876398,-1628.453072,13619.789333
1634.836319,153.219100,962.267725,11029.068536
1634.836637,383.047749,2886.803174,10362.883188
1634.836954,766.095498,4441.235652,9474.636058
1634.837271,1455.581446,5181.441594,7698.141797
1634.837588,1762.019645,3997.112087,7105.977043
1634.837905,1991.848295,2368.659014,7476.080014
1634.838222,1608.800546,-296.082377,7846.182985
1634.838540,689.485948,-2664.741391,8216.285956
1634.838857,383.047749,-5329.482782,10140.821405
1634.839174,0.000000,-5329.482782,10807.006753
1634.839491,383.047749,-5181.441594,11029.068536
1634.839808,229.828649,-3478.967927,11029.068536
1634.840125,766.095498,-1702.473667,10955.047942
1634.840443,1455.581446,518.144159,9326.594869
1634.840760,1685.410096,1924.535449,8734.430116
1634.841077,1991.848295,3552.988522,8660.409521
1634.841394,2451.505594,4515.256246,7105.977043
1634.841711,2528.115143,3034.844362,6957.935855
1634.842028,2374.896044,1924.535449,7105.977043
1634.842346,2451.505594,-74.020594,7772.162391
1634.842663,1915.238745,-2516.700203,7328.038826
1634.842980,1532.190996,-4293.194464,9548.656652
1634.843297,1838.629195,-4367.215058,10066.800811
1634.843614,1532.190996,-3627.009116,9178.553681
1634.843931,1991.848295,-2220.617826,9474.636058
1634.844249,1915.238745,-222.061783,9696.697840
1634.844566,1685.410096,1332.370696,8216.285956
1634.844883,612.876398,3182.885551,7698.141797
1634.845200,995.924147,4737.318029,7254.018232
1634.845517,229.828649,4885.359217,6809.894666
1634.845834,76.609550,3701.029710,7328.038826
1634.846152,-383.047749,1628.453072,8068.244768
1634.846469,-612.876398,-296.082377,8808.450710
1634.846786,-689.485948,-2738.761985,9474.636058
1634.847103,-689.485948,-4071.132681,10584.944971
1634.847420,0.000000,-4071.132681,11029.068536
1634.847737,0.000000,-3404.947333,10140.821405
1634.848055,459.657299,-1998.556043,10510.924376
1634.848372,0.000000,-222.061783,9770.718434
1634.848689,0.000000,2368.659014,8290.306550
1634.849006,76.609550,3627.009116,8290.306550
1634.849323,-995.924147,4663.297435,7772.162391
1634.849641,-766.095498,4663.297435,8586.388927
1634.849958,-1991.848295,3775.050304,7846.182985
1634.850275,-1991.848295,-0.000000,10584.944971
1634.850592,-1838.629195,-2294.638420,10881.027347
1634.850909,-2451.505594,-3478.967927,11547.212695
1634.851226,-1302.362347,-4515.256246,13027.624579
1634.851544,-459.657299,-4145.153275,13323.706956
1634.851861,-229.828649,-3034.844362,11769.274478
1634.852178,306.438199,-592.164754,11399.171507
1634.852495,2298.286494,1998.556043,11251.130318
1634.852812,1685.410096,3627.009116,9548.656652
1634.853129,2681.334243,4367.215058,9770.718434
1634.853447,1991.848295,6439.791695,7476.080014
1634.853764,3140.991542,5255.462188,7994.224174
1634.854081,1991.848295,3552.988522,7402.059420
1634.854398,1608.800546,888.247130,9622.677246
1634.854715,1378.971896,-1184.329507,8808.450710
1634.855032,612.876398,-2294.638420,9844.739029
1634.855350,766.095498,-4219.173869,13323.706956
1634.855667,383.047749,-3923.091493,12509.480420
1634.855984,459.657299,-2220.617826,11547.212695
1634.856301,229.828649,-444.123565,12065.356855
1634.856618,1072.533697,888.247130,12139.377449
1634.856935,1608.800546,2516.700203,9548.656652
1634.857253,3064.381992,4145.153275,9474.636058
1634.857570,2451.505594,5551.544565,7476.080014
1634.857887,3524.039291,3775.050304,7476.080014
1634.858204,2911.162892,2516.700203,6883.915261
1634.858521,2757.943793,962.267725,7402.059420
1634.858838,2298.286494,-222.061783,7105.977043
1634.859156,1455.581446,-2442.679609,7772.162391
1634.859473,1685.410096,-3923.091493,10066.800811
1634.859790,536.266849,-3034.844362,9474.636058
1634.860107,76.609550,-2960.823768,11029.068536
1634.860424,76.609550,-1554.432478,10955.047942
1634.860741,459.657299,-0.000000,11547.212695
1634.861059,689.485948,2368.659014,9400.615463
1634.861376,1455.581446,3849.070898,8734.430116
1634.861693,1838.629195,4737.318029,8216.285956
1634.862010,2145.067394,3997.112087,7105.977043
1634.862327,1532.190996,2738.761985,6587.832884
1634.862645,1532.190996,1332.370696,7846.182985
1634.862962,1149.143247,-222.061783,8142.265362
1634.863279,689.485948,-2368.659014,8216.285956
1634.863596,229.828649,-2886.803174,9030.512492
1634.863913,76.609550,-2368.659014,8808.450710
1634.864230,-229.828649,-2590.720797,9474.636058
1634.864548,306.438199,-1776.494261,10140.821405
1634.864865,612.876398,-0.000000,9474.636058
1634.865182,229.828649,2368.659014,8290.306550
1634.865499,0.000000,3034.844362,8956.491898
1634.865816,0.000000,3552.988522,8660.409521
1634.866133,76.609550,3552.988522,7550.100608
1634.866451,76.609550,2738.761985,8364.327145
1634.866768,-612.876398,518.144159,9696.697840
1634.867085,76.609550,-592.164754,9474.636058
1634.867402,-153.219100,-2220.617826,9548.656652
1634.867719,-229.828649,-3108.864956,11325.150913
1634.868036,76.609550,-3330.926739,10584.944971
1634.868354,383.047749,-2442.679609,9770.718434
1634.868671,842.705048,-962.267725,10140.821405
1634.868988,459.657299,1184.329507,9104.533087
1634.869305,459.657299,2294.638420,8808.450710
1634.869622,229.828649,3552.988522,8882.471304
1634.869939,153.219100,4293.194464,8364.327145
1634.870257,-459.657299,2886.803174,8290.306550
1634.870574,-1455.581446,1776.494261,9252.574275
1634.870891,-612.876398,-518.144159,11399.171507
1634.871208,-612.876398,-1036.288319,10140.821405
1634.871525,-306.438199,-2368.659014,11695.253884
1634.871843,766.095498,-2664.741391,12065.356855
1634.872160,2145.067394,-2072.576638,11029.068536
1634.872477,2528.115143,-1924.535449,11103.089130
1634.872794,2604.724693,-0.000000,10584.944971
1634.873111,3217.601092,2516.700203,9844.739029
1634.873429,3524.039291,4071.132681,7772.162391
1634.873746,3064.381992,4737.318029,7328.038826
1634.874063,2834.553343,4737.318029,7846.182985
1634.874380,2528.115143,3849.070898,7920.203579
1634.874697,1225.752797,2516.700203,7402.059420
1634.875015,1532.190996,296.082377,9030.512492
1634.875332,1302.362347,-1258.350101,10214.842000
1634.875649,153.219100,-3627.009116,11325.150913
1634.875966,0.000000,-5181.441594,12879.583391
1634.876284,0.000000,-3997.112087,12435.459826
1634.876601,306.438199,-2516.700203,12509.480420
1634.876918,1149.143247,444.123565,11695.253884
1634.877235,1838.629195,2960.823768,10140.821405
1634.877552,2451.505594,4367.215058,9030.512492
1634.877870,2604.724693,5625.565159,7698.141797
1634.878187,2604.724693,5699.585753,6587.832884
1634.878504,2757.943793,4367.215058,5921.647536
1634.878821,1838.629195,2072.576638,6291.750507
1634.879138,1225.752797,-74.020594,7402.059420
1634.879456,0.000000,-2368.659014,8660.409521
1634.879773,-766.095498,-4737.318029,10955.047942
1634.880090,-1149.143247,-4441.235652,11991.336260
1634.880407,-1685.410096,-3552.988522,11991.336260
1634.880724,-1072.533697,-2664.741391,12435.459826
1634.881042,-689.485948,-296.082377,11695.253884
1634.881359,0.000000,1110.308913,10362.883188
1634.881676,0.000000,3330.926739,8364.327145
1634.881993,1072.533697,4885.359217,7772.162391
1634.882311,1915.238745,5477.523971,7031.956449
1634.882628,1608.800546,4071.132681,5329.482782
1634.882945,1685.410096,2590.720797,6957.935855
1634.883262,153.219100,370.102971,6883.915261
1634.883579,459.657299,-1998.556043,7846.182985
1634.883897,0.000000,-4589.276840,9844.739029
1634.884214,-995.924147,-4589.276840,10658.965565
1634.884531,-1149.143247,-4071.132681,10881.027347
1634.884848,-1072.533697,-2294.638420,11843.295072
1634.885165,0.000000,-666.185348,11843.295072
1634.885483,766.095498,2146.597232,9844.739029
1634.885800,612.876398,3627.009116,9326.594869
1634.886117,766.095498,3997.112087,8808.450710
1634.886434,1149.143247,4441.235652,7476.080014
1634.886751,1225.752797,3404.947333,6735.874072
1634.887069,1149.143247,1258.350101,7772.162391
1634.887386,1455.581446,-444.123565,8068.244768
1634.887703,1378.971896,-2960.823768,8068.244768
1634.888020,1072.533697,-4367.215058,10214.842000
1634.888338,689.485948,-3775.050304,10584.944971
1634.888655,689.485948,-3775.050304,10658.965565
1634.888972,689.485948,-2664.741391,10807.006753
1634.889289,1072.533697,-1628.453072,12509.480420
1634.889606,459.657299,962.267725,10881.027347
1634.889924,995.924147,2442.679609,9992.780217
1634.890241,1072.533697,4219.173869,9474.636058
1634.890558,1685.410096,3701.029710,8808.450710
1634.890875,1762.019645,3034.844362,7994.224174
1634.891192,1838.629195,1406.391290,7920.203579
1634.891510,1762.019645,-814.226536,8586.388927
1634.891827,1302.362347,-3108.864956,8734.430116
1634.892144,459.657299,-4219.173869,10214.842000
1634.892461,1225.752797,-3923.091493,10881.027347
1634.892778,1762.019645,-3182.885551,10807.006753
1634.893096,1378.971896,-1406.391290,10288.862594
1634.893413,1685.410096,518.144159,10732.986159
1634.893730,1225.752797,2368.659014,9326.594869
1634.894047,1225.752797,4071.132681,9474.636058
1634.894365,1072.533697,4737.318029,8660.409521
1634.894682,689.485948,4441.235652,8216.285956
1634.894999,612.876398,3034.844362,7994.224174
1634.895316,-153.219100,1628.453072,8586.388927
1634.895633,-306.438199,-518.144159,9030.512492
1634.895951,-383.047749,-2220.617826,9622.677246
1634.896268,-383.047749,-3478.967927,10881.027347
1634.896585,-229.828649,-3330.926739,11103.089130
1634.896902,153.219100,-2442.679609,10510.924376
1634.897219,306.438199,-592.164754,10732.986159
1634.897537,1149.143247,1554.432478,10510.924376
1634.897854,1685.410096,3404.947333,8216.285956
1634.898171,1225.752797,4293.194464,7698.141797
1634.898488,612.876398,5255.462188,7920.203579
1634.898805,766.095498,5033.400406,7105.977043
1634.899123,229.828649,3849.070898,7179.997637
1634.899440,-153.219100,1628.453072,8808.450710
1634.899757,-1225.752797,-1184.329507,9252.574275
1634.900074,-1378.971896,-3849.070898,10362.883188
1634.900392,-1225.752797,-4811.338623,11917.315666
1634.900709,-842.705048,-5329.482782,12509.480420
1634.901026,-383.047749,-4367.215058,11843.295072
1634.901343,612.876398,-2368.659014,12065.356855
1634.901660,842.705048,-0.000000,10955.047942
1634.901978,1455.581446,2220.617826,8882.471304
1634.902295,1455.581446,4441.235652,8290.306550
1634.902612,1455.581446,5477.523971,7550.100608
1634.902929,1685.410096,5477.523971,6957.935855
1634.903246,1302.362347,3256.906145,7550.100608
1634.903564,689.485948,740.205942,8290.306550
1634.903881,459.657299,-1258.350101,9252.574275
1634.904198,-229.828649,-3775.050304,9918.759623
1634.904515,76.609550,-5329.482782,11399.171507
1634.904832,229.828649,-5477.523971,11991.336260
1634.905150,229.828649,-4293.194464,11473.192101
1634.905467,306.438199,-2442.679609,11843.295072
1634.905784,1072.533697,-1110.308913,11917.315666
1634.906101,919.314598,1776.494261,9104.533087
1634.906419,1762.019645,3997.112087,8586.388927
1634.906736,2374.896044,5699.585753,7402.059420
1634.907053,3064.381992,4663.297435,6587.832884
1634.907370,2528.115143,3108.864956,6513.812290
1634.907687,2757.943793,666.185348,7624.121203
1634.908005,1991.848295,-962.267725,7328.038826
1634.908322,1838.629195,-4367.215058,8734.430116
1634.908639,1302.362347,-5625.565159,10807.006753
1634.908956,536.266849,-5699.585753,10658.965565
1634.909273,459.657299,-4293.194464,10584.944971
1634.909591,153.219100,-2590.720797,11103.089130
1634.909908,689.485948,-1258.350101,11251.130318
1634.910225,153.219100,1702.473667,9104.533087
1634.910542,536.266849,3182.885551,8512.368333
1634.910859,842.705048,3552.988522,8660.409521
1634.911177,995.924147,2960.823768,8216.285956
1634.911494,1532.190996,1776.494261,7550.100608
1634.911811,1685.410096,148.041188,8290.306550
1634.912128,1378.971896,-1554.432478,8364.327145
1634.912446,1378.971896,-3256.906145,8512.368333
1634.912763,1532.190996,-4071.132681,9770.718434
1634.913080,995.924147,-3256.906145,9326.594869
1634.913397,1225.752797,-2886.803174,9548.656652
1634.913714,612.876398,-1184.329507,9696.697840
1634.914032,612.876398,592.164754,9770.718434
1634.914349,0.000000,2442.679609,8882.471304
1634.914666,842.705048,3034.844362,8512.368333
1634.914983,76.609550,3256.906145,8290.306550
1634.915300,-459.657299,3330.926739,8438.347739
1634.915618,-1302.362347,3182.885551,7772.162391
1634.915935,-536.266849,1036.288319,9548.656652
1634.916252,-1072.533697,-740.205942,9474.636058
1634.916569,-1762.019645,-2664.741391,10658.965565
1634.916886,-1532.190996,-3256.906145,11177.109724
1634.917204,-842.705048,-2294.638420,10658.965565
1634.917521,842.705048,-3034.844362,11399.171507
1634.917838,229.828649,-1184.329507,11695.253884
1634.918155,383.047749,1850.514855,10510.924376
1634.918473,689.485948,4293.194464,7846.182985
1634.918790,1915.238745,4737.318029,8882.471304
1634.919107,766.095498,5625.565159,7846.182985
1634.919424,1149.143247,5699.585753,7254.018232
1634.919741,76.609550,3701.029710,6735.874072
1634.920059,-1378.971896,370.102971,9770.718434
1634.920376,-1225.752797,-2738.761985,11103.089130
1634.920693,-1915.238745,-3627.009116,11399.171507
1634.921010,-2068.457845,-3552.988522,12435.459826
1634.921327,-1532.190996,-3923.091493,12879.583391
1634.921645,-995.924147,-3849.070898,13175.665768
1634.921962,383.047749,-2072.576638,12435.459826
1634.922279,76.609550,1036.288319,10807.006753
1634.922596,689.485948,2960.823768,8882.471304
1634.922914,1838.629195,4145.153275,8882.471304
1634.923231,2451.505594,5181.441594,7920.203579
1634.923548,2298.286494,4885.359217,7105.977043
1634.923865,2451.505594,2664.741391,7698.141797
1634.924182,2068.457845,444.123565,8364.327145
1634.924500,1915.238745,-2072.576638,10140.821405
1634.924817,2145.067394,-3256.906145,10732.986159
1634.925134,2068.457845,-3701.029710,11547.212695
1634.925451,2528.115143,-3552.988522,10807.006753
1634.925768,3140.991542,-2812.782580,11547.212695
1634.926086,3447.429741,-740.205942,10510.924376
1634.926403,3677.258390,1998.556043,8734.430116
1634.926720,3217.601092,3849.070898,7402.059420
1634.927037,3140.991542,4219.173869,6957.935855
1634.927354,2681.334243,4589.276840,6661.853478
1634.927672,2145.067394,3404.947333,6513.812290
1634.927989,842.705048,1110.308913,7328.038826
1634.928306,919.314598,-1702.473667,8512.368333
1634.928623,229.828649,-2220.617826,8808.450710
1634.928941,0.000000,-3404.947333,10362.883188
1634.929258,76.609550,-4441.235652,12139.377449
1634.929575,229.828649,-3849.070898,11547.212695
1634.929892,459.657299,-2294.638420,11399.171507
1634.930209,153.219100,-0.000000,10584.944971
1634.930527,766.095498,1776.494261,9326.594869
1634.930844,689.485948,3701.029710,7846.182985
1634.931161,612.876398,5107.421000,7105.977043
1634.931478,536.266849,4663.297435,6143.709319
1634.931795,76.609550,4219.173869,5329.482782
1634.932113,459.657299,2368.659014,7179.997637
1634.932430,0.000000,-1036.288319,7846.182985
1634.932747,-1149.143247,-3552.988522,8808.450710
1634.933064,-2068.457845,-5551.544565,11103.089130
1634.933381,-2221.676944,-4885.359217,12213.398043
1634.933699,-1532.190996,-4145.153275,11843.295072
1634.934016,-919.314598,-2072.576638,11843.295072
1634.934333,-689.485948,444.123565,11917.315666
1634.934650,153.219100,3404.947333,9770.718434
1634.934968,459.657299,4737.318029,8512.368333
1634.935285,1302.362347,5921.647536,7994.224174
1634.935602,1838.629195,6217.729913,7105.977043
1634.935919,1915.238745,4589.276840,6291.750507
1634.936236,1455.581446,2516.700203,7105.977043
1634.936554,1532.190996,-148.041188,7550.100608
1634.936871,919.314598,-2368.659014,8216.285956
1634.937188,536.266849,-4145.153275,10362.883188
1634.937505,76.609550,-4885.359217,11473.192101
1634.937822,-306.438199,-4441.235652,11251.130318
1634.938140,-995.924147,-2738.761985,12213.398043
1634.938457,0.000000,-592.164754,12953.603985
1634.938774,536.266849,2368.659014,10658.965565
1634.939091,689.485948,4737.318029,9474.636058
1634.939408,995.924147,6069.688724,9474.636058
1634.939726,1991.848295,6143.709319,8216.285956
1634.940043,2145.067394,4441.235652,7328.038826
1634.940360,1991.848295,2294.638420,8586.388927
1634.940677,1685.410096,-222.061783,9178.553681
1634.940995,1532.190996,-2664.741391,9104.533087
1634.941312,1685.410096,-4219.173869,10510.924376
1634.941629,1915.238745,-4219.173869,12213.398043
1634.941946,2298.286494,-3627.009116,11029.068536
1634.942263,1762.019645,-1924.535449,10288.862594
1634.942581,1532.190996,-296.082377,11399.171507
1634.942898,919.314598,1776.494261,9548.656652
1634.943215,1915.238745,3108.864956,9400.615463
1634.943532,2068.457845,5033.400406,9030.512492
1634.943849,1915.238745,4737.318029,8438.347739
1634.944167,1532.190996,3034.844362,7994.224174
1634.944484,1455.581446,1406.391290,8364.327145
1634.944801,1991.848295,-962.267725,9844.739029
1634.945118,1455.581446,-2738.761985,9178.553681
1634.945435,1149.143247,-4367.215058,10732.986159
1634.945753,919.314598,-4145.153275,11177.109724
1634.946070,1532.190996,-3775.050304,10140.821405
1634.946387,1608.800546,-1776.494261,10140.821405
1634.946704,2145.067394,296.082377,9770.718434
1634.947022,1532.190996,2294.638420,8290.306550
1634.947339,1532.190996,4145.153275,7402.059420
1634.947656,1225.752797,4885.359217,7402.059420
1634.947973,1302.362347,5033.400406,7105.977043
1634.948290,612.876398,3849.070898,6735.874072
1634.948608,153.219100,1184.329507,7846.182985
1634.948925,-612.876398,-1184.329507,8216.285956
1634.949242,-995.924147,-3849.070898,9474.636058
1634.949559,-842.705048,-5477.523971,10732.986159
1634.949876,-689.485948,-4737.318029,10807.006753
1634.950194,-383.047749,-4219.173869,10955.047942
1634.950511,-306.438199,-1850.514855,10362.883188
1634.950828,0.000000,296.082377,10510.924376
1634.951145,995.924147,3256.906145,8068.244768
1634.951462,689.485948,4811.338623,7105.977043
1634.951780,612.876398,5551.544565,7031.956449
1634.952097,536.266849,5551.544565,6809.894666
1634.952414,-229.828649,3701.029710,6513.812290
1634.952731,-536.266849,444.123565,8068.244768
1634.953049,-1532.190996,-1628.453072,8882.471304
1634.953366,-1685.410096,-4071.132681,10066.800811
1634.953683,-1991.848295,-5107.421000,11399.171507
1634.954000,-1225.752797,-4885.359217,12361.439231
1634.954317,-919.314598,-3627.009116,11843.295072
1634.954635,-76.609550,-1702.473667,11917.315666
1634.954952,459.657299,518.144159,11103.089130
1634.955269,1225.752797,2590.720797,10436.903782
1634.955586,1378.971896,4515.256246,8586.388927
1634.955903,1762.019645,6217.729913,7772.162391
1634.956221,2068.457845,6143.709319,7105.977043
1634.956538,2528.115143,4515.256246,7476.080014
1634.956855,1685.410096,2516.700203,6809.894666
1634.957172,1608.800546,-148.041188,7698.141797
1634.957489,1455.581446,-3034.844362,9696.697840
1634.957807,766.095498,-4663.297435,11473.192101
1634.958124,842.705048,-5255.462188,11695.253884
1634.958441,0.000000,-3701.029710,11917.315666
1634.958758,229.828649,-2220.617826,13027.624579
1634.959076,766.095498,-0.000000,12435.459826
1634.959393,1455.581446,2812.782580,9844.739029
1634.959710,1991.848295,4959.379811,9844.739029
1634.960027,1762.019645,5995.668130,8956.491898
1634.960344,2681.334243,5699.585753,7772.162391
1634.960662,2681.334243,4885.359217,7254.018232
1634.960979,2451.505594,1924.535449,8882.471304
1634.961296,1915.238745,-666.185348,9326.594869
1634.961613,1991.848295,-3478.967927,9696.697840
1634.961930,1838.629195,-4589.276840,11473.192101
1634.962248,1685.410096,-4811.338623,11621.233289
1634.962565,1302.362347,-4071.132681,11029.068536
1634.962882,1455.581446,-2590.720797,11251.130318
1634.963199,1991.848295,-740.205942,10807.006753
1634.963516,1378.971896,1998.556043,8882.471304
1634.963834,2145.067394,3330.926739,9474.636058
1634.964151,1302.362347,4589.276840,8216.285956
1634.964468,766.095498,4441.235652,7698.141797
1634.964785,919.314598,3182.885551,8290.306550
1634.965103,689.485948,1406.391290,9326.594869
1634.965420,766.095498,-814.226536,9622.677246
1634.965737,76.609550,-3256.906145,10066.800811
1634.966054,0.000000,-4145.153275,11029.068536
1634.966371,612.876398,-4367.215058,10732.986159
1634.966689,1302.362347,-3034.844362,10140.821405
1634.967006,1149.143247,-1480.411884,9474.636058
1634.967323,1532.190996,1184.329507,8512.368333
1634.967640,1225.752797,3182.885551,6587.832884
1634.967957,995.924147,4219.173869,7179.997637
1634.968275,306.438199,5181.441594,6809.894666
1634.968592,0.000000,4737.318029,7031.956449
1634.968909,-995.924147,2960.823768,7550.100608
1634.969226,-1378.971896,370.102971,9474.636058
1634.969543,-1455.581446,-1332.370696,9622.677246
1634.969861,-1378.971896,-2368.659014,9992.780217
1634.970178,-612.876398,-3330.926739,11325.150913
1634.970495,-383.047749,-3849.070898,10066.800811
1634.970812,153.219100,-2368.659014,10288.862594
1634.971130,229.828649,-740.205942,9548.656652
1634.971447,689.485948,888.247130,9030.512492
1634.971764,459.657299,2220.617826,7105.977043
1634.972081,612.876398,3034.844362,7105.977043
1634.972398,0.000000,4145.153275,6661.853478
1634.972716,0.000000,3330.926739,7031.956449
1634.973033,-689.485948,1702.473667,7994.224174
1634.973350,-766.095498,-0.000000,9548.656652
1634.973668,-842.705048,-2072.576638,10214.842000
1634.973985,-1149.143247,-3478.967927,11695.253884
1634.974302,-459.657299,-4737.318029,12731.542202
1634.974619,-229.828649,-3997.112087,12139.377449
1634.974937,459.657299,-2220.617826,11695.253884
1634.975254,612.876398,-148.041188,11399.171507
1634.975571,1762.019645,2294.638420,10436.903782
1634.975889,2681.334243,3701.029710,8068.244768
1634.976206,2757.943793,5107.421000,7698.141797
1634.976523,2451.505594,4959.379811,6587.832884
1634.976841,2757.943793,3108.864956,7105.977043
1634.977158,2145.067394,962.267725,7624.121203
1634.977475,2298.286494,-1184.329507,9252.574275
1634.977793,1378.971896,-3182.885551,9474.636058
1634.978110,306.438199,-4219.173869,11325.150913
1634.978427,536.266849,-4589.276840,12805.562797
1634.978744,1149.143247,-3034.844362,12657.521608
1634.979062,1225.752797,-1702.473667,12657.521608
1634.979379,1608.800546,-444.123565,12065.356855
1634.979696,1302.362347,1998.556043,9992.780217
1634.980014,2451.505594,3775.050304,9326.594869
1634.980331,2528.115143,4811.338623,7402.059420
1634.980648,3217.601092,4367.215058,6957.935855
1634.980966,2221.676944,3701.029710,5551.544565
1634.981283,2221.676944,1184.329507,7624.121203
1634.981600,1149.143247,-1184.329507,8216.285956
1634.981917,153.219100,-4441.235652,9770.718434
1634.982235,-229.828649,-5921.647536,12435.459826
1634.982552,-919.314598,-5625.565159,12509.480420
1634.982869,-766.095498,-4663.297435,12065.356855
1634.983187,-536.266849,-2146.597232,11769.274478
1634.983504,153.219100,-74.020594,11991.336260
1634.983821,842.705048,2960.823768,9400.615463
1634.984139,612.876398,4219.173869,8512.368333
1634.984456,1225.752797,4811.338623,8142.265362
1634.984773,1532.190996,5329.482782,7328.038826
1634.985091,1072.533697,4219.173869,6513.812290
1634.985408,919.314598,1406.391290,7031.956449
1634.985725,-229.828649,-1184.329507,7772.162391
1634.986042,-766.095498,-3404.947333,9030.512492
1634.986360,-1072.533697,-4737.318029,10881.027347
1634.986677,-459.657299,-4293.194464,10584.944971
1634.986994,-536.266849,-4515.256246,10510.924376
1634.987312,-995.924147,-2590.720797,12435.459826
1634.987629,-766.095498,-1184.329507,11103.089130
1634.987946,-306.438199,2072.576638,9326.594869
1634.988264,229.828649,3997.112087,8660.409521
1634.988581,76.609550,6439.791695,7402.059420
1634.988898,1072.533697,6661.853478,6735.874072
1634.989216,919.314598,6217.729913,5551.544565
1634.989533,1378.971896,2664.741391,6735.874072
1634.989850,689.485948,-370.102971,7920.203579
1634.990167,459.657299,-3478.967927,8512.368333
1634.990485,0.000000,-4071.132681,9696.697840
1634.990802,0.000000,-5329.482782,10732.986159
1634.991119,-459.657299,-5329.482782,10881.027347
1634.991437,-459.657299,-3775.050304,11695.253884
1634.991754,-229.828649,-1332.370696,11917.315666
1634.992071,0.000000,2368.659014,8586.388927
1634.992389,919.314598,4145.153275,9696.697840
1634.992706,689.485948,5625.565159,8512.368333
1634.993023,1149.143247,4441.235652,7846.182985
1634.993341,612.876398,4885.359217,6291.750507
1634.993658,1685.410096,1110.308913,8734.430116
1634.993975,1608.800546,-518.144159,8808.450710
1634.994292,2451.505594,-2664.741391,9178.553681
1634.994610,2145.067394,-4071.132681,10288.862594
1634.994927,1838.629195,-5107.421000,11251.130318
1634.995244,1762.019645,-4663.297435,11695.253884
1634.995562,1838.629195,-3182.885551,10955.047942
1634.995879,1762.019645,-148.041188,11769.274478
1634.996196,1762.019645,2738.761985,9474.636058
1634.996514,1762.019645,4367.215058,8586.388927
1634.996831,1378.971896,4811.338623,8216.285956
1634.997148,1149.143247,4145.153275,9030.512492
1634.997465,919.314598,3182.885551,8734.430116
1634.997783,536.266849,666.185348,9252.574275
1634.998100,995.924147,-1332.370696,10288.862594
1634.998417,459.657299,-3108.864956,9992.780217
1634.998735,383.047749,-3849.070898,11103.089130
1634.999052,1685.410096,-4515.256246,11843.295072
1634.999369,919.314598,-3775.050304,10881.027347
1634.999687,1532.190996,-1258.350101,10288.862594
1635.000004,1302.362347,888.247130,9992.780217
1635.000321,1455.581446,2812.782580,9104.533087
1635.000639,2221.676944,4145.153275,7994.224174
1635.000956,919.314598,5921.647536,6661.853478
1635.001273,995.924147,5329.482782,7105.977043
1635.001590,0.000000,4441.235652,6587.832884
1635.001908,0.000000,518.144159,8512.368333
1635.002225,-766.095498,-1406.391290,9548.656652
1635.002542,-1532.190996,-4145.153275,10584.944971
1635.002860,-1762.019645,-4959.379811,11843.295072
1635.003177,-1762.019645,-4293.194464,11991.336260
1635.003494,-459.657299,-3849.070898,12213.398043
1635.003812,-383.047749,-1924.535449,10732.986159
1635.004129,383.047749,814.226536,10732.986159
1635.004446,1072.533697,2960.823768,8290.306550
1635.004764,1532.190996,5033.400406,7624.121203
1635.005081,1455.581446,5551.544565,7402.059420
1635.005398,1608.800546,5625.565159,6365.771101
1635.005715,842.705048,4589.276840,6217.729913
1635.006033,995.924147,1332.370696,7920.203579
1635.006350,536.266849,-1332.370696,8734.430116
1635.006667,536.266849,-3775.050304,10140.821405
1635.006985,153.219100,-5329.482782,11695.253884
1635.007302,536.266849,-5699.585753,11621.233289
1635.007619,153.219100,-4219.173869,10881.027347
1635.007937,1072.533697,-2368.659014,11325.150913
1635.008254,1072.533697,222.061783,10658.965565
1635.008571,1378.971896,3330.926739,8364.327145
1635.008889,1455.581446,5033.400406,8364.327145
1635.009206,1608.800546,6587.832884,7920.203579
1635.009523,1915.238745,6217.729913,7624.121203
1635.009840,1532.190996,4367.215058,7772.162391
1635.010158,1149.143247,1036.288319,8734.430116
1635.010475,536.266849,-962.267725,8882.471304
1635.010792,766.095498,-3182.885551,9622.677246
1635.011110,1302.362347,-4071.132681,11251.130318
1635.011427,1149.143247,-3997.112087,11399.171507
1635.011744,1072.533697,-3182.885551,10807.006753
1635.012062,612.876398,-1406.391290,10214.842000
1635.012379,1302.362347,222.061783,10584.944971
1635.012696,1378.971896,2590.720797,8290.306550
1635.013014,1072.533697,3256.906145,8142.265362
1635.013331,459.657299,4737.318029,7920.203579
1635.013648,612.876398,3849.070898,7698.141797
1635.013965,229.828649,3108.864956,7846.182985
1635.014283,842.705048,222.061783,9918.759623
1635.014600,76.609550,-1332.370696,9918.759623
1635.014917,-229.828649,-2664.741391,10214.842000
1635.015235,0.000000,-4367.215058,11769.274478
1635.015552,229.828649,-4589.276840,11917.315666
1635.015869,0.000000,-3330.926739,11621.233289
1635.016187,1149.143247,-1554.432478,9918.759623
1635.016504,842.705048,370.102971,9992.780217
1635.016821,1915.238745,3034.844362,8586.388927
1635.017138,1915.238745,3849.070898,7550.100608
1635.017456,1378.971896,4663.297435,7476.080014
1635.017773,1378.971896,3478.967927,8142.265362
1635.018090,229.828649,2960.823768,7698.141797
1635.018408,536.266849,222.061783,9326.594869
1635.018725,-76.609550,-1554.432478,9474.636058
1635.019042,-306.438199,-2516.700203,10955.047942
1635.019360,-383.047749,-3182.885551,11769.274478
1635.019677,229.828649,-3775.050304,11769.274478
1635.019994,459.657299,-2368.659014,11103.089130
1635.020312,995.924147,-370.102971,10584.944971
1635.020629,1762.019645,1406.391290,9622.677246
1635.020946,2298.286494,4293.194464,7402.059420
1635.021263,2221.676944,4737.318029,6809.894666
1635.021581,1991.848295,4885.359217,6883.915261
1635.021898,1302.362347,4737.318029,6143.709319
1635.022215,536.266849,2960.823768,6957.935855
1635.022533,0.000000,-0.000000,8808.450710
1635.022850,0.000000,-1480.411884,9992.780217
1635.023167,-689.485948,-3849.070898,11399.171507
1635.023485,-919.314598,-3701.029710,12435.459826
1635.023802,-842.705048,-3775.050304,11399.171507
1635.024119,-229.828649,-2146.597232,11769.274478
1635.024437,842.705048,-518.144159,10732.986159
1635.024754,1455.581446,1480.411884,9770.718434
1635.025071,1225.752797,3330.926739,7476.080014
1635.025388,1762.019645,4885.359217,7994.224174
1635.025706,1762.019645,5847.626942,6439.791695
1635.026023,1762.019645,5255.462188,5699.585753
1635.026340,1838.629195,2812.782580,7105.977043
1635.026658,995.924147,222.061783,8734.430116
1635.026975,919.314598,-2294.638420,9400.615463
1635.027292,459.657299,-3923.091493,10955.047942
1635.027610,229.828649,-4811.338623,12805.562797
1635.027927,612.876398,-4367.215058,12287.418637
1635.028244,383.047749,-2368.659014,11843.295072
1635.028562,1149.143247,148.041188,11695.253884
1635.028879,766.095498,2738.761985,9474.636058
1635.029196,1685.410096,4367.215058,8956.491898
1635.029513,1455.581446,5625.565159,8216.285956
1635.029831,1608.800546,4737.318029,7698.141797
1635.030148,766.095498,4367.215058,6513.812290
1635.030465,1149.143247,1924.535449,8068.244768
1635.030783,689.485948,-888.247130,9178.553681
1635.031100,536.266849,-2812.782580,9400.615463
1635.031417,766.095498,-4811.338623,10955.047942
1635.031735,612.876398,-5181.441594,12139.377449
1635.032052,612.876398,-4959.379811,12065.356855
1635.032369,383.047749,-2886.803174,11843.295072
1635.032686,536.266849,-370.102971,11843.295072
1635.033004,842.705048,2368.659014,9400.615463
1635.033321,459.657299,4885.359217,7550.100608
1635.033638,1072.533697,5773.606348,7476.080014
1635.033956,1225.752797,4959.379811,7179.997637
1635.034273,919.314598,3701.029710,6661.853478
1635.034590,383.047749,518.144159,7698.141797
1635.034908,-459.657299,-2368.659014,8882.471304
1635.035225,-689.485948,-4885.359217,9770.718434
1635.035542,-766.095498,-6661.853478,11917.315666
1635.035860,-919.314598,-6365.771101,12879.583391
1635.036177,-383.047749,-4515.256246,11917.315666
1635.036494,-153.219100,-1628.453072,11621.233289
1635.036811,689.485948,962.267725,10955.047942
1635.037129,1685.410096,3552.988522,9622.677246
1635.037446,1838.629195,5329.482782,7698.141797
1635.037763,1991.848295,6661.853478,6883.915261
1635.038081,2221.676944,6587.832884,5921.647536
1635.038398,2911.162892,4145.153275,5551.544565
1635.038715,2451.505594,1480.411884,6661.853478
1635.039033,1838.629195,-888.247130,8068.244768
1635.039350,995.924147,-3701.029710,8660.409521
1635.039667,536.266849,-5403.503377,10436.903782
1635.039985,0.000000,-6069.688724,11991.336260
1635.040302,-536.266849,-4811.338623,11843.295072
1635.040619,-383.047749,-2590.720797,11917.315666
1635.040936,-229.828649,-74.020594,11177.109724
1635.041254,76.609550,2516.700203,9622.677246
1635.041571,919.314598,4663.297435,8956.491898
1635.041888,689.485948,6291.750507,7698.141797
1635.042206,1915.238745,6439.791695,7550.100608
1635.042523,1149.143247,5107.421000,6513.812290
1635.042840,1532.190996,2294.638420,7550.100608
1635.043158,1455.581446,-296.082377,8734.430116
1635.043475,612.876398,-3552.988522,9030.512492
1635.043792,766.095498,-5847.626942,10955.047942
1635.044110,229.828649,-6217.729913,11843.295072
1635.044427,766.095498,-5329.482782,11399.171507
1635.044744,459.657299,-2738.761985,10362.883188
1635.045061,1378.971896,-444.123565,11769.274478
1635.045379,1072.533697,2516.700203,9252.574275
1635.045696,1685.410096,4811.338623,8586.388927
1635.046013,1532.190996,5995.668130,7031.956449
1635.046331,1378.971896,6217.729913,7698.141797
1635.046648,1455.581446,4885.359217,7402.059420
1635.046965,1149.143247,2442.679609,8068.244768
1635.047283,229.828649,-0.000000,9400.615463
1635.047600,76.609550,-3330.926739,10066.800811
1635.047917,536.266849,-4811.338623,11843.295072
1635.048234,1072.533697,-4737.318029,11843.295072
1635.048552,1455.581446,-3923.091493,11325.150913
1635.048869,1225.752797,-2368.659014,11177.109724
1635.049186,1685.410096,-814.226536,12139.377449
1635.049504,1915.238745,2738.761985,8734.430116
1635.049821,2298.286494,4589.276840,8290.306550
1635.050138,1762.019645,5921.647536,7328.038826
1635.050456,1455.581446,6513.812290,7031.956449
1635.050773,1225.752797,5477.523971,6513.812290
1635.051090,842.705048,2368.659014,7476.080014
1635.051408,153.219100,-888.247130,8808.450710
1635.051725,-612.876398,-3330.926739,9474.636058
1635.052042,-229.828649,-6217.729913,11547.212695
1635.052359,-1072.533697,-6291.750507,12213.398043
1635.052677,-766.095498,-5995.668130,12435.459826
1635.052994,-689.485948,-4293.194464,12287.418637
1635.053311,-76.609550,-1258.350101,11695.253884
1635.053629,229.828649,1702.473667,9622.677246
1635.053946,0.000000,3627.009116,9030.512492
1635.054263,0.000000,5403.503377,8586.388927
1635.054581,306.438199,6069.688724,7179.997637
1635.054898,383.047749,4959.379811,7179.997637
1635.055215,153.219100,2368.659014,8216.285956
1635.055533,766.095498,-518.144159,9178.553681
1635.055850,766.095498,-3034.844362,9326.594869
1635.056167,842.705048,-5625.565159,10807.006753
1635.056484,842.705048,-6513.812290,12287.418637
1635.056802,1608.800546,-5625.565159,11325.150913
1635.057119,1608.800546,-3108.864956,10362.883188
1635.057436,2451.505594,-888.247130,10140.821405
1635.057754,2451.505594,1998.556043,8512.368333
1635.058071,2451.505594,4219.173869,7476.080014
1635.058388,2298.286494,5625.565159,6809.894666
1635.058706,1838.629195,5995.668130,6661.853478
1635.059023,2145.067394,4219.173869,7402.059420
1635.059340,1685.410096,1924.535449,7772.162391
1635.059658,1455.581446,-1480.411884,9400.615463
1635.059975,612.876398,-3256.906145,9696.697840
1635.060292,536.266849,-4811.338623,10881.027347
1635.060609,919.314598,-5033.400406,10362.883188
1635.060927,1149.143247,-4589.276840,10362.883188
1635.061244,459.657299,-1850.514855,9844.739029
1635.061561,229.828649,-148.041188,9474.636058
1635.061879,153.219100,2368.659014,7846.182985
1635.062196,0.000000,4219.173869,7402.059420
1635.062513,-1149.143247,4811.338623,6957.935855
1635.062831,-842.705048,4811.338623,6587.832884
1635.063148,-1455.581446,2738.761985,8290.306550
1635.063465,-2374.896044,74.020594,10140.821405
1635.063783,-2528.115143,-1850.514855,10658.965565
1635.064100,-2528.115143,-3034.844362,10881.027347
1635.064417,-2298.286494,-4145.153275,12583.501014
1635.064734,-1302.362347,-4145.153275,11917.315666
1635.065052,-842.705048,-2886.803174,10584.944971
1635.065369,383.047749,-2368.659014,11399.171507
1635.065686,842.705048,296.082377,9548.656652
1635.066004,1302.362347,2220.617826,7994.224174
1635.066321,1302.362347,3775.050304,7254.018232
1635.066638,1838.629195,4737.318029,8068.244768
1635.066956,1302.362347,4737.318029,6513.812290
1635.067273,1762.019645,3034.844362,7994.224174
1635.067590,995.924147,592.164754,9400.615463
1635.067907,995.924147,-1184.329507,10140.821405
1635.068225,766.095498,-2516.700203,10807.006753
1635.068542,459.657299,-3701.029710,12805.562797
1635.068859,919.314598,-3108.864956,12361.439231
1635.069177,1455.581446,-1184.329507,11473.192101
1635.069494,2145.067394,518.144159,11769.274478
1635.069811,2374.896044,1776.494261,10584.944971
1635.070129,2681.334243,3997.112087,8586.388927
1635.070446,2987.772442,5181.441594,7772.162391
1635.070763,3447.429741,5107.421000,7328.038826
1635.071081,3064.381992,4219.173869,7179.997637
1635.071398,1915.238745,2886.803174,6661.853478
1635.071715,2221.676944,814.226536,8512.368333
1635.072032,1455.581446,-1184.329507,9252.574275
1635.072350,1302.362347,-3552.988522,11325.150913
1635.072667,689.485948,-4737.318029,12731.542202
1635.072984,76.609550,-3849.070898,12435.459826
1635.073302,-459.657299,-2886.803174,12361.439231
1635.073619,766.095498,-962.267725,12065.356855
1635.073936,995.924147,1258.350101,10584.944971
1635.074254,1378.971896,3701.029710,8068.244768
1635.074571,2298.286494,4811.338623,7994.224174
1635.074888,2374.896044,4589.276840,7105.977043
1635.075206,2374.896044,3701.029710,6217.729913
1635.075523,1302.362347,2220.617826,6735.874072
1635.075840,306.438199,-592.164754,8734.430116
1635.076158,76.609550,-2738.761985,9622.677246
1635.076475,-383.047749,-3478.967927,10436.903782
1635.076792,-536.266849,-3849.070898,12065.356855
1635.077110,-153.219100,-3849.070898,12139.377449
1635.077427,229.828649,-2812.782580,12139.377449
1635.077745,383.047749,-370.102971,10807.006753
1635.078062,919.314598,2072.576638,9400.615463
1635.078379,1149.143247,3775.050304,7550.100608
1635.078697,1455.581446,4663.297435,6883.915261
1635.079014,1072.533697,4811.338623,6587.832884
1635.079331,76.609550,3849.070898,5995.668130
1635.079649,0.000000,2590.720797,7328.038826
1635.079966,-689.485948,-666.185348,8142.265362
1635.080283,-1072.533697,-3404.947333,9474.636058
1635.080601,-2298.286494,-4663.297435,10510.924376
1635.080918,-2145.067394,-5329.482782,12435.459826
1635.081236,-1991.848295,-4737.318029,11917.315666
1635.081553,-1149.143247,-2960.823768,11621.233289
1635.081870,-306.438199,-518.144159,11473.192101
1635.082188,-153.219100,2368.659014,9326.594869
1635.082505,766.095498,4219.173869,7254.018232
1635.082822,383.047749,4959.379811,7105.977043
1635.083140,612.876398,5773.606348,6365.771101
1635.083457,76.609550,4663.297435,5477.523971
1635.083774,-76.609550,2368.659014,7105.977043
1635.084092,0.000000,-888.247130,8512.368333
1635.084409,229.828649,-3775.050304,9918.759623
1635.084726,459.657299,-5403.503377,10807.006753
1635.085044,76.609550,-6661.853478,12213.398043
1635.085361,919.314598,-5921.647536,12435.459826
1635.085679,766.095498,-3849.070898,11843.295072
1635.085996,919.314598,-1184.329507,12065.356855
1635.086313,1685.410096,2664.741391,9622.677246
1635.086631,2834.553343,5181.441594,8808.450710
1635.086948,3064.381992,6735.874072,6809.894666
1635.087265,3447.429741,6957.935855,6735.874072
1635.087583,3064.381992,5033.400406,5847.626942
1635.087900,2757.943793,2368.659014,7254.018232
1635.088217,2757.943793,-1036.288319,8364.327145
1635.088535,2145.067394,-3404.947333,9474.636058
1635.088852,1915.238745,-5403.503377,10807.006753
1635.089170,1608.800546,-5699.585753,12435.459826
1635.089487,1685.410096,-4811.338623,12139.377449
1635.089804,1608.800546,-2442.679609,11843.295072
1635.090122,1608.800546,-0.000000,12139.377449
1635.090439,1455.581446,2516.700203,10140.821405
1635.090756,1838.629195,4811.338623,9030.512492
1635.091074,1762.019645,6587.832884,7328.038826
1635.091391,2604.724693,6291.750507,7254.018232
1635.091708,2068.457845,5477.523971,6143.709319
1635.092026,2298.286494,3256.906145,7105.977043
1635.092343,1991.848295,222.061783,8586.388927
1635.092660,1149.143247,-2664.741391,9548.656652
1635.092978,536.266849,-5403.503377,11177.109724
1635.093295,76.609550,-5551.544565,12213.398043
1635.093613,383.047749,-4737.318029,12509.480420
1635.093930,153.219100,-2294.638420,11621.233289
1635.094247,229.828649,-444.123565,11251.130318
1635.094565,459.657299,2738.761985,9474.636058
1635.094882,0.000000,4885.359217,7994.224174
1635.095199,689.485948,6217.729913,7179.997637
1635.095517,76.609550,5551.544565,7031.956449
1635.095834,0.000000,4663.297435,6957.935855
1635.096151,-383.047749,2220.617826,7772.162391
1635.096469,-689.485948,-444.123565,8586.388927
1635.096786,-1072.533697,-2886.803174,9474.636058
1635.097104,-919.314598,-4959.379811,11547.212695
1635.097421,-1072.533697,-5033.400406,11843.295072
1635.097738,-689.485948,-4071.132681,11103.089130
1635.098056,-689.485948,-1702.473667,10732.986159
1635.098373,-766.095498,370.102971,11251.130318
1635.098690,0.000000,2516.700203,9252.574275
1635.099008,-536.266849,4811.338623,8586.388927
1635.099325,76.609550,5995.668130,7920.203579
1635.099642,0.000000,6291.750507,7624.121203
1635.099960,612.876398,5107.421000,7402.059420
1635.100277,383.047749,2886.803174,7624.121203
1635.100594,306.438199,-222.061783,8512.368333
1635.100912,0.000000,-2812.782580,9696.697840
1635.101229,0.000000,-4737.318029,10807.006753
1635.101547,229.828649,-5033.400406,10807.006753
1635.101864,0.000000,-4367.215058,11103.089130
1635.102181,-229.828649,-2220.617826,11177.109724
1635.102499,306.438199,-0.000000,10955.047942
1635.102816,306.438199,2146.597232,8882.471304
1635.103133,229.828649,3997.112087,8438.347739
1635.103451,383.047749,4885.359217,8512.368333
1635.103768,459.657299,5033.400406,7994.224174
1635.104085,842.705048,3923.091493,7920.203579
1635.104403,459.657299,1554.432478,9030.512492
1635.104720,612.876398,-370.102971,9992.780217
1635.105038,1072.533697,-2812.782580,10288.862594
1635.105355,1378.971896,-4959.379811,11843.295072
1635.105672,1838.629195,-5033.400406,11843.295072
1635.105990,2298.286494,-4663.297435,11103.089130
1635.106307,2604.724693,-3182.885551,10807.006753
1635.106624,3140.991542,-1184.329507,10214.842000
1635.106942,3370.820191,1776.494261,8290.306550
1635.107259,3907.087040,3849.070898,7624.121203
1635.107576,4060.306139,4737.318029,7402.059420
1635.107894,3447.429741,5033.400406,6809.894666
1635.108211,3064.381992,3478.967927,7476.080014
1635.108528,2374.896044,1480.411884,8882.471304
1635.108846,1991.848295,-962.267725,9474.636058
1635.109163,1532.190996,-2442.679609,10584.944971
1635.109481,1225.752797,-4219.173869,11473.192101
1635.109798,2068.457845,-4663.297435,12287.418637
1635.110115,1685.410096,-3478.967927,10436.903782
1635.110433,2221.676944,-1776.494261,10066.800811
1635.110750,2681.334243,370.102971,9474.636058
1635.111067,2221.676944,2072.576638,7550.100608
1635.111385,2298.286494,3330.926739,6883.915261
1635.111702,1838.629195,4589.276840,6291.750507
1635.112019,1225.752797,4219.173869,6291.750507
1635.112337,919.314598,2368.659014,7698.141797
1635.112654,0.000000,592.164754,8734.430116
1635.112972,-689.485948,-1480.411884,9400.615463
1635.113289,-1991.848295,-2886.803174,10362.883188
1635.113606,-1608.800546,-4441.235652,12139.377449
1635.113924,-1378.971896,-4663.297435,11695.253884
1635.114241,-1608.800546,-3108.864956,10362.883188
1635.114558,-689.485948,-2072.576638,10658.965565
1635.114876,-612.876398,-666.185348,9474.636058
1635.115193,0.000000,1184.329507,7994.224174
1635.115510,229.828649,2516.700203,7105.977043
1635.115828,153.219100,3552.988522,7254.018232
1635.116145,153.219100,3997.112087,6957.935855
1635.116462,0.000000,2886.803174,7105.977043
1635.116780,0.000000,814.226536,8734.430116
1635.117097,-229.828649,-962.267725,10066.800811
1635.117415,-1072.533697,-2368.659014,10510.924376
1635.117732,-306.438199,-2960.823768,12435.459826
1635.118049,-689.485948,-3330.926739,11917.315666
1635.118367,0.000000,-3034.844362,11695.253884
1635.118684,-383.047749,-962.267725,11473.192101
1635.119001,0.000000,1406.391290,10140.821405
1635.119319,153.219100,3478.967927,7402.059420
1635.119636,76.609550,4737.318029,7254.018232
1635.119953,0.000000,4219.173869,8364.327145
1635.120271,-306.438199,3923.091493,7402.059420
1635.120588,-459.657299,2812.782580,8068.244768
1635.120906,-842.705048,-0.000000,9992.780217
1635.121223,-689.485948,-2220.617826,10807.006753
1635.121540,-689.485948,-3182.885551,11177.109724
1635.121858,-153.219100,-3108.864956,12139.377449
1635.122175,766.095498,-2590.720797,12435.459826
1635.122492,1762.019645,-814.226536,11473.192101
1635.122810,1685.410096,1184.329507,11251.130318
1635.123127,2757.943793,3775.050304,9696.697840
1635.123444,2451.505594,4959.379811,7254.018232
1635.123762,2757.943793,5107.421000,7476.080014
1635.124079,2834.553343,4515.256246,6957.935855
1635.124396,2221.676944,3034.844362,6883.915261
1635.124714,1685.410096,1036.288319,7402.059420
1635.125031,1378.971896,-1998.556043,9474.636058
1635.125349,842.705048,-4071.132681,10658.965565
1635.125666,1608.800546,-4811.338623,12065.356855
1635.125983,689.485948,-5255.462188,13397.727550
1635.126301,1378.971896,-4589.276840,13027.624579
1635.126618,1608.800546,-1998.556043,11473.192101
1635.126935,2298.286494,370.102971,11843.295072
1635.127253,3830.477490,3478.967927,9548.656652
1635.127570,3983.696590,5477.523971,7179.997637
1635.127887,4749.792088,7105.977043,5625.565159
1635.128205,4903.011187,6365.771101,5625.565159
1635.128522,4443.353888,3997.112087,5773.606348
1635.128840,3140.991542,1480.411884,5773.606348
1635.129157,2221.676944,-2220.617826,8512.368333
1635.129474,0.000000,-4367.215058,9178.553681
1635.129792,-919.314598,-6365.771101,11103.089130
1635.130109,-995.924147,-6143.709319,13249.686362
1635.130426,-2068.457845,-4663.297435,12953.603985
1635.130744,-1608.800546,-3108.864956,12509.480420
1635.131061,-1302.362347,-518.144159,11843.295072
1635.131378,-689.485948,1998.556043,10362.883188
1635.131696,0.000000,4071.132681,7994.224174
1635.132013,229.828649,5699.585753,7402.059420
1635.132330,919.314598,6069.688724,6513.812290
1635.132648,1225.752797,5255.462188,4515.256246
1635.132965,1225.752797,2812.782580,5403.503377
1635.133283,689.485948,-148.041188,7179.997637
1635.133600,842.705048,-2886.803174,7920.203579
1635.133917,-612.876398,-4737.318029,9474.636058
1635.134235,-1838.629195,-6513.812290,11769.274478
1635.134552,-2451.505594,-5847.626942,12139.377449
1635.134869,-2911.162892,-3627.009116,11695.253884
1635.135187,-2298.286494,-1406.391290,11547.212695
1635.135504,-1915.238745,888.247130,10658.965565
1635.135821,-1838.629195,3478.967927,9030.512492
1635.136139,-1915.238745,4811.338623,8290.306550
1635.136456,-842.705048,5033.400406,8290.306550
1635.136774,-842.705048,4811.338623,6735.874072
1635.137091,383.047749,2442.679609,7402.059420
1635.137408,306.438199,-370.102971,8734.430116
1635.137726,689.485948,-3552.988522,10214.842000
1635.138043,612.876398,-4737.318029,10436.903782
1635.138360,1455.581446,-5181.441594,12287.418637
1635.138678,1762.019645,-4293.194464,11399.171507
1635.138995,1608.800546,-2368.659014,10658.965565
1635.139312,1915.238745,-740.205942,11473.192101
1635.139630,1991.848295,1184.329507,9622.677246
1635.139947,1762.019645,3182.885551,9030.512492
1635.140264,1991.848295,5551.544565,8216.285956
1635.140582,2374.896044,5255.462188,7994.224174
1635.140899,1532.190996,4441.235652,7105.977043
1635.141217,1608.800546,2294.638420,8216.285956
1635.141534,1455.581446,-0.000000,8734.430116
1635.141851,1915.238745,-2442.679609,9548.656652
1635.142169,1685.410096,-4737.318029,10881.027347
1635.142486,1378.971896,-5403.503377,12583.501014
1635.142803,1915.238745,-4885.359217,12509.480420
1635.143121,1225.752797,-2664.741391,11547.212695
1635.143438,2145.067394,-148.041188,11917.315666
1635.143755,2298.286494,2220.617826,9770.718434
1635.144073,2068.457845,4515.256246,7920.203579
1635.144390,1991.848295,6143.709319,7772.162391
1635.144708,1608.800546,6143.709319,7105.977043
1635.145025,995.924147,4663.297435,7402.059420
1635.145342,612.876398,2072.576638,7846.182985
1635.145660,153.219100,-518.144159,9400.615463
1635.145977,-306.438199,-2664.741391,9030.512492
1635.146294,0.000000,-4811.338623,10881.027347
1635.146612,229.828649,-5551.544565,11547.212695
1635.146929,689.485948,-5403.503377,10881.027347
1635.147246,229.828649,-3330.926739,10881.027347
1635.147564,459.657299,-1628.453072,11769.274478
1635.147881,459.657299,1480.411884,9548.656652
1635.148198,306.438199,3849.070898,8290.306550
1635.148516,153.219100,5699.585753,8068.244768
1635.148833,459.657299,6513.812290,7179.997637
1635.149151,1225.752797,5699.585753,6735.874072
1635.149468,612.876398,4145.153275,7328.038826
1635.149785,766.095498,666.185348,9104.533087
1635.150103,229.828649,-1776.494261,9104.533087
1635.150420,229.828649,-4145.153275,10140.821405
1635.150737,536.266849,-4885.359217,11029.068536
1635.151055,612.876398,-4663.297435,10510.924376
1635.151372,383.047749,-3404.947333,10510.924376
1635.151689,842.705048,-592.164754,9844.739029
1635.152007,1302.362347,1554.432478,9400.615463
1635.152324,1072.533697,3997.112087,7328.038826
1635.152642,1225.752797,5181.441594,7624.121203
1635.152959,536.266849,5773.606348,6513.812290
1635.153276,766.095498,4959.379811,7328.038826
1635.153594,0.000000,3330.926739,7772.162391
1635.153911,0.000000,370.102971,9400.615463
1635.154228,-306.438199,-1480.411884,10214.842000
1635.154546,0.000000,-3404.947333,11399.171507
1635.154863,0.000000,-4885.359217,11843.295072
1635.155180,0.000000,-4885.359217,11325.150913
1635.155498,306.438199,-3775.050304,11325.150913
1635.155815,1072.533697,-1554.432478,11029.068536
1635.156132,1072.533697,592.164754,8808.450710
1635.156450,1072.533697,2516.700203,7846.182985
1635.156767,1225.752797,3849.070898,8364.327145
1635.157085,1302.362347,4737.318029,7105.977043
1635.157402,919.314598,3997.112087,7105.977043
1635.157719,459.657299,2368.659014,9178.553681
1635.158037,0.000000,-0.000000,9918.759623
1635.158354,0.000000,-1480.411884,10807.006753
1635.158671,0.000000,-3701.029710,12435.459826
1635.158989,153.219100,-4441.235652,13323.706956
1635.159306,459.657299,-4145.153275,12065.356855
1635.159623,1149.143247,-2368.659014,11473.192101
1635.159941,1608.800546,-888.247130,10658.965565
1635.160258,1608.800546,1184.329507,8586.388927
1635.160576,1915.238745,2886.803174,7476.080014
1635.160893,1838.629195,4071.132681,7105.977043
1635.161210,1608.800546,4293.194464,6957.935855
1635.161528,995.924147,3256.906145,7476.080014
1635.161845,919.314598,1406.391290,9326.594869
1635.162162,229.828649,-740.205942,10140.821405
1635.162480,306.438199,-1998.556043,11029.068536
1635.162797,0.000000,-3552.988522,12213.398043
1635.163114,536.266849,-3256.906145,12361.439231
1635.163432,1378.971896,-2146.597232,11029.068536
1635.163749,1762.019645,-666.185348,10807.006753
1635.164066,2221.676944,592.164754,10140.821405
1635.164384,2374.896044,2516.700203,7624.121203
1635.164701,2298.286494,3997.112087,6217.729913
1635.165019,1378.971896,3849.070898,6735.874072
1635.165336,1378.971896,2960.823768,5995.668130
1635.165653,842.705048,1998.556043,6587.832884
1635.165971,0.000000,-0.000000,9030.512492
1635.166288,-229.828649,-1998.556043,10066.800811
1635.166605,-842.705048,-2886.803174,10288.862594
1635.166923,-919.314598,-3478.967927,12139.377449
1635.167240,-612.876398,-3330.926739,12731.542202
1635.167557,-459.657299,-2220.617826,11177.109724
1635.167875,612.876398,-296.082377,11251.130318
1635.168192,1072.533697,1480.411884,10214.842000
1635.168510,1685.410096,3701.029710,8216.285956
1635.168827,2374.896044,4441.235652,6883.915261
1635.169144,2221.676944,3775.050304,6957.935855
1635.169462,2221.676944,2886.803174,6661.853478
1635.169779,1838.629195,1480.411884,7402.059420
1635.170096,1302.362347,-666.185348,8660.409521
1635.170414,1149.143247,-1702.473667,9030.512492
1635.170731,919.314598,-2516.700203,9992.780217
1635.171048,612.876398,-2738.761985,11103.089130
1635.171366,919.314598,-2886.803174,11547.212695
1635.171683,919.314598,-1110.308913,10214.842000
1635.172000,1608.800546,814.226536,10881.027347
1635.172318,1685.410096,3108.864956,9622.677246
1635.172635,1608.800546,4589.276840,7920.203579
1635.172953,1532.190996,5181.441594,6661.853478
1635.173270,1685.410096,5033.400406,7179.997637
1635.173587,1149.143247,3923.091493,6217.729913
1635.173905,766.095498,1998.556043,6513.812290
1635.174222,153.219100,-1184.329507,9622.677246
1635.174539,-766.095498,-3108.864956,11103.089130
1635.174857,-1378.971896,-4219.173869,11547.212695
1635.175174,-1455.581446,-4219.173869,12509.480420
1635.175491,-995.924147,-3256.906145,13027.624579
1635.175809,-1072.533697,-1406.391290,11103.089130
1635.176126,153.219100,-0.000000,10807.006753
1635.176443,459.657299,2442.679609,9400.615463
1635.176761,919.314598,4219.173869,7624.121203
1635.177078,1532.190996,4811.338623,6809.894666
1635.177395,1762.019645,5181.441594,5995.668130
1635.177712,1685.410096,3627.009116,6069.688724
1635.178030,995.924147,1850.514855,6513.812290
1635.178347,76.609550,-1850.514855,9474.636058
1635.178664,-459.657299,-4293.194464,10362.883188
1635.178982,-1149.143247,-5625.565159,12583.501014
1635.179299,-1532.190996,-5921.647536,14434.015869
1635.179616,-1149.143247,-5181.441594,14434.015869
1635.179933,-536.266849,-2886.803174,12953.603985
1635.180251,-76.609550,-444.123565,11917.315666
1635.180568,919.314598,2442.679609,10658.965565
1635.180885,1302.362347,5255.462188,7328.038826
1635.181202,2221.676944,6735.874072,7105.977043
1635.181520,1455.581446,6661.853478,6217.729913
1635.181837,1838.629195,5181.441594,5847.626942
1635.182154,995.924147,3256.906145,5773.606348
1635.182472,1225.752797,-888.247130,9104.533087
1635.182789,612.876398,-4219.173869,9326.594869
1635.183106,0.000000,-5551.544565,10510.924376
1635.183423,-153.219100,-7105.977043,13767.830521
1635.183741,-153.219100,-5995.668130,12953.603985
1635.184058,0.000000,-3923.091493,12509.480420
1635.184375,536.266849,-1702.473667,11991.336260
1635.184692,229.828649,1702.473667,10362.883188
1635.185010,1072.533697,4737.318029,8438.347739
1635.185327,1991.848295,7105.977043,7328.038826
1635.185644,2911.162892,7105.977043,6143.709319
1635.185962,2451.505594,7105.977043,4145.153275
1635.186279,2834.553343,3330.926739,5847.626942
1635.186596,2374.896044,-0.000000,6735.874072
1635.186913,3064.381992,-4737.318029,8364.327145
1635.187231,1915.238745,-7105.977043,10362.883188
1635.187548,1378.971896,-7698.141797,12287.418637
1635.187865,842.705048,-6143.709319,11917.315666
1635.188182,612.876398,-4441.235652,11843.295072
1635.188500,153.219100,-2146.597232,12953.603985
1635.188817,0.000000,1480.411884,10584.944971
1635.189134,612.876398,3997.112087,9104.533087
1635.189452,229.828649,6069.688724,7994.224174
1635.189769,1455.581446,6661.853478,8438.347739
1635.190086,1455.581446,6439.791695,6735.874072
1635.190403,1455.581446,3849.070898,6291.750507
1635.190721,2221.676944,444.123565,7994.224174
1635.191038,1532.190996,-2664.741391,8290.306550
1635.191355,1685.410096,-5181.441594,9622.677246
1635.191672,1762.019645,-6365.771101,11547.212695
1635.191990,1302.362347,-6069.688724,11917.315666
1635.192307,306.438199,-4145.153275,10140.821405
1635.192624,689.485948,-2664.741391,12213.398043
1635.192942,0.000000,592.164754,9992.780217
1635.193259,536.266849,3775.050304,7772.162391
1635.193576,-153.219100,5995.668130,7105.977043
1635.193893,0.000000,7105.977043,6735.874072
1635.194211,76.609550,6587.832884,6883.915261
1635.194528,-153.219100,4515.256246,7179.997637
1635.194845,-229.828649,666.185348,9326.594869
1635.195162,-1302.362347,-2442.679609,9474.636058
1635.195480,-536.266849,-4441.235652,10881.027347
1635.195797,0.000000,-5255.462188,11399.171507
1635.196114,995.924147,-5255.462188,11547.212695
1635.196432,766.095498,-4737.318029,11177.109724
1635.196749,919.314598,-2516.700203,11473.192101
1635.197066,1378.971896,1480.411884,9178.553681
1635.197383,1455.581446,4737.318029,6513.812290
1635.197701,2068.457845,5995.668130,7698.141797
1635.198018,459.657299,7772.162391,5921.647536
1635.198335,153.219100,6143.709319,7179.997637
1635.198652,-612.876398,4219.173869,8512.368333
1635.198970,-536.266849,1036.288319,10510.924376
1635.199287,-536.266849,-1332.370696,11251.130318
1635.199604,-153.219100,-3849.070898,12361.439231
1635.199922,153.219100,-4737.318029,13101.645173
1635.200239,1149.143247,-5255.462188,11695.253884
1635.200556,1149.143247,-3997.112087,11547.212695
1635.200873,2145.067394,-1702.473667,11177.109724
1635.201191,2834.553343,1110.308913,9474.636058
1635.201508,1378.971896,3997.112087,7105.977043
1635.201825,1762.019645,6143.709319,7920.203579
1635.202142,1302.362347,7105.977043,6661.853478
1635.202460,1149.143247,6143.709319,7031.956449
1635.202777,-306.438199,3849.070898,8512.368333
1635.203094,-306.438199,444.123565,10807.006753
1635.203412,-612.876398,-1480.411884,10732.986159
1635.203729,-842.705048,-2812.782580,11769.274478
1635.204046,0.000000,-4589.276840,13101.645173
1635.204363,-842.705048,-4515.256246,11991.336260
1635.204681,0.000000,-3552.988522,10807.006753
1635.204998,0.000000,-1480.411884,10214.842000
1635.205315,536.266849,888.247130,8956.491898
1635.205632,1072.533697,2886.803174,7476.080014
1635.205950,1149.143247,3552.988522,7772.162391
1635.206267,229.828649,4515.256246,7179.997637
1635.206584,-459.657299,3923.091493,7031.956449
1635.206902,-229.828649,1998.556043,9178.553681
1635.207219,306.438199,592.164754,10066.800811
1635.207536,766.095498,-814.226536,10881.027347
1635.207853,229.828649,-1480.411884,11547.212695
1635.208171,689.485948,-3552.988522,13027.624579
1635.208488,995.924147,-2738.761985,11621.233289
1635.208805,1685.410096,-1332.370696,10436.903782
1635.209122,2528.115143,-296.082377,9992.780217
1635.209440,2451.505594,666.185348,7994.224174
1635.209757,2528.115143,2146.597232,6735.874072
1635.210074,2834.553343,2220.617826,7105.977043
1635.210392,2681.334243,2442.679609,6957.935855
1635.210709,2068.457845,1480.411884,6957.935855
1635.211026,1608.800546,-148.041188,8734.430116
1635.211343,1685.410096,-1332.370696,9474.636058
1635.211661,1455.581446,-2516.700203,10807.006753
1635.211978,383.047749,-3108.864956,12657.521608
1635.212295,995.924147,-3034.844362,13545.768739
1635.212612,1225.752797,-1332.370696,11029.068536
1635.212930,2068.457845,-370.102971,10658.965565
1635.213247,2681.334243,518.144159,10214.842000
1635.213564,2528.115143,1850.514855,7328.038826
1635.213882,3370.820191,2886.803174,5403.503377
1635.214199,3370.820191,2886.803174,5181.441594
1635.214516,3064.381992,1850.514855,5181.441594
1635.214833,1608.800546,296.082377,5329.482782
1635.215151,919.314598,-1776.494261,7994.224174
1635.215468,0.000000,-3478.967927,9326.594869
1635.215785,-766.095498,-3627.009116,9992.780217
1635.216102,-1302.362347,-4737.318029,11991.336260
1635.216420,-1302.362347,-3034.844362,13027.624579
1635.216737,-919.314598,-1480.411884,11103.089130
1635.217054,0.000000,-222.061783,11103.089130
1635.217372,536.266849,1554.432478,10436.903782
1635.217689,919.314598,3552.988522,7624.121203
1635.218006,995.924147,4515.256246,5403.503377
1635.218323,1072.533697,4515.256246,6661.853478
1635.218641,689.485948,3108.864956,6291.750507
1635.218958,-383.047749,1628.453072,5773.606348
1635.219275,-766.095498,-1406.391290,8512.368333
1635.219592,-1302.362347,-3330.926739,10510.924376
1635.219910,-1762.019645,-5107.421000,10955.047942
1635.220227,-1302.362347,-5625.565159,13027.624579
1635.220544,-1838.629195,-5181.441594,13249.686362
1635.220861,-1532.190996,-3182.885551,12657.521608
1635.221179,-459.657299,-148.041188,11843.295072
1635.221496,306.438199,3404.947333,10881.027347
1635.221813,1072.533697,6735.874072,7179.997637
1635.222131,1225.752797,7772.162391,6291.750507
1635.222448,1455.581446,7920.203579,6587.832884
1635.222765,1378.971896,6069.688724,5477.523971
1635.223082,536.266849,3182.885551,5773.606348
1635.223400,-306.438199,-1036.288319,9548.656652
1635.223717,-1225.752797,-4515.256246,10732.986159
1635.224034,-1532.190996,-5477.523971,11991.336260
1635.224351,-1532.190996,-6217.729913,14285.974681
1635.224669,-919.314598,-5255.462188,14804.118840
1635.224986,-919.314598,-2590.720797,12361.439231
1635.225303,842.705048,-0.000000,12509.480420
1635.225621,919.314598,3997.112087,10658.965565
1635.225938,1532.190996,7031.956449,7254.018232
1635.226255,1532.190996,8586.388927,5403.503377
1635.226572,2068.457845,8734.430116,6217.729913
1635.226890,2068.457845,7031.956449,4737.318029
1635.227207,1685.410096,4145.153275,5107.421000
1635.227524,1225.752797,-888.247130,9030.512492
1635.227841,536.266849,-4737.318029,11251.130318
1635.228159,0.000000,-7550.100608,12361.439231
1635.228476,-459.657299,-8734.430116,14508.036463
1635.228793,-612.876398,-7624.121203,15544.324782
1635.229111,-306.438199,-3997.112087,13175.665768
1635.229428,842.705048,-666.185348,13101.645173
1635.229745,2145.067394,2738.761985,11547.212695
1635.230062,2604.724693,6439.791695,8290.306550
1635.230380,3294.210641,9252.574275,5995.668130
1635.230697,3907.087040,9992.780217,5403.503377
1635.231014,4749.792088,8290.306550,3997.112087
1635.231331,4673.182538,4737.318029,3701.029710
1635.231649,4443.353888,814.226536,5995.668130
1635.231966,3294.210641,-4071.132681,8364.327145
1635.232283,2451.505594,-7846.182985,9770.718434
1635.232601,1149.143247,-9844.739029,14137.933492
1635.232918,0.000000,-9696.697840,15766.386565
1635.233235,-383.047749,-5847.626942,14211.954086
1635.233552,-766.095498,-2960.823768,13545.768739
1635.233870,-689.485948,814.226536,11843.295072
1635.234187,0.000000,4737.318029,9326.594869
1635.234504,1149.143247,8364.327145,5995.668130
1635.234821,1838.629195,8808.450710,4811.338623
1635.235139,1762.019645,8290.306550,4219.173869
1635.235456,1991.848295,5551.544565,3997.112087
1635.235773,1838.629195,1924.535449,4959.379811
1635.236091,1149.143247,-2738.761985,7031.956449
1635.236408,306.438199,-7624.121203,9474.636058
1635.236725,-842.705048,-8882.471304,11547.212695
1635.237042,-383.047749,-9104.533087,13249.686362
1635.237360,-1149.143247,-7402.059420,11843.295072
1635.237677,-766.095498,-3997.112087,13249.686362
1635.237994,-1225.752797,-518.144159,10214.842000
1635.238311,-1302.362347,3256.906145,7698.141797
1635.238629,-1149.143247,6735.874072,6661.853478
1635.238946,-229.828649,7920.203579,6587.832884
1635.239263,-229.828649,7846.182985,4515.256246
1635.239581,-766.095498,5847.626942,5699.585753
1635.239898,-1225.752797,962.267725,9252.574275
1635.240215,-1762.019645,-1036.288319,8660.409521
1635.240532,612.876398,-4367.215058,10584.944971
1635.240850,229.828649,-6069.688724,11991.336260
1635.241167,1072.533697,-7920.203579,12509.480420
1635.241484,1225.752797,-6735.874072,11473.192101
1635.241801,1608.800546,-3923.091493,10732.986159
1635.242119,2451.505594,-1258.350101,11103.089130
1635.242436,1378.971896,2590.720797,7994.224174
1635.242753,1302.362347,5403.503377,7698.141797
1635.243071,459.657299,7624.121203,7105.977043
1635.243388,229.828649,7920.203579,8142.265362
1635.243705,0.000000,7031.956449,8216.285956
1635.244022,0.000000,3552.988522,9548.656652
1635.244340,0.000000,1554.432478,9326.594869
1635.244657,689.485948,-1998.556043,10732.986159
1635.244974,1685.410096,-4959.379811,12731.542202
1635.245291,1685.410096,-6735.874072,13027.624579
1635.245609,1991.848295,-5995.668130,12361.439231
1635.245926,2145.067394,-3404.947333,12065.356855
1635.246243,2911.162892,-2220.617826,11843.295072
1635.246561,2068.457845,1628.453072,10066.800811
1635.246878,1608.800546,4737.318029,9104.533087
1635.247195,1378.971896,7105.977043,7402.059420
1635.247512,229.828649,7254.018232,6365.771101
1635.247830,766.095498,5107.421000,8808.450710
1635.248147,0.000000,2960.823768,9326.594869
1635.248464,153.219100,-0.000000,9992.780217
1635.248781,153.219100,-2368.659014,10140.821405
1635.249099,229.828649,-4811.338623,12583.501014
1635.249416,995.924147,-6217.729913,12731.542202
1635.249733,612.876398,-5699.585753,11843.295072
1635.250051,766.095498,-4737.318029,11843.295072
1635.250368,1072.533697,-2516.700203,10807.006753
1635.250685,1225.752797,-0.000000,8882.471304
1635.251002,1838.629195,3034.844362,7698.141797
1635.251320,1991.848295,5107.421000,7105.977043
1635.251637,1225.752797,5551.544565,5773.606348
1635.251954,1378.971896,4367.215058,7179.997637
1635.252271,1302.362347,2812.782580,9030.512492
1635.252589,1072.533697,1702.473667,9178.553681
1635.252906,1455.581446,518.144159,9992.780217
1635.253223,1302.362347,-1110.308913,11473.192101
1635.253541,1608.800546,-2146.597232,10584.944971
1635.253858,1302.362347,-1998.556043,9400.615463
1635.254175,2145.067394,-1924.535449,9992.780217
1635.254492,1838.629195,-1258.350101,7846.182985
1635.254810,1608.800546,-0.000000,6439.791695
1635.255127,1225.752797,1628.453072,6809.894666
1635.255444,1378.971896,2368.659014,7179.997637
1635.255761,1072.533697,2812.782580,5329.482782
1635.256079,536.266849,2294.638420,6883.915261
1635.256396,612.876398,1480.411884,8808.450710
1635.256713,-153.219100,814.226536,8216.285956
1635.257031,-306.438199,-592.164754,9918.759623
1635.257348,0.000000,-592.164754,12287.418637
1635.257665,229.828649,-0.000000,11029.068536
1635.257982,459.657299,962.267725,9326.594869
1635.258300,1149.143247,1184.329507,9548.656652
1635.258617,1455.581446,666.185348,8290.306550
1635.258934,919.314598,1258.350101,5477.523971
1635.259251,919.314598,1110.308913,6735.874072
1635.259569,153.219100,592.164754,6957.935855
1635.259886,-306.438199,-0.000000,6883.915261
1635.260203,-1685.410096,-1184.329507,8734.430116
1635.260521,-2451.505594,-1702.473667,11251.130318
1635.260838,-2681.334243,-2146.597232,11399.171507
1635.261155,-2451.505594,-2072.576638,12583.501014
1635.261472,-1532.190996,-1480.411884,14211.954086
1635.261790,-1532.190996,-222.061783,13693.809927
1635.262107,-689.485948,1554.432478,11695.253884
1635.262424,536.266849,2960.823768,11473.192101
1635.262741,1762.019645,4145.153275,9104.533087
1635.263059,2834.553343,4811.338623,6365.771101
1635.263376,2604.724693,4441.235652,5551.544565
1635.263693,2681.334243,3034.844362,6365.771101
1635.264011,1685.410096,444.123565,7105.977043
1635.264328,383.047749,-1998.556043,9326.594869
1635.264645,-842.705048,-3923.091493,11769.274478
1635.264962,-1991.848295,-5477.523971,12879.583391
1635.265280,-2298.286494,-5403.503377,14434.015869
1635.265597,-1302.362347,-4737.318029,16210.510130
1635.265914,0.000000,-1628.453072,13915.871710
1635.266231,842.705048,962.267725,12805.562797
1635.266549,1838.629195,3552.988522,11621.233289
1635.266866,2911.162892,5699.585753,8364.327145
1635.267183,3370.820191,7402.059420,5329.482782
1635.267501,3983.696590,7031.956449,5033.400406
1635.267818,4136.915689,4811.338623,4441.235652
1635.268135,3370.820191,1184.329507,4959.379811
1635.268452,2374.896044,-2590.720797,8512.368333
1635.268770,1378.971896,-5625.565159,11251.130318
1635.269087,383.047749,-7772.162391,12435.459826
1635.269404,76.609550,-8142.265362,14508.036463
1635.269721,153.219100,-7105.977043,16136.489536
1635.270039,153.219100,-3627.009116,13841.851115
1635.270356,1072.533697,-0.000000,12509.480420
1635.270673,2451.505594,3256.906145,11769.274478
1635.270991,3064.381992,7328.038826,7550.100608
1635.271308,3907.087040,9770.718434,4441.235652
1635.271625,4136.915689,9474.636058,3923.091493
1635.271942,4443.353888,6365.771101,2960.823768
1635.272260,3907.087040,2146.597232,3108.864956
1635.272577,2528.115143,-2146.597232,6439.791695
1635.272894,1378.971896,-5995.668130,9696.697840
1635.273211,536.266849,-8808.450710,10510.924376
1635.273529,229.828649,-9474.636058,13101.645173
1635.273846,0.000000,-8586.388927,15766.386565
1635.274163,-766.095498,-5329.482782,13545.768739
1635.274481,-766.095498,-1258.350101,11177.109724
1635.274798,0.000000,2368.659014,10732.986159
1635.275115,612.876398,6513.812290,7328.038826
1635.275432,1302.362347,9770.718434,3775.050304
1635.275750,995.924147,11177.109724,2294.638420
1635.276067,1378.971896,8956.491898,2368.659014
1635.276384,1608.800546,5773.606348,1998.556043
1635.276701,1072.533697,1184.329507,4145.153275
1635.277019,536.266849,-4811.338623,8586.388927
1635.277336,-1608.800546,-8882.471304,10066.800811
1635.277653,-2145.067394,-10807.006753,12805.562797
1635.277971,-3140.991542,-10881.027347,15914.427753
1635.278288,-3140.991542,-7254.018232,14359.995275
1635.278605,-2987.772442,-3404.947333,12953.603985
1635.278922,-2604.724693,1258.350101,11843.295072
1635.279240,-1532.190996,5403.503377,9178.553681
1635.279557,-536.266849,8586.388927,6513.812290
1635.279874,-306.438199,11177.109724,2368.659014
1635.280192,0.000000,9844.739029,4589.276840
1635.280509,-306.438199,6735.874072,5403.503377
1635.280826,0.000000,4071.132681,5107.421000
1635.281143,1685.410096,-666.185348,7254.018232
1635.281461,0.000000,-5773.606348,10658.965565
1635.281778,-842.705048,-10362.883188,13545.768739
1635.282095,-153.219100,-11103.089130,19319.375086
1635.282413,0.000000,-8438.347739,15544.324782
1635.282730,1225.752797,-4811.338623,13619.789333
1635.283047,689.485948,-1332.370696,13397.727550
1635.283364,229.828649,1332.370696,11251.130318
1635.283682,1378.971896,5625.565159,8142.265362
1635.283999,2221.676944,10362.883188,5625.565159
1635.284316,2221.676944,10288.862594,6217.729913
1635.284633,1915.238745,8734.430116,5329.482782
1635.284951,2298.286494,5181.441594,6069.688724
1635.285268,2681.334243,74.020594,7550.100608
1635.285585,2911.162892,-3923.091493,9770.718434
1635.285903,2145.067394,-7846.182985,11473.192101
1635.286220,1762.019645,-9474.636058,13989.892304
1635.286537,2221.676944,-8882.471304,15322.262999
1635.286854,2068.457845,-6143.709319,15544.324782
1635.287172,2145.067394,-3034.844362,14952.160028
1635.287489,842.705048,1702.473667,12287.418637
1635.287806,689.485948,5773.606348,9474.636058
1635.288124,1991.848295,9326.594869,7698.141797
1635.288441,2451.505594,10436.903782,5625.565159
1635.288758,2068.457845,8808.450710,4515.256246
1635.289075,1302.362347,6365.771101,5847.626942
1635.289393,1838.629195,2072.576638,7698.141797
1635.289710,1762.019645,-1406.391290,7550.100608
1635.290027,2528.115143,-5477.523971,11029.068536
1635.290345,1225.752797,-7254.018232,11621.233289
1635.290662,919.314598,-8660.409521,11991.336260
1635.290979,612.876398,-7846.182985,12879.583391
1635.291296,459.657299,-4441.235652,12731.542202
1635.291614,612.876398,222.061783,10658.965565
1635.291931,0.000000,4219.173869,7550.100608
1635.292248,689.485948,5477.523971,8068.244768
1635.292566,-306.438199,7105.977043,6365.771101
1635.292883,-153.219100,5921.647536,6291.750507
1635.293200,-153.219100,4811.338623,5995.668130
1635.293517,-689.485948,3627.009116,6513.812290
1635.293835,612.876398,370.102971,8956.491898
1635.294152,459.657299,-1554.432478,8808.450710
1635.294469,1378.971896,-4737.318029,11621.233289
1635.294786,0.000000,-5995.668130,10436.903782
1635.295104,919.314598,-6069.688724,10584.944971
1635.295421,1608.800546,-4219.173869,10510.924376
1635.295738,1072.533697,-1332.370696,8586.388927
1635.296056,919.314598,1628.453072,7920.203579
1635.296373,153.219100,3404.947333,6883.915261
1635.296690,-229.828649,5107.421000,6291.750507
1635.297007,-612.876398,5403.503377,6069.688724
1635.297325,-689.485948,4959.379811,8438.347739
1635.297642,-842.705048,2590.720797,8660.409521
1635.297959,-1302.362347,518.144159,10140.821405
1635.298277,-1149.143247,-962.267725,11177.109724
1635.298594,-306.438199,-3034.844362,11991.336260
1635.298911,153.219100,-3330.926739,11399.171507
1635.299228,1838.629195,-3997.112087,10732.986159
1635.299546,1838.629195,-3182.885551,9992.780217
1635.299863,1762.019645,-1554.432478,7920.203579
1635.300180,2145.067394,-740.205942,8142.265362
1635.300498,1532.190996,1036.288319,7105.977043
1635.300815,1225.752797,2368.659014,6513.812290
1635.301132,459.657299,3404.947333,6957.935855
1635.301449,-229.828649,1998.556043,9474.636058
1635.301767,-153.219100,1110.308913,10288.862594
1635.302084,-842.705048,222.061783,11251.130318
1635.302401,-689.485948,-962.267725,14285.974681
1635.302719,-536.266849,-1036.288319,13027.624579
1635.303036,1302.362347,-370.102971,12213.398043
1635.303353,1991.848295,-444.123565,11029.068536
1635.303670,2221.676944,-814.226536,10510.924376
1635.303988,2374.896044,74.020594,6883.915261
1635.304305,2451.505594,740.205942,7031.956449
1635.304622,2987.772442,1184.329507,7550.100608
1635.304939,2298.286494,1628.453072,7105.977043
1635.305257,1838.629195,1258.350101,7920.203579
1635.305574,459.657299,-0.000000,10436.903782
1635.305891,-306.438199,-444.123565,10807.006753
1635.306209,0.000000,-740.205942,11547.212695
1635.306526,536.266849,-518.144159,13693.809927
1635.306843,766.095498,666.185348,12805.562797
1635.307160,1608.800546,2146.597232,10807.006753
1635.307478,2145.067394,3330.926739,9992.780217
1635.307795,2145.067394,3923.091493,8290.306550
1635.308112,2834.553343,3775.050304,5551.544565
1635.308430,2145.067394,3330.926739,4293.194464
1635.308747,1455.581446,1332.370696,5551.544565
1635.309064,306.438199,-1110.308913,6143.709319
1635.309381,-459.657299,-2886.803174,8216.285956
1635.309699,-1378.971896,-4737.318029,10807.006753
1635.310016,-1915.238745,-5551.544565,12435.459826
1635.310333,-1915.238745,-4589.276840,13249.686362
1635.310651,-1685.410096,-2886.803174,14285.974681
1635.310968,-689.485948,148.041188,13989.892304
1635.311285,153.219100,3775.050304,11769.274478
1635.311602,1072.533697,7402.059420,9548.656652
1635.311920,2604.724693,9992.780217,7476.080014
1635.312237,2834.553343,10288.862594,3849.070898
1635.312554,3294.210641,8216.285956,3182.885551
1635.312872,3447.429741,4367.215058,3404.947333
1635.313189,2374.896044,-296.082377,4219.173869
1635.313506,1072.533697,-4293.194464,7476.080014
1635.313823,-383.047749,-7624.121203,11843.295072
1635.314141,-2145.067394,-9474.636058,13693.809927
1635.314458,-2528.115143,-9326.594869,15544.324782
1635.314775,-2604.724693,-7105.977043,16728.654289
1635.315092,-2451.505594,-3849.070898,15692.365970
1635.315410,-995.924147,888.247130,13545.768739
1635.315727,229.828649,4737.318029,11473.192101
1635.316044,1455.581446,8142.265362,9400.615463
1635.316362,2298.286494,11103.089130,4515.256246
1635.316679,3524.039291,10807.006753,2738.761985
1635.316996,4903.011187,8290.306550,2886.803174
1635.317313,3907.087040,3701.029710,2664.741391
1635.317631,3677.258390,-2294.638420,5477.523971
1635.317948,1685.410096,-8216.285956,10140.821405
1635.318265,-306.438199,-11917.315666,12731.542202
1635.318583,-995.924147,-13175.665768,18579.169144
1635.318900,-1532.190996,-11399.171507,17616.901420
1635.319217,-995.924147,-7328.038826,13915.871710
1635.319534,-919.314598,-4441.235652,13989.892304
1635.319852,-995.924147,444.123565,12139.377449
1635.320169,1915.238745,5699.585753,9030.512492
1635.320486,2298.286494,11769.274478,2812.782580
1635.320804,3677.258390,13101.645173,2664.741391
1635.321121,2528.115143,10732.986159,2516.700203
1635.321438,2374.896044,7476.080014,740.205942
1635.321755,4060.306139,2072.576638,4367.215058
1635.322073,1991.848295,-4293.194464,8438.347739
1635.322390,-229.828649,-10362.883188,11547.212695
1635.322707,-689.485948,-13175.665768,15100.201217
1635.323024,-1225.752797,-12065.356855,19319.375086
1635.323342,-1072.533697,-9622.677246,17394.839637
1635.323659,-459.657299,-4885.359217,14656.077652
1635.323976,0.000000,-148.041188,13471.748144
1635.324294,1378.971896,4737.318029,9770.718434
1635.324611,2298.286494,10436.903782,4367.215058
1635.324928,3064.381992,13249.686362,666.185348
1635.325245,3370.820191,13989.892304,814.226536
1635.325563,2834.553343,10955.047942,1110.308913
1635.325880,2834.553343,7476.080014,888.247130
1635.326197,2911.162892,1036.288319,4219.173869
1635.326515,2068.457845,-6365.771101,10066.800811
1635.326832,-766.095498,-11695.253884,11029.068536
1635.327149,-1225.752797,-13989.892304,17764.942608
1635.327466,-1685.410096,-12509.480420,19393.395680
1635.327784,-1455.581446,-8142.265362,15322.262999
1635.328101,-919.314598,-2812.782580,15322.262999
1635.328418,-2834.553343,1258.350101,11843.295072
1635.328736,-1149.143247,5773.606348,10362.883188
1635.329053,-766.095498,11621.233289,3552.988522
1635.329370,-229.828649,14582.057057,666.185348
1635.329687,-153.219100,11843.295072,2960.823768
1635.330005,-919.314598,10584.944971,3997.112087
1635.330322,459.657299,5329.482782,3775.050304
1635.330639,1072.533697,-148.041188,7994.224174
1635.330957,-153.219100,-7179.997637,10510.924376
1635.331274,-1838.629195,-10510.924376,14063.912898
1635.331591,76.609550,-13249.686362,21169.889941
1635.331908,-995.924147,-9622.677246,16802.674883
1635.332226,229.828649,-4959.379811,13841.851115
1635.332543,-919.314598,-1184.329507,13989.892304
1635.332860,-1072.533697,370.102971,12361.439231
1635.333177,153.219100,7031.956449,8216.285956
1635.333495,1838.629195,11843.295072,5773.606348
1635.333812,2757.943793,12879.583391,3256.906145
1635.334129,2604.724693,11251.130318,2886.803174
1635.334447,3294.210641,6957.935855,4071.132681
1635.334764,4136.915689,2368.659014,5033.400406
1635.335081,5822.325785,-2590.720797,8142.265362
1635.335398,4213.525239,-6069.688724,9918.759623
1635.335716,2757.943793,-10288.862594,12509.480420
1635.336033,1532.190996,-11177.109724,17024.736666
1635.336350,-1072.533697,-8882.471304,17320.819043
1635.336668,-766.095498,-4071.132681,15618.345376
1635.336985,-689.485948,370.102971,14063.912898
1635.337302,-1225.752797,4145.153275,10362.883188
1635.337619,153.219100,6661.853478,8734.430116
1635.337937,919.314598,7920.203579,6735.874072
1635.338254,1838.629195,6957.935855,5847.626942
1635.338571,1991.848295,6291.750507,5773.606348
1635.338889,2068.457845,5033.400406,5403.503377
1635.339206,3907.087040,2738.761985,5625.565159
1635.339523,4443.353888,-592.164754,7179.997637
1635.339840,3983.696590,-4959.379811,9696.697840
1635.340158,2681.334243,-7994.224174,11029.068536
1635.340475,2221.676944,-8438.347739,14582.057057
1635.340792,766.095498,-6217.729913,13027.624579
1635.341110,306.438199,-3627.009116,11177.109724
1635.341427,76.609550,-296.082377,11029.068536
1635.341744,-1149.143247,1184.329507,8808.450710
1635.342061,-689.485948,4071.132681,6809.894666
1635.342379,-766.095498,5255.462188,6661.853478
1635.342696,0.000000,5033.400406,7105.977043
1635.343013,-383.047749,5255.462188,5329.482782
1635.343330,-153.219100,1702.473667,8734.430116
1635.343648,-1302.362347,-1036.288319,9918.759623
1635.343965,0.000000,-2442.679609,9696.697840
1635.344282,689.485948,-3330.926739,9474.636058
1635.344600,1762.019645,-4145.153275,9474.636058
1635.344917,2374.896044,-4663.297435,9400.615463
1635.345234,995.924147,-2812.782580,7476.080014
1635.345551,1302.362347,-2072.576638,9030.512492
1635.345869,229.828649,222.061783,7105.977043
1635.346186,-995.924147,1036.288319,6809.894666
1635.346503,-1762.019645,2220.617826,8808.450710
1635.346821,-3370.820191,2220.617826,9474.636058
1635.347138,-2681.334243,2368.659014,10807.006753
1635.347455,-2298.286494,2738.761985,10881.027347
1635.347772,-1532.190996,2960.823768,11177.109724
1635.348090,-766.095498,2738.761985,10066.800811
1635.348407,842.705048,1628.453072,9770.718434
1635.348724,1762.019645,-74.020594,8142.265362
1635.349042,3447.429741,-1628.453072,7920.203579
1635.349359,3370.820191,-1776.494261,7105.977043
1635.349676,2451.505594,-2294.638420,8290.306550
1635.349993,1915.238745,-1702.473667,8808.450710
1635.350311,1378.971896,-1184.329507,9326.594869
1635.350628,0.000000,-740.205942,10807.006753
1635.350945,-1455.581446,-222.061783,11473.192101
1635.351263,-919.314598,-370.102971,12731.542202
1635.351580,-1149.143247,444.123565,12287.418637
1635.351897,306.438199,1850.514855,13397.727550
1635.352214,1532.190996,3330.926739,11695.253884
1635.352532,3447.429741,4293.194464,9844.739029
1635.352849,4060.306139,4515.256246,8142.265362
1635.353166,4443.353888,3404.947333,6883.915261
1635.353483,5515.887586,1998.556043,6069.688724
1635.353801,4979.620737,740.205942,6439.791695
1635.354118,4596.572988,-1924.535449,7994.224174
1635.354435,3907.087040,-3330.926739,9326.594869
1635.354753,3447.429741,-3923.091493,12583.501014
1635.355070,3753.867940,-3923.091493,13767.830521
1635.355387,4136.915689,-2812.782580,14137.933492
1635.355704,4443.353888,222.061783,13989.892304
1635.356022,5286.058936,3478.967927,12435.459826
1635.356339,5745.716235,7624.121203,8956.491898
1635.356656,6588.421283,11251.130318,6513.812290
1635.356974,7277.907231,11769.274478,5255.462188
1635.357291,6435.202183,10732.986159,2442.679609
1635.357608,5898.935335,7550.100608,2664.741391
1635.357925,4826.401637,3404.947333,4663.297435
1635.358243,4519.963438,-1554.432478,7846.182985
1635.358560,4136.915689,-5477.523971,9992.780217
1635.358877,2987.772442,-7920.203579,13767.830521
1635.359195,2374.896044,-7179.997637,15100.201217
1635.359512,2374.896044,-3997.112087,14582.057057
1635.359829,2987.772442,518.144159,12361.439231
1635.360146,2604.724693,4737.318029,10732.986159
1635.360464,2298.286494,9030.512492,7179.997637
1635.360781,1838.629195,12213.398043,2960.823768
1635.361098,1225.752797,13249.686362,3182.885551
1635.361415,306.438199,11473.192101,4219.173869
1635.361733,-306.438199,7624.121203,5107.421000
1635.362050,-612.876398,3404.947333,7105.977043
1635.362367,-1149.143247,-296.082377,10732.986159
1635.362685,0.000000,-4737.318029,13989.892304
1635.363002,842.705048,-5921.647536,15174.221811
1635.363319,1532.190996,-4885.359217,14582.057057
1635.363636,1838.629195,-1998.556043,12435.459826
1635.363954,1991.848295,1850.514855,10436.903782
1635.364271,3217.601092,5403.503377,8512.368333
1635.364588,2834.553343,8660.409521,4737.318029
1635.364906,1608.800546,9918.759623,3256.906145
1635.365223,459.657299,10140.821405,4145.153275
1635.365540,153.219100,8882.471304,5921.647536
1635.365857,0.000000,5995.668130,7624.121203
1635.366175,0.000000,2886.803174,11547.212695
1635.366492,766.095498,148.041188,14137.933492
1635.366809,2145.067394,-1850.514855,15100.201217
1635.367127,3294.210641,-2664.741391,15692.365970
1635.367444,4443.353888,-2812.782580,15618.345376
1635.367761,5592.497135,296.082377,12879.583391
1635.368078,6358.592633,4071.132681,9622.677246
1635.368396,7431.126331,6883.915261,7402.059420
1635.368713,6128.763984,7994.224174,5329.482782
1635.369030,5975.544884,9104.533087,3404.947333
1635.369348,4673.182538,8068.244768,3182.885551
1635.369665,3600.648841,5107.421000,6439.791695
1635.369982,2221.676944,1554.432478,9622.677246
1635.370299,1455.581446,-1332.370696,12435.459826
1635.370617,689.485948,-2886.803174,14656.077652
1635.370934,153.219100,-3404.947333,15470.304188
1635.371251,689.485948,-3701.029710,16580.613101
1635.371568,1455.581446,-1628.453072,14582.057057
1635.371886,1608.800546,814.226536,11769.274478
1635.372203,2374.896044,3108.864956,9178.553681
1635.372520,3677.258390,4219.173869,8512.368333
1635.372838,4826.401637,4145.153275,7328.038826
1635.373155,4903.011187,4145.153275,6143.709319
1635.373472,5515.887586,3404.947333,6439.791695
1635.373789,5745.716235,2590.720797,7179.997637
1635.374107,5975.544884,1702.473667,7550.100608
1635.374424,5822.325785,1554.432478,8290.306550
1635.374741,4903.011187,1110.308913,9548.656652
1635.375059,3140.991542,740.205942,9622.677246
1635.375376,2145.067394,-74.020594,9548.656652
1635.375693,1149.143247,-740.205942,10066.800811
1635.376011,1149.143247,-1332.370696,10140.821405
1635.376328,612.876398,-1332.370696,9918.759623
1635.376645,383.047749,-370.102971,9696.697840
1635.376963,919.314598,814.226536,9992.780217
1635.377280,1838.629195,2516.700203,8586.388927
1635.377597,2374.896044,3775.050304,7550.100608
1635.377915,3140.991542,4737.318029,7254.018232
1635.378232,3983.696590,4737.318029,5699.585753
1635.378550,3677.258390,3923.091493,6291.750507
1635.378867,3524.039291,1850.514855,7328.038826
1635.379184,3370.820191,-0.000000,8586.388927
1635.379502,2681.334243,-370.102971,8586.388927
1635.379819,2681.334243,-666.185348,9696.697840
1635.380136,2068.457845,-148.041188,9474.636058
1635.380454,2298.286494,1554.432478,8438.347739
1635.380771,1608.800546,2368.659014,7846.182985
1635.381089,1225.752797,3034.844362,8142.265362
1635.381406,995.924147,3478.967927,8216.285956
1635.381723,919.314598,4071.132681,7698.141797
1635.382041,1149.143247,3701.029710,8808.450710
1635.382358,1685.410096,2590.720797,9696.697840
1635.382675,1915.238745,1554.432478,9622.677246
1635.382993,2451.505594,1406.391290,9474.636058
1635.383310,2681.334243,1702.473667,9400.615463
1635.383628,2834.553343,2072.576638,9548.656652
1635.383945,3294.210641,2960.823768,9030.512492
1635.384262,3294.210641,3849.070898,8364.327145
1635.384580,3064.381992,4219.173869,7698.141797
1635.384897,3140.991542,4441.235652,8586.388927
1635.385214,2911.162892,4515.256246,9252.574275
1635.385532,2911.162892,3923.091493,9918.759623
1635.385849,2987.772442,3404.947333,11325.150913
1635.386167,3140.991542,3256.906145,11547.212695
1635.386484,3217.601092,4071.132681,10066.800811
1635.386801,3753.867940,4737.318029,8586.388927
1635.387119,3907.087040,4663.297435,7772.162391
1635.387436,4366.744339,4737.318029,6957.935855
1635.387754,3983.696590,4071.132681,6809.894666
1635.388071,3217.601092,2664.741391,8586.388927
1635.388388,2374.896044,1628.453072,11177.109724
1635.388706,1838.629195,1184.329507,12139.377449
1635.389023,1072.533697,1702.473667,12953.603985
1635.389340,995.924147,2664.741391,13175.665768
1635.389658,1225.752797,3701.029710,12213.398043
1635.389975,1762.019645,4515.256246,11103.089130
1635.390293,2068.457845,4663.297435,10288.862594
1635.390610,2757.943793,4367.215058,9918.759623
1635.390927,2911.162892,3775.050304,9474.636058
1635.391245,3677.258390,3330.926739,9844.739029
1635.391562,3370.820191,3034.844362,9844.739029
1635.391879,3217.601092,2516.700203,10436.903782
1635.392197,3370.820191,2664.741391,10214.842000
1635.392514,3447.429741,3108.864956,10140.821405
1635.392832,3524.039291,3256.906145,9992.780217
1635.393149,3140.991542,3256.906145,10436.903782
1635.393466,3064.381992,2590.720797,10362.883188
1635.393784,2911.162892,2146.597232,10140.821405
1635.394101,2987.772442,1332.370696,10510.924376
1635.394418,2221.676944,1258.350101,11103.089130
1635.394736,2374.896044,1406.391290,10658.965565
1635.395053,1915.238745,2294.638420,10214.842000
1635.395371,1378.971896,2368.659014,10140.821405
1635.395688,1532.190996,2516.700203,10066.800811
1635.396005,1685.410096,2960.823768,9252.574275
1635.396323,2145.067394,2812.782580,8734.430116
1635.396640,2528.115143,2294.638420,8512.368333
1635.396957,2757.943793,888.247130,9104.533087
