#time,accel_x,accel_y,accel_z
1499.904345,2757.943793,1036.288319,5847.626942
1499.904662,2834.553343,1480.411884,5255.462188
1499.904980,3064.381992,1332.370696,6143.709319
1499.905297,2604.724693,666.185348,7179.997637
1499.905614,2145.067394,-0.000000,8216.285956
1499.905931,1455.581446,-0.000000,8956.491898
1499.906249,919.314598,-444.123565,9474.636058
1499.906566,842.705048,296.082377,9474.636058
1499.906883,995.924147,962.267725,9104.533087
1499.907201,995.924147,1702.473667,8364.327145
1499.907518,919.314598,1258.350101,8512.368333
1499.907835,0.000000,592.164754,9178.553681
1499.908152,-919.314598,-0.000000,9918.759623
1499.908470,-1762.019645,-740.205942,10732.986159
1499.908787,-2298.286494,-1554.432478,11991.336260
1499.909104,-2911.162892,-1850.514855,13027.624579
1499.909421,-2911.162892,-1480.411884,13101.645173
1499.909739,-2681.334243,-296.082377,13471.748144
1499.910056,-2528.115143,296.082377,13027.624579
1499.910373,-1991.848295,1036.288319,12361.439231
1499.910691,-1455.581446,1332.370696,11399.171507
1499.911008,-1762.019645,2072.576638,11473.192101
1499.911325,-1838.629195,1628.453072,11695.253884
1499.911642,-1915.238745,1406.391290,11843.295072
1499.911960,-1991.848295,1332.370696,12139.377449
1499.912277,-1532.190996,1628.453072,11991.336260
1499.912594,-1838.629195,1924.535449,11843.295072
1499.912912,-1302.362347,1924.535449,10881.027347
1499.913229,-1149.143247,1924.535449,10214.842000
1499.913546,-766.095498,1776.494261,9622.677246
1499.913863,-536.266849,1406.391290,9178.553681
1499.914181,-1072.533697,666.185348,8734.430116
1499.914498,-1149.143247,-222.061783,8956.491898
1499.914815,-1991.848295,-1036.288319,9474.636058
1499.915133,-2604.724693,-1628.453072,10066.800811
1499.915450,-2757.943793,-1332.370696,9622.677246
1499.915767,-3217.601092,-888.247130,9770.718434
1499.916084,-3294.210641,-444.123565,9770.718434
1499.916402,-2987.772442,-370.102971,9622.677246
1499.916719,-2987.772442,-1036.288319,9252.574275
1499.917036,-1838.629195,-1554.432478,9474.636058
1499.917354,-1685.410096,-2516.700203,9548.656652
1499.917671,-919.314598,-3108.864956,9918.759623
1499.917988,-536.266849,-3552.988522,10066.800811
1499.918305,-229.828649,-4145.153275,10584.944971
1499.918623,-153.219100,-4071.132681,10214.842000
1499.918940,-306.438199,-3997.112087,9622.677246
1499.919257,153.219100,-3404.947333,8660.409521
1499.919575,459.657299,-3923.091493,8734.430116
1499.919892,229.828649,-4219.173869,8290.306550
1499.920209,0.000000,-4885.359217,8290.306550
1499.920526,-383.047749,-5255.462188,8512.368333
1499.920844,-842.705048,-6069.688724,9622.677246
1499.921161,-919.314598,-6291.750507,10288.862594
1499.921478,-1608.800546,-5551.544565,10436.903782
1499.921796,-1991.848295,-5033.400406,10214.842000
1499.922113,-1915.238745,-4145.153275,10066.800811
1499.922430,-2145.067394,-4441.235652,10140.821405
1499.922747,-2451.505594,-4145.153275,9992.780217
1499.923065,-2068.457845,-4367.215058,10066.800811
1499.923382,-2374.896044,-4367.215058,10066.800811
1499.923699,-1838.629195,-4811.338623,9918.759623
1499.924017,-1915.238745,-4219.173869,9474.636058
1499.924334,-1532.190996,-4515.256246,9252.574275
1499.924651,-995.924147,-3701.029710,8142.265362
1499.924968,-1608.800546,-3108.864956,7550.100608
1499.925286,-919.314598,-2960.823768,7402.059420
1499.925603,-1302.362347,-3701.029710,7402.059420
1499.925920,-1378.971896,-4737.318029,8290.306550
1499.926237,-1608.800546,-4737.318029,8512.368333
1499.926555,-1608.800546,-4515.256246,8660.409521
1499.926872,-1302.362347,-3923.091493,8660.409521
1499.927189,-153.219100,-3256.906145,8438.347739
1499.927507,0.000000,-2146.597232,7328.038826
1499.927824,153.219100,-1850.514855,6957.935855
1499.928141,689.485948,-1406.391290,7105.977043
1499.928458,1149.143247,-1924.535449,7920.203579
1499.928776,1149.143247,-2516.700203,9030.512492
1499.929093,1378.971896,-2072.576638,9326.594869
1499.929410,1225.752797,-1628.453072,9770.718434
1499.929728,1685.410096,-1036.288319,9696.697840
1499.930045,2298.286494,-148.041188,9400.615463
1499.930362,2604.724693,740.205942,8438.347739
1499.930679,3370.820191,1776.494261,7698.141797
1499.930997,3294.210641,1850.514855,7698.141797
1499.931314,3524.039291,1332.370696,8438.347739
1499.931631,3524.039291,592.164754,9178.553681
1499.931949,3370.820191,666.185348,9770.718434
1499.932266,3140.991542,888.247130,9918.759623
1499.932583,3140.991542,1924.535449,9844.739029
1499.932900,3217.601092,3034.844362,9400.615463
1499.933218,3217.601092,4293.194464,9030.512492
1499.933535,2987.772442,4589.276840,8660.409521
1499.933852,2681.334243,4367.215058,8660.409521
1499.934170,2298.286494,3849.070898,9252.574275
1499.934487,1838.629195,3034.844362,10214.842000
1499.934804,1149.143247,2590.720797,11621.233289
1499.935121,153.219100,2738.761985,11399.171507
1499.935439,-459.657299,3478.967927,10658.965565
1499.935756,-1072.533697,4441.235652,10362.883188
1499.936073,-1072.533697,5847.626942,10436.903782
1499.936391,-1608.800546,5403.503377,9548.656652
1499.936708,-1532.190996,5477.523971,8956.491898
1499.937025,-1991.848295,4515.256246,9622.677246
1499.937342,-2298.286494,3775.050304,10288.862594
1499.937660,-1915.238745,2368.659014,11029.068536
1499.937977,-2528.115143,2220.617826,11547.212695
1499.938294,-2757.943793,1998.556043,11177.109724
1499.938612,-2451.505594,2590.720797,10584.944971
1499.938929,-2451.505594,3108.864956,10436.903782
1499.939246,-1685.410096,3330.926739,10510.924376
1499.939563,-1991.848295,2516.700203,10658.965565
1499.939881,-2451.505594,1776.494261,11251.130318
1499.940198,-2604.724693,740.205942,12065.356855
1499.940515,-2374.896044,-74.020594,12583.501014
1499.940832,-2374.896044,-444.123565,12953.603985
1499.941150,-2068.457845,-444.123565,12435.459826
1499.941467,-1608.800546,-222.061783,11991.336260
1499.941784,-1378.971896,-74.020594,11325.150913
1499.942102,-536.266849,-0.000000,11251.130318
1499.942419,0.000000,-814.226536,10807.006753
1499.942736,459.657299,-1406.391290,11251.130318
1499.943053,766.095498,-2146.597232,10955.047942
1499.943371,1149.143247,-2664.741391,11029.068536
1499.943688,1838.629195,-2960.823768,10732.986159
1499.944005,2451.505594,-2516.700203,10436.903782
1499.944323,3064.381992,-1998.556043,9474.636058
1499.944640,3600.648841,-1850.514855,8808.450710
1499.944957,3983.696590,-1628.453072,8586.388927
1499.945274,4826.401637,-1924.535449,8068.244768
1499.945592,3983.696590,-2294.638420,7772.162391
1499.945909,3830.477490,-2738.761985,7846.182985
1499.946227,3600.648841,-3404.947333,8364.327145
1499.946544,3370.820191,-3849.070898,8660.409521
1499.946862,3370.820191,-4071.132681,8364.327145
1499.947179,2987.772442,-3182.885551,8512.368333
1499.947497,2834.553343,-2738.761985,7994.224174
1499.947814,2528.115143,-2960.823768,7179.997637
1499.948132,2068.457845,-3108.864956,7550.100608
1499.948449,1608.800546,-3108.864956,7624.121203
1499.948767,1532.190996,-3330.926739,7772.162391
1499.949084,1225.752797,-3627.009116,7846.182985
1499.949402,1225.752797,-3552.988522,7698.141797
1499.949719,919.314598,-3182.885551,7994.224174
1499.950037,1149.143247,-2368.659014,7476.080014
1499.950354,919.314598,-2146.597232,7031.956449
1499.950672,1072.533697,-1702.473667,6513.812290
1499.950989,1072.533697,-1628.453072,6291.750507
1499.951307,1149.143247,-2146.597232,6513.812290
1499.951624,612.876398,-2368.659014,7105.977043
1499.951942,153.219100,-2960.823768,7550.100608
1499.952259,-306.438199,-2960.823768,8216.285956
1499.952577,-536.266849,-2664.741391,8438.347739
1499.952894,-995.924147,-1998.556043,8512.368333
1499.953212,-1149.143247,-1110.308913,8734.430116
1499.953529,-1532.190996,-962.267725,8734.430116
1499.953847,-1685.410096,-74.020594,8734.430116
1499.954164,-1762.019645,148.041188,9104.533087
1499.954482,-995.924147,444.123565,9178.553681
1499.954799,-842.705048,814.226536,9400.615463
1499.955117,-459.657299,1110.308913,9400.615463
1499.955434,-306.438199,1628.453072,9178.553681
1499.955752,-153.219100,2072.576638,9178.553681
1499.956069,229.828649,2886.803174,8512.368333
1499.956387,536.266849,3923.091493,7994.224174
1499.956704,995.924147,4441.235652,7328.038826
1499.957022,919.314598,4367.215058,8068.244768
1499.957339,612.876398,3849.070898,8438.347739
1499.957657,612.876398,3404.947333,9326.594869
1499.957974,306.438199,3478.967927,9622.677246
1499.958292,0.000000,3478.967927,10066.800811
1499.958609,76.609550,3627.009116,10362.883188
1499.958927,-229.828649,3404.947333,10584.944971
1499.959244,0.000000,4145.153275,10732.986159
1499.959562,76.609550,4515.256246,11177.109724
1499.959879,0.000000,4367.215058,11769.274478
1499.960197,306.438199,4145.153275,11917.315666
1499.960514,306.438199,3849.070898,12509.480420
1499.960832,612.876398,3478.967927,12583.501014
1499.961149,1072.533697,3627.009116,12287.418637
1499.961467,1608.800546,3923.091493,11991.336260
1499.961784,2451.505594,3997.112087,11251.130318
1499.962102,2374.896044,4441.235652,10881.027347
1499.962419,2528.115143,4219.173869,10732.986159
1499.962737,2604.724693,3404.947333,10881.027347
1499.963054,2221.676944,2146.597232,11325.150913
1499.963372,1685.410096,1184.329507,11695.253884
1499.963689,1149.143247,592.164754,12657.521608
1499.964007,842.705048,666.185348,12657.521608
1499.964324,536.266849,-592.164754,11621.233289
1499.964642,536.266849,740.205942,12213.398043
1499.964959,1225.752797,2146.597232,11769.274478
1499.965277,842.705048,1406.391290,10807.006753
1499.965594,995.924147,1998.556043,10807.006753
1499.965912,995.924147,740.205942,11177.109724
1499.966229,1072.533697,444.123565,10881.027347
1499.966547,1915.238745,592.164754,10955.047942
1499.966864,1455.581446,592.164754,10658.965565
1499.967182,1532.190996,518.144159,9474.636058
1499.967499,1915.238745,518.144159,9030.512492
1499.967817,1991.848295,370.102971,7698.141797
1499.968134,2145.067394,296.082377,7254.018232
1499.968452,1915.238745,-222.061783,7105.977043
1499.968769,1455.581446,-1036.288319,7105.977043
1499.969087,1072.533697,-1850.514855,7254.018232
1499.969404,842.705048,-2294.638420,7772.162391
1499.969722,459.657299,-2368.659014,8142.265362
1499.970039,612.876398,-2220.617826,7994.224174
1499.970357,76.609550,-2072.576638,7476.080014
1499.970674,229.828649,-1628.453072,7105.977043
1499.970992,1072.533697,-1480.411884,7179.997637
1499.971309,612.876398,-1924.535449,7254.018232
1499.971627,995.924147,-1702.473667,7772.162391
1499.971944,1149.143247,-2738.761985,7698.141797
1499.972262,995.924147,-3034.844362,7846.182985
1499.972579,1608.800546,-2516.700203,8364.327145
1499.972897,1532.190996,-2146.597232,8290.306550
1499.973214,2145.067394,-1776.494261,7772.162391
1499.973532,2298.286494,-740.205942,7402.059420
1499.973849,2068.457845,-222.061783,7105.977043
1499.974167,1991.848295,-518.144159,7031.956449
1499.974484,1685.410096,-1184.329507,6957.935855
1499.974802,1532.190996,-1406.391290,7402.059420
1499.975119,1378.971896,-1628.453072,8142.265362
1499.975437,1225.752797,-1998.556043,8808.450710
1499.975754,995.924147,-1702.473667,9030.512492
1499.976072,1072.533697,-888.247130,9178.553681
1499.976389,1302.362347,444.123565,8956.491898
1499.976707,842.705048,814.226536,8290.306550
1499.977024,766.095498,1406.391290,8586.388927
1499.977342,612.876398,1480.411884,9030.512492
1499.977659,689.485948,1998.556043,9400.615463
1499.977977,612.876398,1554.432478,9474.636058
1499.978294,536.266849,1406.391290,10214.842000
1499.978612,459.657299,1702.473667,10288.862594
1499.978929,995.924147,1628.453072,10510.924376
1499.979247,842.705048,2590.720797,9918.759623
1499.979564,689.485948,3256.906145,9474.636058
1499.979882,995.924147,3627.009116,9030.512492
1499.980199,689.485948,3627.009116,8808.450710
1499.980517,689.485948,3478.967927,9178.553681
1499.980834,383.047749,2960.823768,9696.697840
1499.981152,306.438199,2368.659014,10214.842000
1499.981469,0.000000,2294.638420,10140.821405
1499.981787,-153.219100,2368.659014,10658.965565
1499.982104,-383.047749,2886.803174,11103.089130
1499.982422,0.000000,2960.823768,10955.047942
1499.982739,0.000000,3701.029710,10658.965565
1499.983057,-153.219100,3552.988522,10584.944971
1499.983374,-306.438199,3478.967927,11251.130318
1499.983692,153.219100,2960.823768,11547.212695
1499.984009,0.000000,2294.638420,12139.377449
1499.984327,76.609550,2146.597232,12361.439231
1499.984644,536.266849,2294.638420,12435.459826
1499.984962,842.705048,2442.679609,11917.315666
1499.985279,1608.800546,2960.823768,11547.212695
1499.985597,1915.238745,3256.906145,10362.883188
1499.985914,2068.457845,3330.926739,9548.656652
1499.986232,1991.848295,2812.782580,9178.553681
1499.986549,2221.676944,1924.535449,9474.636058
1499.986867,1915.238745,1184.329507,9696.697840
1499.987184,1455.581446,296.082377,10362.883188
1499.987502,995.924147,-222.061783,10732.986159
1499.987819,842.705048,-222.061783,10807.006753
1499.988137,459.657299,222.061783,10140.821405
1499.988454,459.657299,666.185348,9844.739029
1499.988772,689.485948,1184.329507,10140.821405
1499.989089,459.657299,1184.329507,9178.553681
1499.989407,383.047749,444.123565,8882.471304
1499.989724,689.485948,222.061783,9548.656652
1499.990042,919.314598,-74.020594,9474.636058
1499.990359,995.924147,-444.123565,9548.656652
1499.990677,995.924147,-592.164754,9696.697840
1499.990994,766.095498,-962.267725,9178.553681
1499.991312,1302.362347,-518.144159,8512.368333
1499.991629,1302.362347,-518.144159,7920.203579
1499.991947,1455.581446,-74.020594,7105.977043
1499.992264,1455.581446,-296.082377,6809.894666
1499.992582,1455.581446,-1480.411884,7179.997637
1499.992899,842.705048,-2442.679609,7772.162391
1499.993217,229.828649,-2812.782580,8364.327145
1499.993534,0.000000,-3182.885551,8808.450710
1499.993852,0.000000,-2516.700203,8734.430116
1499.994169,-383.047749,-2072.576638,8438.347739
1499.994487,-153.219100,-2146.597232,8068.244768
1499.994804,-383.047749,-2738.761985,8586.388927
1499.995122,153.219100,-2516.700203,8512.368333
1499.995439,-306.438199,-2664.741391,8734.430116
1499.995757,0.000000,-2960.823768,8808.450710
1499.996074,842.705048,-2516.700203,8882.471304
1499.996392,1302.362347,-2738.761985,9178.553681
1499.996709,1532.190996,-2516.700203,8956.491898
1499.997027,1532.190996,-1850.514855,8586.388927
1499.997344,2068.457845,-1184.329507,7772.162391
1499.997662,2911.162892,-518.144159,7550.100608
1499.997979,2298.286494,-814.226536,7254.018232
1499.998297,2681.334243,-1776.494261,7328.038826
1499.998614,2451.505594,-2220.617826,7920.203579
1499.998932,2145.067394,-2368.659014,8808.450710
1499.999249,2298.286494,-2146.597232,9030.512492
1499.999567,2221.676944,-1332.370696,9104.533087
1499.999884,1991.848295,-814.226536,9252.574275
1500.000202,1838.629195,-0.000000,9104.533087
1500.000519,1608.800546,444.123565,9030.512492
1500.000837,1838.629195,1036.288319,8808.450710
1500.001154,2145.067394,1258.350101,9030.512492
1500.001472,1608.800546,1480.411884,9252.574275
1500.001789,1455.581446,888.247130,9844.739029
1500.002107,1149.143247,518.144159,10584.944971
1500.002424,995.924147,666.185348,10584.944971
1500.002742,1225.752797,962.267725,10362.883188
1500.003059,1608.800546,2442.679609,9918.759623
1500.003377,1378.971896,2442.679609,9474.636058
1500.003694,1072.533697,2294.638420,9326.594869
1500.004012,689.485948,2220.617826,9696.697840
1500.004329,76.609550,1184.329507,10066.800811
1500.004647,-153.219100,1036.288319,10510.924376
1500.004964,-76.609550,1406.391290,10955.047942
1500.005282,-1225.752797,1554.432478,11325.150913
1500.005599,-1302.362347,1554.432478,11695.253884
1500.005917,-1532.190996,1702.473667,11251.130318
1500.006234,-1838.629195,1702.473667,11029.068536
1500.006552,-1838.629195,2294.638420,10732.986159
1500.006869,-1762.019645,2294.638420,10881.027347
1500.007187,-1991.848295,1850.514855,11029.068536
1500.007504,-1915.238745,1332.370696,11473.192101
1500.007822,-2681.334243,1036.288319,11843.295072
1500.008139,-1991.848295,1110.308913,11843.295072
1500.008457,-1838.629195,1480.411884,11621.233289
1500.008774,-1302.362347,1850.514855,11251.130318
1500.009092,-919.314598,2294.638420,10288.862594
1500.009409,-383.047749,2590.720797,9622.677246
1500.009727,0.000000,2220.617826,9178.553681
1500.010044,383.047749,1554.432478,9178.553681
1500.010362,229.828649,888.247130,9474.636058
1500.010679,153.219100,296.082377,9548.656652
1500.010997,76.609550,-370.102971,9918.759623
1500.011314,0.000000,-148.041188,10066.800811
1500.011632,153.219100,-148.041188,9696.697840
1500.011949,0.000000,148.041188,9474.636058
1500.012267,536.266849,148.041188,9326.594869
1500.012584,306.438199,222.061783,9104.533087
1500.012902,459.657299,-444.123565,9252.574275
1500.013219,766.095498,-666.185348,9252.574275
1500.013537,1072.533697,-1110.308913,9400.615463
1500.013854,1532.190996,-1406.391290,9104.533087
1500.014172,1302.362347,-1480.411884,9474.636058
1500.014489,1915.238745,-1184.329507,9252.574275
1500.014807,2068.457845,-1110.308913,8512.368333
1500.015124,2604.724693,-1184.329507,7772.162391
1500.015442,2681.334243,-1184.329507,7476.080014
1500.015759,2681.334243,-1776.494261,7550.100608
1500.016077,2528.115143,-2368.659014,7328.038826
1500.016394,2528.115143,-2664.741391,7698.141797
1500.016712,2528.115143,-3034.844362,8290.306550
1500.017029,1991.848295,-3256.906145,8512.368333
1500.017347,1149.143247,-2886.803174,8512.368333
1500.017664,1378.971896,-2590.720797,8364.327145
1500.017982,612.876398,-2516.700203,8290.306550
1500.018299,383.047749,-2220.617826,8512.368333
1500.018617,153.219100,-2516.700203,8734.430116
1500.018934,0.000000,-2368.659014,8586.388927
1500.019252,76.609550,-2738.761985,8882.471304
1500.019569,229.828649,-2442.679609,8882.471304
1500.019887,612.876398,-2368.659014,9104.533087
1500.020204,919.314598,-1628.453072,8882.471304
1500.020522,1302.362347,-1332.370696,8512.368333
1500.020839,1302.362347,-370.102971,7698.141797
1500.021157,1455.581446,-74.020594,7254.018232
1500.021474,1225.752797,-296.082377,7402.059420
1500.021792,1455.581446,-592.164754,7476.080014
1500.022109,1072.533697,-888.247130,7920.203579
1500.022427,766.095498,-1258.350101,8290.306550
1500.022744,459.657299,-1184.329507,9178.553681
1500.023062,689.485948,-1258.350101,9400.615463
1500.023379,0.000000,-666.185348,9474.636058
1500.023697,0.000000,-74.020594,9548.656652
1500.024014,-536.266849,-0.000000,9622.677246
1500.024332,-383.047749,-0.000000,9844.739029
1500.024649,0.000000,296.082377,10214.842000
1500.024967,-153.219100,444.123565,10362.883188
1500.025284,0.000000,592.164754,10584.944971
1500.025602,229.828649,740.205942,10881.027347
1500.025919,612.876398,740.205942,11325.150913
1500.026237,842.705048,1332.370696,10658.965565
1500.026554,1072.533697,1628.453072,10436.903782
1500.026872,1915.238745,2886.803174,9474.636058
1500.027189,2068.457845,2590.720797,9474.636058
1500.027507,2374.896044,2294.638420,9104.533087
1500.027824,1991.848295,1776.494261,9548.656652
1500.028142,1838.629195,1332.370696,10140.821405
1500.028459,1225.752797,1036.288319,10362.883188
1500.028777,842.705048,814.226536,10807.006753
1500.029094,536.266849,1184.329507,11177.109724
1500.029412,229.828649,1554.432478,11103.089130
1500.029729,0.000000,2220.617826,10881.027347
1500.030047,76.609550,2220.617826,10436.903782
1500.030364,0.000000,2294.638420,10584.944971
1500.030682,0.000000,1776.494261,10955.047942
1500.030999,76.609550,1776.494261,11029.068536
1500.031317,0.000000,1554.432478,11399.171507
1500.031634,229.828649,1406.391290,11547.212695
1500.031952,842.705048,1406.391290,11177.109724
1500.032269,919.314598,2072.576638,10584.944971
1500.032587,1455.581446,2516.700203,9918.759623
1500.032904,1685.410096,3108.864956,9030.512492
1500.033222,1762.019645,2886.803174,8364.327145
1500.033539,1762.019645,2368.659014,8586.388927
1500.033856,1532.190996,2072.576638,8290.306550
1500.034174,1225.752797,740.205942,8882.471304
1500.034491,76.609550,-370.102971,8808.450710
1500.034809,-229.828649,-666.185348,10362.883188
1500.035126,-306.438199,-1036.288319,9918.759623
1500.035444,-536.266849,-444.123565,10214.842000
1500.035761,-766.095498,-0.000000,10140.821405
1500.036079,-459.657299,148.041188,9474.636058
1500.036396,-153.219100,-148.041188,9770.718434
1500.036714,-383.047749,-74.020594,9548.656652
1500.037031,-383.047749,-518.144159,9400.615463
1500.037349,-459.657299,-740.205942,9548.656652
1500.037666,-306.438199,-1110.308913,9474.636058
1500.037984,0.000000,-740.205942,9252.574275
1500.038301,612.876398,-592.164754,8808.450710
1500.038619,536.266849,-740.205942,8216.285956
1500.038936,689.485948,-814.226536,7624.121203
1500.039254,1302.362347,-962.267725,7105.977043
1500.039571,1608.800546,-1258.350101,7105.977043
1500.039889,1762.019645,-1480.411884,7179.997637
1500.040206,1378.971896,-1924.535449,7550.100608
1500.040524,919.314598,-2072.576638,7920.203579
1500.040841,1072.533697,-2146.597232,8216.285956
1500.041159,612.876398,-1554.432478,7920.203579
1500.041476,689.485948,-1110.308913,8290.306550
1500.041794,766.095498,-370.102971,8290.306550
1500.042111,766.095498,-444.123565,8364.327145
1500.042429,842.705048,-740.205942,8660.409521
1500.042746,1072.533697,-1110.308913,9104.533087
1500.043064,1225.752797,-1110.308913,9178.553681
1500.043381,1685.410096,-1110.308913,9104.533087
1500.043699,1838.629195,-592.164754,9474.636058
1500.044016,1991.848295,-666.185348,9622.677246
1500.044334,2374.896044,296.082377,9104.533087
1500.044651,2451.505594,962.267725,8438.347739
1500.044968,2374.896044,1480.411884,8068.244768
1500.045286,2911.162892,1776.494261,7624.121203
1500.045603,2604.724693,666.185348,8068.244768
1500.045921,2528.115143,-0.000000,8364.327145
1500.046238,2145.067394,-592.164754,9474.636058
1500.046555,1378.971896,-888.247130,10066.800811
1500.046873,919.314598,-444.123565,10658.965565
1500.047190,919.314598,148.041188,10510.924376
1500.047507,459.657299,1036.288319,10288.862594
1500.047825,383.047749,1258.350101,10362.883188
1500.048142,0.000000,1036.288319,10807.006753
1500.048460,0.000000,1036.288319,10658.965565
1500.048777,-306.438199,888.247130,11029.068536
1500.049094,0.000000,888.247130,11547.212695
1500.049412,0.000000,1258.350101,11621.233289
1500.049729,459.657299,1554.432478,11177.109724
1500.050046,612.876398,2368.659014,10732.986159
1500.050364,689.485948,2368.659014,9992.780217
1500.050681,919.314598,2664.741391,9918.759623
1500.050998,1072.533697,2590.720797,9400.615463
1500.051316,1225.752797,2368.659014,9474.636058
1500.051633,1149.143247,1702.473667,9400.615463
1500.051951,612.876398,1332.370696,9474.636058
1500.052268,76.609550,1332.370696,9992.780217
1500.052585,76.609550,1110.308913,10362.883188
1500.052903,-306.438199,1554.432478,10066.800811
1500.053220,0.000000,2072.576638,9770.718434
1500.053537,-536.266849,2368.659014,9844.739029
1500.053855,-536.266849,2220.617826,10214.842000
1500.054172,-612.876398,1998.556043,10214.842000
1500.054490,-383.047749,1184.329507,10436.903782
1500.054807,229.828649,740.205942,10658.965565
1500.055124,459.657299,666.185348,10881.027347
1500.055442,995.924147,740.205942,10732.986159
1500.055759,1378.971896,1110.308913,9918.759623
1500.056076,1762.019645,2146.597232,9400.615463
1500.056394,2145.067394,2516.700203,8364.327145
1500.056711,2604.724693,2812.782580,7698.141797
1500.057028,2757.943793,2368.659014,7624.121203
1500.057346,2681.334243,1406.391290,7846.182985
1500.057663,2681.334243,148.041188,8734.430116
1500.057981,1991.848295,-296.082377,9474.636058
1500.058298,1455.581446,-518.144159,9400.615463
1500.058615,1225.752797,-518.144159,9622.677246
1500.058933,1225.752797,-74.020594,9474.636058
1500.059250,1302.362347,-0.000000,9178.553681
1500.059567,1072.533697,370.102971,8882.471304
1500.059885,919.314598,444.123565,9400.615463
1500.060202,995.924147,-74.020594,9252.574275
1500.060520,1072.533697,-296.082377,9400.615463
1500.060837,1532.190996,-518.144159,9844.739029
1500.061154,1991.848295,-222.061783,9548.656652
1500.061472,1608.800546,370.102971,9326.594869
1500.061789,1991.848295,814.226536,8808.450710
1500.062106,2068.457845,962.267725,7994.224174
1500.062424,1991.848295,1110.308913,7698.141797
1500.062741,1915.238745,592.164754,7550.100608
1500.063059,1685.410096,-0.000000,7920.203579
1500.063376,1378.971896,-888.247130,8438.347739
1500.063693,612.876398,-1110.308913,8438.347739
1500.064011,0.000000,-1036.288319,8956.491898
1500.064328,-153.219100,-814.226536,8956.491898
1500.064645,-612.876398,-518.144159,9104.533087
1500.064963,-536.266849,-0.000000,8956.491898
1500.065280,-612.876398,-0.000000,8586.388927
1500.065597,-612.876398,888.247130,8512.368333
1500.065915,-536.266849,74.020594,8808.450710
1500.066232,-689.485948,-518.144159,9400.615463
1500.066550,-842.705048,-1110.308913,9622.677246
1500.066867,-919.314598,-962.267725,9992.780217
1500.067184,-459.657299,-518.144159,10066.800811
1500.067502,383.047749,-0.000000,9474.636058
1500.067819,459.657299,592.164754,9178.553681
1500.068136,689.485948,148.041188,8734.430116
1500.068454,459.657299,666.185348,8290.306550
1500.068771,842.705048,296.082377,8512.368333
1500.069089,842.705048,-0.000000,8586.388927
1500.069406,689.485948,-296.082377,8956.491898
1500.069723,612.876398,-1110.308913,9918.759623
1500.070041,306.438199,-1258.350101,10140.821405
1500.070358,153.219100,-814.226536,10510.924376
1500.070675,536.266849,-518.144159,10288.862594
1500.070993,536.266849,-0.000000,9918.759623
1500.071310,1225.752797,740.205942,9844.739029
1500.071628,1455.581446,740.205942,9622.677246
1500.071945,1378.971896,518.144159,9696.697840
1500.072262,1302.362347,-0.000000,10214.842000
1500.072580,1532.190996,444.123565,10214.842000
1500.072897,1838.629195,518.144159,10807.006753
1500.073214,1838.629195,814.226536,10732.986159
1500.073532,1991.848295,814.226536,10436.903782
1500.073849,1991.848295,814.226536,10214.842000
1500.074166,2221.676944,962.267725,9696.697840
1500.074484,2374.896044,962.267725,9178.553681
1500.074801,2068.457845,1036.288319,9030.512492
1500.075119,1762.019645,444.123565,9400.615463
1500.075436,1532.190996,-74.020594,9770.718434
1500.075753,766.095498,-370.102971,10436.903782
1500.076071,842.705048,-74.020594,10584.944971
1500.076388,383.047749,370.102971,10214.842000
1500.076705,229.828649,1110.308913,10066.800811
1500.077023,459.657299,1406.391290,9844.739029
1500.077340,0.000000,1036.288319,9992.780217
1500.077658,-153.219100,740.205942,9474.636058
1500.077975,-383.047749,222.061783,9844.739029
1500.078292,0.000000,-0.000000,9992.780217
1500.078610,0.000000,-296.082377,10288.862594
1500.078927,-153.219100,-148.041188,10066.800811
1500.079244,-153.219100,-0.000000,10066.800811
1500.079562,229.828649,518.144159,9474.636058
1500.079879,689.485948,1036.288319,9030.512492
1500.080197,536.266849,1332.370696,8808.450710
1500.080514,1455.581446,814.226536,8660.409521
1500.080831,1302.362347,592.164754,7846.182985
1500.081149,995.924147,-296.082377,8290.306550
1500.081466,766.095498,-962.267725,8734.430116
1500.081783,842.705048,-740.205942,9326.594869
1500.082101,612.876398,-1110.308913,9548.656652
1500.082418,383.047749,-444.123565,9474.636058
1500.082735,689.485948,296.082377,9326.594869
1500.083053,612.876398,666.185348,8586.388927
1500.083370,919.314598,962.267725,8216.285956
1500.083688,1225.752797,962.267725,8290.306550
1500.084005,1378.971896,-0.000000,8734.430116
1500.084322,1532.190996,-370.102971,8660.409521
1500.084640,1302.362347,-222.061783,9104.533087
1500.084957,1455.581446,-296.082377,9474.636058
1500.085274,1608.800546,148.041188,9252.574275
1500.085592,1685.410096,-0.000000,8660.409521
1500.085909,1608.800546,444.123565,8586.388927
1500.086227,2068.457845,296.082377,8142.265362
1500.086544,1685.410096,296.082377,7772.162391
1500.086861,1225.752797,-444.123565,8512.368333
1500.087179,1149.143247,-888.247130,8956.491898
1500.087496,459.657299,-962.267725,9104.533087
1500.087813,0.000000,-1184.329507,9548.656652
1500.088131,-229.828649,-888.247130,9918.759623
1500.088448,0.000000,-518.144159,10214.842000
1500.088766,-383.047749,-0.000000,9844.739029
1500.089083,-383.047749,-0.000000,9474.636058
1500.089400,-612.876398,518.144159,9696.697840
1500.089718,-229.828649,-222.061783,9696.697840
1500.090035,-76.609550,-222.061783,9696.697840
1500.090352,0.000000,-444.123565,10140.821405
1500.090670,229.828649,-148.041188,10362.883188
1500.090987,306.438199,-0.000000,9992.780217
1500.091304,612.876398,-0.000000,10214.842000
1500.091622,689.485948,740.205942,9548.656652
1500.091939,536.266849,666.185348,9178.553681
1500.092257,536.266849,814.226536,8660.409521
1500.092574,536.266849,148.041188,8956.491898
1500.092891,612.876398,-222.061783,9178.553681
1500.093209,153.219100,-666.185348,9696.697840
1500.093526,0.000000,-1110.308913,10214.842000
1500.093843,-459.657299,-888.247130,10584.944971
1500.094161,-459.657299,-814.226536,10881.027347
1500.094478,-536.266849,-148.041188,10658.965565
1500.094796,-306.438199,-0.000000,10362.883188
1500.095113,-306.438199,222.061783,9770.718434
1500.095430,0.000000,-222.061783,10362.883188
1500.095748,689.485948,-0.000000,9918.759623
1500.096065,1072.533697,-444.123565,9992.780217
1500.096382,1072.533697,-444.123565,10140.821405
1500.096700,536.266849,-148.041188,9992.780217
1500.097017,1455.581446,-222.061783,10140.821405
1500.097334,1378.971896,-0.000000,9548.656652
1500.097652,1762.019645,-0.000000,9178.553681
1500.097969,1915.238745,592.164754,8438.347739
1500.098287,2451.505594,296.082377,8364.327145
1500.098604,2374.896044,-148.041188,8586.388927
1500.098921,2068.457845,-888.247130,8512.368333
1500.099239,1838.629195,-962.267725,8956.491898
1500.099556,1072.533697,-888.247130,9326.594869
1500.099873,1838.629195,-1184.329507,9474.636058
1500.100191,842.705048,-444.123565,9178.553681
1500.100508,766.095498,-0.000000,9548.656652
1500.100826,612.876398,296.082377,9104.533087
1500.101143,612.876398,-0.000000,9400.615463
1500.101460,0.000000,-74.020594,9474.636058
1500.101778,536.266849,-444.123565,9548.656652
1500.102095,306.438199,-222.061783,9252.574275
1500.102412,536.266849,-370.102971,9474.636058
1500.102730,689.485948,-0.000000,9474.636058
1500.103047,995.924147,-0.000000,8882.471304
1500.103365,766.095498,666.185348,9326.594869
1500.103682,995.924147,1332.370696,8364.327145
1500.103999,1149.143247,1332.370696,7846.182985
1500.104317,995.924147,888.247130,7698.141797
1500.104634,766.095498,148.041188,8142.265362
1500.104951,612.876398,-222.061783,8438.347739
1500.105269,383.047749,-592.164754,9030.512492
1500.105586,76.609550,-444.123565,9104.533087
1500.105903,76.609550,148.041188,9178.553681
1500.106221,-153.219100,740.205942,9252.574275
1500.106538,-383.047749,296.082377,9104.533087
1500.106856,-306.438199,888.247130,9326.594869
1500.107173,-612.876398,370.102971,9326.594869
1500.107490,-459.657299,518.144159,9622.677246
1500.107808,-229.828649,666.185348,9992.780217
1500.108125,0.000000,296.082377,9844.739029
1500.108442,0.000000,148.041188,9844.739029
1500.108760,0.000000,370.102971,9696.697840
1500.109077,383.047749,814.226536,9770.718434
1500.109395,1072.533697,1184.329507,9548.656652
1500.109712,842.705048,1406.391290,8956.491898
1500.110029,842.705048,1332.370696,8734.430116
1500.110347,919.314598,296.082377,9178.553681
1500.110664,919.314598,296.082377,9326.594869
1500.110981,1072.533697,-296.082377,9770.718434
1500.111299,459.657299,-222.061783,9696.697840
1500.111616,383.047749,-0.000000,9918.759623
1500.111934,306.438199,814.226536,9918.759623
1500.112251,459.657299,666.185348,9844.739029
1500.112568,459.657299,518.144159,9992.780217
1500.112886,459.657299,592.164754,9918.759623
1500.113203,229.828649,148.041188,10214.842000
1500.113520,536.266849,-148.041188,10584.944971
1500.113838,689.485948,-222.061783,10807.006753
1500.114155,919.314598,-0.000000,10955.047942
1500.114472,919.314598,222.061783,10658.965565
1500.114790,1455.581446,962.267725,10362.883188
1500.115107,1915.238745,1258.350101,9696.697840
1500.115425,2451.505594,1258.350101,9252.574275
1500.115742,1762.019645,1332.370696,9104.533087
1500.116059,2145.067394,962.267725,8586.388927
1500.116377,2145.067394,-0.000000,9104.533087
1500.116694,1532.190996,-74.020594,9474.636058
1500.117011,1072.533697,-296.082377,9992.780217
1500.117329,1149.143247,-222.061783,9770.718434
1500.117646,1225.752797,-0.000000,9622.677246
1500.117964,1072.533697,370.102971,9992.780217
1500.118281,766.095498,444.123565,9548.656652
1500.118598,536.266849,296.082377,9770.718434
1500.118916,459.657299,-0.000000,9622.677246
1500.119233,766.095498,-0.000000,9622.677246
1500.119550,459.657299,-74.020594,9844.739029
1500.119868,612.876398,-0.000000,9918.759623
1500.120185,995.924147,-148.041188,9844.739029
1500.120503,919.314598,-0.000000,9622.677246
1500.120820,459.657299,444.123565,9326.594869
1500.121137,995.924147,740.205942,8734.430116
1500.121455,1532.190996,740.205942,8438.347739
1500.121772,1302.362347,222.061783,8216.285956
1500.122089,766.095498,-0.000000,8216.285956
1500.122407,766.095498,-296.082377,8438.347739
1500.122724,459.657299,-888.247130,8808.450710
1500.123041,0.000000,-740.205942,8882.471304
1500.123359,-306.438199,-518.144159,8660.409521
1500.123676,-383.047749,-0.000000,8438.347739
1500.123994,-306.438199,-0.000000,8734.430116
1500.124311,-383.047749,148.041188,8734.430116
1500.124628,-229.828649,222.061783,8882.471304
1500.124946,-153.219100,148.041188,8882.471304
1500.125263,0.000000,-222.061783,9104.533087
1500.125580,229.828649,-0.000000,9326.594869
1500.125898,459.657299,-0.000000,9474.636058
1500.126215,1378.971896,370.102971,9178.553681
1500.126533,1072.533697,888.247130,9030.512492
1500.126850,1608.800546,1036.288319,8734.430116
1500.127167,1915.238745,1702.473667,8142.265362
1500.127485,1991.848295,1628.453072,7846.182985
1500.127802,1608.800546,1036.288319,7920.203579
1500.128119,1685.410096,370.102971,8216.285956
1500.128437,1762.019645,-222.061783,9252.574275
1500.128754,1455.581446,-74.020594,9178.553681
1500.129072,1455.581446,-0.000000,9696.697840
1500.129389,1302.362347,222.061783,9770.718434
1500.129706,1072.533697,444.123565,9770.718434
1500.130024,1149.143247,740.205942,9844.739029
1500.130341,1302.362347,962.267725,9918.759623
1500.130658,1455.581446,962.267725,9918.759623
1500.130976,1455.581446,1036.288319,10140.821405
1500.131293,1532.190996,666.185348,10288.862594
1500.131610,1685.410096,740.205942,10807.006753
1500.131928,1685.410096,592.164754,10658.965565
1500.132245,2451.505594,1184.329507,10436.903782
1500.132563,1685.410096,1702.473667,10066.800811
1500.132880,2221.676944,2072.576638,9622.677246
1500.133197,2068.457845,1998.556043,9252.574275
1500.133515,1762.019645,1628.453072,9252.574275
1500.133832,1378.971896,1036.288319,9252.574275
1500.134149,1149.143247,444.123565,9326.594869
1500.134467,0.000000,-0.000000,9992.780217
1500.134784,0.000000,148.041188,10436.903782
1500.135102,-383.047749,370.102971,10584.944971
1500.135419,-842.705048,740.205942,10732.986159
1500.135736,-612.876398,814.226536,10362.883188
1500.136054,-766.095498,1036.288319,9918.759623
1500.136371,-766.095498,1036.288319,9918.759623
1500.136688,-1225.752797,592.164754,10288.862594
1500.137006,-689.485948,518.144159,10288.862594
1500.137323,-229.828649,444.123565,10436.903782
1500.137641,-306.438199,444.123565,10066.800811
1500.137958,383.047749,518.144159,10214.842000
1500.138275,383.047749,1036.288319,9918.759623
1500.138593,689.485948,1480.411884,9474.636058
1500.138910,1149.143247,1332.370696,8586.388927
1500.139227,1455.581446,1702.473667,8142.265362
1500.139545,1455.581446,1184.329507,8216.285956
1500.139862,1455.581446,444.123565,8142.265362
1500.140179,1455.581446,-296.082377,8734.430116
1500.140497,1378.971896,-740.205942,9178.553681
1500.140814,995.924147,-518.144159,9770.718434
1500.141132,1378.971896,-666.185348,9918.759623
1500.141449,1072.533697,-148.041188,9696.697840
1500.141766,1149.143247,-0.000000,9474.636058
1500.142084,1149.143247,222.061783,9252.574275
1500.142401,1225.752797,370.102971,9178.553681
1500.142718,1378.971896,148.041188,9400.615463
1500.143036,1532.190996,-222.061783,9400.615463
1500.143353,1685.410096,-222.061783,9548.656652
1500.143671,1838.629195,-370.102971,9696.697840
1500.143988,1608.800546,-0.000000,9474.636058
1500.144305,2145.067394,148.041188,9400.615463
1500.144623,1991.848295,814.226536,8586.388927
1500.144940,2068.457845,962.267725,8290.306550
1500.145257,2068.457845,666.185348,8068.244768
1500.145575,2221.676944,592.164754,8142.265362
1500.145892,1762.019645,-222.061783,8512.368333
1500.146210,1149.143247,-888.247130,8734.430116
1500.146527,612.876398,-814.226536,9252.574275
1500.146844,153.219100,-740.205942,9252.574275
1500.147162,0.000000,-74.020594,9474.636058
1500.147479,-306.438199,-0.000000,9400.615463
1500.147796,-919.314598,296.082377,9030.512492
1500.148114,-612.876398,222.061783,8882.471304
1500.148431,-995.924147,-0.000000,8882.471304
1500.148749,-766.095498,-148.041188,9178.553681
1500.149066,-459.657299,-444.123565,9548.656652
1500.149383,-459.657299,-370.102971,9770.718434
1500.149701,-612.876398,-0.000000,10066.800811
1500.150018,0.000000,-0.000000,9992.780217
1500.150336,383.047749,518.144159,9548.656652
1500.150653,1072.533697,1110.308913,9104.533087
1500.150970,766.095498,1110.308913,8586.388927
1500.151288,1149.143247,1258.350101,8142.265362
1500.151605,1225.752797,740.205942,8216.285956
1500.151922,1532.190996,-148.041188,8956.491898
1500.152240,1072.533697,-592.164754,9252.574275
1500.152557,919.314598,-814.226536,9992.780217
1500.152875,919.314598,-518.144159,10214.842000
1500.153192,1225.752797,-74.020594,10066.800811
1500.153509,689.485948,370.102971,10140.821405
1500.153827,1149.143247,518.144159,9844.739029
1500.154144,1225.752797,518.144159,9696.697840
1500.154462,1455.581446,518.144159,9400.615463
1500.154779,1225.752797,370.102971,9992.780217
1500.155096,1225.752797,-0.000000,10510.924376
1500.155414,1225.752797,148.041188,10658.965565
1500.155731,1608.800546,296.082377,10658.965565
1500.156048,1532.190996,444.123565,10584.944971
1500.156366,1685.410096,814.226536,10140.821405
1500.156683,1915.238745,1110.308913,9696.697840
1500.157001,2298.286494,1554.432478,9030.512492
1500.157318,2221.676944,888.247130,9104.533087
1500.157635,2221.676944,740.205942,9178.553681
1500.157953,1838.629195,222.061783,9400.615463
1500.158270,1378.971896,-222.061783,9548.656652
1500.158588,842.705048,-148.041188,9622.677246
1500.158905,383.047749,296.082377,9696.697840
1500.159222,153.219100,888.247130,9696.697840
1500.159540,0.000000,592.164754,9474.636058
1500.159857,-459.657299,518.144159,9474.636058
1500.160174,-459.657299,-0.000000,9622.677246
1500.160492,-612.876398,-222.061783,9770.718434
1500.160809,-459.657299,-296.082377,9622.677246
1500.161127,-536.266849,-370.102971,10214.842000
1500.161444,-383.047749,-296.082377,10436.903782
1500.161761,-306.438199,-0.000000,10362.883188
1500.162079,76.609550,666.185348,9992.780217
1500.162396,306.438199,1110.308913,9104.533087
1500.162714,612.876398,1480.411884,8512.368333
1500.163031,1149.143247,1332.370696,8068.244768
1500.163348,1149.143247,740.205942,7624.121203
1500.163666,1378.971896,-0.000000,7994.224174
1500.163983,919.314598,-814.226536,8438.347739
1500.164300,919.314598,-1110.308913,8956.491898
1500.164618,459.657299,-888.247130,9400.615463
1500.164935,153.219100,-592.164754,9474.636058
1500.165253,0.000000,-296.082377,9548.656652
1500.165570,-383.047749,-444.123565,9326.594869
1500.165887,0.000000,-370.102971,9030.512492
1500.166205,0.000000,-296.082377,9178.553681
1500.166522,0.000000,-370.102971,9548.656652
1500.166840,459.657299,-666.185348,9696.697840
1500.167157,306.438199,-518.144159,9622.677246
1500.167474,612.876398,-444.123565,9622.677246
1500.167792,1072.533697,-0.000000,9696.697840
1500.168109,1455.581446,370.102971,9178.553681
1500.168426,1915.238745,444.123565,8586.388927
1500.168744,2068.457845,444.123565,8142.265362
1500.169061,2221.676944,370.102971,7994.224174
1500.169379,1991.848295,-296.082377,8068.244768
1500.169696,1762.019645,-518.144159,8586.388927
1500.170013,1685.410096,-888.247130,8660.409521
1500.170331,919.314598,-666.185348,9474.636058
1500.170648,689.485948,-370.102971,9326.594869
1500.170966,229.828649,-0.000000,9400.615463
1500.171283,0.000000,-0.000000,9474.636058
1500.171600,0.000000,-370.102971,9770.718434
1500.171918,-612.876398,-444.123565,9770.718434
1500.172235,-229.828649,-666.185348,10214.842000
1500.172552,-229.828649,-740.205942,10732.986159
1500.172870,0.000000,-666.185348,10658.965565
1500.173187,-306.438199,-444.123565,11029.068536
1500.173505,383.047749,-0.000000,10362.883188
1500.173822,689.485948,740.205942,9918.759623
1500.174139,1072.533697,1258.350101,9474.636058
1500.174457,1455.581446,1628.453072,8660.409521
1500.174774,1378.971896,1258.350101,8512.368333
1500.175092,1378.971896,740.205942,8438.347739
1500.175409,1225.752797,-0.000000,9030.512492
1500.175726,1149.143247,-666.185348,9326.594869
1500.176044,766.095498,-1110.308913,10066.800811
1500.176361,153.219100,-888.247130,10288.862594
1500.176678,76.609550,-296.082377,10140.821405
1500.176996,0.000000,-0.000000,10140.821405
1500.177313,0.000000,444.123565,9918.759623
1500.177631,-153.219100,592.164754,9844.739029
1500.177948,0.000000,518.144159,9622.677246
1500.178265,459.657299,444.123565,9844.739029
1500.178583,383.047749,296.082377,10066.800811
1500.178900,306.438199,444.123565,10066.800811
1500.179218,689.485948,888.247130,10288.862594
1500.179535,919.314598,962.267725,9770.718434
1500.179852,1072.533697,1258.350101,9400.615463
1500.180170,1455.581446,1480.411884,8734.430116
1500.180487,1685.410096,1406.391290,8438.347739
1500.180804,1455.581446,814.226536,8438.347739
1500.181122,1532.190996,-0.000000,8364.327145
1500.181439,1149.143247,-0.000000,8734.430116
1500.181757,1072.533697,-296.082377,9104.533087
1500.182074,689.485948,-222.061783,9400.615463
1500.182391,229.828649,-148.041188,9474.636058
1500.182709,0.000000,296.082377,9474.636058
1500.183026,0.000000,370.102971,9178.553681
1500.183343,0.000000,444.123565,9252.574275
1500.183661,-612.876398,74.020594,9474.636058
1500.183978,0.000000,-74.020594,9548.656652
1500.184296,-153.219100,-222.061783,10066.800811
1500.184613,0.000000,-222.061783,10214.842000
1500.184930,229.828649,-148.041188,10362.883188
1500.185248,229.828649,-148.041188,10066.800811
1500.185565,919.314598,666.185348,9548.656652
1500.185883,1225.752797,1258.350101,9326.594869
1500.186200,1455.581446,962.267725,8660.409521
1500.186517,1608.800546,962.267725,8364.327145
1500.186835,1378.971896,296.082377,8586.388927
1500.187152,1608.800546,-370.102971,8660.409521
1500.187469,1302.362347,-814.226536,8808.450710
1500.187787,1302.362347,-962.267725,9326.594869
1500.188104,459.657299,-518.144159,9696.697840
1500.188422,919.314598,-666.185348,9474.636058
1500.188739,842.705048,-0.000000,9474.636058
1500.189056,842.705048,-0.000000,9030.512492
1500.189374,766.095498,296.082377,9252.574275
1500.189691,842.705048,148.041188,9178.553681
1500.190009,689.485948,-0.000000,9474.636058
1500.190326,766.095498,-222.061783,9770.718434
1500.190643,919.314598,-0.000000,9992.780217
1500.190961,842.705048,148.041188,10214.842000
1500.191278,1072.533697,518.144159,9992.780217
1500.191595,1455.581446,814.226536,9474.636058
1500.191913,1225.752797,814.226536,9030.512492
1500.192230,1302.362347,1110.308913,8734.430116
1500.192548,1378.971896,888.247130,8586.388927
1500.192865,1532.190996,-0.000000,8734.430116
1500.193182,842.705048,-518.144159,8660.409521
1500.193500,689.485948,-814.226536,9178.553681
1500.193817,459.657299,-814.226536,9474.636058
1500.194135,153.219100,-370.102971,9696.697840
1500.194452,153.219100,-74.020594,9622.677246
1500.194769,0.000000,296.082377,9400.615463
1500.195087,76.609550,370.102971,9326.594869
1500.195404,0.000000,-0.000000,9326.594869
1500.195721,0.000000,148.041188,9474.636058
1500.196039,229.828649,-296.082377,9696.697840
1500.196356,612.876398,-74.020594,9992.780217
1500.196674,612.876398,-222.061783,10214.842000
1500.196991,995.924147,-74.020594,10288.862594
1500.197308,1225.752797,222.061783,9992.780217
1500.197626,919.314598,888.247130,9770.718434
1500.197943,1991.848295,1554.432478,8882.471304
1500.198261,1532.190996,1406.391290,8660.409521
1500.198578,1762.019645,1184.329507,8512.368333
1500.198895,1608.800546,518.144159,8660.409521
1500.199213,1455.581446,-148.041188,9104.533087
1500.199530,1149.143247,-370.102971,9548.656652
1500.199847,842.705048,-370.102971,10140.821405
1500.200165,459.657299,-74.020594,10214.842000
1500.200482,76.609550,518.144159,10214.842000
1500.200800,459.657299,592.164754,9992.780217
1500.201117,536.266849,1110.308913,9474.636058
1500.201434,306.438199,1332.370696,9326.594869
1500.201752,612.876398,1110.308913,9474.636058
1500.202069,536.266849,296.082377,9474.636058
1500.202387,612.876398,518.144159,9992.780217
1500.202704,459.657299,518.144159,10362.883188
1500.203021,459.657299,814.226536,10214.842000
1500.203339,1072.533697,1184.329507,9696.697840
1500.203656,995.924147,1628.453072,9474.636058
1500.203973,1302.362347,1480.411884,8586.388927
1500.204291,995.924147,1258.350101,8290.306550
1500.204608,1149.143247,814.226536,8216.285956
1500.204926,1302.362347,-0.000000,8364.327145
1500.205243,306.438199,-296.082377,9178.553681
1500.205560,0.000000,-296.082377,9548.656652
1500.205878,-229.828649,-148.041188,9622.677246
1500.206195,-306.438199,-0.000000,9844.739029
1500.206513,-459.657299,518.144159,9622.677246
1500.206830,-612.876398,740.205942,9326.594869
1500.207147,-536.266849,1110.308913,9252.574275
1500.207465,-383.047749,592.164754,9104.533087
1500.207782,-306.438199,444.123565,9474.636058
1500.208099,76.609550,-0.000000,9770.718434
1500.208417,153.219100,222.061783,10066.800811
1500.208734,689.485948,444.123565,10214.842000
1500.209052,919.314598,962.267725,9844.739029
1500.209369,1225.752797,1554.432478,9474.636058
1500.209686,1762.019645,2146.597232,8586.388927
1500.210004,2145.067394,2146.597232,7920.203579
1500.210321,2451.505594,1702.473667,7624.121203
1500.210639,2451.505594,962.267725,7994.224174
1500.210956,2374.896044,-222.061783,8438.347739
1500.211273,1915.238745,-740.205942,9252.574275
1500.211591,1838.629195,-888.247130,9770.718434
1500.211908,1378.971896,-370.102971,9992.780217
1500.212225,1378.971896,-0.000000,9992.780217
1500.212543,1072.533697,296.082377,9770.718434
1500.212860,1225.752797,888.247130,9474.636058
1500.213178,1225.752797,814.226536,9030.512492
1500.213495,1455.581446,666.185348,9252.574275
1500.213812,766.095498,-148.041188,9474.636058
1500.214130,1915.238745,-222.061783,9918.759623
1500.214447,1378.971896,-296.082377,10140.821405
1500.214765,1225.752797,74.020594,10436.903782
1500.215082,1455.581446,370.102971,10362.883188
1500.215399,1532.190996,370.102971,9622.677246
1500.215717,1762.019645,1258.350101,8808.450710
1500.216034,1915.238745,1036.288319,8438.347739
1500.216351,1685.410096,814.226536,8438.347739
1500.216669,1378.971896,222.061783,8586.388927
1500.216986,1149.143247,-592.164754,9104.533087
1500.217304,153.219100,-740.205942,9696.697840
1500.217621,0.000000,-740.205942,10066.800811
1500.217938,-306.438199,-222.061783,10066.800811
1500.218256,-919.314598,-0.000000,10066.800811
1500.218573,-919.314598,222.061783,9992.780217
1500.218891,-766.095498,370.102971,9474.636058
1500.219208,-919.314598,518.144159,9474.636058
1500.219525,-689.485948,-0.000000,9844.739029
1500.219843,-766.095498,-296.082377,9548.656652
1500.220160,-383.047749,-222.061783,10510.924376
1500.220477,-229.828649,-0.000000,10584.944971
1500.220795,383.047749,518.144159,10214.842000
1500.221112,842.705048,962.267725,9474.636058
1500.221430,1378.971896,1406.391290,8660.409521
1500.221747,1685.410096,1702.473667,8068.244768
1500.222064,1838.629195,1184.329507,7254.018232
1500.222382,1915.238745,518.144159,7698.141797
1500.222699,1378.971896,-444.123565,8364.327145
1500.223017,1302.362347,-1036.288319,9104.533087
1500.223334,766.095498,-1406.391290,9844.739029
1500.223651,383.047749,-1258.350101,10140.821405
1500.223969,383.047749,-666.185348,10214.842000
1500.224286,459.657299,-0.000000,9844.739029
1500.224603,383.047749,518.144159,9622.677246
1500.224921,842.705048,370.102971,9252.574275
1500.225238,1072.533697,518.144159,9030.512492
1500.225556,1302.362347,222.061783,9326.594869
1500.225873,1378.971896,-74.020594,9622.677246
1500.226190,1302.362347,-74.020594,9844.739029
1500.226508,1608.800546,-0.000000,10140.821405
1500.226825,1685.410096,370.102971,10066.800811
1500.227143,1991.848295,666.185348,9400.615463
1500.227460,2221.676944,814.226536,8808.450710
1500.227777,2221.676944,740.205942,7920.203579
1500.228095,2145.067394,444.123565,7920.203579
1500.228412,1915.238745,-0.000000,8364.327145
1500.228729,1455.581446,-518.144159,8956.491898
1500.229047,995.924147,-962.267725,9548.656652
1500.229364,306.438199,-1036.288319,10288.862594
1500.229682,0.000000,-370.102971,10066.800811
1500.229999,-459.657299,-0.000000,9918.759623
1500.230316,-689.485948,222.061783,9844.739029
1500.230634,-612.876398,370.102971,9548.656652
1500.230951,-766.095498,370.102971,9548.656652
1500.231269,-612.876398,222.061783,9696.697840
1500.231586,-306.438199,-148.041188,9918.759623
1500.231903,153.219100,-74.020594,10066.800811
1500.232221,0.000000,-0.000000,10436.903782
1500.232538,229.828649,592.164754,9622.677246
1500.232855,612.876398,1480.411884,9030.512492
1500.233173,995.924147,1776.494261,8808.450710
1500.233490,995.924147,1702.473667,8290.306550
1500.233808,1532.190996,1554.432478,8068.244768
1500.234125,1149.143247,444.123565,8290.306550
1500.234442,766.095498,-444.123565,8734.430116
1500.234760,766.095498,-888.247130,9474.636058
1500.235077,383.047749,-1110.308913,9548.656652
1500.235395,229.828649,-962.267725,10140.821405
1500.235712,229.828649,-148.041188,9992.780217
1500.236029,229.828649,814.226536,9770.718434
1500.236347,383.047749,1036.288319,9326.594869
1500.236664,536.266849,1258.350101,9326.594869
1500.236981,689.485948,888.247130,9474.636058
1500.237299,919.314598,518.144159,9474.636058
1500.237616,1149.143247,-0.000000,9992.780217
1500.237934,1378.971896,-0.000000,10214.842000
1500.238251,1532.190996,148.041188,10140.821405
1500.238568,1685.410096,666.185348,9548.656652
1500.238886,1762.019645,1332.370696,9326.594869
1500.239203,1991.848295,1332.370696,9030.512492
1500.239521,2068.457845,1258.350101,8290.306550
1500.239838,1991.848295,518.144159,8216.285956
1500.240155,1762.019645,-0.000000,8660.409521
1500.240473,1762.019645,-296.082377,9326.594869
1500.240790,1072.533697,-592.164754,9622.677246
1500.241107,919.314598,-740.205942,9918.759623
1500.241425,459.657299,-74.020594,9918.759623
1500.241742,153.219100,222.061783,9918.759623
1500.242060,153.219100,592.164754,9622.677246
1500.242377,-536.266849,296.082377,9770.718434
1500.242694,459.657299,-0.000000,9992.780217
1500.243012,0.000000,-0.000000,10066.800811
1500.243329,76.609550,-444.123565,10214.842000
1500.243647,0.000000,-592.164754,10510.924376
1500.243964,153.219100,-296.082377,10362.883188
1500.244281,612.876398,-0.000000,10140.821405
1500.244599,689.485948,444.123565,9548.656652
1500.244916,919.314598,814.226536,9104.533087
1500.245233,842.705048,888.247130,8586.388927
1500.245551,919.314598,370.102971,8586.388927
1500.245868,689.485948,-296.082377,8660.409521
1500.246186,306.438199,-888.247130,8882.471304
1500.246503,76.609550,-1258.350101,9918.759623
1500.246820,-153.219100,-1332.370696,9918.759623
1500.247138,-153.219100,-1036.288319,9992.780217
1500.247455,0.000000,-370.102971,9696.697840
1500.247773,0.000000,-74.020594,9400.615463
1500.248090,153.219100,148.041188,9400.615463
1500.248407,76.609550,-0.000000,9030.512492
1500.248725,306.438199,-148.041188,9178.553681
1500.249042,536.266849,-518.144159,9474.636058
1500.249360,766.095498,-518.144159,9770.718434
1500.249677,842.705048,-740.205942,9992.780217
1500.249994,689.485948,-370.102971,9770.718434
1500.250312,1532.190996,-74.020594,9474.636058
1500.250629,1532.190996,814.226536,8586.388927
1500.250947,1915.238745,962.267725,7994.224174
1500.251264,1991.848295,962.267725,7550.100608
1500.251581,1991.848295,370.102971,7846.182985
1500.251899,1991.848295,-740.205942,7994.224174
1500.252216,1302.362347,-1110.308913,8734.430116
1500.252533,1149.143247,-1036.288319,9178.553681
1500.252851,689.485948,-814.226536,9696.697840
1500.253168,536.266849,-444.123565,9474.636058
1500.253486,-153.219100,-222.061783,9474.636058
1500.253803,229.828649,518.144159,9400.615463
1500.254120,383.047749,518.144159,9400.615463
1500.254438,383.047749,222.061783,9178.553681
1500.254755,612.876398,-0.000000,9326.594869
1500.255073,459.657299,-518.144159,9474.636058
1500.255390,383.047749,-296.082377,10066.800811
1500.255707,842.705048,-148.041188,9696.697840
1500.256025,919.314598,222.061783,9992.780217
1500.256342,919.314598,962.267725,9548.656652
1500.256660,1532.190996,1184.329507,8956.491898
1500.256977,1225.752797,1332.370696,8660.409521
1500.257294,1072.533697,888.247130,8586.388927
1500.257612,995.924147,370.102971,8808.450710
1500.257929,1302.362347,-222.061783,9178.553681
1500.258247,689.485948,-444.123565,9474.636058
1500.258564,0.000000,-592.164754,9918.759623
1500.258881,0.000000,-148.041188,10214.842000
1500.259199,-153.219100,-0.000000,10362.883188
1500.259516,-383.047749,444.123565,10510.924376
1500.259834,0.000000,962.267725,9844.739029
1500.260151,-229.828649,962.267725,9548.656652
1500.260468,0.000000,814.226536,9622.677246
1500.260786,0.000000,518.144159,9992.780217
1500.261103,0.000000,370.102971,10288.862594
1500.261421,-229.828649,-0.000000,10510.924376
1500.261738,306.438199,222.061783,10436.903782
1500.262055,76.609550,518.144159,10510.924376
1500.262373,383.047749,962.267725,9918.759623
1500.262690,842.705048,814.226536,9104.533087
1500.263008,766.095498,1184.329507,8660.409521
1500.263325,842.705048,1110.308913,8586.388927
1500.263642,1072.533697,444.123565,8660.409521
1500.263960,919.314598,-0.000000,9104.533087
1500.264277,536.266849,-518.144159,9474.636058
1500.264595,76.609550,-740.205942,9992.780217
1500.264912,0.000000,-222.061783,10066.800811
1500.265229,0.000000,222.061783,9918.759623
1500.265547,153.219100,518.144159,9474.636058
1500.265864,76.609550,740.205942,9474.636058
1500.266182,306.438199,518.144159,9400.615463
1500.266499,536.266849,296.082377,9474.636058
1500.266816,919.314598,-0.000000,9400.615463
1500.267134,1302.362347,-1036.288319,9548.656652
1500.267451,1149.143247,-666.185348,10140.821405
1500.267769,1685.410096,-74.020594,10362.883188
1500.268086,1608.800546,148.041188,9770.718434
1500.268403,2221.676944,1110.308913,9400.615463
1500.268721,2987.772442,2146.597232,8734.430116
1500.269038,2911.162892,1480.411884,7772.162391
1500.269356,3217.601092,1110.308913,7846.182985
1500.269673,2911.162892,74.020594,8142.265362
1500.269990,2374.896044,-518.144159,8808.450710
1500.270308,2221.676944,-962.267725,9252.574275
1500.270625,1532.190996,-592.164754,9770.718434
1500.270943,1225.752797,-370.102971,9548.656652
1500.271260,919.314598,148.041188,9548.656652
1500.271577,842.705048,518.144159,9474.636058
1500.271895,766.095498,814.226536,9252.574275
1500.272212,536.266849,888.247130,9104.533087
1500.272529,689.485948,518.144159,9326.594869
1500.272847,612.876398,148.041188,9770.718434
1500.273164,536.266849,-148.041188,10066.800811
1500.273482,0.000000,-0.000000,10362.883188
1500.273799,459.657299,518.144159,9770.718434
1500.274116,306.438199,740.205942,9548.656652
1500.274434,689.485948,1110.308913,8882.471304
1500.274751,689.485948,1554.432478,8586.388927
1500.275069,612.876398,962.267725,8290.306550
1500.275386,459.657299,148.041188,8142.265362
1500.275703,229.828649,-148.041188,8586.388927
1500.276021,-306.438199,-666.185348,9178.553681
1500.276338,-766.095498,-666.185348,9474.636058
1500.276656,-1149.143247,-518.144159,9622.677246
1500.276973,-1532.190996,-0.000000,9918.759623
1500.277290,-1455.581446,296.082377,9844.739029
1500.277608,-919.314598,148.041188,9622.677246
1500.277925,-1455.581446,370.102971,9474.636058
1500.278243,-995.924147,296.082377,9474.636058
1500.278560,-689.485948,-222.061783,9844.739029
1500.278877,-383.047749,-148.041188,10362.883188
1500.279195,0.000000,-148.041188,10732.986159
1500.279512,842.705048,370.102971,10288.862594
1500.279830,1225.752797,814.226536,9844.739029
1500.280147,1838.629195,1628.453072,9326.594869
1500.280464,2298.286494,1998.556043,8808.450710
1500.280782,2528.115143,1850.514855,8142.265362
1500.281099,2834.553343,1480.411884,7994.224174
1500.281417,2911.162892,814.226536,8142.265362
1500.281734,2528.115143,-148.041188,9104.533087
1500.282051,2451.505594,-740.205942,9622.677246
1500.282369,2145.067394,-740.205942,10362.883188
1500.282686,1838.629195,-444.123565,10436.903782
1500.283004,1838.629195,148.041188,10214.842000
1500.283321,1455.581446,888.247130,9918.759623
1500.283638,1302.362347,1110.308913,9696.697840
1500.283956,1455.581446,666.185348,9770.718434
1500.284273,1378.971896,666.185348,9622.677246
1500.284591,1378.971896,148.041188,9918.759623
1500.284908,919.314598,-0.000000,10214.842000
1500.285225,689.485948,-0.000000,10510.924376
1500.285543,1149.143247,148.041188,10584.944971
1500.285860,919.314598,666.185348,10066.800811
1500.286178,995.924147,962.267725,9400.615463
1500.286495,1072.533697,1406.391290,8956.491898
1500.286812,1072.533697,666.185348,8290.306550
1500.287130,536.266849,222.061783,8512.368333
1500.287447,306.438199,-0.000000,8512.368333
1500.287765,0.000000,-518.144159,9178.553681
1500.288082,-612.876398,-814.226536,9474.636058
1500.288399,-842.705048,-666.185348,9918.759623
1500.288717,-1072.533697,-74.020594,9844.739029
1500.289034,-1072.533697,296.082377,9548.656652
1500.289352,-1072.533697,296.082377,9252.574275
1500.289669,-1072.533697,444.123565,9252.574275
1500.289986,-689.485948,-296.082377,8660.409521
1500.290304,-842.705048,-592.164754,9326.594869
1500.290621,-306.438199,-370.102971,9622.677246
1500.290939,-229.828649,-296.082377,10066.800811
1500.291256,76.609550,-0.000000,9992.780217
1500.291573,383.047749,814.226536,9918.759623
1500.291891,1072.533697,1110.308913,9104.533087
1500.292208,1532.190996,1554.432478,8068.244768
1500.292525,1915.238745,1406.391290,7550.100608
1500.292843,2451.505594,1258.350101,7624.121203
1500.293160,2451.505594,592.164754,7994.224174
1500.293478,2068.457845,-592.164754,8364.327145
1500.293795,1991.848295,-666.185348,8956.491898
1500.294112,1915.238745,-814.226536,9400.615463
1500.294430,2221.676944,-222.061783,9548.656652
1500.294747,1762.019645,370.102971,9622.677246
1500.295065,1762.019645,814.226536,9400.615463
1500.295382,1762.019645,814.226536,9178.553681
1500.295699,1685.410096,740.205942,9252.574275
1500.296017,2221.676944,518.144159,9548.656652
1500.296334,1915.238745,-74.020594,9548.656652
1500.296652,2068.457845,296.082377,10214.842000
1500.296969,1991.848295,592.164754,10362.883188
1500.297286,1991.848295,962.267725,10066.800811
1500.297604,2528.115143,1628.453072,10140.821405
1500.297921,2451.505594,1628.453072,9178.553681
1500.298239,2604.724693,1776.494261,8512.368333
1500.298556,2221.676944,1258.350101,8216.285956
1500.298873,2221.676944,592.164754,8660.409521
1500.299191,1685.410096,296.082377,8882.471304
1500.299508,842.705048,-592.164754,9474.636058
1500.299826,153.219100,-518.144159,10066.800811
1500.300143,0.000000,-74.020594,9992.780217
1500.300460,-766.095498,296.082377,10140.821405
1500.300778,-1378.971896,666.185348,9770.718434
1500.301095,-1608.800546,740.205942,10066.800811
1500.301413,-1838.629195,740.205942,9918.759623
1500.301730,-1915.238745,370.102971,10140.821405
1500.302047,-2145.067394,-0.000000,10584.944971
1500.302365,-1532.190996,-296.082377,10881.027347
1500.302682,-1225.752797,-222.061783,10881.027347
1500.303000,-919.314598,-0.000000,11325.150913
1500.303317,-383.047749,444.123565,10881.027347
1500.303634,306.438199,962.267725,9918.759623
1500.303952,536.266849,1924.535449,8956.491898
1500.304269,1149.143247,1998.556043,8216.285956
1500.304587,1302.362347,1554.432478,8068.244768
1500.304904,1072.533697,888.247130,7920.203579
1500.305221,919.314598,-0.000000,8734.430116
1500.305539,766.095498,-962.267725,9252.574275
1500.305856,0.000000,-1406.391290,9918.759623
1500.306174,306.438199,-1184.329507,10362.883188
1500.306491,76.609550,-814.226536,10436.903782
1500.306808,229.828649,-0.000000,9844.739029
1500.307126,306.438199,-0.000000,9474.636058
1500.307443,383.047749,444.123565,9252.574275
1500.307761,689.485948,370.102971,9474.636058
1500.308078,766.095498,-0.000000,9548.656652
1500.308395,1149.143247,148.041188,9474.636058
1500.308713,1455.581446,-0.000000,9844.739029
1500.309030,1532.190996,148.041188,9696.697840
1500.309348,1915.238745,592.164754,9400.615463
1500.309665,2451.505594,740.205942,9178.553681
1500.309982,2604.724693,888.247130,8364.327145
1500.310300,2911.162892,592.164754,7846.182985
1500.310617,2604.724693,222.061783,7772.162391
1500.310935,2681.334243,-370.102971,8068.244768
1500.311252,1991.848295,-740.205942,8512.368333
1500.311569,1532.190996,-814.226536,9178.553681
1500.311887,1302.362347,-666.185348,9474.636058
1500.312204,612.876398,-518.144159,9474.636058
1500.312521,459.657299,-0.000000,9696.697840
1500.312839,612.876398,222.061783,9474.636058
1500.313156,689.485948,296.082377,9178.553681
1500.313474,383.047749,-74.020594,8882.471304
1500.313791,766.095498,-592.164754,9178.553681
1500.314108,612.876398,-666.185348,9474.636058
1500.314426,612.876398,-962.267725,9844.739029
1500.314743,612.876398,-962.267725,10288.862594
1500.315061,1072.533697,-592.164754,10362.883188
1500.315378,766.095498,-0.000000,9918.759623
1500.315695,1302.362347,962.267725,9326.594869
1500.316013,1149.143247,1258.350101,8438.347739
1500.316330,1149.143247,1480.411884,7846.182985
1500.316648,1225.752797,666.185348,7624.121203
1500.316965,919.314598,-370.102971,8290.306550
1500.317282,383.047749,-888.247130,9030.512492
1500.317600,0.000000,-1332.370696,9474.636058
1500.317917,-842.705048,-1184.329507,9918.759623
1500.318235,-1455.581446,-814.226536,10288.862594
1500.318552,-1608.800546,-148.041188,10140.821405
1500.318869,-1991.848295,296.082377,9770.718434
1500.319187,-1685.410096,592.164754,9474.636058
1500.319504,-1378.971896,370.102971,9622.677246
1500.319822,-1378.971896,518.144159,9548.656652
1500.320139,-612.876398,222.061783,9918.759623
1500.320456,-842.705048,-0.000000,10140.821405
1500.320774,-459.657299,148.041188,10436.903782
1500.321091,0.000000,444.123565,10140.821405
1500.321409,612.876398,1036.288319,9844.739029
1500.321726,1608.800546,1702.473667,9178.553681
1500.322043,1762.019645,1776.494261,8586.388927
1500.322361,2374.896044,1184.329507,8142.265362
1500.322678,2451.505594,592.164754,8216.285956
1500.322996,2528.115143,296.082377,8290.306550
1500.323313,2221.676944,-296.082377,8808.450710
1500.323630,2068.457845,-0.000000,9474.636058
1500.323948,1838.629195,148.041188,9474.636058
1500.324265,1685.410096,666.185348,9696.697840
1500.324583,1149.143247,1110.308913,9918.759623
1500.324900,536.266849,666.185348,9844.739029
1500.325217,1072.533697,1036.288319,9622.677246
1500.325535,612.876398,444.123565,9992.780217
1500.325852,766.095498,296.082377,10362.883188
1500.326170,919.314598,-0.000000,10955.047942
1500.326487,1072.533697,-148.041188,11399.171507
1500.326804,1532.190996,-0.000000,11547.212695
1500.327122,1302.362347,666.185348,10881.027347
1500.327439,2068.457845,1332.370696,9844.739029
1500.327757,2451.505594,2220.617826,9178.553681
1500.328074,2451.505594,2294.638420,8734.430116
1500.328391,2298.286494,1554.432478,8216.285956
1500.328709,1991.848295,666.185348,8290.306550
1500.329026,1532.190996,-296.082377,8956.491898
1500.329344,995.924147,-1110.308913,9696.697840
1500.329661,459.657299,-888.247130,10066.800811
1500.329978,0.000000,-814.226536,10436.903782
1500.330296,-229.828649,-444.123565,10214.842000
1500.330613,229.828649,-0.000000,9918.759623
1500.330930,-612.876398,-0.000000,9474.636058
1500.331248,-536.266849,370.102971,9178.553681
1500.331565,-459.657299,-0.000000,9252.574275
1500.331883,-383.047749,148.041188,9474.636058
1500.332200,-306.438199,-148.041188,9622.677246
1500.332517,-536.266849,-148.041188,9696.697840
1500.332835,-229.828649,-74.020594,9770.718434
1500.333152,76.609550,296.082377,9252.574275
1500.333470,459.657299,592.164754,8586.388927
1500.333787,766.095498,666.185348,7994.224174
1500.334104,995.924147,296.082377,7698.141797
1500.334422,995.924147,-0.000000,7550.100608
1500.334739,766.095498,-666.185348,7846.182985
1500.335057,536.266849,-1036.288319,8438.347739
1500.335374,76.609550,-1184.329507,8808.450710
1500.335691,0.000000,-814.226536,9252.574275
1500.336009,0.000000,-222.061783,9252.574275
1500.336326,0.000000,-148.041188,9326.594869
1500.336644,-229.828649,-0.000000,9178.553681
1500.336961,0.000000,-74.020594,9400.615463
1500.337278,383.047749,-0.000000,9104.533087
1500.337596,153.219100,-518.144159,9548.656652
1500.337913,536.266849,-1036.288319,9918.759623
1500.338231,919.314598,-888.247130,10362.883188
1500.338548,1149.143247,-888.247130,10436.903782
1500.338865,1685.410096,-74.020594,10140.821405
1500.339183,1762.019645,888.247130,9252.574275
1500.339500,2221.676944,1332.370696,8512.368333
1500.339818,2528.115143,1332.370696,8142.265362
1500.340135,2374.896044,888.247130,7920.203579
1500.340452,2451.505594,296.082377,8142.265362
1500.340770,1762.019645,-888.247130,8808.450710
1500.341087,1302.362347,-1110.308913,9474.636058
1500.341405,1225.752797,-1332.370696,10066.800811
1500.341722,995.924147,-888.247130,10214.842000
1500.342039,689.485948,-222.061783,10214.842000
1500.342357,153.219100,-0.000000,10066.800811
1500.342674,0.000000,592.164754,9696.697840
1500.342992,153.219100,666.185348,9548.656652
1500.343309,383.047749,962.267725,9622.677246
1500.343626,459.657299,518.144159,10140.821405
1500.343944,76.609550,518.144159,10214.842000
1500.344261,459.657299,740.205942,10362.883188
1500.344579,306.438199,962.267725,10140.821405
1500.344896,612.876398,1406.391290,9622.677246
1500.345213,842.705048,1850.514855,9252.574275
1500.345531,919.314598,1702.473667,8956.491898
1500.345848,766.095498,1184.329507,8438.347739
1500.346166,612.876398,592.164754,8734.430116
1500.346483,383.047749,444.123565,9104.533087
1500.346800,229.828649,-0.000000,9252.574275
1500.347118,-383.047749,-148.041188,9622.677246
1500.347435,-229.828649,-370.102971,9844.739029
1500.347753,-842.705048,296.082377,9992.780217
1500.348070,-919.314598,814.226536,10066.800811
1500.348387,-766.095498,1036.288319,9696.697840
1500.348705,-689.485948,740.205942,9696.697840
1500.349022,-842.705048,444.123565,9844.739029
1500.349339,-306.438199,-74.020594,10066.800811
1500.349657,-229.828649,-296.082377,10584.944971
1500.349974,306.438199,-296.082377,10510.924376
1500.350291,1149.143247,-0.000000,10362.883188
1500.350609,1532.190996,592.164754,9918.759623
1500.350926,1762.019645,1332.370696,9326.594869
1500.351243,2221.676944,2072.576638,8586.388927
1500.351560,2911.162892,2220.617826,7772.162391
1500.351878,2221.676944,1776.494261,8068.244768
1500.352195,2604.724693,740.205942,7846.182985
1500.352512,2374.896044,-444.123565,8734.430116
1500.352830,2145.067394,-740.205942,9474.636058
1500.353147,1762.019645,-962.267725,9918.759623
1500.353464,1685.410096,-592.164754,10288.862594
1500.353782,1378.971896,-0.000000,9918.759623
1500.354099,1072.533697,296.082377,9474.636058
1500.354416,919.314598,814.226536,9252.574275
1500.354734,1072.533697,1110.308913,9252.574275
1500.355051,689.485948,814.226536,9400.615463
1500.355368,995.924147,444.123565,9548.656652
1500.355686,995.924147,370.102971,9844.739029
1500.356003,919.314598,222.061783,10066.800811
1500.356320,1149.143247,518.144159,9622.677246
1500.356638,919.314598,814.226536,9622.677246
1500.356955,1149.143247,1332.370696,8882.471304
1500.357272,1149.143247,1036.288319,8216.285956
1500.357590,1149.143247,518.144159,8142.265362
1500.357907,1072.533697,-0.000000,8364.327145
1500.358224,612.876398,-740.205942,8808.450710
1500.358541,153.219100,-888.247130,9252.574275
1500.358859,-536.266849,-1258.350101,9622.677246
1500.359176,-842.705048,-888.247130,9844.739029
1500.359493,-766.095498,-222.061783,9918.759623
1500.359811,-919.314598,-0.000000,10066.800811
1500.360128,-1378.971896,-0.000000,9548.656652
1500.360445,-1149.143247,148.041188,9622.677246
1500.360763,-995.924147,-74.020594,9548.656652
1500.361080,-995.924147,-518.144159,10066.800811
1500.361397,-383.047749,-814.226536,10436.903782
1500.361715,153.219100,-814.226536,10510.924376
1500.362032,306.438199,-222.061783,10436.903782
1500.362349,1072.533697,444.123565,10066.800811
1500.362667,1685.410096,1258.350101,9178.553681
1500.362984,1608.800546,1924.535449,8364.327145
1500.363301,2374.896044,1924.535449,7772.162391
1500.363619,2374.896044,1554.432478,7402.059420
1500.363936,2221.676944,592.164754,7698.141797
1500.364253,2068.457845,-444.123565,8808.450710
1500.364570,1608.800546,-1036.288319,9400.615463
1500.364888,1225.752797,-1036.288319,9918.759623
1500.365205,995.924147,-814.226536,9844.739029
1500.365522,1532.190996,-0.000000,9992.780217
1500.365840,689.485948,444.123565,9844.739029
1500.366157,766.095498,740.205942,9326.594869
1500.366474,995.924147,592.164754,9104.533087
1500.366792,842.705048,740.205942,9474.636058
1500.367109,1532.190996,296.082377,9992.780217
1500.367426,919.314598,-0.000000,10066.800811
1500.367744,1225.752797,222.061783,10214.842000
1500.368061,1149.143247,740.205942,10214.842000
1500.368378,1532.190996,1036.288319,9696.697840
1500.368696,2068.457845,1850.514855,9400.615463
1500.369013,1915.238745,1406.391290,8660.409521
1500.369330,2298.286494,1258.350101,8142.265362
1500.369648,1685.410096,518.144159,8290.306550
1500.369965,1072.533697,74.020594,8660.409521
1500.370282,995.924147,-518.144159,9548.656652
1500.370600,383.047749,-814.226536,9770.718434
1500.370917,0.000000,-370.102971,9992.780217
1500.371234,-459.657299,-0.000000,9844.739029
1500.371551,-689.485948,296.082377,9918.759623
1500.371869,-1149.143247,592.164754,9844.739029
1500.372186,-1072.533697,444.123565,9548.656652
1500.372503,-995.924147,222.061783,9474.636058
1500.372821,-1149.143247,-0.000000,9844.739029
1500.373138,-1149.143247,-518.144159,10584.944971
1500.373455,-689.485948,-296.082377,10955.047942
1500.373773,-536.266849,-296.082377,10955.047942
1500.374090,0.000000,222.061783,10436.903782
1500.374407,459.657299,1110.308913,9696.697840
1500.374725,689.485948,1628.453072,9104.533087
1500.375042,1455.581446,1776.494261,7920.203579
1500.375359,1838.629195,1850.514855,7550.100608
1500.375677,2145.067394,962.267725,7550.100608
1500.375994,1915.238745,-0.000000,8216.285956
1500.376311,1455.581446,-370.102971,9104.533087
1500.376629,1225.752797,-666.185348,9622.677246
1500.376946,919.314598,-592.164754,9844.739029
1500.377263,919.314598,-222.061783,9622.677246
1500.377580,919.314598,444.123565,9548.656652
1500.377898,919.314598,740.205942,8956.491898
1500.378215,1072.533697,888.247130,8808.450710
1500.378532,1149.143247,592.164754,8956.491898
1500.378850,1072.533697,222.061783,9474.636058
1500.379167,1149.143247,-222.061783,9770.718434
1500.379484,1225.752797,-0.000000,10214.842000
1500.379802,919.314598,-0.000000,10140.821405
1500.380119,1225.752797,370.102971,9918.759623
1500.380436,2068.457845,962.267725,9326.594869
1500.380754,2068.457845,1258.350101,8808.450710
1500.381071,2374.896044,888.247130,8290.306550
1500.381388,2528.115143,518.144159,7994.224174
1500.381706,2451.505594,-222.061783,8216.285956
1500.382023,2068.457845,-296.082377,8882.471304
1500.382340,1302.362347,-814.226536,9104.533087
1500.382658,766.095498,-518.144159,9622.677246
1500.382975,459.657299,-0.000000,9770.718434
1500.383292,153.219100,518.144159,9770.718434
1500.383610,76.609550,444.123565,9696.697840
1500.383927,-153.219100,148.041188,9326.594869
1500.384244,0.000000,-0.000000,9696.697840
1500.384561,-459.657299,-222.061783,10066.800811
1500.384879,-306.438199,-814.226536,10362.883188
1500.385196,-383.047749,-814.226536,10881.027347
1500.385513,76.609550,-222.061783,10881.027347
1500.385831,76.609550,-0.000000,10732.986159
1500.386148,536.266849,1184.329507,9918.759623
1500.386465,995.924147,1776.494261,9030.512492
1500.386783,1455.581446,1924.535449,8290.306550
1500.387100,1838.629195,1776.494261,7846.182985
1500.387417,1532.190996,888.247130,7772.162391
1500.387735,1302.362347,-148.041188,8364.327145
1500.388052,766.095498,-962.267725,9252.574275
1500.388369,612.876398,-1702.473667,9696.697840
1500.388687,383.047749,-1406.391290,10510.924376
1500.389004,-153.219100,-888.247130,10362.883188
1500.389321,-229.828649,-0.000000,10066.800811
1500.389639,-76.609550,444.123565,9474.636058
1500.389956,0.000000,592.164754,9178.553681
1500.390273,383.047749,592.164754,9104.533087
1500.390590,153.219100,518.144159,9548.656652
1500.390908,383.047749,-0.000000,9696.697840
1500.391225,612.876398,-148.041188,9844.739029
1500.391542,842.705048,-0.000000,9992.780217
1500.391860,842.705048,370.102971,9548.656652
1500.392177,1608.800546,814.226536,9104.533087
1500.392494,1685.410096,962.267725,8734.430116
1500.392812,1685.410096,1184.329507,8068.244768
1500.393129,1378.971896,740.205942,8068.244768
1500.393446,1532.190996,-0.000000,8512.368333
1500.393764,1378.971896,-518.144159,8882.471304
1500.394081,919.314598,-666.185348,9474.636058
1500.394398,536.266849,-370.102971,9696.697840
1500.394716,612.876398,-222.061783,9696.697840
1500.395033,153.219100,-0.000000,9548.656652
1500.395350,306.438199,592.164754,9326.594869
1500.395668,459.657299,666.185348,9326.594869
1500.395985,536.266849,-0.000000,9178.553681
1500.396302,229.828649,-0.000000,9178.553681
1500.396619,459.657299,-222.061783,9844.739029
1500.396937,766.095498,-296.082377,10140.821405
1500.397254,689.485948,-296.082377,10658.965565
1500.397571,1149.143247,370.102971,10807.006753
1500.397889,1762.019645,888.247130,9770.718434
1500.398206,1762.019645,1480.411884,9326.594869
1500.398523,1991.848295,2072.576638,8290.306550
1500.398841,2068.457845,1554.432478,8068.244768
1500.399158,2145.067394,962.267725,8216.285956
1500.399475,1608.800546,-0.000000,8660.409521
1500.399793,1072.533697,-1036.288319,9178.553681
1500.400110,536.266849,-1184.329507,9992.780217
1500.400427,229.828649,-1184.329507,10510.924376
1500.400745,0.000000,-370.102971,10658.965565
1500.401062,0.000000,-0.000000,9844.739029
1500.401379,0.000000,222.061783,9474.636058
1500.401697,0.000000,740.205942,9474.636058
1500.402014,-153.219100,518.144159,9252.574275
1500.402331,0.000000,370.102971,9326.594869
1500.402649,0.000000,-0.000000,9696.697840
1500.402966,-153.219100,-370.102971,10288.862594
1500.403283,-306.438199,-0.000000,10436.903782
1500.403600,76.609550,-0.000000,10362.883188
1500.403918,0.000000,666.185348,9844.739029
1500.404235,842.705048,1258.350101,8956.491898
1500.404552,1149.143247,1110.308913,8438.347739
1500.404870,995.924147,370.102971,8068.244768
1500.405187,1225.752797,-0.000000,8364.327145
1500.405504,1225.752797,-444.123565,8660.409521
1500.405822,766.095498,-740.205942,9030.512492
1500.406139,536.266849,-592.164754,9474.636058
1500.406456,0.000000,-370.102971,9548.656652
1500.406774,153.219100,518.144159,9622.677246
1500.407091,0.000000,666.185348,9400.615463
1500.407408,229.828649,666.185348,9400.615463
1500.407726,76.609550,296.082377,9474.636058
1500.408043,306.438199,-0.000000,9696.697840
1500.408360,229.828649,-222.061783,9844.739029
1500.408678,383.047749,-518.144159,10140.821405
1500.408995,919.314598,-222.061783,10732.986159
1500.409312,1378.971896,-0.000000,10732.986159
1500.409629,1838.629195,814.226536,9992.780217
1500.409947,2068.457845,1480.411884,9178.553681
1500.410264,2298.286494,1924.535449,8364.327145
1500.410581,2298.286494,1554.432478,8068.244768
1500.410899,2298.286494,888.247130,7624.121203
1500.411216,2221.676944,148.041188,8142.265362
1500.411533,1608.800546,-592.164754,9104.533087
1500.411851,1378.971896,-1258.350101,9622.677246
1500.412168,842.705048,-1258.350101,10066.800811
1500.412485,306.438199,-814.226536,10510.924376
1500.412803,0.000000,-222.061783,10288.862594
1500.413120,0.000000,222.061783,9844.739029
1500.413437,-306.438199,666.185348,9474.636058
1500.413755,-459.657299,666.185348,9326.594869
1500.414072,-459.657299,592.164754,9474.636058
1500.414389,-306.438199,-0.000000,9770.718434
1500.414707,-536.266849,-0.000000,10214.842000
1500.415024,-536.266849,148.041188,10362.883188
1500.415341,0.000000,-0.000000,10066.800811
1500.415659,76.609550,962.267725,9622.677246
1500.415976,536.266849,1554.432478,8956.491898
1500.416293,1149.143247,1776.494261,8364.327145
1500.416610,1225.752797,1258.350101,7920.203579
1500.416928,1532.190996,518.144159,7698.141797
1500.417245,1608.800546,148.041188,8142.265362
1500.417562,995.924147,-370.102971,8660.409521
1500.417880,459.657299,-666.185348,9030.512492
1500.418197,536.266849,-222.061783,9252.574275
1500.418514,153.219100,148.041188,9030.512492
1500.418832,0.000000,666.185348,9178.553681
1500.419149,153.219100,1036.288319,9326.594869
1500.419466,0.000000,296.082377,9104.533087
1500.419784,-383.047749,-222.061783,9548.656652
1500.420101,76.609550,-962.267725,10288.862594
1500.420418,0.000000,-666.185348,10362.883188
1500.420736,536.266849,-370.102971,10658.965565
1500.421053,1072.533697,-148.041188,10658.965565
1500.421370,1455.581446,444.123565,10214.842000
1500.421688,1915.238745,1332.370696,9474.636058
1500.422005,2221.676944,1702.473667,8956.491898
1500.422322,2451.505594,1554.432478,8290.306550
1500.422639,2681.334243,1184.329507,7846.182985
1500.422957,2374.896044,666.185348,8734.430116
1500.423274,1838.629195,-518.144159,9252.574275
1500.423591,1685.410096,-1036.288319,9622.677246
1500.423909,1685.410096,-888.247130,10066.800811
1500.424226,842.705048,-518.144159,10436.903782
1500.424543,1072.533697,-74.020594,10362.883188
1500.424861,612.876398,-0.000000,9770.718434
1500.425178,612.876398,296.082377,9474.636058
1500.425495,459.657299,740.205942,9474.636058
1500.425813,383.047749,444.123565,9474.636058
1500.426130,612.876398,370.102971,9844.739029
1500.426447,306.438199,222.061783,10288.862594
1500.426765,306.438199,296.082377,10584.944971
1500.427082,383.047749,444.123565,10214.842000
1500.427399,306.438199,666.185348,9770.718434
1500.427717,766.095498,1036.288319,9400.615463
1500.428034,1149.143247,1258.350101,8808.450710
1500.428351,1149.143247,962.267725,8142.265362
1500.428669,1072.533697,296.082377,8438.347739
1500.428986,1225.752797,-0.000000,9030.512492
1500.429303,153.219100,-222.061783,9326.594869
1500.429620,76.609550,-666.185348,9104.533087
1500.429938,-383.047749,-444.123565,9474.636058
1500.430255,-536.266849,-148.041188,9548.656652
1500.430572,-1149.143247,-0.000000,9474.636058
1500.430890,-1072.533697,444.123565,9548.656652
1500.431207,-689.485948,370.102971,9474.636058
1500.431524,-1072.533697,-0.000000,9696.697840
1500.431842,-689.485948,-518.144159,9918.759623
1500.432159,-612.876398,-740.205942,10214.842000
1500.432476,-229.828649,-814.226536,10732.986159
1500.432794,229.828649,-592.164754,10881.027347
1500.433111,612.876398,296.082377,10362.883188
1500.433428,1455.581446,1184.329507,9474.636058
1500.433746,2145.067394,1554.432478,8734.430116
1500.434063,2451.505594,1998.556043,7846.182985
1500.434380,2834.553343,1406.391290,7402.059420
1500.434698,2681.334243,888.247130,7624.121203
1500.435015,2221.676944,-296.082377,7994.224174
1500.435332,2145.067394,-888.247130,8882.471304
1500.435649,1608.800546,-814.226536,9548.656652
1500.435967,1225.752797,-666.185348,9770.718434
1500.436284,612.876398,-296.082377,9918.759623
1500.436601,306.438199,-74.020594,9696.697840
1500.436919,306.438199,592.164754,9400.615463
1500.437236,536.266849,592.164754,9474.636058
1500.437553,459.657299,518.144159,9622.677246
1500.437871,153.219100,-0.000000,10066.800811
1500.438188,153.219100,370.102971,10436.903782
1500.438505,153.219100,-0.000000,10288.862594
1500.438823,383.047749,666.185348,9992.780217
1500.439140,1149.143247,1332.370696,9622.677246
1500.439457,1149.143247,1776.494261,9178.553681
1500.439775,1455.581446,1702.473667,8364.327145
1500.440092,1455.581446,1406.391290,8290.306550
1500.440409,1762.019645,666.185348,8364.327145
1500.440727,1608.800546,148.041188,8660.409521
1500.441044,1302.362347,-296.082377,9178.553681
1500.441361,1072.533697,-518.144159,9474.636058
1500.441679,459.657299,-222.061783,9696.697840
1500.441996,76.609550,296.082377,9770.718434
1500.442313,-536.266849,962.267725,9992.780217
1500.442630,-383.047749,814.226536,9770.718434
1500.442948,-536.266849,814.226536,9622.677246
1500.443265,-842.705048,296.082377,9696.697840
1500.443582,-612.876398,-0.000000,9844.739029
1500.443900,-459.657299,-444.123565,10510.924376
1500.444217,76.609550,-296.082377,11103.089130
1500.444534,383.047749,-0.000000,10807.006753
1500.444852,612.876398,666.185348,10214.842000
1500.445169,1072.533697,1332.370696,9400.615463
1500.445486,1762.019645,2072.576638,8882.471304
1500.445804,2528.115143,2516.700203,8364.327145
1500.446121,2221.676944,1776.494261,7476.080014
1500.446438,1915.238745,1184.329507,7772.162391
1500.446756,1838.629195,-0.000000,8290.306550
1500.447073,1378.971896,-740.205942,8956.491898
1500.447390,1378.971896,-962.267725,9548.656652
1500.447708,995.924147,-592.164754,9770.718434
1500.448025,995.924147,-0.000000,9474.636058
1500.448342,842.705048,370.102971,9178.553681
1500.448660,766.095498,1036.288319,8882.471304
1500.448977,766.095498,1110.308913,8808.450710
1500.449294,1072.533697,888.247130,8956.491898
1500.449612,766.095498,444.123565,9474.636058
1500.449929,766.095498,296.082377,9844.739029
1500.450246,1455.581446,-0.000000,10140.821405
1500.450564,1302.362347,296.082377,9770.718434
1500.450881,1378.971896,962.267725,9770.718434
1500.451198,1685.410096,1184.329507,9104.533087
1500.451516,2068.457845,1628.453072,8364.327145
1500.451833,2068.457845,1036.288319,8290.306550
1500.452151,1302.362347,518.144159,8438.347739
1500.452468,1532.190996,-370.102971,8660.409521
1500.452785,1072.533697,-740.205942,9178.553681
1500.453103,536.266849,-1036.288319,9696.697840
1500.453420,536.266849,-1110.308913,9770.718434
1500.453737,-229.828649,-444.123565,9992.780217
1500.454055,-153.219100,-0.000000,10140.821405
1500.454372,-383.047749,148.041188,9844.739029
1500.454689,0.000000,-0.000000,9918.759623
1500.455007,-689.485948,-0.000000,10066.800811
1500.455324,-612.876398,-666.185348,10140.821405
1500.455641,-229.828649,-740.205942,10288.862594
1500.455959,-153.219100,-1110.308913,10807.006753
1500.456276,0.000000,-888.247130,10955.047942
1500.456593,229.828649,-296.082377,10955.047942
1500.456911,766.095498,296.082377,10288.862594
1500.457228,919.314598,888.247130,9400.615463
1500.457546,1225.752797,962.267725,8438.347739
1500.457863,1608.800546,888.247130,7698.141797
1500.458180,1608.800546,296.082377,7846.182985
1500.458498,1072.533697,-740.205942,8216.285956
1500.458815,842.705048,-1332.370696,9178.553681
1500.459132,383.047749,-1702.473667,9770.718434
1500.459450,459.657299,-1998.556043,10140.821405
1500.459767,0.000000,-1036.288319,10288.862594
1500.460084,0.000000,-444.123565,9918.759623
1500.460402,153.219100,-74.020594,9474.636058
1500.460719,536.266849,444.123565,9326.594869
1500.461036,1149.143247,592.164754,8882.471304
1500.461354,1225.752797,370.102971,9104.533087
1500.461671,1532.190996,370.102971,9178.553681
1500.461988,1685.410096,-0.000000,9474.636058
1500.462306,1762.019645,148.041188,9622.677246
1500.462623,1838.629195,148.041188,9252.574275
1500.462941,2068.457845,666.185348,9104.533087
1500.463258,2451.505594,1110.308913,8290.306550
1500.463575,2757.943793,1110.308913,7920.203579
1500.463893,2528.115143,814.226536,7772.162391
1500.464210,2451.505594,518.144159,7698.141797
1500.464527,1915.238745,-370.102971,8364.327145
1500.464845,1378.971896,-666.185348,8808.450710
1500.465162,536.266849,-518.144159,9326.594869
1500.465479,306.438199,-370.102971,9622.677246
1500.465797,-612.876398,222.061783,9548.656652
1500.466114,-766.095498,888.247130,9474.636058
1500.466431,-919.314598,888.247130,9548.656652
1500.466749,-689.485948,666.185348,9474.636058
1500.467066,-766.095498,444.123565,9696.697840
1500.467383,-306.438199,-0.000000,9992.780217
1500.467701,-76.609550,-148.041188,10510.924376
1500.468018,-229.828649,-74.020594,10658.965565
1500.468336,306.438199,666.185348,10510.924376
1500.468653,766.095498,1480.411884,9844.739029
1500.468970,766.095498,2442.679609,8660.409521
1500.469288,1072.533697,2516.700203,8290.306550
1500.469605,1225.752797,2368.659014,7920.203579
1500.469922,766.095498,1406.391290,7920.203579
1500.470240,919.314598,296.082377,8660.409521
1500.470557,383.047749,-370.102971,9252.574275
1500.470874,306.438199,-888.247130,9918.759623
1500.471192,76.609550,-592.164754,10436.903782
1500.471509,76.609550,-370.102971,10807.006753
1500.471826,0.000000,-0.000000,10584.944971
1500.472144,306.438199,1036.288319,9992.780217
1500.472461,229.828649,1332.370696,9770.718434
1500.472778,306.438199,1332.370696,9696.697840
1500.473096,842.705048,814.226536,9696.697840
1500.473413,919.314598,518.144159,10288.862594
1500.473730,842.705048,-0.000000,10584.944971
1500.474048,1072.533697,296.082377,10732.986159
1500.474365,1455.581446,518.144159,10214.842000
1500.474683,1455.581446,592.164754,9844.739029
1500.475000,1762.019645,1036.288319,9104.533087
1500.475317,1991.848295,888.247130,8734.430116
1500.475635,1838.629195,592.164754,8660.409521
1500.475952,1762.019645,-148.041188,8660.409521
1500.476269,1455.581446,-296.082377,9252.574275
1500.476587,1072.533697,-666.185348,9622.677246
1500.476904,919.314598,-740.205942,9844.739029
1500.477221,536.266849,-370.102971,10066.800811
1500.477539,0.000000,-296.082377,9844.739029
1500.477856,229.828649,148.041188,9918.759623
1500.478173,153.219100,222.061783,9548.656652
1500.478491,383.047749,-0.000000,9696.697840
1500.478808,459.657299,-370.102971,9622.677246
1500.479125,459.657299,-740.205942,9696.697840
1500.479443,459.657299,-666.185348,10066.800811
1500.479760,689.485948,-592.164754,10214.842000
1500.480078,1225.752797,-296.082377,9844.739029
1500.480395,1378.971896,296.082377,9474.636058
1500.480712,1915.238745,740.205942,8660.409521
1500.481030,1838.629195,1480.411884,7846.182985
1500.481347,1838.629195,1110.308913,7624.121203
1500.481664,1762.019645,296.082377,7476.080014
1500.481982,1608.800546,-592.164754,8290.306550
1500.482299,995.924147,-1110.308913,8808.450710
1500.482616,229.828649,-1702.473667,9474.636058
1500.482934,0.000000,-1702.473667,9918.759623
1500.483251,-383.047749,-1258.350101,10066.800811
1500.483568,-383.047749,-666.185348,9918.759623
1500.483886,-76.609550,-0.000000,9178.553681
1500.484203,-306.438199,-0.000000,8882.471304
1500.484520,-153.219100,-0.000000,9030.512492
1500.484838,76.609550,-0.000000,9030.512492
1500.485155,-229.828649,-370.102971,9622.677246
1500.485473,383.047749,-296.082377,9622.677246
1500.485790,383.047749,-296.082377,10066.800811
1500.486107,459.657299,222.061783,9400.615463
1500.486425,689.485948,444.123565,9104.533087
1500.486742,1072.533697,444.123565,8438.347739
1500.487059,1072.533697,814.226536,8364.327145
1500.487377,1608.800546,518.144159,7994.224174
1500.487694,1225.752797,-0.000000,7994.224174
1500.488011,1302.362347,-222.061783,8586.388927
1500.488329,689.485948,-370.102971,9104.533087
1500.488646,766.095498,-222.061783,9178.553681
1500.488963,459.657299,-0.000000,9400.615463
1500.489281,383.047749,592.164754,9474.636058
1500.489598,306.438199,740.205942,9030.512492
1500.489915,0.000000,1036.288319,9622.677246
1500.490233,153.219100,962.267725,9474.636058
1500.490550,383.047749,296.082377,9474.636058
1500.490868,383.047749,-0.000000,9918.759623
1500.491185,1608.800546,-592.164754,10066.800811
1500.491502,1149.143247,-222.061783,10288.862594
1500.491820,1532.190996,370.102971,10510.924376
1500.492137,1838.629195,1110.308913,10066.800811
1500.492454,2145.067394,1998.556043,9178.553681
1500.492772,2298.286494,2368.659014,8586.388927
1500.493089,2068.457845,2294.638420,8068.244768
1500.493406,2298.286494,1554.432478,8216.285956
1500.493724,1838.629195,814.226536,8586.388927
1500.494041,1532.190996,-148.041188,9474.636058
1500.494358,995.924147,-666.185348,10066.800811
1500.494676,612.876398,-814.226536,10807.006753
1500.494993,383.047749,-518.144159,11029.068536
1500.495310,0.000000,-0.000000,10955.047942
1500.495628,0.000000,444.123565,10510.924376
1500.495945,153.219100,1258.350101,10140.821405
1500.496262,229.828649,1184.329507,9918.759623
1500.496580,306.438199,1110.308913,9918.759623
1500.496897,153.219100,740.205942,9918.759623
1500.497215,153.219100,-0.000000,10510.924376
1500.497532,76.609550,222.061783,10807.006753
1500.497849,689.485948,666.185348,10436.903782
1500.498167,612.876398,814.226536,9770.718434
1500.498484,919.314598,962.267725,9400.615463
1500.498801,919.314598,1036.288319,8734.430116
1500.499119,1302.362347,962.267725,8364.327145
1500.499436,1149.143247,222.061783,8438.347739
1500.499753,842.705048,-222.061783,8586.388927
1500.500071,306.438199,-148.041188,9326.594869
1500.500388,-153.219100,-148.041188,9622.677246
1500.500705,-536.266849,-444.123565,9992.780217
1500.501023,-459.657299,-0.000000,9844.739029
1500.501340,-689.485948,444.123565,9844.739029
1500.501657,-153.219100,518.144159,9474.636058
1500.501975,-229.828649,-0.000000,8882.471304
1500.502292,0.000000,148.041188,9252.574275
1500.502610,383.047749,-74.020594,9030.512492
1500.502927,383.047749,-518.144159,9548.656652
1500.503244,919.314598,-148.041188,9992.780217
1500.503562,919.314598,-444.123565,9918.759623
1500.503879,1608.800546,370.102971,9474.636058
1500.504196,2145.067394,1036.288319,8734.430116
1500.504514,2145.067394,1628.453072,8068.244768
1500.504831,2757.943793,1480.411884,7476.080014
1500.505148,2374.896044,740.205942,7328.038826
1500.505466,2374.896044,296.082377,7476.080014
1500.505783,1762.019645,-666.185348,8290.306550
1500.506100,1762.019645,-1184.329507,9474.636058
1500.506418,1072.533697,-1480.411884,9696.697840
1500.506735,536.266849,-1184.329507,10214.842000
1500.507052,612.876398,-666.185348,10066.800811
1500.507370,536.266849,-0.000000,9696.697840
1500.507687,383.047749,370.102971,9400.615463
1500.508005,842.705048,592.164754,9030.512492
1500.508322,842.705048,444.123565,9178.553681
1500.508639,1072.533697,-0.000000,9474.636058
1500.508957,995.924147,-222.061783,9770.718434
1500.509274,919.314598,-370.102971,9992.780217
1500.509591,995.924147,-0.000000,10140.821405
1500.509909,1378.971896,444.123565,9770.718434
1500.510226,1378.971896,814.226536,9178.553681
1500.510543,1378.971896,888.247130,8586.388927
1500.510861,1378.971896,888.247130,8512.368333
1500.511178,1455.581446,666.185348,7994.224174
1500.511495,1225.752797,222.061783,8364.327145
1500.511813,842.705048,-370.102971,8956.491898
1500.512130,229.828649,-666.185348,9474.636058
1500.512447,-153.219100,-740.205942,9844.739029
1500.512765,-689.485948,-74.020594,9844.739029
1500.513082,-766.095498,518.144159,10140.821405
1500.513399,-842.705048,740.205942,9918.759623
1500.513717,-689.485948,666.185348,9548.656652
1500.514034,-612.876398,444.123565,9622.677246
1500.514352,-536.266849,-74.020594,9844.739029
1500.514669,-383.047749,-148.041188,10288.862594
1500.514986,-306.438199,-222.061783,10584.944971
1500.515304,306.438199,-148.041188,10807.006753
1500.515621,383.047749,444.123565,10436.903782
1500.515938,842.705048,1332.370696,9696.697840
1500.516256,1455.581446,2220.617826,9104.533087
1500.516573,1685.410096,2072.576638,8290.306550
1500.516890,1838.629195,1480.411884,8142.265362
1500.517208,1991.848295,1036.288319,8364.327145
1500.517525,1762.019645,-0.000000,8956.491898
1500.517842,1685.410096,-814.226536,9622.677246
1500.518160,1378.971896,-814.226536,10288.862594
1500.518477,1072.533697,-1036.288319,10510.924376
1500.518794,766.095498,-148.041188,10362.883188
1500.519112,1072.533697,666.185348,9844.739029
1500.519429,766.095498,1110.308913,9400.615463
1500.519747,1072.533697,1258.350101,9178.553681
1500.520064,1149.143247,1184.329507,8956.491898
1500.520381,1072.533697,888.247130,9474.636058
1500.520699,1149.143247,444.123565,9918.759623
1500.521016,1072.533697,222.061783,10214.842000
1500.521333,1225.752797,296.082377,10288.862594
1500.521651,1455.581446,740.205942,9918.759623
1500.521968,1302.362347,1332.370696,9178.553681
1500.522285,1762.019645,1554.432478,8586.388927
1500.522603,1762.019645,1332.370696,8216.285956
1500.522920,1608.800546,740.205942,8068.244768
1500.523237,1072.533697,296.082377,8364.327145
1500.523555,842.705048,-74.020594,8956.491898
1500.523872,76.609550,-444.123565,9252.574275
1500.524189,-306.438199,-222.061783,9474.636058
1500.524507,-536.266849,-0.000000,9696.697840
1500.524824,-995.924147,444.123565,9474.636058
1500.525142,-1072.533697,888.247130,9474.636058
1500.525459,-919.314598,592.164754,9622.677246
1500.525776,-919.314598,-0.000000,9474.636058
1500.526094,-1072.533697,-592.164754,10140.821405
1500.526411,-612.876398,-814.226536,10288.862594
1500.526728,-229.828649,-962.267725,10362.883188
1500.527046,76.609550,-444.123565,10140.821405
1500.527363,612.876398,148.041188,9918.759623
1500.527680,459.657299,592.164754,9178.553681
1500.527998,1685.410096,1258.350101,8512.368333
1500.528315,1838.629195,1110.308913,7994.224174
1500.528632,1991.848295,888.247130,7698.141797
1500.528950,1685.410096,-0.000000,7994.224174
1500.529267,1455.581446,-592.164754,8586.388927
1500.529584,919.314598,-1258.350101,9474.636058
1500.529902,612.876398,-1480.411884,10066.800811
1500.530219,383.047749,-1184.329507,10214.842000
1500.530537,612.876398,-666.185348,10288.862594
1500.530854,536.266849,-222.061783,9918.759623
1500.531171,536.266849,-0.000000,9548.656652
1500.531489,766.095498,222.061783,9548.656652
1500.531806,919.314598,148.041188,9474.636058
1500.532123,1915.238745,-370.102971,9622.677246
1500.532441,1455.581446,-74.020594,9696.697840
1500.532758,1838.629195,-0.000000,9992.780217
1500.533075,2068.457845,518.144159,9918.759623
1500.533393,2145.067394,814.226536,9326.594869
1500.533710,2221.676944,888.247130,8956.491898
1500.534027,2145.067394,1036.288319,8216.285956
1500.534345,2221.676944,740.205942,8068.244768
1500.534662,2374.896044,296.082377,8068.244768
1500.534979,1838.629195,-148.041188,8660.409521
1500.535297,1225.752797,-666.185348,9104.533087
1500.535614,766.095498,-814.226536,9474.636058
1500.535931,306.438199,-444.123565,9918.759623
1500.536249,0.000000,-0.000000,9992.780217
1500.536566,-612.876398,296.082377,9992.780217
1500.536884,-383.047749,666.185348,9770.718434
1500.537201,-1072.533697,370.102971,9696.697840
1500.537518,-766.095498,444.123565,9770.718434
1500.537836,-153.219100,-0.000000,10140.821405
1500.538153,-383.047749,-74.020594,10066.800811
1500.538470,-229.828649,-222.061783,10362.883188
1500.538788,0.000000,-0.000000,10436.903782
1500.539105,306.438199,370.102971,10362.883188
1500.539422,459.657299,1258.350101,9622.677246
1500.539740,995.924147,1702.473667,8956.491898
1500.540057,1225.752797,2072.576638,8290.306550
1500.540374,1149.143247,1776.494261,7846.182985
1500.540692,995.924147,888.247130,7994.224174
1500.541009,919.314598,-0.000000,8290.306550
1500.541326,229.828649,-666.185348,9252.574275
1500.541644,0.000000,-1036.288319,9844.739029
1500.541961,-306.438199,-518.144159,10288.862594
1500.542279,0.000000,-148.041188,10140.821405
1500.542596,-306.438199,-0.000000,10066.800811
1500.542913,0.000000,740.205942,9770.718434
1500.543231,76.609550,1036.288319,9178.553681
1500.543548,612.876398,1258.350101,9252.574275
1500.543865,459.657299,740.205942,9474.636058
1500.544183,689.485948,592.164754,9918.759623
1500.544500,1455.581446,666.185348,9770.718434
1500.544817,1378.971896,666.185348,9770.718434
1500.545135,1762.019645,814.226536,9696.697840
1500.545452,2068.457845,962.267725,9178.553681
1500.545769,2374.896044,1258.350101,8364.327145
1500.546087,2374.896044,1184.329507,8290.306550
1500.546404,2374.896044,592.164754,8142.265362
1500.546721,2145.067394,-74.020594,8364.327145
1500.547039,2068.457845,-518.144159,8586.388927
1500.547356,1302.362347,-1110.308913,9252.574275
1500.547674,766.095498,-888.247130,9548.656652
1500.547991,536.266849,-592.164754,9844.739029
1500.548308,229.828649,-148.041188,9992.780217
1500.548626,306.438199,-74.020594,10066.800811
1500.548943,76.609550,296.082377,9548.656652
1500.549260,76.609550,-0.000000,9622.677246
1500.549578,459.657299,-370.102971,9844.739029
1500.549895,383.047749,-666.185348,10140.821405
1500.550212,612.876398,-1036.288319,10362.883188
1500.550530,536.266849,-962.267725,10732.986159
1500.550847,1378.971896,-222.061783,10362.883188
1500.551164,1608.800546,370.102971,9622.677246
1500.551482,1685.410096,888.247130,9178.553681
1500.551799,1838.629195,1406.391290,8438.347739
1500.552116,1991.848295,1332.370696,7846.182985
1500.552434,1915.238745,666.185348,7846.182985
1500.552751,1532.190996,-296.082377,8438.347739
1500.553068,1072.533697,-1110.308913,9326.594869
1500.553385,689.485948,-1480.411884,9770.718434
1500.553703,229.828649,-1406.391290,10214.842000
1500.554020,-306.438199,-1184.329507,10807.006753
1500.554337,-383.047749,-592.164754,10362.883188
1500.554655,0.000000,-296.082377,9844.739029
1500.554972,-153.219100,444.123565,9474.636058
1500.555289,153.219100,518.144159,9178.553681
1500.555606,459.657299,666.185348,9252.574275
1500.555924,306.438199,592.164754,9474.636058
1500.556241,229.828649,296.082377,9622.677246
1500.556558,383.047749,-0.000000,9844.739029
1500.556876,76.609550,-0.000000,9770.718434
1500.557193,459.657299,592.164754,9252.574275
1500.557510,612.876398,814.226536,8734.430116
1500.557828,689.485948,666.185348,8216.285956
1500.558145,1149.143247,148.041188,8068.244768
1500.558462,995.924147,-0.000000,8438.347739
1500.558779,459.657299,-592.164754,8512.368333
1500.559097,459.657299,-888.247130,9030.512492
1500.559414,229.828649,-666.185348,9548.656652
1500.559731,0.000000,-74.020594,9696.697840
1500.560049,-229.828649,296.082377,10066.800811
1500.560366,-229.828649,962.267725,9474.636058
1500.560683,306.438199,1110.308913,9474.636058
1500.561000,612.876398,1110.308913,9326.594869
1500.561318,1149.143247,814.226536,9030.512492
1500.561635,1302.362347,444.123565,9252.574275
1500.561952,1532.190996,-0.000000,9474.636058
1500.562270,1762.019645,222.061783,9622.677246
1500.562587,1532.190996,370.102971,9696.697840
1500.562904,1838.629195,888.247130,9400.615463
1500.563221,1608.800546,1258.350101,9030.512492
1500.563539,1455.581446,1332.370696,8808.450710
1500.563856,766.095498,1258.350101,8808.450710
1500.564173,1149.143247,592.164754,8734.430116
1500.564491,1072.533697,-0.000000,8882.471304
1500.564808,536.266849,-370.102971,9548.656652
1500.565125,306.438199,-666.185348,10362.883188
1500.565442,229.828649,-666.185348,10584.944971
1500.565760,76.609550,-222.061783,10881.027347
1500.566077,306.438199,518.144159,10362.883188
1500.566394,153.219100,962.267725,9918.759623
1500.566712,689.485948,1406.391290,9400.615463
1500.567029,842.705048,1332.370696,9400.615463
1500.567346,995.924147,740.205942,9326.594869
1500.567663,1072.533697,370.102971,9696.697840
1500.567981,919.314598,-0.000000,9918.759623
1500.568298,1302.362347,-0.000000,10066.800811
1500.568615,536.266849,-0.000000,10066.800811
1500.568933,919.314598,740.205942,9622.677246
1500.569250,536.266849,518.144159,9326.594869
1500.569567,612.876398,666.185348,8956.491898
1500.569884,1072.533697,592.164754,9178.553681
1500.570202,842.705048,222.061783,9030.512492
1500.570519,536.266849,-296.082377,9104.533087
1500.570836,459.657299,-518.144159,9326.594869
1500.571154,229.828649,-592.164754,9548.656652
1500.571471,76.609550,-296.082377,9622.677246
1500.571788,306.438199,-0.000000,9474.636058
1500.572105,306.438199,592.164754,9326.594869
1500.572423,229.828649,370.102971,9400.615463
1500.572740,-306.438199,-0.000000,9696.697840
1500.573057,229.828649,-0.000000,9474.636058
1500.573375,306.438199,-296.082377,9474.636058
1500.573692,306.438199,-370.102971,9474.636058
1500.574009,842.705048,-296.082377,9696.697840
1500.574327,1072.533697,-74.020594,9844.739029
1500.574644,1762.019645,740.205942,9474.636058
1500.574961,1762.019645,962.267725,8882.471304
1500.575278,1991.848295,1036.288319,8142.265362
1500.575596,2528.115143,1184.329507,7920.203579
1500.575913,2221.676944,518.144159,8364.327145
1500.576230,2298.286494,222.061783,8364.327145
1500.576548,1915.238745,-518.144159,8734.430116
1500.576865,2145.067394,-888.247130,9474.636058
1500.577182,1302.362347,-1036.288319,9622.677246
1500.577499,1302.362347,-666.185348,9770.718434
1500.577817,1225.752797,-0.000000,9474.636058
1500.578134,919.314598,370.102971,9400.615463
1500.578451,766.095498,518.144159,9326.594869
1500.578769,536.266849,592.164754,9400.615463
1500.579086,306.438199,222.061783,9474.636058
1500.579403,536.266849,370.102971,9992.780217
1500.579720,306.438199,-0.000000,9992.780217
1500.580038,306.438199,-0.000000,10436.903782
1500.580355,536.266849,-0.000000,10288.862594
1500.580672,459.657299,592.164754,9992.780217
1500.580990,536.266849,814.226536,9178.553681
1500.581307,766.095498,814.226536,9104.533087
1500.581624,766.095498,592.164754,8882.471304
1500.581941,1225.752797,-0.000000,8882.471304
1500.582259,383.047749,-148.041188,8882.471304
1500.582576,459.657299,-296.082377,9178.553681
1500.582893,-229.828649,-148.041188,9400.615463
1500.583211,-229.828649,-0.000000,9696.697840
1500.583528,-1225.752797,518.144159,9548.656652
1500.583845,-919.314598,888.247130,9474.636058
1500.584162,-1302.362347,888.247130,9252.574275
1500.584480,-1225.752797,740.205942,9474.636058
1500.584797,-766.095498,-0.000000,9696.697840
1500.585114,-383.047749,-444.123565,10436.903782
1500.585432,-995.924147,-444.123565,9918.759623
1500.585749,-612.876398,-296.082377,10436.903782
1500.586066,0.000000,296.082377,10140.821405
1500.586383,612.876398,962.267725,10066.800811
1500.586701,766.095498,1554.432478,9770.718434
1500.587018,1532.190996,1924.535449,9104.533087
1500.587335,1532.190996,2146.597232,8290.306550
1500.587653,1838.629195,1480.411884,8142.265362
1500.587970,2451.505594,1036.288319,8216.285956
1500.588287,2298.286494,74.020594,8586.388927
1500.588605,1685.410096,-296.082377,9252.574275
1500.588922,1991.848295,-740.205942,9696.697840
1500.589239,1915.238745,-444.123565,9844.739029
1500.589556,1685.410096,-296.082377,9696.697840
1500.589874,1685.410096,370.102971,9474.636058
1500.590191,1378.971896,814.226536,9400.615463
1500.590508,1302.362347,666.185348,9326.594869
1500.590826,1838.629195,518.144159,9474.636058
1500.591143,1532.190996,148.041188,9548.656652
1500.591460,1378.971896,296.082377,9992.780217
1500.591777,1991.848295,592.164754,10436.903782
1500.592095,1532.190996,740.205942,10214.842000
1500.592412,1532.190996,518.144159,10066.800811
1500.592729,1685.410096,666.185348,9696.697840
1500.593047,1915.238745,962.267725,9030.512492
1500.593364,2068.457845,962.267725,8808.450710
1500.593681,1915.238745,444.123565,8734.430116
1500.593998,1225.752797,-0.000000,8882.471304
1500.594316,995.924147,-74.020594,9326.594869
1500.594633,459.657299,-444.123565,9400.615463
1500.594950,76.609550,-0.000000,9474.636058
1500.595268,-153.219100,370.102971,9474.636058
1500.595585,-919.314598,444.123565,9474.636058
1500.595902,-919.314598,296.082377,9252.574275
1500.596219,-1149.143247,-0.000000,9622.677246
1500.596537,-1378.971896,-370.102971,9992.780217
1500.596854,-1225.752797,-666.185348,10066.800811
1500.597171,-1302.362347,-888.247130,10140.821405
1500.597489,-919.314598,-1110.308913,10510.924376
1500.597806,-459.657299,-370.102971,10436.903782
1500.598123,0.000000,-74.020594,10066.800811
1500.598440,0.000000,888.247130,9326.594869
1500.598758,689.485948,1480.411884,8586.388927
1500.599075,1302.362347,1480.411884,8068.244768
1500.599392,1302.362347,1036.288319,7476.080014
1500.599710,1225.752797,444.123565,7994.224174
1500.600027,1378.971896,-296.082377,8290.306550
1500.600344,1302.362347,-888.247130,8882.471304
1500.600661,995.924147,-1332.370696,9400.615463
1500.600979,766.095498,-888.247130,9918.759623
1500.601296,919.314598,-444.123565,9474.636058
1500.601613,842.705048,-444.123565,9474.636058
1500.601931,842.705048,-74.020594,9400.615463
1500.602248,536.266849,370.102971,9252.574275
1500.602565,766.095498,370.102971,9326.594869
1500.602882,1072.533697,370.102971,9474.636058
1500.603200,1302.362347,-74.020594,9770.718434
1500.603517,1302.362347,-0.000000,10140.821405
1500.603834,1608.800546,370.102971,9770.718434
1500.604152,2145.067394,592.164754,9622.677246
1500.604469,2604.724693,296.082377,9030.512492
1500.604786,2757.943793,666.185348,8586.388927
1500.605104,2451.505594,370.102971,8290.306550
1500.605421,2681.334243,-0.000000,8364.327145
1500.605738,2528.115143,-0.000000,8364.327145
1500.606055,2298.286494,-0.000000,8586.388927
1500.606373,1838.629195,-148.041188,8586.388927
1500.606690,995.924147,-74.020594,9104.533087
1500.607007,536.266849,-0.000000,9474.636058
1500.607325,0.000000,-0.000000,9918.759623
1500.607642,-153.219100,296.082377,9918.759623
1500.607959,-842.705048,222.061783,10140.821405
1500.608276,-842.705048,222.061783,10066.800811
1500.608594,-612.876398,-222.061783,10436.903782
1500.608911,-612.876398,-370.102971,10658.965565
1500.609228,-383.047749,-222.061783,10807.006753
1500.609546,0.000000,-0.000000,10510.924376
1500.609863,76.609550,888.247130,9992.780217
1500.610180,689.485948,1776.494261,9548.656652
1500.610497,689.485948,1702.473667,9104.533087
1500.610815,766.095498,1776.494261,8438.347739
1500.611132,1225.752797,1406.391290,8142.265362
1500.611449,1072.533697,592.164754,8438.347739
1500.611767,1149.143247,-0.000000,8956.491898
1500.612084,842.705048,-222.061783,9622.677246
1500.612401,229.828649,-888.247130,9992.780217
1500.612718,0.000000,-518.144159,10140.821405
1500.613036,-306.438199,-74.020594,10066.800811
1500.613353,0.000000,370.102971,9770.718434
1500.613670,-306.438199,592.164754,9474.636058
1500.613988,-229.828649,592.164754,9474.636058
1500.614305,76.609550,518.144159,9474.636058
1500.614622,153.219100,296.082377,10066.800811
1500.614939,536.266849,222.061783,9992.780217
1500.615257,1378.971896,296.082377,9992.780217
1500.615574,1149.143247,888.247130,9696.697840
1500.615891,1608.800546,962.267725,9474.636058
1500.616209,1608.800546,1184.329507,8956.491898
1500.616526,2068.457845,1110.308913,8660.409521
1500.616843,1915.238745,888.247130,8512.368333
1500.617160,2451.505594,370.102971,8290.306550
1500.617478,2221.676944,-0.000000,8216.285956
1500.617795,2068.457845,-370.102971,8734.430116
1500.618112,1685.410096,-518.144159,9178.553681
1500.618430,1762.019645,-592.164754,9400.615463
1500.618747,1378.971896,-0.000000,9474.636058
1500.619064,995.924147,592.164754,9474.636058
1500.619381,612.876398,888.247130,9326.594869
1500.619699,612.876398,666.185348,9326.594869
1500.620016,612.876398,-0.000000,9030.512492
1500.620333,459.657299,-296.082377,9622.677246
1500.620651,306.438199,-592.164754,9992.780217
1500.620968,536.266849,-518.144159,10288.862594
1500.621285,919.314598,-370.102971,10362.883188
1500.621603,995.924147,222.061783,10140.821405
1500.621920,1378.971896,814.226536,9400.615463
1500.622237,1685.410096,1110.308913,8660.409521
1500.622554,1532.190996,1406.391290,8142.265362
1500.622872,1915.238745,1110.308913,8142.265362
1500.623189,1685.410096,-0.000000,8438.347739
1500.623506,766.095498,-518.144159,9178.553681
1500.623824,459.657299,-1110.308913,9548.656652
1500.624141,229.828649,-1258.350101,10140.821405
1500.624458,-229.828649,-814.226536,10436.903782
1500.624775,76.609550,-592.164754,10214.842000
1500.625093,0.000000,-74.020594,9992.780217
1500.625410,0.000000,-0.000000,9622.677246
1500.625727,0.000000,518.144159,9030.512492
1500.626045,229.828649,296.082377,9178.553681
1500.626362,0.000000,370.102971,9400.615463
1500.626679,0.000000,148.041188,9400.615463
1500.626996,153.219100,-0.000000,9770.718434
1500.627314,0.000000,-0.000000,9844.739029
1500.627631,-383.047749,222.061783,9770.718434
1500.627948,153.219100,592.164754,9474.636058
1500.628266,229.828649,740.205942,8882.471304
1500.628583,612.876398,370.102971,8512.368333
1500.628900,919.314598,-222.061783,8512.368333
1500.629217,459.657299,-444.123565,8512.368333
1500.629535,229.828649,-518.144159,9178.553681
1500.629852,306.438199,-740.205942,9178.553681
1500.630169,0.000000,-666.185348,9548.656652
1500.630487,-383.047749,-74.020594,9770.718434
1500.630804,0.000000,148.041188,9696.697840
1500.631121,0.000000,518.144159,9400.615463
1500.631438,229.828649,518.144159,9326.594869
1500.631756,306.438199,592.164754,9474.636058
1500.632073,1149.143247,-0.000000,9326.594869
1500.632390,995.924147,-222.061783,9474.636058
1500.632708,1455.581446,-296.082377,9844.739029
1500.633025,1762.019645,-0.000000,9844.739029
1500.633342,1915.238745,444.123565,9844.739029
1500.633659,1991.848295,740.205942,9474.636058
1500.633977,2145.067394,1406.391290,9030.512492
1500.634294,2145.067394,1258.350101,8734.430116
1500.634611,2145.067394,962.267725,8808.450710
1500.634929,1685.410096,370.102971,8808.450710
1500.635246,1685.410096,-296.082377,9252.574275
1500.635563,1455.581446,-666.185348,9696.697840
1500.635880,1532.190996,-444.123565,9770.718434
1500.636198,995.924147,-444.123565,9992.780217
1500.636515,995.924147,-0.000000,10214.842000
1500.636832,689.485948,296.082377,10288.862594
1500.637150,459.657299,962.267725,9770.718434
1500.637467,689.485948,962.267725,9252.574275
1500.637784,612.876398,814.226536,9474.636058
1500.638102,689.485948,-0.000000,9918.759623
1500.638419,689.485948,-0.000000,9548.656652
1500.638736,612.876398,222.061783,9918.759623
1500.639053,766.095498,518.144159,9548.656652
1500.639371,689.485948,962.267725,9474.636058
1500.639688,612.876398,1184.329507,8882.471304
1500.640005,612.876398,1406.391290,8808.450710
1500.640323,383.047749,1036.288319,8438.347739
1500.640640,153.219100,296.082377,8734.430116
1500.640957,76.609550,-222.061783,9104.533087
1500.641274,-153.219100,-592.164754,9326.594869
1500.641592,-459.657299,-740.205942,9474.636058
1500.641909,-689.485948,-444.123565,9622.677246
1500.642226,-766.095498,-0.000000,9474.636058
1500.642544,-919.314598,-0.000000,9918.759623
1500.642861,-842.705048,444.123565,9400.615463
1500.643178,-383.047749,444.123565,9326.594869
1500.643495,-612.876398,-0.000000,9474.636058
1500.643813,-383.047749,222.061783,9622.677246
1500.644130,842.705048,-148.041188,9326.594869
1500.644447,306.438199,-74.020594,9844.739029
1500.644765,536.266849,-0.000000,9992.780217
1500.645082,842.705048,-0.000000,9474.636058
1500.645399,1378.971896,296.082377,9400.615463
1500.645716,1685.410096,740.205942,9104.533087
1500.646034,2221.676944,1036.288319,8660.409521
1500.646351,1762.019645,1036.288319,8438.347739
1500.646668,1608.800546,592.164754,8734.430116
1500.646986,1838.629195,-148.041188,8956.491898
1500.647303,1608.800546,-814.226536,9474.636058
1500.647620,1378.971896,-666.185348,10066.800811
1500.647937,1378.971896,-518.144159,10066.800811
1500.648255,1302.362347,-222.061783,9918.759623
1500.648572,1838.629195,-296.082377,9696.697840
1500.648889,1532.190996,222.061783,9622.677246
1500.649207,1225.752797,740.205942,9178.553681
1500.649524,1302.362347,592.164754,9252.574275
1500.649841,1455.581446,-0.000000,9548.656652
1500.650160,1225.752797,-74.020594,10066.800811
1500.650477,1378.971896,-0.000000,10436.903782
1500.650794,1149.143247,370.102971,9844.739029
1500.651112,1532.190996,666.185348,9770.718434
1500.651429,1762.019645,962.267725,9030.512492
1500.651746,1838.629195,1184.329507,8438.347739
1500.652064,2221.676944,1110.308913,8364.327145
1500.652381,1455.581446,666.185348,8512.368333
1500.652698,1302.362347,-0.000000,8734.430116
1500.653015,919.314598,-296.082377,9104.533087
1500.653333,536.266849,-518.144159,9400.615463
1500.653650,0.000000,-518.144159,9474.636058
1500.653967,0.000000,-74.020594,9770.718434
1500.654284,-536.266849,296.082377,9622.677246
1500.654602,-689.485948,518.144159,9326.594869
1500.654919,-766.095498,296.082377,9326.594869
1500.655236,-612.876398,296.082377,8808.450710
1500.655554,-1149.143247,296.082377,9622.677246
1500.655871,-995.924147,-74.020594,9474.636058
1500.656188,-612.876398,-370.102971,9992.780217
1500.656505,-689.485948,-592.164754,10510.924376
1500.656823,0.000000,-296.082377,10066.800811
1500.657140,0.000000,592.164754,9622.677246
1500.657457,459.657299,1110.308913,9178.553681
1500.657775,1072.533697,1184.329507,8660.409521
1500.658092,1149.143247,962.267725,8364.327145
1500.658409,1455.581446,1184.329507,8512.368333
1500.658726,1685.410096,-0.000000,8512.368333
1500.659044,1225.752797,-370.102971,9104.533087
1500.659361,1532.190996,-370.102971,9696.697840
1500.659678,1225.752797,-592.164754,10288.862594
1500.659996,1072.533697,222.061783,10066.800811
1500.660313,919.314598,666.185348,9622.677246
1500.660630,766.095498,888.247130,9474.636058
1500.660947,1455.581446,888.247130,9400.615463
1500.661265,1302.362347,370.102971,9326.594869
1500.661582,1378.971896,296.082377,9548.656652
1500.661899,1149.143247,-0.000000,9992.780217
1500.662216,1302.362347,-0.000000,10436.903782
1500.662534,1302.362347,370.102971,10214.842000
1500.662851,1378.971896,666.185348,9622.677246
1500.663168,1455.581446,1110.308913,9252.574275
1500.663486,1915.238745,1480.411884,8586.388927
1500.663803,1915.238745,1036.288319,8364.327145
1500.664120,1762.019645,666.185348,8438.347739
1500.664437,1608.800546,148.041188,8586.388927
1500.664755,1532.190996,-74.020594,8586.388927
1500.665072,612.876398,-518.144159,9178.553681
1500.665389,229.828649,-222.061783,9548.656652
1500.665707,153.219100,592.164754,9696.697840
1500.666024,-306.438199,814.226536,9474.636058
1500.666341,-459.657299,962.267725,9326.594869
1500.666658,-689.485948,666.185348,9474.636058
1500.666976,-766.095498,222.061783,9400.615463
1500.667293,-612.876398,-0.000000,9696.697840
1500.667610,-229.828649,-0.000000,9548.656652
1500.667928,-766.095498,-444.123565,9918.759623
1500.668245,0.000000,-0.000000,10288.862594
1500.668562,76.609550,222.061783,9992.780217
1500.668879,229.828649,814.226536,9918.759623
1500.669197,766.095498,1406.391290,9178.553681
1500.669514,536.266849,1480.411884,8512.368333
1500.669831,1149.143247,888.247130,8364.327145
1500.670148,1302.362347,148.041188,8512.368333
1500.670466,1149.143247,-814.226536,8512.368333
1500.670783,1072.533697,-814.226536,9474.636058
1500.671100,919.314598,-740.205942,9622.677246
1500.671418,919.314598,-962.267725,9992.780217
1500.671735,919.314598,-666.185348,9844.739029
1500.672052,766.095498,-74.020594,9770.718434
1500.672369,842.705048,296.082377,9474.636058
1500.672687,842.705048,592.164754,9326.594869
1500.673004,995.924147,666.185348,9178.553681
1500.673321,1378.971896,-0.000000,9918.759623
1500.673639,1378.971896,-296.082377,10066.800811
1500.673956,1532.190996,-444.123565,9918.759623
1500.674273,1455.581446,-0.000000,10140.821405
1500.674590,1762.019645,444.123565,9844.739029
1500.674908,1072.533697,814.226536,9548.656652
1500.675225,1838.629195,1036.288319,8956.491898
1500.675542,1915.238745,888.247130,8512.368333
1500.675860,1838.629195,148.041188,8290.306550
1500.676177,1762.019645,-222.061783,8660.409521
1500.676494,1378.971896,-444.123565,8808.450710
1500.676811,842.705048,-1036.288319,9030.512492
1500.677129,536.266849,-740.205942,9400.615463
1500.677446,229.828649,-518.144159,9548.656652
1500.677763,-383.047749,-222.061783,9696.697840
1500.678080,0.000000,148.041188,9474.636058
1500.678398,0.000000,222.061783,9030.512492
1500.678715,-536.266849,-0.000000,9326.594869
1500.679032,-229.828649,-0.000000,9474.636058
1500.679350,0.000000,-740.205942,9992.780217
1500.679667,-76.609550,-222.061783,10066.800811
1500.679984,306.438199,-296.082377,10140.821405
1500.680301,306.438199,370.102971,9844.739029
1500.680619,995.924147,814.226536,9696.697840
1500.680936,1225.752797,1406.391290,9104.533087
1500.681253,1532.190996,1702.473667,8512.368333
1500.681571,1455.581446,1628.453072,8290.306550
1500.681888,1608.800546,1110.308913,7994.224174
1500.682205,1455.581446,-0.000000,8364.327145
1500.682522,1225.752797,-444.123565,9400.615463
1500.682840,536.266849,-814.226536,9770.718434
1500.683157,306.438199,-592.164754,10066.800811
1500.683474,536.266849,-74.020594,10362.883188
1500.683792,689.485948,-0.000000,9992.780217
1500.684109,306.438199,370.102971,9770.718434
1500.684426,0.000000,444.123565,9770.718434
1500.684743,383.047749,666.185348,9178.553681
1500.685061,459.657299,518.144159,9622.677246
1500.685378,612.876398,-0.000000,9992.780217
1500.685695,919.314598,-0.000000,10362.883188
1500.686012,842.705048,-0.000000,10362.883188
1500.686330,1149.143247,222.061783,10436.903782
1500.686647,1225.752797,888.247130,9474.636058
1500.686964,1532.190996,962.267725,8956.491898
1500.687282,1838.629195,1702.473667,8142.265362
1500.687599,1838.629195,1110.308913,8364.327145
1500.687916,1608.800546,370.102971,8364.327145
1500.688233,1149.143247,-444.123565,8882.471304
1500.688551,995.924147,-222.061783,9326.594869
1500.688868,689.485948,-74.020594,9770.718434
1500.689185,306.438199,222.061783,9992.780217
1500.689503,0.000000,592.164754,9548.656652
1500.689820,383.047749,666.185348,9696.697840
1500.690137,-153.219100,666.185348,9696.697840
1500.690454,76.609550,740.205942,9474.636058
1500.690772,0.000000,592.164754,9474.636058
1500.691089,0.000000,222.061783,9696.697840
1500.691406,229.828649,-74.020594,10288.862594
1500.691724,229.828649,-0.000000,10510.924376
1500.692041,536.266849,296.082377,10510.924376
1500.692358,1072.533697,666.185348,10214.842000
1500.692675,1532.190996,1406.391290,9622.677246
1500.692993,1532.190996,1998.556043,8956.491898
1500.693310,1838.629195,1480.411884,8512.368333
1500.693627,1915.238745,1480.411884,8142.265362
1500.693945,1532.190996,370.102971,8586.388927
1500.694262,1225.752797,-444.123565,9178.553681
1500.694579,766.095498,-814.226536,9992.780217
1500.694896,536.266849,-1036.288319,10362.883188
1500.695214,306.438199,-740.205942,10288.862594
1500.695531,76.609550,-74.020594,10214.842000
1500.695848,229.828649,-0.000000,9844.739029
1500.696165,536.266849,148.041188,9622.677246
1500.696483,383.047749,444.123565,9326.594869
1500.696800,383.047749,148.041188,8956.491898
1500.697117,689.485948,-0.000000,9548.656652
1500.697435,536.266849,-148.041188,9770.718434
1500.697752,459.657299,-74.020594,9844.739029
1500.698069,689.485948,370.102971,9770.718434
1500.698386,766.095498,370.102971,9326.594869
1500.698704,1149.143247,666.185348,8734.430116
1500.699021,1532.190996,592.164754,8142.265362
1500.699338,1378.971896,370.102971,8216.285956
1500.699656,1302.362347,-222.061783,8216.285956
1500.699973,919.314598,-814.226536,8216.285956
1500.700290,536.266849,-1036.288319,8808.450710
1500.700607,459.657299,-1184.329507,9474.636058
1500.700925,229.828649,-444.123565,9252.574275
1500.701242,0.000000,-0.000000,9252.574275
1500.701559,-229.828649,-0.000000,9474.636058
1500.701877,-383.047749,148.041188,9400.615463
1500.702194,-459.657299,-0.000000,9548.656652
1500.702511,0.000000,-148.041188,9474.636058
1500.702828,536.266849,-370.102971,9178.553681
1500.703146,383.047749,-370.102971,9474.636058
1500.703463,842.705048,-518.144159,9696.697840
1500.703780,842.705048,-222.061783,9992.780217
1500.704097,1225.752797,222.061783,9548.656652
1500.704415,1608.800546,740.205942,9252.574275
1500.704732,1455.581446,1110.308913,8512.368333
1500.705049,1838.629195,740.205942,8438.347739
1500.705367,1762.019645,296.082377,8438.347739
1500.705684,1225.752797,-148.041188,8734.430116
1500.706001,1225.752797,-444.123565,9178.553681
1500.706318,919.314598,-592.164754,9844.739029
1500.706636,842.705048,-518.144159,10436.903782
1500.706953,612.876398,-444.123565,10510.924376
1500.707270,459.657299,-148.041188,10510.924376
1500.707588,459.657299,370.102971,10214.842000
1500.707905,536.266849,666.185348,9696.697840
1500.708222,766.095498,888.247130,9696.697840
1500.708539,1225.752797,814.226536,9696.697840
1500.708857,1072.533697,666.185348,9622.677246
1500.709174,919.314598,666.185348,9918.759623
1500.709491,1072.533697,592.164754,9918.759623
1500.709809,1608.800546,592.164754,9622.677246
1500.710126,1378.971896,1258.350101,9474.636058
1500.710443,1225.752797,1406.391290,9326.594869
