#time,accel_x,accel_y,accel_z
1276.085155,3064.381992,4515.256246,9844.739029
1276.085474,2757.943793,3108.864956,11029.068536
1276.085792,2374.896044,2072.576638,11991.336260
1276.086111,1455.581446,592.164754,12879.583391
1276.086429,689.485948,-0.000000,13175.665768
1276.086748,-153.219100,-148.041188,13397.727550
1276.087067,-919.314598,-0.000000,12805.562797
1276.087385,-1149.143247,666.185348,11769.274478
1276.087704,-995.924147,740.205942,10584.944971
1276.088022,-1072.533697,888.247130,9622.677246
1276.088341,-766.095498,-0.000000,9326.594869
1276.088660,-842.705048,-592.164754,9400.615463
1276.088978,-1225.752797,-1554.432478,9400.615463
1276.089297,-2068.457845,-2442.679609,9770.718434
1276.089615,-2298.286494,-2146.597232,9918.759623
1276.089934,-2298.286494,-1480.411884,9474.636058
1276.090253,-2451.505594,-888.247130,9696.697840
1276.090571,-2298.286494,-740.205942,10658.965565
1276.090890,-1608.800546,-888.247130,9400.615463
1276.091208,-2068.457845,-0.000000,8512.368333
1276.091527,-1915.238745,-0.000000,8364.327145
1276.091846,-2298.286494,-0.000000,7031.956449
1276.092164,-1915.238745,-1480.411884,7254.018232
1276.092483,-1378.971896,-1184.329507,7105.977043
1276.092801,-1072.533697,-592.164754,6143.709319
1276.093120,0.000000,-0.000000,5329.482782
1276.093439,536.266849,1036.288319,5477.523971
1276.093757,689.485948,444.123565,5995.668130
1276.094076,153.219100,148.041188,5847.626942
1276.094394,76.609550,-0.000000,6291.750507
1276.094713,-153.219100,-0.000000,6735.874072
1276.095031,-229.828649,370.102971,6587.832884
1276.095350,-612.876398,814.226536,6809.894666
1276.095669,-842.705048,814.226536,6957.935855
1276.095987,-1762.019645,444.123565,6957.935855
1276.096306,-1608.800546,888.247130,7031.956449
1276.096624,-1762.019645,1628.453072,6957.935855
1276.096943,-1608.800546,2072.576638,7179.997637
1276.097262,-1685.410096,2072.576638,7550.100608
1276.097580,-2451.505594,1850.514855,8512.368333
1276.097899,-2451.505594,1110.308913,8956.491898
1276.098217,-2987.772442,1110.308913,8882.471304
1276.098536,-2911.162892,1406.391290,9474.636058
1276.098855,-3140.991542,1776.494261,9548.656652
1276.099173,-3370.820191,2368.659014,9622.677246
1276.099492,-3600.648841,2072.576638,10214.842000
1276.099810,-3753.867940,1628.453072,10881.027347
1276.100129,-3753.867940,2368.659014,11251.130318
1276.100448,-3370.820191,2664.741391,11473.192101
1276.100766,-2987.772442,2960.823768,11769.274478
1276.101085,-3140.991542,2738.761985,12065.356855
1276.101403,-1915.238745,3182.885551,11917.315666
1276.101722,-459.657299,3404.947333,11621.233289
1276.102041,76.609550,3552.988522,11251.130318
1276.102359,1378.971896,3923.091493,11029.068536
1276.102678,2298.286494,3997.112087,10584.944971
1276.102996,2757.943793,4219.173869,10066.800811
1276.103315,2834.553343,4589.276840,9992.780217
1276.103633,3217.601092,4811.338623,9696.697840
1276.103952,3217.601092,4737.318029,9696.697840
1276.104271,3217.601092,4219.173869,10288.862594
1276.104589,2451.505594,3627.009116,10732.986159
1276.104908,1838.629195,2812.782580,10732.986159
1276.105226,919.314598,2294.638420,11325.150913
1276.105545,842.705048,1924.535449,11399.171507
1276.105864,536.266849,1332.370696,11177.109724
1276.106182,153.219100,1406.391290,11103.089130
1276.106501,76.609550,1258.350101,10732.986159
1276.106819,0.000000,1554.432478,10140.821405
1276.107138,689.485948,1776.494261,9548.656652
1276.107457,306.438199,1850.514855,9326.594869
1276.107775,459.657299,2072.576638,9104.533087
1276.108094,306.438199,1702.473667,8364.327145
1276.108412,76.609550,1332.370696,8216.285956
1276.108731,306.438199,962.267725,7846.182985
1276.109050,0.000000,666.185348,7846.182985
1276.109368,0.000000,370.102971,7846.182985
1276.109687,-689.485948,-0.000000,8216.285956
1276.110005,-766.095498,-370.102971,8438.347739
1276.110324,-1072.533697,-222.061783,8586.388927
1276.110643,-1455.581446,-74.020594,9030.512492
1276.110961,-1225.752797,-0.000000,9030.512492
1276.111280,-1302.362347,222.061783,8882.471304
1276.111598,-842.705048,-74.020594,9104.533087
1276.111917,-459.657299,-0.000000,8512.368333
1276.112235,153.219100,-74.020594,7772.162391
1276.112554,612.876398,-0.000000,7624.121203
1276.112873,1532.190996,222.061783,7402.059420
1276.113191,2068.457845,222.061783,7031.956449
1276.113510,2221.676944,222.061783,7105.977043
1276.113828,2221.676944,-0.000000,7105.977043
1276.114147,1608.800546,-74.020594,7254.018232
1276.114466,1455.581446,-444.123565,7476.080014
1276.114784,612.876398,-370.102971,8216.285956
1276.115103,153.219100,-666.185348,8364.327145
1276.115421,-306.438199,-1406.391290,8956.491898
1276.115740,-919.314598,-1998.556043,9474.636058
1276.116059,-842.705048,-2294.638420,9770.718434
1276.116377,-689.485948,-2368.659014,9918.759623
1276.116696,-919.314598,-2072.576638,10066.800811
1276.117015,-766.095498,-1628.453072,9992.780217
1276.117333,-459.657299,-1332.370696,9696.697840
1276.117652,153.219100,-1036.288319,9844.739029
1276.117970,383.047749,-0.000000,9252.574275
1276.118289,766.095498,-0.000000,8660.409521
1276.118607,459.657299,148.041188,8660.409521
1276.118926,689.485948,444.123565,8586.388927
1276.119244,766.095498,-0.000000,8586.388927
1276.119563,0.000000,-0.000000,9030.512492
1276.119881,-536.266849,222.061783,9474.636058
1276.120200,-766.095498,222.061783,9548.656652
1276.120518,-919.314598,444.123565,9992.780217
1276.120837,-459.657299,370.102971,10362.883188
1276.121155,-919.314598,1406.391290,10584.944971
1276.121474,-766.095498,1554.432478,10436.903782
1276.121792,-306.438199,1850.514855,10362.883188
1276.122111,306.438199,2368.659014,9696.697840
1276.122429,995.924147,2368.659014,9548.656652
1276.122748,1455.581446,2590.720797,9326.594869
1276.123066,1991.848295,2738.761985,8956.491898
1276.123385,2221.676944,2664.741391,8882.471304
1276.123703,2451.505594,2960.823768,8734.430116
1276.124022,2068.457845,2812.782580,9178.553681
1276.124340,1762.019645,2368.659014,9178.553681
1276.124659,1302.362347,2442.679609,9548.656652
1276.124977,1072.533697,2072.576638,10066.800811
1276.125296,995.924147,2072.576638,10732.986159
1276.125615,229.828649,1924.535449,10436.903782
1276.125933,-306.438199,1702.473667,10732.986159
1276.126252,-383.047749,1258.350101,10732.986159
1276.126570,0.000000,1480.411884,10658.965565
1276.126889,-153.219100,1406.391290,10288.862594
1276.127207,459.657299,1628.453072,9696.697840
1276.127526,76.609550,1850.514855,9770.718434
1276.127844,306.438199,2146.597232,9474.636058
1276.128163,612.876398,1998.556043,9252.574275
1276.128481,306.438199,1998.556043,8956.491898
1276.128800,0.000000,1702.473667,8882.471304
1276.129118,-153.219100,1702.473667,9326.594869
1276.129437,-459.657299,1554.432478,9326.594869
1276.129755,-919.314598,1258.350101,9474.636058
1276.130074,-536.266849,1406.391290,9548.656652
1276.130392,-1532.190996,962.267725,9696.697840
1276.130711,-919.314598,1184.329507,9696.697840
1276.131029,-1225.752797,1110.308913,9548.656652
1276.131348,-1149.143247,888.247130,9400.615463
1276.131666,-459.657299,1110.308913,9400.615463
1276.131985,-153.219100,1332.370696,8956.491898
1276.132303,0.000000,1332.370696,8734.430116
1276.132622,76.609550,1332.370696,8290.306550
1276.132940,536.266849,1036.288319,7994.224174
1276.133259,919.314598,1184.329507,8068.244768
1276.133578,766.095498,814.226536,8068.244768
1276.133896,766.095498,518.144159,7994.224174
1276.134215,689.485948,444.123565,8438.347739
1276.134533,689.485948,-0.000000,8512.368333
1276.134852,536.266849,-296.082377,8882.471304
1276.135170,76.609550,-888.247130,9326.594869
1276.135489,229.828649,-1332.370696,9474.636058
1276.135807,536.266849,-1702.473667,9548.656652
1276.136126,536.266849,-1406.391290,9622.677246
1276.136444,153.219100,-1776.494261,9548.656652
1276.136763,842.705048,-1332.370696,9474.636058
1276.137081,1532.190996,-1110.308913,9400.615463
1276.137400,1225.752797,-1110.308913,8808.450710
1276.137718,1532.190996,-888.247130,8586.388927
1276.138037,1838.629195,-1184.329507,8512.368333
1276.138355,1455.581446,-1110.308913,8364.327145
1276.138674,1225.752797,-1258.350101,8660.409521
1276.138992,842.705048,-1406.391290,8586.388927
1276.139311,689.485948,-1184.329507,8956.491898
1276.139629,612.876398,-1110.308913,9474.636058
1276.139948,536.266849,-1110.308913,9474.636058
1276.140266,689.485948,-962.267725,9696.697840
1276.140585,383.047749,-1258.350101,9252.574275
1276.140903,612.876398,-666.185348,9474.636058
1276.141222,919.314598,-370.102971,9178.553681
1276.141541,1455.581446,-370.102971,8660.409521
1276.141859,1378.971896,-0.000000,8512.368333
1276.142178,1532.190996,-0.000000,8438.347739
1276.142496,1225.752797,-0.000000,8290.306550
1276.142815,1532.190996,222.061783,8290.306550
1276.143133,1225.752797,296.082377,8586.388927
1276.143452,842.705048,74.020594,8734.430116
1276.143770,842.705048,296.082377,8734.430116
1276.144089,306.438199,444.123565,9326.594869
1276.144407,229.828649,296.082377,9400.615463
1276.144726,0.000000,-0.000000,9696.697840
1276.145044,0.000000,-0.000000,9770.718434
1276.145363,0.000000,-0.000000,9918.759623
1276.145681,0.000000,-0.000000,9844.739029
1276.146000,0.000000,444.123565,9844.739029
1276.146318,383.047749,666.185348,9474.636058
1276.146637,306.438199,814.226536,9252.574275
1276.146955,459.657299,962.267725,9178.553681
1276.147274,383.047749,1184.329507,9104.533087
1276.147592,459.657299,1184.329507,9326.594869
1276.147911,306.438199,1036.288319,9474.636058
1276.148229,0.000000,592.164754,9474.636058
1276.148548,0.000000,518.144159,9918.759623
1276.148866,-229.828649,666.185348,10288.862594
1276.149185,-383.047749,740.205942,10584.944971
1276.149503,-306.438199,370.102971,11251.130318
1276.149822,-612.876398,666.185348,10732.986159
1276.150141,153.219100,1036.288319,10436.903782
1276.150459,153.219100,1406.391290,10214.842000
1276.150778,459.657299,1776.494261,9918.759623
1276.151096,919.314598,1628.453072,9474.636058
1276.151415,1149.143247,1850.514855,9400.615463
1276.151733,1225.752797,1702.473667,9104.533087
1276.152052,919.314598,1776.494261,8956.491898
1276.152370,995.924147,1628.453072,8956.491898
1276.152689,1149.143247,1850.514855,9104.533087
1276.153007,459.657299,1702.473667,9326.594869
1276.153326,689.485948,1258.350101,9326.594869
1276.153644,536.266849,1184.329507,9474.636058
1276.153963,229.828649,740.205942,9918.759623
1276.154281,0.000000,740.205942,9696.697840
1276.154600,0.000000,296.082377,9696.697840
1276.154918,306.438199,148.041188,9696.697840
1276.155237,459.657299,296.082377,9548.656652
1276.155555,766.095498,222.061783,9474.636058
1276.155874,306.438199,-0.000000,9030.512492
1276.156192,612.876398,-0.000000,8438.347739
1276.156511,689.485948,-0.000000,8512.368333
1276.156829,919.314598,-148.041188,8512.368333
1276.157148,459.657299,-296.082377,8512.368333
1276.157466,153.219100,-518.144159,8734.430116
1276.157785,0.000000,-666.185348,8956.491898
1276.158104,-306.438199,-1036.288319,9178.553681
1276.158422,-306.438199,-1554.432478,9252.574275
1276.158741,-383.047749,-1480.411884,9400.615463
1276.159059,0.000000,-1406.391290,9474.636058
1276.159378,0.000000,-1776.494261,9400.615463
1276.159696,306.438199,-1702.473667,9104.533087
1276.160015,766.095498,-1480.411884,9178.553681
1276.160333,1072.533697,-1258.350101,8364.327145
1276.160652,1455.581446,-1258.350101,8216.285956
1276.160970,1762.019645,-1184.329507,7994.224174
1276.161289,2298.286494,-1184.329507,7994.224174
1276.161607,1455.581446,-1332.370696,7920.203579
1276.161926,2145.067394,-1184.329507,8142.265362
1276.162244,1762.019645,-1406.391290,8216.285956
1276.162563,1838.629195,-1258.350101,8290.306550
1276.162881,1685.410096,-1702.473667,8808.450710
1276.163200,995.924147,-1110.308913,8882.471304
1276.163518,1149.143247,-1480.411884,8734.430116
1276.163837,1225.752797,-1258.350101,8956.491898
1276.164155,1072.533697,-1332.370696,9104.533087
1276.164474,995.924147,-1332.370696,8882.471304
1276.164792,995.924147,-740.205942,9030.512492
1276.165111,1455.581446,-592.164754,8586.388927
1276.165429,1302.362347,-148.041188,8364.327145
1276.165748,1149.143247,-0.000000,8438.347739
1276.166067,1532.190996,-0.000000,8512.368333
1276.166385,1072.533697,148.041188,8512.368333
1276.166704,1072.533697,-0.000000,8808.450710
1276.167022,766.095498,-0.000000,8956.491898
1276.167341,612.876398,-74.020594,9400.615463
1276.167659,229.828649,-0.000000,9918.759623
1276.167978,0.000000,-148.041188,10066.800811
1276.168296,229.828649,-0.000000,10362.883188
1276.168615,0.000000,-0.000000,10510.924376
1276.168933,-306.438199,296.082377,10510.924376
1276.169252,459.657299,666.185348,10214.842000
1276.169570,459.657299,888.247130,10140.821405
1276.169889,689.485948,962.267725,9992.780217
1276.170207,1225.752797,962.267725,9770.718434
1276.170526,995.924147,1036.288319,9622.677246
1276.170844,1378.971896,1036.288319,9696.697840
1276.171163,1072.533697,1036.288319,9770.718434
1276.171481,612.876398,1258.350101,9844.739029
1276.171800,995.924147,1036.288319,10436.903782
1276.172118,919.314598,1184.329507,10066.800811
1276.172437,536.266849,1184.329507,10362.883188
1276.172755,153.219100,962.267725,10288.862594
1276.173074,0.000000,1110.308913,10362.883188
1276.173392,-76.609550,1036.288319,10362.883188
1276.173711,0.000000,888.247130,9918.759623
1276.174029,153.219100,1036.288319,10140.821405
1276.174348,76.609550,962.267725,9696.697840
1276.174667,459.657299,1184.329507,9548.656652
1276.174985,689.485948,1480.411884,9178.553681
1276.175304,459.657299,1332.370696,9252.574275
1276.175622,995.924147,1554.432478,8734.430116
1276.175941,612.876398,1554.432478,8660.409521
1276.176259,689.485948,1332.370696,8734.430116
1276.176578,383.047749,1258.350101,8808.450710
1276.176896,612.876398,888.247130,8586.388927
1276.177215,306.438199,962.267725,8956.491898
1276.177533,0.000000,740.205942,8882.471304
1276.177852,229.828649,592.164754,8882.471304
1276.178170,76.609550,592.164754,8882.471304
1276.178489,612.876398,666.185348,8438.347739
1276.178807,689.485948,814.226536,8586.388927
1276.179126,842.705048,814.226536,8438.347739
1276.179444,536.266849,444.123565,8068.244768
1276.179763,1072.533697,518.144159,7920.203579
1276.180081,842.705048,222.061783,7920.203579
1276.180400,689.485948,-74.020594,7994.224174
1276.180718,459.657299,-222.061783,7994.224174
1276.181037,383.047749,-444.123565,8290.306550
1276.181355,0.000000,-666.185348,8734.430116
1276.181674,0.000000,-370.102971,8586.388927
1276.181992,-306.438199,-888.247130,9030.512492
1276.182311,-229.828649,-1036.288319,9326.594869
1276.182630,-536.266849,-1110.308913,9622.677246
1276.182948,-612.876398,-1258.350101,9696.697840
1276.183267,-536.266849,-1406.391290,9696.697840
1276.183585,-153.219100,-1110.308913,9918.759623
1276.183904,0.000000,-1406.391290,9844.739029
1276.184222,766.095498,-888.247130,9474.636058
1276.184541,689.485948,-666.185348,9400.615463
1276.184859,1225.752797,-518.144159,8808.450710
1276.185178,1225.752797,-518.144159,8734.430116
1276.185496,995.924147,-74.020594,9252.574275
1276.185815,1149.143247,-444.123565,9252.574275
1276.186133,1149.143247,-444.123565,9474.636058
1276.186452,919.314598,-592.164754,9770.718434
1276.186770,919.314598,-518.144159,10066.800811
1276.187089,1225.752797,-222.061783,10066.800811
1276.187407,995.924147,-370.102971,9992.780217
1276.187726,1532.190996,-0.000000,10140.821405
1276.188044,1608.800546,-0.000000,9696.697840
1276.188363,1685.410096,148.041188,9474.636058
1276.188681,1838.629195,888.247130,9474.636058
1276.189000,1991.848295,1110.308913,8956.491898
1276.189318,1915.238745,1258.350101,8882.471304
1276.189637,1532.190996,1406.391290,8808.450710
1276.189955,1685.410096,1036.288319,8956.491898
1276.190274,1149.143247,1332.370696,9104.533087
1276.190592,995.924147,1480.411884,9030.512492
1276.190911,536.266849,1332.370696,9474.636058
1276.191230,842.705048,1258.350101,9400.615463
1276.191548,229.828649,1332.370696,9622.677246
1276.191867,-383.047749,1554.432478,9474.636058
1276.192185,-383.047749,1628.453072,9548.656652
1276.192504,-536.266849,1554.432478,9474.636058
1276.192822,-689.485948,1776.494261,9622.677246
1276.193141,-536.266849,1776.494261,9474.636058
1276.193459,-536.266849,1924.535449,9326.594869
1276.193778,-536.266849,1850.514855,9178.553681
1276.194096,0.000000,1628.453072,9178.553681
1276.194415,-536.266849,1628.453072,8956.491898
1276.194733,-229.828649,1924.535449,9104.533087
1276.195052,-842.705048,1702.473667,9178.553681
1276.195370,-842.705048,1554.432478,9400.615463
1276.195689,-689.485948,1554.432478,9696.697840
1276.196007,-919.314598,1406.391290,9622.677246
1276.196326,-1072.533697,1628.453072,9844.739029
1276.196644,-612.876398,1480.411884,9918.759623
1276.196963,-612.876398,1406.391290,9992.780217
1276.197281,-842.705048,1110.308913,9770.718434
1276.197600,-306.438199,1702.473667,9696.697840
1276.197918,153.219100,1480.411884,9474.636058
1276.198237,689.485948,1554.432478,9030.512492
1276.198555,842.705048,1406.391290,8956.491898
1276.198874,766.095498,1110.308913,9030.512492
1276.199193,1149.143247,1110.308913,8882.471304
1276.199511,1149.143247,1110.308913,8734.430116
1276.199830,1072.533697,888.247130,8956.491898
1276.200148,766.095498,592.164754,9252.574275
1276.200467,612.876398,592.164754,9474.636058
1276.200785,612.876398,370.102971,9474.636058
1276.201104,229.828649,-0.000000,9696.697840
1276.201422,0.000000,-222.061783,9696.697840
1276.201741,383.047749,-370.102971,9770.718434
1276.202059,229.828649,-444.123565,9770.718434
1276.202378,536.266849,-370.102971,9474.636058
1276.202696,689.485948,-370.102971,9326.594869
1276.203015,919.314598,-74.020594,9104.533087
1276.203333,919.314598,-74.020594,9104.533087
1276.203652,612.876398,-148.041188,8882.471304
1276.203970,842.705048,-296.082377,8734.430116
1276.204289,766.095498,-222.061783,8882.471304
1276.204607,536.266849,-370.102971,8734.430116
1276.204926,1149.143247,-518.144159,9030.512492
1276.205244,383.047749,-518.144159,9104.533087
1276.205563,459.657299,-888.247130,9326.594869
1276.205881,306.438199,-666.185348,9548.656652
1276.206200,689.485948,-740.205942,9696.697840
1276.206518,306.438199,-666.185348,9474.636058
1276.206837,1072.533697,-370.102971,9252.574275
1276.207156,1225.752797,-148.041188,9104.533087
1276.207474,1149.143247,-148.041188,8882.471304
1276.207793,1608.800546,-0.000000,8586.388927
1276.208111,1378.971896,74.020594,8216.285956
1276.208430,1302.362347,-0.000000,8290.306550
1276.208748,1378.971896,370.102971,8216.285956
1276.209067,1072.533697,518.144159,8438.347739
1276.209385,842.705048,296.082377,8586.388927
1276.209704,229.828649,444.123565,8734.430116
1276.210022,766.095498,518.144159,8956.491898
1276.210341,0.000000,296.082377,9104.533087
1276.210659,0.000000,296.082377,9104.533087
1276.210978,383.047749,222.061783,9548.656652
1276.211296,-306.438199,740.205942,9474.636058
1276.211615,-536.266849,888.247130,9178.553681
1276.211933,-612.876398,888.247130,9030.512492
1276.212252,153.219100,1258.350101,8882.471304
1276.212570,76.609550,1480.411884,9252.574275
1276.212889,-153.219100,1850.514855,8660.409521
1276.213207,-153.219100,1776.494261,8734.430116
1276.213526,-306.438199,1850.514855,8882.471304
1276.213844,-229.828649,1628.453072,8956.491898
1276.214163,-536.266849,1702.473667,9104.533087
1276.214481,-689.485948,1554.432478,9400.615463
1276.214800,-919.314598,1554.432478,9548.656652
1276.215118,-842.705048,1332.370696,9770.718434
1276.215437,-995.924147,1554.432478,9992.780217
1276.215756,-536.266849,1702.473667,10066.800811
1276.216074,-536.266849,1628.453072,10066.800811
1276.216393,-459.657299,1924.535449,9844.739029
1276.216711,306.438199,1554.432478,9474.636058
1276.217030,459.657299,1702.473667,9548.656652
1276.217348,306.438199,1924.535449,9474.636058
1276.217667,689.485948,1480.411884,9622.677246
1276.217985,536.266849,1110.308913,9770.718434
1276.218304,689.485948,740.205942,9474.636058
1276.218623,919.314598,1036.288319,9696.697840
1276.218942,536.266849,1258.350101,9844.739029
1276.219261,766.095498,1110.308913,9844.739029
1276.219579,689.485948,962.267725,10066.800811
1276.219898,459.657299,518.144159,10584.944971
1276.220217,0.000000,222.061783,10140.821405
1276.220536,76.609550,296.082377,10288.862594
1276.220854,0.000000,-0.000000,10362.883188
1276.221173,76.609550,-0.000000,10214.842000
1276.221492,306.438199,-222.061783,9992.780217
1276.221811,306.438199,-74.020594,9770.718434
1276.222130,383.047749,-0.000000,9696.697840
1276.222448,689.485948,222.061783,9400.615463
1276.222767,689.485948,592.164754,9178.553681
1276.223086,612.876398,-0.000000,8882.471304
1276.223405,536.266849,-0.000000,8808.450710
1276.223723,229.828649,-0.000000,8734.430116
1276.224042,306.438199,-0.000000,8660.409521
1276.224361,383.047749,-0.000000,9178.553681
1276.224680,0.000000,-222.061783,9178.553681
1276.224999,0.000000,-222.061783,9326.594869
1276.225317,76.609550,-370.102971,9252.574275
1276.225636,76.609550,-296.082377,9104.533087
1276.225955,919.314598,-148.041188,8882.471304
1276.226274,842.705048,-222.061783,8364.327145
1276.226592,689.485948,-0.000000,8808.450710
1276.226911,919.314598,-148.041188,7994.224174
1276.227230,842.705048,-148.041188,8142.265362
1276.227549,1225.752797,-444.123565,8216.285956
1276.227868,842.705048,-0.000000,7920.203579
1276.228186,842.705048,-0.000000,8142.265362
1276.228505,612.876398,-74.020594,8216.285956
1276.228824,536.266849,-148.041188,8512.368333
1276.229143,383.047749,-592.164754,8660.409521
1276.229462,76.609550,-222.061783,8882.471304
1276.229780,0.000000,-592.164754,9252.574275
1276.230099,0.000000,-592.164754,9030.512492
1276.230418,0.000000,-592.164754,9104.533087
1276.230737,0.000000,-148.041188,9326.594869
1276.231055,153.219100,-0.000000,9178.553681
1276.231374,153.219100,-0.000000,8734.430116
1276.231693,383.047749,222.061783,8660.409521
1276.232012,919.314598,222.061783,8882.471304
1276.232331,1149.143247,-0.000000,8808.450710
1276.232649,383.047749,296.082377,8808.450710
1276.232968,459.657299,370.102971,9178.553681
1276.233287,229.828649,370.102971,9326.594869
1276.233606,153.219100,296.082377,9548.656652
1276.233924,0.000000,296.082377,9696.697840
1276.234243,153.219100,370.102971,9844.739029
1276.234562,612.876398,296.082377,10066.800811
1276.234881,689.485948,518.144159,10066.800811
1276.235200,919.314598,518.144159,9844.739029
1276.235518,1225.752797,1258.350101,9918.759623
1276.235837,1455.581446,1406.391290,9474.636058
1276.236156,1455.581446,1184.329507,9326.594869
1276.236475,1608.800546,1480.411884,9400.615463
1276.236793,1838.629195,1036.288319,9326.594869
1276.237112,1838.629195,962.267725,9252.574275
1276.237431,1378.971896,1110.308913,9548.656652
1276.237750,1302.362347,888.247130,9770.718434
1276.238069,1225.752797,962.267725,9918.759623
1276.238387,1225.752797,666.185348,9992.780217
1276.238706,689.485948,666.185348,10214.842000
1276.239025,766.095498,518.144159,10066.800811
1276.239344,0.000000,296.082377,9992.780217
1276.239662,153.219100,296.082377,10140.821405
1276.239981,76.609550,222.061783,10140.821405
1276.240300,153.219100,148.041188,10214.842000
1276.240619,76.609550,222.061783,9992.780217
1276.240938,0.000000,296.082377,9622.677246
1276.241256,76.609550,444.123565,9844.739029
1276.241575,306.438199,518.144159,9474.636058
1276.241894,0.000000,296.082377,9178.553681
1276.242213,229.828649,444.123565,9474.636058
1276.242531,0.000000,296.082377,9326.594869
1276.242850,-229.828649,370.102971,9474.636058
1276.243169,0.000000,148.041188,9326.594869
1276.243488,0.000000,-0.000000,9326.594869
1276.243807,0.000000,-0.000000,9474.636058
1276.244125,0.000000,-0.000000,9326.594869
1276.244444,229.828649,-148.041188,9474.636058
1276.244763,536.266849,-0.000000,8956.491898
1276.245082,689.485948,74.020594,9030.512492
1276.245400,995.924147,222.061783,8586.388927
1276.245719,1455.581446,222.061783,8364.327145
1276.246038,1149.143247,-0.000000,8068.244768
1276.246357,995.924147,-0.000000,8364.327145
1276.246676,1302.362347,-222.061783,8216.285956
1276.246994,919.314598,-296.082377,8364.327145
1276.247313,766.095498,-296.082377,8586.388927
1276.247632,995.924147,-296.082377,8586.388927
1276.247951,229.828649,-666.185348,8660.409521
1276.248269,536.266849,-518.144159,8660.409521
1276.248588,612.876398,-1036.288319,8808.450710
1276.248907,536.266849,-740.205942,8956.491898
1276.249226,306.438199,-740.205942,8882.471304
1276.249545,536.266849,-518.144159,8882.471304
1276.249863,689.485948,-370.102971,8734.430116
1276.250182,383.047749,-370.102971,8734.430116
1276.250501,995.924147,-296.082377,8364.327145
1276.250820,842.705048,-296.082377,8068.244768
1276.251139,612.876398,-222.061783,8216.285956
1276.251457,612.876398,-296.082377,8068.244768
1276.251776,306.438199,-222.061783,8586.388927
1276.252095,459.657299,-0.000000,9030.512492
1276.252414,0.000000,-370.102971,9252.574275
1276.252732,0.000000,-518.144159,9474.636058
1276.253051,-383.047749,-370.102971,9696.697840
1276.253370,-229.828649,-148.041188,9844.739029
1276.253689,0.000000,-74.020594,9696.697840
1276.254008,76.609550,148.041188,9696.697840
1276.254326,766.095498,370.102971,9548.656652
1276.254645,1455.581446,592.164754,9400.615463
1276.254964,1072.533697,888.247130,9400.615463
1276.255283,1532.190996,888.247130,8734.430116
1276.255601,1378.971896,740.205942,8734.430116
1276.255920,1838.629195,814.226536,8956.491898
1276.256239,1532.190996,444.123565,9326.594869
1276.256558,1225.752797,740.205942,9326.594869
1276.256877,995.924147,444.123565,9474.636058
1276.257195,842.705048,444.123565,9844.739029
1276.257514,536.266849,-0.000000,10214.842000
1276.257833,0.000000,222.061783,10362.883188
1276.258152,229.828649,296.082377,10362.883188
1276.258470,306.438199,296.082377,10288.862594
1276.258789,306.438199,296.082377,10288.862594
1276.259108,383.047749,370.102971,10140.821405
1276.259427,689.485948,222.061783,9844.739029
1276.259746,612.876398,666.185348,9622.677246
1276.260064,842.705048,518.144159,9548.656652
1276.260383,995.924147,518.144159,9474.636058
1276.260702,766.095498,518.144159,9474.636058
1276.261021,995.924147,518.144159,9548.656652
1276.261339,766.095498,814.226536,9400.615463
1276.261658,536.266849,888.247130,9474.636058
1276.261977,153.219100,518.144159,9696.697840
1276.262296,689.485948,740.205942,9918.759623
1276.262615,229.828649,296.082377,9918.759623
1276.262933,76.609550,222.061783,10066.800811
1276.263252,229.828649,666.185348,9770.718434
1276.263571,229.828649,592.164754,9474.636058
1276.263890,383.047749,1036.288319,9400.615463
1276.264208,1302.362347,740.205942,8882.471304
1276.264527,1302.362347,962.267725,8734.430116
1276.264846,1149.143247,888.247130,8660.409521
1276.265165,1149.143247,814.226536,8512.368333
1276.265484,919.314598,370.102971,8512.368333
1276.265802,842.705048,296.082377,8734.430116
1276.266121,459.657299,370.102971,9030.512492
1276.266440,383.047749,148.041188,8956.491898
1276.266759,536.266849,-0.000000,9178.553681
1276.267077,229.828649,-148.041188,9474.636058
1276.267396,153.219100,-296.082377,9178.553681
1276.267715,153.219100,-518.144159,9178.553681
1276.268034,229.828649,-370.102971,9178.553681
1276.268353,229.828649,-296.082377,9104.533087
1276.268671,842.705048,-222.061783,8882.471304
1276.268990,459.657299,-74.020594,8882.471304
1276.269309,689.485948,-74.020594,8734.430116
1276.269628,612.876398,-0.000000,8512.368333
1276.269947,689.485948,-0.000000,8364.327145
1276.270265,766.095498,-296.082377,8512.368333
1276.270584,536.266849,-0.000000,8734.430116
1276.270903,229.828649,-148.041188,8808.450710
1276.271222,229.828649,-222.061783,9104.533087
1276.271540,229.828649,-370.102971,9474.636058
1276.271859,0.000000,-370.102971,9400.615463
1276.272178,153.219100,-370.102971,9474.636058
1276.272497,383.047749,-296.082377,9474.636058
1276.272816,459.657299,-74.020594,9474.636058
1276.273134,842.705048,-0.000000,9252.574275
1276.273453,1149.143247,296.082377,8956.491898
1276.273772,1225.752797,518.144159,8808.450710
1276.274091,1608.800546,592.164754,8586.388927
1276.274409,1532.190996,740.205942,8364.327145
1276.274728,1378.971896,296.082377,8512.368333
1276.275047,1149.143247,518.144159,8512.368333
1276.275366,1225.752797,666.185348,8660.409521
1276.275685,1072.533697,666.185348,8882.471304
1276.276003,459.657299,148.041188,9252.574275
1276.276322,612.876398,-0.000000,9474.636058
1276.276641,306.438199,-0.000000,9844.739029
1276.276960,0.000000,74.020594,9844.739029
1276.277278,0.000000,148.041188,9844.739029
1276.277597,0.000000,370.102971,10214.842000
1276.277916,0.000000,370.102971,9844.739029
1276.278235,383.047749,592.164754,9548.656652
1276.278554,459.657299,962.267725,9474.636058
1276.278872,536.266849,962.267725,9474.636058
1276.279191,383.047749,888.247130,9252.574275
1276.279510,689.485948,1036.288319,9030.512492
1276.279829,306.438199,814.226536,9252.574275
1276.280147,306.438199,1036.288319,9326.594869
1276.280466,76.609550,1036.288319,9696.697840
1276.280785,-76.609550,814.226536,9770.718434
1276.281104,-229.828649,740.205942,9992.780217
1276.281423,0.000000,666.185348,10066.800811
1276.281741,0.000000,814.226536,10214.842000
1276.282060,-153.219100,1036.288319,9992.780217
1276.282379,76.609550,1036.288319,9696.697840
1276.282698,229.828649,1332.370696,9474.636058
1276.283016,306.438199,1406.391290,9400.615463
1276.283335,612.876398,1554.432478,9178.553681
1276.283654,689.485948,1406.391290,8882.471304
1276.283973,459.657299,1184.329507,8956.491898
1276.284292,536.266849,1480.411884,9252.574275
1276.284610,383.047749,1332.370696,9178.553681
1276.284929,459.657299,888.247130,9178.553681
1276.285248,459.657299,1036.288319,9474.636058
1276.285567,0.000000,962.267725,9474.636058
1276.285885,0.000000,1036.288319,9474.636058
1276.286204,-306.438199,592.164754,9548.656652
1276.286523,-383.047749,444.123565,9844.739029
1276.286842,-612.876398,592.164754,9474.636058
1276.287161,-536.266849,592.164754,9622.677246
1276.287479,0.000000,666.185348,9474.636058
1276.287798,153.219100,666.185348,9178.553681
1276.288117,229.828649,888.247130,9030.512492
1276.288436,229.828649,666.185348,8808.450710
1276.288755,459.657299,814.226536,8586.388927
1276.289073,536.266849,666.185348,8808.450710
1276.289392,153.219100,518.144159,9030.512492
1276.289711,459.657299,222.061783,8956.491898
1276.290030,306.438199,296.082377,9178.553681
1276.290348,153.219100,74.020594,9400.615463
1276.290667,229.828649,-0.000000,9474.636058
1276.290986,153.219100,-0.000000,9474.636058
1276.291305,383.047749,-0.000000,9474.636058
1276.291624,306.438199,-74.020594,9400.615463
1276.291942,919.314598,222.061783,9252.574275
1276.292261,1225.752797,-0.000000,8882.471304
1276.292580,1302.362347,222.061783,8734.430116
1276.292899,995.924147,74.020594,8808.450710
1276.293217,1302.362347,222.061783,8438.347739
1276.293536,842.705048,-0.000000,8438.347739
1276.293855,919.314598,222.061783,8512.368333
1276.294174,612.876398,-0.000000,8290.306550
1276.294493,536.266849,-0.000000,8808.450710
1276.294811,229.828649,148.041188,9030.512492
1276.295130,0.000000,-0.000000,9326.594869
1276.295449,-76.609550,-296.082377,9252.574275
1276.295768,-612.876398,-74.020594,9474.636058
1276.296086,-383.047749,-370.102971,9400.615463
1276.296405,-153.219100,-0.000000,9474.636058
1276.296724,0.000000,-0.000000,9104.533087
1276.297043,229.828649,444.123565,9030.512492
1276.297362,153.219100,592.164754,9104.533087
1276.297680,612.876398,740.205942,8734.430116
1276.297999,612.876398,740.205942,8660.409521
1276.298318,766.095498,666.185348,8660.409521
1276.298637,919.314598,-0.000000,8956.491898
1276.298955,612.876398,518.144159,8956.491898
1276.299274,536.266849,740.205942,9326.594869
1276.299593,76.609550,592.164754,9474.636058
1276.299912,306.438199,666.185348,9474.636058
1276.300231,689.485948,518.144159,9770.718434
1276.300549,383.047749,740.205942,9844.739029
1276.300868,766.095498,666.185348,9696.697840
1276.301187,766.095498,1036.288319,9474.636058
1276.301506,1149.143247,1184.329507,9400.615463
1276.301824,1455.581446,1036.288319,9252.574275
1276.302143,1378.971896,814.226536,9326.594869
1276.302462,995.924147,1036.288319,9326.594869
1276.302781,1225.752797,1110.308913,9178.553681
1276.303100,995.924147,962.267725,9326.594869
1276.303418,689.485948,962.267725,9474.636058
1276.303737,383.047749,1110.308913,9474.636058
1276.304056,306.438199,1036.288319,9622.677246
1276.304375,76.609550,1036.288319,9918.759623
1276.304693,-76.609550,518.144159,10436.903782
1276.305012,-383.047749,666.185348,10140.821405
1276.305331,-612.876398,444.123565,10436.903782
1276.305650,-689.485948,518.144159,10362.883188
1276.305969,-612.876398,518.144159,10066.800811
1276.306287,-689.485948,740.205942,9992.780217
1276.306606,-383.047749,888.247130,9770.718434
1276.306925,-229.828649,888.247130,9548.656652
1276.307244,-229.828649,814.226536,9326.594869
1276.307563,-459.657299,888.247130,9400.615463
1276.307881,-76.609550,740.205942,9030.512492
1276.308200,-536.266849,740.205942,9252.574275
1276.308519,-229.828649,666.185348,9400.615463
1276.308838,-612.876398,814.226536,9474.636058
1276.309156,0.000000,444.123565,9696.697840
1276.309475,76.609550,740.205942,9474.636058
1276.309794,383.047749,370.102971,9696.697840
1276.310113,229.828649,444.123565,9400.615463
1276.310432,766.095498,444.123565,9400.615463
1276.310750,842.705048,740.205942,9104.533087
1276.311069,1225.752797,740.205942,8808.450710
1276.311388,1378.971896,592.164754,8586.388927
1276.311707,1455.581446,518.144159,8660.409521
1276.312025,1302.362347,-0.000000,8586.388927
1276.312344,766.095498,222.061783,8808.450710
1276.312663,1072.533697,-74.020594,8512.368333
1276.312982,689.485948,222.061783,8438.347739
1276.313301,919.314598,-0.000000,8808.450710
1276.313619,842.705048,-222.061783,8660.409521
1276.313938,383.047749,-296.082377,8882.471304
1276.314257,-153.219100,-518.144159,9326.594869
1276.314576,-153.219100,-592.164754,9474.636058
1276.314894,-536.266849,-666.185348,9326.594869
1276.315213,-689.485948,-592.164754,9474.636058
1276.315532,0.000000,-518.144159,9548.656652
1276.315851,153.219100,-518.144159,9030.512492
1276.316170,229.828649,-0.000000,8956.491898
1276.316488,536.266849,-148.041188,8734.430116
1276.316807,1072.533697,-148.041188,8142.265362
1276.317126,536.266849,-0.000000,8660.409521
1276.317445,536.266849,-148.041188,8660.409521
1276.317764,76.609550,-148.041188,8660.409521
1276.318082,76.609550,-74.020594,9030.512492
1276.318401,536.266849,-0.000000,9030.512492
1276.318720,-153.219100,-0.000000,9474.636058
1276.319039,-229.828649,-222.061783,9474.636058
1276.319358,0.000000,-148.041188,9770.718434
1276.319676,0.000000,-0.000000,9474.636058
1276.319995,612.876398,-0.000000,9474.636058
1276.320314,459.657299,666.185348,9400.615463
1276.320633,995.924147,592.164754,9252.574275
1276.320952,995.924147,740.205942,9030.512492
1276.321270,1302.362347,592.164754,9104.533087
1276.321589,1302.362347,518.144159,8512.368333
1276.321908,995.924147,888.247130,9178.553681
1276.322227,1225.752797,592.164754,9030.512492
1276.322546,1149.143247,592.164754,9252.574275
1276.322865,995.924147,814.226536,9474.636058
1276.323183,919.314598,592.164754,9548.656652
1276.323502,612.876398,222.061783,9622.677246
1276.323821,306.438199,-0.000000,9770.718434
1276.324140,459.657299,148.041188,9918.759623
1276.324459,306.438199,222.061783,9696.697840
1276.324777,306.438199,370.102971,9770.718434
1276.325096,536.266849,666.185348,9548.656652
1276.325415,689.485948,814.226536,9696.697840
1276.325734,459.657299,814.226536,9400.615463
1276.326053,459.657299,888.247130,8956.491898
1276.326371,383.047749,814.226536,9252.574275
1276.326690,306.438199,740.205942,9326.594869
1276.327009,459.657299,814.226536,9326.594869
1276.327328,229.828649,740.205942,9474.636058
1276.327647,383.047749,666.185348,9548.656652
1276.327965,153.219100,666.185348,9622.677246
1276.328284,-153.219100,740.205942,9696.697840
1276.328603,76.609550,518.144159,9622.677246
1276.328922,612.876398,444.123565,9474.636058
1276.329241,229.828649,740.205942,9622.677246
1276.329560,689.485948,592.164754,9326.594869
1276.329878,612.876398,592.164754,9178.553681
1276.330197,842.705048,592.164754,8882.471304
1276.330516,766.095498,444.123565,8882.471304
1276.330835,1072.533697,592.164754,8734.430116
1276.331154,995.924147,518.144159,8512.368333
1276.331472,842.705048,222.061783,8882.471304
1276.331791,919.314598,222.061783,9030.512492
1276.332110,536.266849,370.102971,8956.491898
1276.332429,383.047749,-0.000000,9104.533087
1276.332748,229.828649,-0.000000,9178.553681
1276.333066,153.219100,-74.020594,9326.594869
1276.333385,0.000000,-444.123565,9326.594869
1276.333704,76.609550,-370.102971,9252.574275
1276.334023,229.828649,-370.102971,9104.533087
1276.334342,153.219100,-444.123565,9030.512492
1276.334660,459.657299,-74.020594,9104.533087
1276.334979,1072.533697,-444.123565,8956.491898
1276.335298,689.485948,-296.082377,8882.471304
1276.335617,842.705048,-74.020594,8808.450710
1276.335936,766.095498,-296.082377,8734.430116
1276.336255,612.876398,-148.041188,8808.450710
1276.336573,842.705048,-222.061783,9030.512492
1276.336892,919.314598,-222.061783,9178.553681
1276.337211,689.485948,-592.164754,9104.533087
1276.337530,919.314598,-592.164754,9400.615463
1276.337849,536.266849,-814.226536,9622.677246
1276.338167,689.485948,-370.102971,9474.636058
1276.338486,766.095498,-148.041188,9474.636058
1276.338805,1302.362347,-74.020594,9326.594869
1276.339124,1302.362347,-0.000000,9178.553681
1276.339443,1378.971896,-0.000000,8882.471304
1276.339761,1838.629195,148.041188,8660.409521
1276.340080,1762.019645,296.082377,8660.409521
1276.340399,1762.019645,222.061783,8512.368333
1276.340718,1838.629195,-0.000000,8438.347739
1276.341037,1685.410096,-0.000000,8660.409521
1276.341355,919.314598,-0.000000,8734.430116
1276.341674,995.924147,-0.000000,9104.533087
1276.341993,689.485948,-0.000000,9326.594869
1276.342312,536.266849,-74.020594,9474.636058
1276.342631,153.219100,-74.020594,9474.636058
1276.342950,153.219100,-0.000000,9622.677246
1276.343268,0.000000,-0.000000,9696.697840
1276.343587,-153.219100,370.102971,9770.718434
1276.343906,-383.047749,-0.000000,9474.636058
1276.344225,0.000000,296.082377,9474.636058
1276.344544,306.438199,740.205942,9178.553681
1276.344862,153.219100,740.205942,9326.594869
1276.345181,306.438199,592.164754,9030.512492
1276.345500,76.609550,370.102971,9030.512492
1276.345819,229.828649,666.185348,8882.471304
1276.346138,0.000000,888.247130,9030.512492
1276.346456,153.219100,814.226536,9474.636058
1276.346775,153.219100,592.164754,9696.697840
1276.347094,0.000000,370.102971,9918.759623
1276.347413,0.000000,370.102971,9770.718434
1276.347732,76.609550,592.164754,9770.718434
1276.348050,306.438199,740.205942,9918.759623
1276.348369,689.485948,888.247130,9844.739029
1276.348688,919.314598,1036.288319,9474.636058
1276.349007,995.924147,1036.288319,9400.615463
1276.349326,1072.533697,1110.308913,9252.574275
1276.349645,1378.971896,814.226536,9400.615463
1276.349963,1455.581446,888.247130,9400.615463
1276.350282,1225.752797,740.205942,9474.636058
1276.350601,1072.533697,592.164754,9400.615463
1276.350920,536.266849,740.205942,9400.615463
1276.351239,689.485948,592.164754,9474.636058
1276.351557,459.657299,444.123565,9548.656652
1276.351876,306.438199,444.123565,9548.656652
1276.352195,0.000000,296.082377,9918.759623
1276.352514,-383.047749,-0.000000,9918.759623
1276.352833,-383.047749,-0.000000,10066.800811
1276.353151,-459.657299,-148.041188,9992.780217
1276.353470,0.000000,444.123565,9844.739029
1276.353789,612.876398,370.102971,9474.636058
1276.354108,689.485948,592.164754,9178.553681
1276.354427,612.876398,518.144159,8882.471304
1276.354745,766.095498,370.102971,8438.347739
1276.355064,766.095498,592.164754,8586.388927
1276.355383,689.485948,518.144159,8438.347739
1276.355702,612.876398,296.082377,8882.471304
1276.356021,383.047749,-0.000000,9104.533087
1276.356340,306.438199,148.041188,9474.636058
1276.356658,153.219100,222.061783,9474.636058
1276.356977,0.000000,-0.000000,9326.594869
1276.357296,229.828649,-0.000000,9400.615463
1276.357615,459.657299,-0.000000,9252.574275
1276.357934,919.314598,518.144159,9104.533087
1276.358252,1149.143247,370.102971,8808.450710
1276.358571,1225.752797,444.123565,8660.409521
1276.358890,1072.533697,444.123565,8290.306550
1276.359209,1991.848295,370.102971,8290.306550
1276.359528,1378.971896,370.102971,8438.347739
1276.359846,1455.581446,592.164754,8290.306550
1276.360165,1532.190996,74.020594,8512.368333
1276.360484,1072.533697,-0.000000,8586.388927
1276.360803,1072.533697,-0.000000,9030.512492
1276.361122,919.314598,-74.020594,9030.512492
1276.361440,612.876398,-148.041188,9252.574275
1276.361759,76.609550,-370.102971,9474.636058
1276.362078,612.876398,-666.185348,9474.636058
1276.362397,76.609550,-296.082377,9474.636058
1276.362716,76.609550,-222.061783,9474.636058
1276.363035,-153.219100,-74.020594,9474.636058
1276.363353,383.047749,-0.000000,9252.574275
1276.363672,229.828649,-0.000000,9104.533087
1276.363991,383.047749,-0.000000,8808.450710
1276.364310,153.219100,148.041188,8808.450710
1276.364629,153.219100,370.102971,8882.471304
1276.364947,459.657299,-0.000000,9030.512492
1276.365266,153.219100,444.123565,9400.615463
1276.365585,0.000000,444.123565,9622.677246
1276.365904,0.000000,370.102971,9696.697840
1276.366223,0.000000,222.061783,9770.718434
1276.366541,612.876398,370.102971,9770.718434
1276.366860,689.485948,666.185348,9474.636058
1276.367179,842.705048,1110.308913,9474.636058
1276.367498,842.705048,888.247130,9252.574275
1276.367817,842.705048,962.267725,9030.512492
1276.368135,919.314598,814.226536,9030.512492
1276.368454,842.705048,962.267725,9178.553681
1276.368773,995.924147,1036.288319,8956.491898
1276.369092,1149.143247,962.267725,9178.553681
1276.369411,995.924147,740.205942,9252.574275
1276.369730,766.095498,740.205942,9474.636058
1276.370048,766.095498,962.267725,9400.615463
1276.370367,306.438199,888.247130,9696.697840
1276.370686,0.000000,740.205942,9622.677246
1276.371005,76.609550,666.185348,9770.718434
1276.371324,0.000000,518.144159,9844.739029
1276.371642,306.438199,814.226536,9918.759623
1276.371961,76.609550,740.205942,9770.718434
1276.372280,383.047749,888.247130,9548.656652
1276.372599,383.047749,962.267725,9474.636058
1276.372918,153.219100,1036.288319,9400.615463
1276.373236,612.876398,1036.288319,9178.553681
1276.373555,153.219100,1036.288319,9252.574275
1276.373874,383.047749,1184.329507,9400.615463
1276.374193,0.000000,888.247130,9326.594869
1276.374512,306.438199,666.185348,9474.636058
1276.374830,0.000000,666.185348,9622.677246
1276.375149,0.000000,518.144159,9548.656652
1276.375468,0.000000,592.164754,9770.718434
1276.375787,76.609550,148.041188,9696.697840
1276.376106,153.219100,444.123565,9696.697840
1276.376425,689.485948,888.247130,9474.636058
1276.376743,612.876398,962.267725,9474.636058
1276.377062,995.924147,1184.329507,9104.533087
1276.377381,1762.019645,1110.308913,8808.450710
1276.377700,1302.362347,814.226536,8586.388927
1276.378019,1149.143247,592.164754,8512.368333
1276.378337,995.924147,518.144159,8438.347739
1276.378656,1072.533697,296.082377,8660.409521
1276.378975,383.047749,296.082377,8882.471304
1276.379294,306.438199,444.123565,8956.491898
1276.379613,383.047749,148.041188,9030.512492
1276.379931,0.000000,222.061783,9252.574275
1276.380250,-306.438199,-0.000000,9474.636058
1276.380569,-459.657299,-296.082377,9474.636058
1276.380888,-459.657299,-222.061783,9474.636058
1276.381207,-459.657299,-296.082377,9474.636058
1276.381525,-229.828649,-0.000000,9326.594869
1276.381844,153.219100,-0.000000,9474.636058
1276.382163,383.047749,-296.082377,9252.574275
1276.382482,0.000000,-0.000000,8808.450710
1276.382801,153.219100,222.061783,8734.430116
1276.383120,76.609550,296.082377,8660.409521
1276.383438,306.438199,-0.000000,8660.409521
1276.383757,383.047749,222.061783,8734.430116
1276.384076,383.047749,-0.000000,8808.450710
1276.384395,0.000000,-0.000000,9178.553681
1276.384714,-153.219100,-74.020594,9326.594869
1276.385032,0.000000,-74.020594,9474.636058
1276.385351,0.000000,-0.000000,9400.615463
1276.385670,306.438199,-0.000000,9400.615463
1276.385989,612.876398,296.082377,9400.615463
1276.386308,842.705048,740.205942,9104.533087
1276.386626,1302.362347,370.102971,8734.430116
1276.386945,1532.190996,814.226536,8734.430116
1276.387264,1608.800546,666.185348,8734.430116
1276.387583,1378.971896,592.164754,8808.450710
1276.387902,766.095498,296.082377,8364.327145
1276.388220,1149.143247,592.164754,8808.450710
1276.388539,919.314598,518.144159,9252.574275
1276.388858,766.095498,740.205942,9178.553681
1276.389177,383.047749,592.164754,9400.615463
1276.389496,229.828649,370.102971,9622.677246
1276.389815,-153.219100,-0.000000,9992.780217
1276.390133,-229.828649,-0.000000,9992.780217
1276.390452,-612.876398,-0.000000,10066.800811
1276.390771,-306.438199,-0.000000,10066.800811
1276.391090,0.000000,370.102971,10140.821405
1276.391409,76.609550,814.226536,9474.636058
1276.391727,383.047749,740.205942,9400.615463
1276.392046,383.047749,962.267725,9104.533087
1276.392365,536.266849,962.267725,8956.491898
1276.392684,612.876398,1036.288319,8956.491898
1276.393003,459.657299,888.247130,9104.533087
1276.393321,229.828649,814.226536,9178.553681
1276.393640,76.609550,888.247130,9474.636058
1276.393959,0.000000,370.102971,9474.636058
1276.394278,-306.438199,518.144159,9844.739029
1276.394597,153.219100,444.123565,9696.697840
1276.394915,-459.657299,148.041188,9696.697840
1276.395234,-306.438199,444.123565,9548.656652
1276.395553,0.000000,518.144159,9474.636058
1276.395872,306.438199,814.226536,9104.533087
1276.396191,459.657299,962.267725,8956.491898
1276.396510,306.438199,962.267725,8808.450710
1276.396828,459.657299,888.247130,8734.430116
1276.397147,459.657299,814.226536,8438.347739
1276.397466,689.485948,740.205942,8734.430116
1276.397785,842.705048,666.185348,8734.430116
1276.398104,766.095498,888.247130,9030.512492
1276.398422,459.657299,518.144159,9252.574275
1276.398741,383.047749,444.123565,9104.533087
1276.399060,383.047749,296.082377,9326.594869
1276.399379,229.828649,296.082377,9252.574275
1276.399698,383.047749,-0.000000,9326.594869
1276.400016,229.828649,296.082377,9474.636058
1276.400335,229.828649,518.144159,9400.615463
1276.400654,612.876398,888.247130,8956.491898
1276.400973,689.485948,740.205942,8512.368333
1276.401292,689.485948,370.102971,8586.388927
1276.401610,919.314598,592.164754,8808.450710
1276.401929,612.876398,444.123565,8512.368333
1276.402248,842.705048,148.041188,8586.388927
1276.402567,306.438199,-0.000000,9104.533087
1276.402886,459.657299,-444.123565,9548.656652
1276.403205,0.000000,-148.041188,9474.636058
1276.403523,76.609550,-296.082377,9770.718434
1276.403842,0.000000,-296.082377,9622.677246
1276.404161,153.219100,-296.082377,9696.697840
1276.404480,229.828649,-666.185348,9844.739029
1276.404799,612.876398,-74.020594,9474.636058
1276.405117,459.657299,-444.123565,9474.636058
1276.405436,1072.533697,-370.102971,9178.553681
1276.405755,1302.362347,-222.061783,9252.574275
1276.406074,1149.143247,-296.082377,9178.553681
1276.406393,1302.362347,-444.123565,8956.491898
1276.406711,1378.971896,-444.123565,8956.491898
1276.407030,1225.752797,-370.102971,9400.615463
1276.407349,1072.533697,-74.020594,9696.697840
1276.407668,842.705048,-814.226536,9770.718434
1276.407987,689.485948,-814.226536,9474.636058
1276.408305,536.266849,-666.185348,9622.677246
1276.408624,536.266849,-666.185348,9918.759623
1276.408943,612.876398,-518.144159,9918.759623
1276.409262,306.438199,-296.082377,9918.759623
1276.409581,612.876398,-222.061783,9474.636058
1276.409900,612.876398,-0.000000,9474.636058
1276.410218,766.095498,296.082377,9474.636058
1276.410537,766.095498,444.123565,8882.471304
1276.410856,1378.971896,740.205942,8734.430116
1276.411175,842.705048,666.185348,8290.306550
1276.411494,919.314598,740.205942,8364.327145
1276.411812,612.876398,518.144159,8734.430116
1276.412131,153.219100,518.144159,9326.594869
1276.412450,-153.219100,592.164754,8882.471304
1276.412769,-229.828649,592.164754,9030.512492
1276.413088,-536.266849,592.164754,9474.636058
1276.413406,-612.876398,444.123565,9622.677246
1276.413725,-536.266849,518.144159,9252.574275
1276.414044,-459.657299,888.247130,9622.677246
1276.414363,0.000000,1258.350101,9326.594869
1276.414682,0.000000,1258.350101,9030.512492
1276.415000,153.219100,1406.391290,8808.450710
1276.415319,153.219100,1480.411884,8660.409521
1276.415638,306.438199,1184.329507,8660.409521
1276.415957,689.485948,1332.370696,8586.388927
1276.416276,383.047749,1554.432478,8734.430116
1276.416594,612.876398,1036.288319,8882.471304
1276.416913,153.219100,1184.329507,9178.553681
1276.417232,153.219100,1110.308913,9400.615463
1276.417551,0.000000,1110.308913,9474.636058
1276.417869,-229.828649,518.144159,9622.677246
1276.418188,-306.438199,518.144159,9992.780217
1276.418507,-306.438199,370.102971,9918.759623
1276.418826,0.000000,370.102971,9918.759623
1276.419144,0.000000,296.082377,10066.800811
1276.419463,76.609550,296.082377,9918.759623
1276.419782,919.314598,888.247130,9696.697840
1276.420101,1072.533697,814.226536,9474.636058
1276.420419,459.657299,592.164754,9326.594869
1276.420738,1225.752797,592.164754,9030.512492
1276.421057,1149.143247,814.226536,9252.574275
1276.421376,1302.362347,370.102971,9104.533087
1276.421694,689.485948,296.082377,9400.615463
1276.422013,689.485948,-0.000000,9696.697840
1276.422332,536.266849,-74.020594,9844.739029
1276.422651,229.828649,-0.000000,9918.759623
1276.422969,76.609550,-74.020594,9918.759623
1276.423288,536.266849,222.061783,9992.780217
1276.423607,536.266849,-222.061783,9844.739029
1276.423926,842.705048,-0.000000,9474.636058
1276.424244,1302.362347,-0.000000,9474.636058
1276.424563,1532.190996,296.082377,9178.553681
1276.424882,1378.971896,148.041188,8956.491898
1276.425201,1225.752797,-0.000000,8808.450710
1276.425519,1455.581446,-0.000000,8660.409521
1276.425838,1455.581446,-0.000000,8660.409521
1276.426157,1072.533697,-0.000000,8882.471304
1276.426476,995.924147,-0.000000,9030.512492
1276.426794,842.705048,-74.020594,9030.512492
1276.427113,919.314598,-444.123565,9030.512492
1276.427432,153.219100,-370.102971,9326.594869
1276.427751,-153.219100,-444.123565,9474.636058
1276.428069,0.000000,-444.123565,9252.574275
1276.428388,0.000000,-370.102971,9400.615463
1276.428707,229.828649,-148.041188,9474.636058
1276.429026,383.047749,-0.000000,8956.491898
1276.429344,766.095498,-0.000000,8956.491898
1276.429663,689.485948,222.061783,8512.368333
1276.429982,842.705048,296.082377,8068.244768
1276.430301,842.705048,296.082377,8142.265362
1276.430619,842.705048,296.082377,8364.327145
1276.430938,842.705048,370.102971,8142.265362
1276.431257,689.485948,370.102971,8586.388927
1276.431576,842.705048,-74.020594,9104.533087
1276.431894,306.438199,-0.000000,9400.615463
1276.432213,153.219100,-0.000000,9326.594869
1276.432532,153.219100,-0.000000,9622.677246
1276.432851,459.657299,296.082377,9548.656652
1276.433170,689.485948,-0.000000,9474.636058
1276.433488,766.095498,370.102971,8808.450710
1276.433807,1302.362347,814.226536,8734.430116
1276.434126,1302.362347,888.247130,8734.430116
1276.434445,1225.752797,814.226536,8586.388927
1276.434763,1685.410096,888.247130,8956.491898
1276.435082,1302.362347,814.226536,8882.471304
1276.435401,1302.362347,666.185348,8956.491898
1276.435720,995.924147,740.205942,9252.574275
1276.436038,1072.533697,444.123565,9326.594869
1276.436357,306.438199,370.102971,9622.677246
1276.436676,536.266849,296.082377,9770.718434
1276.436995,0.000000,-0.000000,9548.656652
1276.437313,76.609550,-0.000000,9918.759623
1276.437632,0.000000,296.082377,9992.780217
1276.437951,153.219100,148.041188,10066.800811
1276.438270,76.609550,222.061783,9918.759623
1276.438588,153.219100,518.144159,9696.697840
1276.438907,383.047749,518.144159,9844.739029
1276.439226,306.438199,444.123565,9252.574275
1276.439545,306.438199,666.185348,9474.636058
1276.439863,229.828649,444.123565,9474.636058
1276.440182,76.609550,666.185348,9400.615463
1276.440501,76.609550,666.185348,9474.636058
1276.440820,306.438199,444.123565,9770.718434
1276.441138,-383.047749,444.123565,9918.759623
1276.441457,-306.438199,296.082377,9992.780217
1276.441776,-383.047749,296.082377,10066.800811
1276.442095,-229.828649,222.061783,10066.800811
1276.442413,0.000000,592.164754,10066.800811
1276.442732,0.000000,666.185348,9474.636058
1276.443051,536.266849,740.205942,9326.594869
1276.443370,1149.143247,888.247130,9030.512492
1276.443688,1302.362347,1036.288319,8882.471304
1276.444007,1532.190996,740.205942,8364.327145
1276.444326,1225.752797,814.226536,8660.409521
1276.444645,1225.752797,888.247130,8512.368333
1276.444963,1149.143247,888.247130,8586.388927
1276.445282,1072.533697,592.164754,8882.471304
1276.445601,1072.533697,814.226536,9104.533087
1276.445920,383.047749,370.102971,9252.574275
1276.446238,536.266849,148.041188,9104.533087
1276.446557,383.047749,-0.000000,9474.636058
1276.446876,842.705048,-148.041188,9474.636058
1276.447195,383.047749,148.041188,9474.636058
1276.447513,383.047749,222.061783,9178.553681
1276.447832,612.876398,148.041188,9030.512492
1276.448151,536.266849,444.123565,8956.491898
1276.448470,919.314598,444.123565,8808.450710
1276.448788,766.095498,666.185348,8660.409521
1276.449107,229.828649,370.102971,8512.368333
1276.449426,306.438199,296.082377,8660.409521
1276.449745,612.876398,-0.000000,8734.430116
1276.450063,0.000000,222.061783,8956.491898
1276.450382,0.000000,-0.000000,9030.512492
1276.450701,0.000000,-0.000000,9548.656652
1276.451020,-306.438199,-222.061783,9548.656652
1276.451338,-383.047749,-222.061783,9918.759623
1276.451657,-229.828649,-0.000000,9770.718434
1276.451976,0.000000,-0.000000,9400.615463
1276.452295,153.219100,444.123565,9400.615463
1276.452614,919.314598,518.144159,9104.533087
1276.452932,689.485948,444.123565,8956.491898
1276.453251,919.314598,296.082377,8734.430116
1276.453570,995.924147,222.061783,8734.430116
1276.453889,1149.143247,296.082377,8882.471304
1276.454207,1072.533697,222.061783,9030.512492
1276.454526,689.485948,222.061783,9178.553681
1276.454845,995.924147,222.061783,9400.615463
1276.455164,766.095498,-0.000000,9400.615463
1276.455482,612.876398,-0.000000,9696.697840
1276.455801,995.924147,-0.000000,9622.677246
1276.456120,536.266849,222.061783,9918.759623
1276.456439,459.657299,-74.020594,9770.718434
1276.456757,842.705048,-0.000000,9696.697840
1276.457076,1149.143247,296.082377,9548.656652
1276.457395,995.924147,518.144159,9474.636058
1276.457714,1149.143247,518.144159,9178.553681
1276.458032,1302.362347,740.205942,9178.553681
1276.458351,842.705048,518.144159,8882.471304
1276.458670,842.705048,222.061783,8660.409521
1276.458989,459.657299,666.185348,9326.594869
1276.459307,229.828649,592.164754,9326.594869
1276.459626,0.000000,444.123565,9400.615463
1276.459945,-459.657299,370.102971,9844.739029
1276.460264,-383.047749,-0.000000,10140.821405
1276.460582,-612.876398,-0.000000,9992.780217
1276.460901,-689.485948,370.102971,9770.718434
1276.461220,-383.047749,666.185348,9770.718434
1276.461539,0.000000,962.267725,9474.636058
1276.461857,0.000000,814.226536,9178.553681
1276.462176,536.266849,1184.329507,9178.553681
1276.462495,612.876398,1184.329507,8364.327145
1276.462814,842.705048,1480.411884,8586.388927
1276.463132,842.705048,1110.308913,8512.368333
1276.463451,459.657299,1258.350101,8808.450710
1276.463770,689.485948,1332.370696,8438.347739
1276.464089,612.876398,1110.308913,8734.430116
1276.464407,383.047749,1184.329507,9030.512492
1276.464726,459.657299,1036.288319,9326.594869
1276.465045,0.000000,518.144159,9474.636058
1276.465364,-383.047749,444.123565,9696.697840
1276.465682,-536.266849,592.164754,9696.697840
1276.466001,-383.047749,444.123565,9770.718434
1276.466320,0.000000,518.144159,9696.697840
1276.466639,76.609550,592.164754,9474.636058
1276.466957,383.047749,666.185348,9252.574275
1276.467276,766.095498,740.205942,9104.533087
1276.467595,766.095498,888.247130,8956.491898
1276.467914,995.924147,740.205942,8882.471304
1276.468232,766.095498,370.102971,8586.388927
1276.468551,995.924147,666.185348,9104.533087
1276.468870,766.095498,148.041188,9178.553681
1276.469189,229.828649,-0.000000,9326.594869
1276.469507,306.438199,-444.123565,9918.759623
1276.469826,76.609550,-0.000000,9918.759623
1276.470145,0.000000,-74.020594,10140.821405
1276.470464,0.000000,-222.061783,9992.780217
1276.470782,0.000000,-74.020594,9844.739029
1276.471101,766.095498,-74.020594,9622.677246
1276.471420,689.485948,-0.000000,9474.636058
1276.471739,1378.971896,296.082377,9252.574275
1276.472057,842.705048,222.061783,8808.450710
1276.472376,842.705048,222.061783,8956.491898
1276.472695,995.924147,-0.000000,8660.409521
1276.473014,689.485948,222.061783,8808.450710
1276.473333,919.314598,222.061783,8660.409521
1276.473651,766.095498,-0.000000,8956.491898
1276.473970,536.266849,-74.020594,9178.553681
1276.474289,612.876398,-0.000000,9474.636058
1276.474608,0.000000,-148.041188,9474.636058
1276.474926,0.000000,-222.061783,9474.636058
1276.475245,0.000000,-370.102971,9474.636058
1276.475564,153.219100,-222.061783,9326.594869
1276.475883,-153.219100,222.061783,9178.553681
1276.476201,229.828649,148.041188,9030.512492
1276.476520,459.657299,296.082377,8808.450710
1276.476839,306.438199,148.041188,8586.388927
1276.477158,459.657299,444.123565,8660.409521
1276.477476,306.438199,296.082377,8586.388927
1276.477795,689.485948,814.226536,8586.388927
1276.478114,229.828649,444.123565,8734.430116
1276.478433,459.657299,740.205942,9178.553681
1276.478751,229.828649,370.102971,9252.574275
1276.479070,76.609550,296.082377,9474.636058
1276.479389,229.828649,222.061783,9548.656652
1276.479708,306.438199,222.061783,9474.636058
1276.480026,153.219100,592.164754,9474.636058
1276.480345,842.705048,814.226536,9178.553681
1276.480664,612.876398,740.205942,9252.574275
1276.480983,995.924147,962.267725,8808.450710
1276.481301,1072.533697,888.247130,9030.512492
1276.481620,1149.143247,888.247130,8882.471304
1276.481939,919.314598,1036.288319,8882.471304
1276.482258,919.314598,814.226536,8882.471304
1276.482576,612.876398,1110.308913,8956.491898
1276.482895,459.657299,666.185348,9326.594869
1276.483214,229.828649,962.267725,9400.615463
1276.483533,0.000000,740.205942,9622.677246
1276.483851,-229.828649,518.144159,9770.718434
1276.484170,-306.438199,296.082377,9992.780217
1276.484489,0.000000,518.144159,9844.739029
1276.484808,-153.219100,444.123565,9770.718434
1276.485126,-459.657299,740.205942,10140.821405
1276.485445,0.000000,962.267725,9696.697840
1276.485764,459.657299,814.226536,9474.636058
1276.486083,0.000000,1184.329507,9548.656652
1276.486401,153.219100,888.247130,9474.636058
1276.486720,306.438199,962.267725,9326.594869
1276.487039,306.438199,814.226536,9178.553681
1276.487358,306.438199,888.247130,9178.553681
1276.487676,612.876398,888.247130,9474.636058
1276.487995,76.609550,740.205942,9622.677246
1276.488314,0.000000,518.144159,9622.677246
1276.488633,0.000000,222.061783,9844.739029
1276.488951,306.438199,222.061783,9844.739029
1276.489270,383.047749,222.061783,9770.718434
1276.489589,536.266849,148.041188,9918.759623
1276.489908,536.266849,444.123565,9474.636058
1276.490226,1149.143247,444.123565,9326.594869
1276.490545,919.314598,296.082377,9178.553681
1276.490864,1225.752797,518.144159,8882.471304
1276.491183,1455.581446,444.123565,8660.409521
1276.491501,1532.190996,296.082377,8660.409521
1276.491820,1149.143247,370.102971,8734.430116
1276.492139,995.924147,-0.000000,8882.471304
1276.492458,842.705048,-74.020594,8734.430116
1276.492777,689.485948,-0.000000,9104.533087
1276.493095,153.219100,-0.000000,9252.574275
1276.493414,0.000000,-592.164754,9474.636058
1276.493733,-306.438199,-814.226536,9400.615463
1276.494052,0.000000,-592.164754,9548.656652
1276.494370,-76.609550,-444.123565,9030.512492
1276.494689,0.000000,-74.020594,9252.574275
1276.495008,76.609550,-74.020594,9104.533087
1276.495327,153.219100,-0.000000,8734.430116
1276.495645,459.657299,-0.000000,8512.368333
1276.495964,689.485948,-0.000000,8438.347739
1276.496283,536.266849,-0.000000,8290.306550
1276.496602,383.047749,296.082377,8364.327145
1276.496920,459.657299,148.041188,8734.430116
1276.497239,459.657299,-0.000000,8512.368333
1276.497558,536.266849,-0.000000,9252.574275
1276.497877,76.609550,-0.000000,9252.574275
1276.498195,536.266849,-296.082377,9548.656652
1276.498514,383.047749,-222.061783,9326.594869
1276.498833,612.876398,-0.000000,9400.615463
1276.499152,842.705048,-74.020594,9252.574275
1276.499470,1455.581446,-296.082377,8956.491898
1276.499789,1378.971896,-0.000000,8882.471304
1276.500108,1608.800546,592.164754,8956.491898
1276.500427,1225.752797,-0.000000,8660.409521
1276.500745,1302.362347,222.061783,8660.409521
1276.501064,1225.752797,-74.020594,8660.409521
1276.501383,1225.752797,222.061783,8956.491898
1276.501702,1072.533697,370.102971,9030.512492
1276.502020,766.095498,222.061783,9326.594869
1276.502339,536.266849,-0.000000,9474.636058
1276.502658,689.485948,-222.061783,9474.636058
1276.502977,-229.828649,-518.144159,9696.697840
1276.503295,0.000000,-74.020594,9992.780217
1276.503614,0.000000,-0.000000,9918.759623
1276.503933,76.609550,148.041188,9770.718434
1276.504252,-306.438199,296.082377,9844.739029
1276.504570,229.828649,518.144159,9548.656652
1276.504889,459.657299,814.226536,9326.594869
1276.505208,459.657299,888.247130,9252.574275
1276.505527,766.095498,666.185348,9252.574275
1276.505845,229.828649,592.164754,9252.574275
1276.506164,306.438199,740.205942,9474.636058
1276.506483,0.000000,666.185348,9400.615463
1276.506802,229.828649,666.185348,9622.677246
1276.507120,-153.219100,888.247130,9844.739029
1276.507439,-229.828649,370.102971,9918.759623
1276.507758,0.000000,814.226536,10140.821405
1276.508077,0.000000,740.205942,9918.759623
1276.508395,153.219100,814.226536,9696.697840
1276.508714,842.705048,962.267725,9770.718434
1276.509033,1072.533697,1036.288319,9326.594869
1276.509352,995.924147,1110.308913,9326.594869
1276.509670,1072.533697,1110.308913,9104.533087
1276.509989,919.314598,962.267725,8808.450710
1276.510308,1302.362347,888.247130,8586.388927
1276.510627,995.924147,740.205942,9030.512492
1276.510945,995.924147,666.185348,9030.512492
1276.511264,919.314598,518.144159,9030.512492
1276.511583,459.657299,518.144159,8956.491898
1276.511902,612.876398,148.041188,9400.615463
1276.512221,306.438199,444.123565,9474.636058
1276.512539,0.000000,222.061783,9622.677246
1276.512858,306.438199,-0.000000,9326.594869
1276.513177,-153.219100,-0.000000,9770.718434
1276.513496,229.828649,-0.000000,9474.636058
1276.513814,459.657299,370.102971,9178.553681
1276.514133,459.657299,222.061783,8882.471304
1276.514452,459.657299,296.082377,8956.491898
1276.514771,536.266849,148.041188,8660.409521
1276.515089,306.438199,222.061783,8882.471304
1276.515408,306.438199,222.061783,8882.471304
1276.515727,76.609550,296.082377,9030.512492
1276.516046,153.219100,148.041188,9252.574275
1276.516364,76.609550,-0.000000,9400.615463
1276.516683,0.000000,-0.000000,9178.553681
1276.517002,153.219100,-74.020594,9400.615463
1276.517321,0.000000,-74.020594,9474.636058
1276.517639,153.219100,-518.144159,9104.533087
1276.517958,689.485948,-0.000000,9326.594869
1276.518277,1072.533697,-0.000000,9030.512492
1276.518596,1225.752797,370.102971,8808.450710
1276.518915,1225.752797,148.041188,8364.327145
1276.519233,1455.581446,222.061783,8512.368333
1276.519552,995.924147,148.041188,8290.306550
1276.519871,1455.581446,148.041188,8438.347739
1276.520190,919.314598,-0.000000,8512.368333
1276.520509,842.705048,296.082377,8808.450710
1276.520828,995.924147,-0.000000,9030.512492
1276.521146,612.876398,-0.000000,9252.574275
1276.521465,383.047749,-148.041188,9474.636058
1276.521784,0.000000,-148.041188,9474.636058
1276.522103,229.828649,-222.061783,9622.677246
1276.522422,306.438199,-0.000000,9770.718434
1276.522740,0.000000,-74.020594,9548.656652
1276.523059,536.266849,222.061783,9178.553681
1276.523378,536.266849,148.041188,9252.574275
1276.523697,536.266849,370.102971,8882.471304
1276.524016,995.924147,444.123565,8956.491898
1276.524335,459.657299,444.123565,8734.430116
1276.524653,536.266849,518.144159,9030.512492
1276.524972,459.657299,370.102971,9178.553681
1276.525291,76.609550,370.102971,9030.512492
1276.525610,0.000000,444.123565,9696.697840
1276.525929,306.438199,370.102971,9622.677246
1276.526247,76.609550,296.082377,9696.697840
1276.526566,76.609550,444.123565,9918.759623
1276.526885,0.000000,296.082377,9622.677246
1276.527204,536.266849,666.185348,9548.656652
1276.527523,919.314598,962.267725,9548.656652
1276.527842,1302.362347,814.226536,9178.553681
1276.528160,1378.971896,1110.308913,9178.553681
1276.528479,1532.190996,888.247130,8882.471304
1276.528798,1378.971896,1036.288319,8734.430116
1276.529117,1225.752797,740.205942,8956.491898
1276.529436,995.924147,814.226536,9030.512492
1276.529754,842.705048,888.247130,9178.553681
1276.530073,842.705048,740.205942,9252.574275
1276.530392,306.438199,666.185348,9548.656652
1276.530711,0.000000,518.144159,9622.677246
1276.531030,-306.438199,222.061783,9844.739029
1276.531349,0.000000,-0.000000,9548.656652
1276.531667,-612.876398,222.061783,10066.800811
1276.531986,0.000000,222.061783,9622.677246
1276.532305,-383.047749,296.082377,9696.697840
1276.532624,0.000000,518.144159,9548.656652
1276.532943,0.000000,518.144159,9400.615463
1276.533261,459.657299,888.247130,9030.512492
1276.533580,536.266849,740.205942,8956.491898
1276.533899,229.828649,740.205942,8956.491898
1276.534218,229.828649,666.185348,8882.471304
1276.534537,76.609550,740.205942,9178.553681
1276.534855,76.609550,370.102971,9104.533087
1276.535174,0.000000,148.041188,9400.615463
1276.535493,0.000000,-0.000000,9622.677246
1276.535812,-306.438199,296.082377,9474.636058
1276.536131,0.000000,-0.000000,9622.677246
1276.536450,76.609550,74.020594,9474.636058
1276.536768,153.219100,518.144159,9474.636058
1276.537087,689.485948,444.123565,9326.594869
1276.537406,1378.971896,740.205942,9252.574275
1276.537725,1378.971896,814.226536,8660.409521
1276.538044,1991.848295,962.267725,8364.327145
1276.538362,1532.190996,296.082377,8142.265362
1276.538681,1685.410096,518.144159,8438.347739
1276.539000,1532.190996,370.102971,8290.306550
1276.539319,1455.581446,370.102971,8586.388927
1276.539638,1225.752797,296.082377,8808.450710
1276.539957,766.095498,222.061783,8882.471304
1276.540275,536.266849,-0.000000,9622.677246
1276.540594,459.657299,-296.082377,9474.636058
1276.540913,0.000000,-296.082377,9474.636058
1276.541232,229.828649,-296.082377,9474.636058
1276.541551,0.000000,-370.102971,9548.656652
1276.541869,612.876398,-296.082377,9474.636058
1276.542188,536.266849,-0.000000,9178.553681
1276.542507,766.095498,-0.000000,9104.533087
1276.542826,612.876398,148.041188,8882.471304
1276.543145,536.266849,-0.000000,8586.388927
1276.543464,689.485948,-0.000000,8734.430116
1276.543782,229.828649,222.061783,8882.471304
1276.544101,229.828649,148.041188,9030.512492
1276.544420,153.219100,-0.000000,9178.553681
1276.544739,-153.219100,148.041188,9548.656652
1276.545058,-229.828649,-74.020594,9696.697840
1276.545376,-306.438199,-148.041188,9992.780217
1276.545695,76.609550,-0.000000,9696.697840
1276.546014,-229.828649,222.061783,9844.739029
1276.546333,459.657299,148.041188,9474.636058
1276.546652,459.657299,296.082377,9474.636058
1276.546971,842.705048,444.123565,9326.594869
1276.547289,919.314598,814.226536,8808.450710
1276.547608,1302.362347,814.226536,8808.450710
1276.547927,995.924147,666.185348,8882.471304
1276.548246,842.705048,370.102971,8956.491898
1276.548565,1072.533697,592.164754,8882.471304
1276.548883,536.266849,444.123565,9252.574275
1276.549202,306.438199,296.082377,9400.615463
1276.549521,-153.219100,592.164754,9770.718434
1276.549840,0.000000,370.102971,9844.739029
1276.550159,-229.828649,148.041188,9770.718434
1276.550478,-383.047749,296.082377,9696.697840
1276.550796,-383.047749,444.123565,9844.739029
1276.551115,-383.047749,370.102971,9696.697840
1276.551434,0.000000,592.164754,9474.636058
1276.551753,306.438199,888.247130,9474.636058
1276.552072,383.047749,962.267725,9178.553681
1276.552390,229.828649,888.247130,8808.450710
1276.552709,0.000000,814.226536,8734.430116
1276.553028,229.828649,962.267725,9030.512492
1276.553347,76.609550,962.267725,9104.533087
1276.553666,0.000000,814.226536,9252.574275
1276.553985,-459.657299,666.185348,9696.697840
1276.554303,-306.438199,592.164754,9918.759623
1276.554622,-459.657299,444.123565,9918.759623
1276.554941,-459.657299,518.144159,9918.759623
1276.555260,-153.219100,444.123565,9622.677246
1276.555579,459.657299,1036.288319,9696.697840
1276.555897,306.438199,740.205942,9474.636058
1276.556216,612.876398,1110.308913,9178.553681
1276.556535,995.924147,1110.308913,8808.450710
1276.556854,1455.581446,1184.329507,8512.368333
1276.557173,1378.971896,1110.308913,8512.368333
1276.557491,1149.143247,962.267725,8438.347739
1276.557810,1225.752797,814.226536,8438.347739
1276.558129,842.705048,592.164754,8956.491898
1276.558448,766.095498,592.164754,9104.533087
1276.558767,919.314598,296.082377,9326.594869
1276.559086,306.438199,148.041188,9326.594869
1276.559404,0.000000,-0.000000,9400.615463
1276.559723,0.000000,-0.000000,9474.636058
1276.560042,76.609550,-0.000000,9622.677246
1276.560361,0.000000,-0.000000,9622.677246
1276.560680,76.609550,222.061783,9474.636058
1276.560998,229.828649,148.041188,9030.512492
1276.561317,766.095498,370.102971,8882.471304
1276.561636,1072.533697,148.041188,8882.471304
1276.561955,766.095498,-0.000000,8734.430116
1276.562274,689.485948,296.082377,8364.327145
1276.562593,536.266849,444.123565,8882.471304
1276.562911,536.266849,-0.000000,8882.471304
1276.563230,0.000000,-0.000000,9400.615463
1276.563549,153.219100,-0.000000,9400.615463
1276.563868,-229.828649,-148.041188,9622.677246
1276.564187,-459.657299,-222.061783,9770.718434
1276.564505,-153.219100,-296.082377,9844.739029
1276.564824,153.219100,-444.123565,9622.677246
1276.565143,306.438199,-0.000000,9474.636058
1276.565462,612.876398,148.041188,9252.574275
1276.565781,842.705048,370.102971,9178.553681
1276.566100,842.705048,518.144159,8956.491898
1276.566418,1149.143247,148.041188,8808.450710
1276.566737,1302.362347,296.082377,8660.409521
1276.567056,1072.533697,370.102971,8882.471304
1276.567375,919.314598,148.041188,8734.430116
1276.567694,1149.143247,296.082377,8956.491898
1276.568012,612.876398,-0.000000,9474.636058
1276.568331,383.047749,148.041188,9474.636058
1276.568650,0.000000,-0.000000,9548.656652
1276.568969,0.000000,-0.000000,9696.697840
1276.569288,-459.657299,-222.061783,9844.739029
1276.569607,-153.219100,-0.000000,9770.718434
1276.569925,-229.828649,-0.000000,9474.636058
1276.570244,153.219100,296.082377,9548.656652
1276.570563,383.047749,-0.000000,9696.697840
1276.570882,459.657299,592.164754,9104.533087
1276.571201,459.657299,740.205942,8734.430116
1276.571519,766.095498,814.226536,8882.471304
1276.571838,612.876398,814.226536,8956.491898
1276.572157,459.657299,740.205942,9030.512492
1276.572476,459.657299,962.267725,9178.553681
1276.572795,383.047749,814.226536,9400.615463
1276.573114,0.000000,592.164754,9474.636058
1276.573432,0.000000,518.144159,9770.718434
1276.573751,0.000000,370.102971,10066.800811
1276.574070,0.000000,592.164754,9992.780217
1276.574389,306.438199,814.226536,9696.697840
1276.574708,612.876398,962.267725,9474.636058
1276.575026,1225.752797,1110.308913,9622.677246
1276.575345,1608.800546,1036.288319,9104.533087
1276.575664,1455.581446,1184.329507,8882.471304
1276.575983,1455.581446,962.267725,8512.368333
1276.576302,1149.143247,888.247130,8734.430116
1276.576621,1378.971896,740.205942,8882.471304
1276.576939,842.705048,444.123565,9104.533087
1276.577258,612.876398,444.123565,9326.594869
1276.577577,459.657299,740.205942,9474.636058
1276.577896,229.828649,370.102971,9548.656652
1276.578215,383.047749,296.082377,9622.677246
1276.578533,0.000000,-0.000000,9696.697840
1276.578852,-306.438199,148.041188,9696.697840
1276.579171,-306.438199,-0.000000,9770.718434
1276.579490,153.219100,74.020594,9844.739029
1276.579809,842.705048,-0.000000,9622.677246
1276.580128,229.828649,-0.000000,9326.594869
1276.580446,459.657299,296.082377,9252.574275
1276.580765,383.047749,-0.000000,8956.491898
1276.581084,459.657299,444.123565,8734.430116
1276.581403,536.266849,-0.000000,8956.491898
1276.581722,229.828649,370.102971,8882.471304
1276.582040,229.828649,222.061783,8956.491898
1276.582359,0.000000,-0.000000,9326.594869
1276.582678,0.000000,-222.061783,9548.656652
1276.582997,-689.485948,-370.102971,9474.636058
1276.583316,-383.047749,-74.020594,9548.656652
1276.583634,76.609550,-0.000000,9770.718434
1276.583953,153.219100,-0.000000,9400.615463
1276.584272,612.876398,-74.020594,9326.594869
1276.584591,995.924147,148.041188,9104.533087
1276.584910,1149.143247,370.102971,8734.430116
1276.585229,1225.752797,222.061783,8512.368333
1276.585547,1532.190996,222.061783,8512.368333
1276.585866,1685.410096,-296.082377,8438.347739
1276.586185,995.924147,-148.041188,8808.450710
1276.586504,1378.971896,296.082377,8956.491898
1276.586823,1225.752797,296.082377,8882.471304
1276.587141,1072.533697,814.226536,8882.471304
1276.587460,995.924147,444.123565,9326.594869
1276.587779,536.266849,-0.000000,9252.574275
1276.588098,306.438199,-296.082377,9326.594869
1276.588417,229.828649,-592.164754,9770.718434
1276.588736,766.095498,-370.102971,9992.780217
1276.589054,689.485948,-0.000000,9992.780217
1276.589373,842.705048,-0.000000,9474.636058
1276.589692,766.095498,-0.000000,9030.512492
1276.590011,766.095498,222.061783,8512.368333
1276.590330,612.876398,444.123565,8512.368333
1276.590648,689.485948,740.205942,8808.450710
1276.590967,306.438199,1110.308913,8364.327145
1276.591286,-229.828649,1036.288319,8660.409521
1276.591605,-536.266849,962.267725,9400.615463
1276.591924,-842.705048,444.123565,9474.636058
1276.592243,-1072.533697,-222.061783,9844.739029
1276.592561,-536.266849,-222.061783,10732.986159
1276.592880,-459.657299,370.102971,10436.903782
1276.593199,-306.438199,740.205942,9696.697840
1276.593518,0.000000,666.185348,9992.780217
1276.593837,459.657299,740.205942,9622.677246
1276.594155,919.314598,740.205942,8882.471304
1276.594474,1072.533697,1036.288319,8512.368333
1276.594793,1762.019645,1628.453072,8882.471304
1276.595112,1149.143247,2072.576638,8586.388927
1276.595431,766.095498,1258.350101,8586.388927
1276.595750,536.266849,592.164754,9178.553681
1276.596068,459.657299,444.123565,9326.594869
1276.596387,919.314598,444.123565,9400.615463
1276.596706,536.266849,518.144159,9474.636058
1276.597025,536.266849,518.144159,9992.780217
1276.597344,306.438199,296.082377,10140.821405
1276.597662,0.000000,-0.000000,10362.883188
1276.597981,383.047749,370.102971,10140.821405
1276.598300,689.485948,296.082377,9918.759623
1276.598619,612.876398,888.247130,9178.553681
1276.598938,1302.362347,888.247130,9178.553681
1276.599257,766.095498,592.164754,9030.512492
1276.599575,1072.533697,444.123565,8808.450710
1276.599894,1149.143247,370.102971,8734.430116
1276.600213,1225.752797,370.102971,8956.491898
1276.600532,842.705048,370.102971,8956.491898
1276.600851,536.266849,296.082377,9178.553681
1276.601169,153.219100,296.082377,9474.636058
1276.601488,0.000000,-74.020594,9844.739029
1276.601807,-153.219100,-148.041188,10066.800811
1276.602126,0.000000,-296.082377,9992.780217
1276.602445,229.828649,370.102971,9918.759623
1276.602764,153.219100,-0.000000,9326.594869
1276.603082,766.095498,-0.000000,9030.512492
1276.603401,689.485948,444.123565,8956.491898
1276.603720,766.095498,222.061783,8882.471304
1276.604039,1072.533697,370.102971,8290.306550
1276.604358,1225.752797,444.123565,8438.347739
1276.604676,1149.143247,370.102971,8438.347739
1276.604995,1072.533697,296.082377,8364.327145
1276.605314,766.095498,222.061783,9030.512492
1276.605633,306.438199,-0.000000,8808.450710
1276.605952,536.266849,222.061783,9104.533087
1276.606270,153.219100,-0.000000,9178.553681
1276.606589,0.000000,-222.061783,9474.636058
1276.606908,-536.266849,-444.123565,9844.739029
1276.607227,-153.219100,-0.000000,9474.636058
1276.607546,-229.828649,-0.000000,9474.636058
1276.607865,0.000000,148.041188,9104.533087
1276.608183,536.266849,296.082377,9400.615463
1276.608502,536.266849,222.061783,9326.594869
1276.608821,842.705048,666.185348,8808.450710
1276.609140,459.657299,370.102971,8512.368333
1276.609459,612.876398,444.123565,8734.430116
1276.609777,766.095498,148.041188,8882.471304
1276.610096,689.485948,370.102971,8808.450710
1276.610415,383.047749,518.144159,9252.574275
1276.610734,383.047749,370.102971,9474.636058
1276.611053,0.000000,370.102971,9548.656652
1276.611372,0.000000,-0.000000,9844.739029
1276.611690,0.000000,-0.000000,10214.842000
1276.612009,0.000000,-0.000000,10140.821405
1276.612328,383.047749,518.144159,9474.636058
1276.612647,612.876398,666.185348,9178.553681
1276.612966,1302.362347,222.061783,9252.574275
1276.613284,995.924147,370.102971,9104.533087
1276.613603,1149.143247,592.164754,8882.471304
1276.613922,1149.143247,1110.308913,8882.471304
1276.614241,1072.533697,1258.350101,8290.306550
1276.614560,919.314598,1184.329507,8956.491898
1276.614879,459.657299,814.226536,9178.553681
1276.615197,0.000000,444.123565,9770.718434
1276.615516,0.000000,370.102971,9622.677246
1276.615835,-383.047749,370.102971,9992.780217
1276.616154,-536.266849,-0.000000,10066.800811
1276.616473,0.000000,-0.000000,9992.780217
1276.616791,-383.047749,-74.020594,10214.842000
1276.617110,-153.219100,-0.000000,9918.759623
1276.617429,-153.219100,518.144159,9696.697840
1276.617748,306.438199,1110.308913,9400.615463
1276.618067,995.924147,740.205942,9400.615463
1276.618386,919.314598,888.247130,8882.471304
1276.618704,1072.533697,666.185348,8808.450710
1276.619023,919.314598,740.205942,9104.533087
1276.619342,842.705048,222.061783,9030.512492
1276.619661,612.876398,592.164754,9104.533087
1276.619980,0.000000,740.205942,9474.636058
1276.620298,459.657299,370.102971,9548.656652
1276.620617,153.219100,148.041188,9770.718434
1276.620936,229.828649,370.102971,9918.759623
1276.621255,153.219100,518.144159,9770.718434
1276.621574,76.609550,1036.288319,9030.512492
1276.621893,383.047749,592.164754,9178.553681
1276.622211,689.485948,370.102971,9474.636058
1276.622530,919.314598,444.123565,9104.533087
1276.622849,995.924147,740.205942,8586.388927
1276.623168,1225.752797,1184.329507,8290.306550
1276.623487,1072.533697,666.185348,8068.244768
1276.623805,1225.752797,666.185348,8364.327145
1276.624124,689.485948,444.123565,8586.388927
1276.624443,612.876398,518.144159,8956.491898
1276.624762,153.219100,740.205942,8734.430116
1276.625081,229.828649,592.164754,9030.512492
1276.625399,-306.438199,370.102971,9400.615463
1276.625718,-689.485948,148.041188,9622.677246
1276.626037,-689.485948,-370.102971,9400.615463
1276.626356,-459.657299,-444.123565,9622.677246
1276.626675,-229.828649,222.061783,9474.636058
1276.626994,153.219100,518.144159,9400.615463
1276.627312,76.609550,444.123565,8882.471304
1276.627631,459.657299,592.164754,9326.594869
1276.627950,1302.362347,296.082377,8882.471304
1276.628269,536.266849,740.205942,8882.471304
1276.628588,612.876398,370.102971,8586.388927
1276.628906,612.876398,296.082377,8808.450710
1276.629225,76.609550,148.041188,8882.471304
1276.629544,0.000000,-74.020594,9252.574275
1276.629863,0.000000,-0.000000,9622.677246
1276.630182,0.000000,-0.000000,9770.718434
1276.630501,153.219100,-0.000000,9548.656652
1276.630819,229.828649,-0.000000,9770.718434
1276.631138,229.828649,-0.000000,9696.697840
1276.631457,612.876398,-0.000000,9622.677246
1276.631776,1072.533697,370.102971,9400.615463
1276.632095,1532.190996,814.226536,9030.512492
1276.632413,2145.067394,444.123565,8512.368333
1276.632732,1302.362347,518.144159,8364.327145
1276.633051,1685.410096,666.185348,8586.388927
1276.633370,1149.143247,444.123565,8512.368333
1276.633689,1225.752797,888.247130,8512.368333
1276.634008,766.095498,1332.370696,8882.471304
1276.634326,919.314598,296.082377,9104.533087
1276.634645,919.314598,370.102971,9326.594869
1276.634964,153.219100,-0.000000,9474.636058
1276.635283,0.000000,-0.000000,9770.718434
1276.635602,-306.438199,-222.061783,9770.718434
1276.635920,-306.438199,148.041188,9844.739029
1276.636239,0.000000,148.041188,9770.718434
1276.636558,229.828649,148.041188,9474.636058
1276.636877,306.438199,296.082377,9400.615463
1276.637196,842.705048,-148.041188,9178.553681
1276.637514,689.485948,444.123565,8956.491898
1276.637833,689.485948,296.082377,8660.409521
1276.638152,612.876398,-0.000000,9326.594869
1276.638471,383.047749,-148.041188,9252.574275
1276.638790,459.657299,-74.020594,9770.718434
1276.639109,612.876398,-74.020594,9844.739029
1276.639427,153.219100,-296.082377,9918.759623
1276.639746,306.438199,-444.123565,10140.821405
1276.640065,383.047749,-74.020594,10288.862594
1276.640384,536.266849,-0.000000,10214.842000
1276.640703,689.485948,-222.061783,9548.656652
1276.641021,1072.533697,296.082377,9622.677246
1276.641340,995.924147,-0.000000,9474.636058
1276.641659,1532.190996,296.082377,9474.636058
1276.641978,1302.362347,-0.000000,9178.553681
1276.642297,1302.362347,296.082377,9030.512492
1276.642616,1302.362347,-0.000000,8956.491898
1276.642934,842.705048,-0.000000,9030.512492
1276.643253,612.876398,444.123565,9696.697840
1276.643572,919.314598,296.082377,9474.636058
1276.643891,306.438199,888.247130,9178.553681
1276.644210,76.609550,666.185348,9326.594869
1276.644528,0.000000,814.226536,9326.594869
1276.644847,-536.266849,888.247130,9252.574275
1276.645166,-383.047749,740.205942,9104.533087
1276.645485,-459.657299,666.185348,9474.636058
1276.645804,-153.219100,814.226536,9326.594869
1276.646123,153.219100,888.247130,9326.594869
1276.646441,0.000000,962.267725,8808.450710
1276.646760,0.000000,814.226536,8512.368333
1276.647079,229.828649,1110.308913,8512.368333
1276.647398,76.609550,1184.329507,8216.285956
1276.647717,306.438199,1406.391290,8586.388927
1276.648035,76.609550,1776.494261,8364.327145
1276.648354,-229.828649,1332.370696,8438.347739
1276.648673,-459.657299,962.267725,8956.491898
1276.648992,-612.876398,814.226536,9400.615463
1276.649311,-229.828649,370.102971,9474.636058
1276.649630,-536.266849,666.185348,9400.615463
1276.649948,229.828649,666.185348,9622.677246
1276.650267,153.219100,740.205942,9474.636058
1276.650586,689.485948,962.267725,9474.636058
1276.650905,995.924147,888.247130,9400.615463
1276.651224,1302.362347,814.226536,9104.533087
1276.651542,1302.362347,888.247130,8956.491898
1276.651861,1302.362347,666.185348,8956.491898
1276.652180,1225.752797,370.102971,8808.450710
1276.652499,842.705048,296.082377,9252.574275
1276.652818,1149.143247,444.123565,9104.533087
1276.653136,536.266849,296.082377,9548.656652
1276.653455,459.657299,-0.000000,9770.718434
1276.653774,229.828649,-148.041188,9992.780217
1276.654093,0.000000,-296.082377,10140.821405
1276.654412,0.000000,-370.102971,10362.883188
1276.654731,0.000000,-592.164754,10436.903782
1276.655049,76.609550,-518.144159,9992.780217
1276.655368,383.047749,-74.020594,10140.821405
1276.655687,0.000000,-0.000000,9770.718434
1276.656006,76.609550,-0.000000,9474.636058
1276.656325,689.485948,-0.000000,9474.636058
1276.656643,766.095498,222.061783,9178.553681
1276.656962,689.485948,370.102971,9252.574275
1276.657281,689.485948,592.164754,9030.512492
1276.657600,766.095498,370.102971,9400.615463
1276.657919,612.876398,-0.000000,9400.615463
1276.658238,995.924147,-0.000000,9696.697840
1276.658556,689.485948,-222.061783,9696.697840
1276.658875,766.095498,-222.061783,9622.677246
1276.659194,919.314598,-222.061783,9400.615463
1276.659513,1302.362347,-74.020594,9326.594869
1276.659832,1455.581446,-0.000000,9326.594869
1276.660150,1455.581446,370.102971,9104.533087
1276.660469,1378.971896,222.061783,8734.430116
1276.660788,1532.190996,444.123565,8586.388927
1276.661107,1302.362347,370.102971,8290.306550
1276.661426,1149.143247,518.144159,8290.306550
1276.661745,919.314598,222.061783,8512.368333
1276.662063,766.095498,222.061783,9104.533087
1276.662382,459.657299,-0.000000,8956.491898
1276.662701,153.219100,-0.000000,9326.594869
1276.663020,0.000000,-222.061783,9474.636058
1276.663339,0.000000,-0.000000,9474.636058
1276.663657,-459.657299,148.041188,9400.615463
1276.663976,0.000000,222.061783,9474.636058
1276.664295,76.609550,740.205942,9030.512492
1276.664614,-306.438199,666.185348,8660.409521
1276.664933,0.000000,444.123565,8882.471304
1276.665252,0.000000,962.267725,8808.450710
1276.665570,0.000000,296.082377,8364.327145
1276.665889,-306.438199,370.102971,8956.491898
1276.666208,-459.657299,296.082377,9104.533087
1276.666527,-612.876398,296.082377,9030.512492
1276.666846,-536.266849,740.205942,9326.594869
1276.667164,-689.485948,1110.308913,9252.574275
1276.667483,-536.266849,1036.288319,9326.594869
1276.667802,-536.266849,814.226536,9104.533087
1276.668121,-383.047749,1036.288319,10066.800811
1276.668440,-459.657299,1036.288319,8956.491898
1276.668758,306.438199,962.267725,9104.533087
1276.669077,0.000000,666.185348,9474.636058
1276.669396,612.876398,1332.370696,9178.553681
1276.669715,766.095498,962.267725,8808.450710
1276.670034,1378.971896,1110.308913,9326.594869
1276.670353,1838.629195,1258.350101,9252.574275
1276.670671,1685.410096,1258.350101,8216.285956
1276.670990,1762.019645,962.267725,8882.471304
1276.671309,1608.800546,814.226536,9326.594869
1276.671628,1378.971896,888.247130,9178.553681
1276.671947,1685.410096,370.102971,9474.636058
1276.672265,766.095498,148.041188,10140.821405
1276.672584,766.095498,148.041188,9474.636058
1276.672903,536.266849,-0.000000,9844.739029
1276.673222,536.266849,-222.061783,10140.821405
1276.673541,612.876398,-74.020594,10214.842000
1276.673860,459.657299,-74.020594,9992.780217
1276.674178,766.095498,222.061783,10066.800811
1276.674497,919.314598,-0.000000,9622.677246
1276.674816,1225.752797,148.041188,9474.636058
1276.675135,1302.362347,-0.000000,9400.615463
1276.675454,1302.362347,-0.000000,9030.512492
1276.675772,689.485948,-148.041188,8956.491898
1276.676091,689.485948,222.061783,8956.491898
1276.676410,153.219100,-0.000000,9474.636058
1276.676729,153.219100,-0.000000,9474.636058
1276.677048,0.000000,-370.102971,9770.718434
1276.677367,0.000000,-370.102971,9844.739029
1276.677685,0.000000,-444.123565,10140.821405
1276.678004,0.000000,-74.020594,9622.677246
1276.678323,536.266849,-74.020594,9548.656652
1276.678642,459.657299,-296.082377,9104.533087
1276.678961,919.314598,-148.041188,8956.491898
1276.679279,1225.752797,-148.041188,8586.388927
1276.679598,1608.800546,-0.000000,8438.347739
1276.679917,1532.190996,518.144159,8216.285956
1276.680236,1225.752797,296.082377,7920.203579
1276.680555,995.924147,-0.000000,8364.327145
1276.680873,842.705048,-74.020594,8734.430116
1276.681192,612.876398,148.041188,8216.285956
1276.681511,306.438199,-0.000000,9178.553681
1276.681830,383.047749,-0.000000,9474.636058
1276.682149,0.000000,-0.000000,9252.574275
1276.682468,-306.438199,-592.164754,9696.697840
1276.682786,-383.047749,444.123565,9400.615463
1276.683105,-459.657299,518.144159,8734.430116
1276.683424,0.000000,222.061783,9030.512492
1276.683743,-153.219100,370.102971,9770.718434
1276.684062,153.219100,1332.370696,8734.430116
1276.684380,76.609550,1776.494261,7624.121203
1276.684699,153.219100,1480.411884,8216.285956
1276.685018,383.047749,592.164754,8956.491898
1276.685337,0.000000,666.185348,8882.471304
1276.685656,153.219100,592.164754,8956.491898
1276.685975,76.609550,1036.288319,9252.574275
1276.686293,0.000000,1184.329507,9252.574275
1276.686612,76.609550,592.164754,9400.615463
1276.686931,0.000000,518.144159,9844.739029
1276.687250,-229.828649,740.205942,9474.636058
1276.687569,0.000000,1184.329507,9252.574275
1276.687887,689.485948,1554.432478,9178.553681
1276.688206,766.095498,1110.308913,9770.718434
1276.688525,689.485948,814.226536,9844.739029
1276.688844,1149.143247,592.164754,9104.533087
1276.689163,1149.143247,518.144159,9104.533087
1276.689482,1455.581446,518.144159,9400.615463
1276.689800,1838.629195,592.164754,9474.636058
1276.690119,1302.362347,740.205942,9622.677246
1276.690438,1149.143247,444.123565,9326.594869
1276.690757,1149.143247,740.205942,9622.677246
1276.691076,995.924147,444.123565,9770.718434
1276.691394,1072.533697,-0.000000,10066.800811
1276.691713,612.876398,-0.000000,10140.821405
1276.692032,306.438199,148.041188,9844.739029
1276.692351,153.219100,-0.000000,9918.759623
1276.692670,0.000000,-74.020594,9844.739029
1276.692989,766.095498,-666.185348,10362.883188
1276.693307,459.657299,-666.185348,10658.965565
1276.693626,919.314598,-148.041188,9622.677246
1276.693945,689.485948,518.144159,8956.491898
1276.694264,689.485948,370.102971,9252.574275
1276.694583,612.876398,-444.123565,9104.533087
1276.694901,306.438199,-370.102971,9770.718434
1276.695220,-306.438199,-148.041188,9326.594869
1276.695539,76.609550,740.205942,8956.491898
1276.695858,-229.828649,518.144159,8734.430116
1276.696177,-229.828649,222.061783,9474.636058
1276.696495,-689.485948,-74.020594,9696.697840
1276.696814,-536.266849,148.041188,9400.615463
1276.697133,0.000000,444.123565,9030.512492
1276.697452,-229.828649,888.247130,9104.533087
1276.697771,0.000000,1036.288319,9030.512492
1276.698090,612.876398,888.247130,8808.450710
1276.698408,459.657299,444.123565,8956.491898
1276.698727,689.485948,592.164754,7994.224174
1276.699046,1225.752797,740.205942,8364.327145
1276.699365,842.705048,888.247130,8290.306550
1276.699684,842.705048,740.205942,8216.285956
1276.700002,689.485948,1184.329507,8216.285956
1276.700321,766.095498,888.247130,8512.368333
1276.700640,536.266849,518.144159,8586.388927
1276.700959,689.485948,740.205942,8882.471304
1276.701278,229.828649,444.123565,9400.615463
1276.701597,229.828649,222.061783,9104.533087
1276.701915,153.219100,444.123565,9326.594869
1276.702234,306.438199,-0.000000,9252.574275
1276.702553,306.438199,-0.000000,9252.574275
1276.702872,536.266849,-0.000000,9474.636058
1276.703191,919.314598,518.144159,9178.553681
1276.703509,153.219100,666.185348,8438.347739
1276.703828,536.266849,666.185348,8734.430116
1276.704147,766.095498,518.144159,8956.491898
1276.704466,153.219100,296.082377,9400.615463
1276.704785,459.657299,370.102971,9326.594869
1276.705104,76.609550,222.061783,9548.656652
1276.705422,0.000000,-0.000000,9400.615463
1276.705741,0.000000,-0.000000,9918.759623
1276.706060,0.000000,-148.041188,9992.780217
1276.706379,0.000000,-0.000000,9770.718434
1276.706698,383.047749,-0.000000,9622.677246
1276.707016,766.095498,518.144159,9474.636058
1276.707335,689.485948,444.123565,9400.615463
1276.707654,842.705048,444.123565,9030.512492
1276.707973,995.924147,740.205942,9178.553681
1276.708292,842.705048,740.205942,9104.533087
1276.708611,766.095498,814.226536,8586.388927
1276.708929,536.266849,222.061783,9326.594869
1276.709248,536.266849,-74.020594,9474.636058
1276.709567,766.095498,370.102971,9770.718434
1276.709886,689.485948,296.082377,9844.739029
1276.710205,612.876398,518.144159,9622.677246
1276.710523,76.609550,-74.020594,9918.759623
1276.710842,229.828649,-296.082377,10066.800811
1276.711161,689.485948,-666.185348,9992.780217
1276.711480,459.657299,-0.000000,9918.759623
1276.711799,766.095498,222.061783,9474.636058
1276.712117,842.705048,222.061783,9252.574275
1276.712436,612.876398,-0.000000,9400.615463
1276.712755,842.705048,-0.000000,9252.574275
1276.713074,766.095498,148.041188,8956.491898
1276.713393,1149.143247,518.144159,8586.388927
1276.713712,919.314598,740.205942,9030.512492
1276.714030,229.828649,518.144159,9474.636058
1276.714349,383.047749,-0.000000,9326.594869
1276.714668,76.609550,-0.000000,9548.656652
1276.714987,0.000000,-0.000000,9474.636058
1276.715306,76.609550,296.082377,9474.636058
1276.715624,76.609550,444.123565,9474.636058
1276.715943,306.438199,148.041188,9178.553681
1276.716262,459.657299,518.144159,9030.512492
1276.716581,689.485948,666.185348,8808.450710
1276.716900,612.876398,1036.288319,8438.347739
1276.717219,842.705048,1480.411884,8364.327145
1276.717537,612.876398,1110.308913,8068.244768
1276.717856,689.485948,1332.370696,8142.265362
1276.718175,536.266849,888.247130,8290.306550
1276.718494,0.000000,518.144159,8882.471304
1276.718813,-229.828649,962.267725,8734.430116
1276.719132,0.000000,1036.288319,8882.471304
1276.719450,-306.438199,740.205942,9178.553681
1276.719769,-383.047749,296.082377,9178.553681
1276.720088,-1072.533697,-0.000000,9178.553681
1276.720407,-229.828649,592.164754,9474.636058
1276.720726,-536.266849,592.164754,9474.636058
1276.721045,-153.219100,888.247130,9326.594869
1276.721364,0.000000,370.102971,9548.656652
1276.721682,459.657299,518.144159,8956.491898
1276.722001,459.657299,592.164754,9326.594869
1276.722320,689.485948,592.164754,9030.512492
1276.722639,766.095498,814.226536,9178.553681
1276.722958,1149.143247,592.164754,9104.533087
1276.723277,1225.752797,222.061783,9400.615463
1276.723596,689.485948,-0.000000,9474.636058
1276.723914,612.876398,-0.000000,9844.739029
1276.724233,306.438199,-0.000000,9918.759623
1276.724552,383.047749,-74.020594,10066.800811
1276.724871,536.266849,-148.041188,10362.883188
1276.725190,612.876398,-222.061783,9992.780217
1276.725509,536.266849,-148.041188,9918.759623
1276.725828,919.314598,-0.000000,9770.718434
1276.726146,995.924147,222.061783,9474.636058
1276.726465,1149.143247,296.082377,8956.491898
1276.726784,1225.752797,-0.000000,9252.574275
1276.727103,1302.362347,-222.061783,9030.512492
1276.727422,995.924147,-148.041188,9400.615463
1276.727741,1149.143247,592.164754,9178.553681
1276.728060,536.266849,370.102971,9104.533087
1276.728378,459.657299,148.041188,9104.533087
1276.728697,76.609550,222.061783,9326.594869
1276.729016,306.438199,-74.020594,9474.636058
1276.729335,0.000000,-148.041188,9474.636058
1276.729654,0.000000,-0.000000,9326.594869
1276.729973,-229.828649,-0.000000,9474.636058
1276.730292,0.000000,-148.041188,9474.636058
1276.730610,0.000000,-148.041188,9400.615463
1276.730929,76.609550,-0.000000,9400.615463
1276.731248,306.438199,444.123565,8882.471304
1276.731567,612.876398,740.205942,8438.347739
1276.731886,612.876398,666.185348,8364.327145
1276.732205,612.876398,296.082377,8290.306550
1276.732523,459.657299,518.144159,8586.388927
1276.732842,306.438199,296.082377,8808.450710
1276.733161,842.705048,666.185348,8882.471304
1276.733480,153.219100,444.123565,8956.491898
1276.733799,459.657299,148.041188,9400.615463
1276.734118,153.219100,-74.020594,9474.636058
1276.734437,612.876398,222.061783,9400.615463
1276.734755,689.485948,518.144159,9474.636058
1276.735074,1072.533697,740.205942,9030.512492
1276.735393,1225.752797,1110.308913,8882.471304
1276.735712,1455.581446,888.247130,8956.491898
1276.736031,1378.971896,1036.288319,8660.409521
1276.736350,1302.362347,962.267725,8808.450710
1276.736669,1378.971896,888.247130,8734.430116
1276.736987,1225.752797,962.267725,8808.450710
1276.737306,766.095498,814.226536,8734.430116
1276.737625,689.485948,666.185348,9326.594869
1276.737944,383.047749,148.041188,9474.636058
1276.738263,0.000000,592.164754,9844.739029
1276.738582,0.000000,518.144159,9992.780217
1276.738901,0.000000,962.267725,9474.636058
1276.739219,0.000000,666.185348,9622.677246
1276.739538,-612.876398,296.082377,9844.739029
1276.739857,0.000000,296.082377,9770.718434
1276.740176,0.000000,518.144159,9474.636058
1276.740495,153.219100,1110.308913,9400.615463
1276.740814,0.000000,962.267725,9252.574275
1276.741133,306.438199,666.185348,9474.636058
1276.741451,76.609550,518.144159,9030.512492
1276.741770,-383.047749,518.144159,9326.594869
1276.742089,0.000000,370.102971,9622.677246
1276.742408,-306.438199,814.226536,9770.718434
1276.742727,0.000000,-0.000000,10436.903782
1276.743046,-229.828649,296.082377,9992.780217
1276.743365,-306.438199,-0.000000,9844.739029
1276.743683,0.000000,-0.000000,9844.739029
1276.744002,153.219100,444.123565,9918.759623
1276.744321,229.828649,518.144159,10288.862594
1276.744640,842.705048,814.226536,9696.697840
1276.744959,1072.533697,962.267725,9252.574275
1276.745278,1378.971896,740.205942,9400.615463
1276.745597,1455.581446,1184.329507,8142.265362
1276.745915,1532.190996,444.123565,8438.347739
1276.746234,1915.238745,-0.000000,9104.533087
1276.746553,1149.143247,444.123565,9400.615463
1276.746872,1378.971896,666.185348,9030.512492
1276.747191,842.705048,1184.329507,8956.491898
1276.747510,1149.143247,666.185348,9400.615463
1276.747829,842.705048,-148.041188,9252.574275
1276.748147,383.047749,-296.082377,9474.636058
1276.748466,383.047749,-518.144159,9474.636058
1276.748785,536.266849,222.061783,9326.594869
1276.749104,383.047749,592.164754,9030.512492
1276.749423,766.095498,-0.000000,9178.553681
1276.749742,459.657299,-148.041188,8956.491898
1276.750061,919.314598,-148.041188,8808.450710
1276.750379,1302.362347,-518.144159,8290.306550
1276.750698,995.924147,370.102971,8142.265362
1276.751017,1378.971896,296.082377,8364.327145
1276.751336,689.485948,-0.000000,8660.409521
1276.751655,76.609550,-148.041188,9104.533087
1276.751974,766.095498,-592.164754,8660.409521
1276.752293,0.000000,-0.000000,8882.471304
1276.752611,76.609550,-148.041188,9770.718434
1276.752930,0.000000,-0.000000,9030.512492
1276.753249,0.000000,-740.205942,9918.759623
1276.753568,-383.047749,-666.185348,9548.656652
1276.753887,383.047749,-296.082377,9844.739029
1276.754206,536.266849,148.041188,8808.450710
1276.754525,919.314598,962.267725,9104.533087
1276.754843,1072.533697,518.144159,8142.265362
1276.755162,689.485948,814.226536,8364.327145
1276.755481,689.485948,-0.000000,8512.368333
1276.755800,689.485948,-148.041188,9474.636058
1276.756119,919.314598,444.123565,9326.594869
1276.756438,842.705048,1332.370696,8660.409521
1276.756757,766.095498,1258.350101,8882.471304
1276.757075,-153.219100,1184.329507,9178.553681
1276.757394,0.000000,-148.041188,9844.739029
1276.757713,-229.828649,296.082377,9844.739029
1276.758032,-536.266849,740.205942,9474.636058
1276.758351,0.000000,1036.288319,9622.677246
1276.758670,0.000000,1036.288319,9918.759623
1276.758989,0.000000,-0.000000,10140.821405
1276.759307,76.609550,370.102971,10140.821405
1276.759626,383.047749,1480.411884,8956.491898
1276.759945,612.876398,1554.432478,9030.512492
1276.760264,536.266849,1776.494261,9252.574275
1276.760583,0.000000,1184.329507,9030.512492
1276.760902,612.876398,444.123565,10214.842000
1276.761220,-229.828649,1332.370696,9178.553681
1276.761539,76.609550,888.247130,9696.697840
1276.761858,229.828649,1184.329507,10066.800811
1276.762177,-229.828649,666.185348,10362.883188
1276.762496,76.609550,-74.020594,10584.944971
1276.762815,0.000000,518.144159,10658.965565
1276.763134,536.266849,666.185348,10288.862594
1276.763452,919.314598,1110.308913,9474.636058
1276.763771,1455.581446,1036.288319,9548.656652
1276.764090,1608.800546,666.185348,9400.615463
1276.764409,1532.190996,518.144159,9474.636058
1276.764728,1838.629195,370.102971,8808.450710
1276.765047,1685.410096,296.082377,9474.636058
1276.765366,1225.752797,148.041188,9326.594869
1276.765684,1149.143247,296.082377,9104.533087
1276.766003,842.705048,-0.000000,9030.512492
1276.766322,995.924147,-0.000000,9252.574275
1276.766641,842.705048,296.082377,9178.553681
1276.766960,229.828649,-444.123565,9474.636058
1276.767279,383.047749,-370.102971,9252.574275
1276.767598,0.000000,-444.123565,9474.636058
1276.767916,153.219100,-296.082377,9474.636058
1276.768235,76.609550,-592.164754,9326.594869
1276.768554,229.828649,-0.000000,8882.471304
1276.768873,612.876398,-0.000000,8512.368333
1276.769192,689.485948,-0.000000,8216.285956
1276.769511,919.314598,-74.020594,8438.347739
1276.769830,919.314598,-74.020594,8290.306550
1276.770148,766.095498,148.041188,8142.265362
1276.770467,536.266849,444.123565,7772.162391
1276.770786,459.657299,518.144159,8142.265362
1276.771105,306.438199,-0.000000,8438.347739
1276.771424,229.828649,-518.144159,9030.512492
1276.771743,-459.657299,-740.205942,9030.512492
1276.772062,0.000000,-444.123565,8734.430116
1276.772380,383.047749,-296.082377,8956.491898
1276.772699,459.657299,-74.020594,9030.512492
1276.773018,536.266849,-518.144159,8586.388927
1276.773337,766.095498,-0.000000,8808.450710
1276.773656,919.314598,444.123565,8438.347739
1276.773975,919.314598,592.164754,8512.368333
1276.774294,1072.533697,518.144159,8512.368333
1276.774612,919.314598,-0.000000,8882.471304
1276.774931,612.876398,-0.000000,8808.450710
1276.775250,229.828649,-148.041188,9326.594869
1276.775569,0.000000,-74.020594,9622.677246
1276.775888,-153.219100,-74.020594,9622.677246
1276.776207,0.000000,-0.000000,9770.718434
1276.776526,-536.266849,-148.041188,10214.842000
1276.776844,-459.657299,-222.061783,10436.903782
1276.777163,-459.657299,-222.061783,10288.862594
1276.777482,-306.438199,222.061783,10140.821405
1276.777801,-229.828649,814.226536,9696.697840
1276.778120,0.000000,888.247130,9844.739029
1276.778439,76.609550,592.164754,9696.697840
1276.778758,153.219100,444.123565,9696.697840
1276.779076,383.047749,740.205942,9474.636058
1276.779395,459.657299,1332.370696,9178.553681
1276.779714,459.657299,1332.370696,9030.512492
1276.780033,459.657299,1036.288319,9474.636058
1276.780352,306.438199,962.267725,10066.800811
1276.780671,612.876398,740.205942,10214.842000
1276.780990,-153.219100,888.247130,10214.842000
1276.781308,459.657299,1110.308913,9770.718434
1276.781627,612.876398,1332.370696,9844.739029
1276.781946,919.314598,1184.329507,9770.718434
1276.782265,842.705048,1184.329507,9622.677246
1276.782584,1378.971896,1332.370696,9474.636058
1276.782903,1685.410096,1554.432478,9104.533087
1276.783222,1915.238745,1406.391290,8660.409521
1276.783540,2145.067394,1036.288319,8956.491898
1276.783859,1915.238745,1110.308913,9326.594869
1276.784178,1991.848295,888.247130,8734.430116
1276.784497,1455.581446,888.247130,9104.533087
1276.784816,1378.971896,888.247130,9104.533087
1276.785135,689.485948,666.185348,9474.636058
1276.785454,306.438199,222.061783,9474.636058
1276.785772,76.609550,-0.000000,9696.697840
1276.786091,0.000000,-74.020594,9622.677246
1276.786410,-153.219100,-296.082377,9770.718434
1276.786729,0.000000,-74.020594,9622.677246
1276.787048,0.000000,74.020594,9844.739029
1276.787367,0.000000,-74.020594,9326.594869
1276.787686,383.047749,296.082377,9252.574275
1276.788004,153.219100,222.061783,8956.491898
1276.788323,459.657299,518.144159,8882.471304
1276.788642,383.047749,222.061783,8660.409521
1276.788961,153.219100,148.041188,8882.471304
1276.789280,153.219100,-0.000000,8734.430116
1276.789599,0.000000,-0.000000,8882.471304
1276.789917,0.000000,-74.020594,9178.553681
1276.790236,76.609550,-0.000000,9252.574275
1276.790555,-229.828649,-444.123565,9474.636058
1276.790874,0.000000,-370.102971,9178.553681
1276.791193,0.000000,-148.041188,9252.574275
1276.791512,76.609550,148.041188,9104.533087
1276.791831,459.657299,-0.000000,8882.471304
1276.792149,459.657299,592.164754,8660.409521
1276.792468,689.485948,148.041188,8512.368333
1276.792787,919.314598,296.082377,8438.347739
1276.793106,766.095498,74.020594,8438.347739
1276.793425,459.657299,370.102971,8142.265362
1276.793744,919.314598,444.123565,8364.327145
1276.794063,536.266849,296.082377,8660.409521
1276.794381,766.095498,-0.000000,9252.574275
1276.794700,383.047749,-0.000000,9178.553681
1276.795019,0.000000,-0.000000,9400.615463
1276.795338,0.000000,-222.061783,9474.636058
1276.795657,0.000000,-74.020594,9696.697840
1276.795976,0.000000,-0.000000,9696.697840
1276.796295,0.000000,-74.020594,9474.636058
1276.796613,153.219100,-0.000000,9696.697840
1276.796932,536.266849,296.082377,9178.553681
1276.797251,612.876398,296.082377,9104.533087
1276.797570,919.314598,518.144159,8808.450710
1276.797889,919.314598,370.102971,8660.409521
1276.798208,995.924147,370.102971,9030.512492
1276.798527,766.095498,592.164754,9252.574275
1276.798845,766.095498,444.123565,9252.574275
1276.799164,689.485948,740.205942,9474.636058
1276.799483,459.657299,518.144159,9548.656652
1276.799802,689.485948,518.144159,9844.739029
1276.800121,766.095498,370.102971,10066.800811
1276.800440,689.485948,518.144159,9622.677246
1276.800759,766.095498,740.205942,9770.718434
1276.801077,766.095498,1036.288319,9474.636058
1276.801396,1149.143247,962.267725,9104.533087
1276.801715,1225.752797,962.267725,9030.512492
1276.802034,1302.362347,962.267725,8734.430116
1276.802353,1149.143247,1036.288319,8808.450710
1276.802672,1072.533697,1036.288319,8586.388927
1276.802991,1072.533697,1036.288319,8808.450710
1276.803309,689.485948,592.164754,8956.491898
1276.803628,689.485948,666.185348,8882.471304
1276.803947,153.219100,740.205942,9400.615463
1276.804266,-306.438199,518.144159,9474.636058
1276.804585,-229.828649,444.123565,9844.739029
1276.804904,-612.876398,370.102971,9918.759623
1276.805223,-919.314598,296.082377,9918.759623
1276.805541,-919.314598,370.102971,9844.739029
1276.805860,-459.657299,148.041188,9770.718434
1276.806179,-459.657299,740.205942,9770.718434
1276.806498,0.000000,666.185348,9474.636058
1276.806817,76.609550,518.144159,9178.553681
1276.807136,0.000000,592.164754,9178.553681
1276.807455,0.000000,592.164754,9030.512492
1276.807773,0.000000,148.041188,9252.574275
1276.808092,153.219100,296.082377,9104.533087
1276.808411,0.000000,222.061783,9400.615463
1276.808730,-153.219100,296.082377,9548.656652
1276.809049,76.609550,-74.020594,9844.739029
1276.809368,-689.485948,-74.020594,9770.718434
1276.809687,-153.219100,-0.000000,10288.862594
1276.810005,229.828649,148.041188,9918.759623
1276.810324,459.657299,-0.000000,9622.677246
1276.810643,1455.581446,296.082377,9326.594869
1276.810962,1225.752797,370.102971,9252.574275
1276.811281,1608.800546,518.144159,8882.471304
1276.811600,1532.190996,444.123565,8586.388927
1276.811919,1685.410096,592.164754,8660.409521
1276.812237,1991.848295,592.164754,8290.306550
1276.812556,1915.238745,666.185348,8660.409521
1276.812875,1378.971896,518.144159,8512.368333
1276.813194,1149.143247,370.102971,8734.430116
1276.813513,1072.533697,296.082377,8956.491898
1276.813832,536.266849,-148.041188,9474.636058
1276.814151,306.438199,-222.061783,9474.636058
1276.814469,153.219100,-148.041188,9548.656652
1276.814788,0.000000,-222.061783,9400.615463
1276.815107,229.828649,-0.000000,9326.594869
1276.815426,0.000000,-0.000000,9474.636058
1276.815745,76.609550,518.144159,9030.512492
1276.816064,459.657299,666.185348,8882.471304
1276.816383,536.266849,444.123565,8660.409521
1276.816701,689.485948,444.123565,8586.388927
1276.817020,536.266849,444.123565,8438.347739
1276.817339,536.266849,518.144159,8586.388927
1276.817658,229.828649,444.123565,8734.430116
1276.817977,0.000000,444.123565,8956.491898
1276.818295,0.000000,222.061783,9474.636058
1276.818614,229.828649,296.082377,9474.636058
1276.818933,0.000000,-0.000000,9474.636058
1276.819252,0.000000,296.082377,9474.636058
1276.819571,0.000000,222.061783,9474.636058
1276.819889,536.266849,-0.000000,9178.553681
1276.820208,689.485948,592.164754,9104.533087
1276.820527,689.485948,518.144159,9030.512492
1276.820846,1072.533697,962.267725,8882.471304
1276.821165,1149.143247,518.144159,8808.450710
1276.821483,1225.752797,370.102971,9030.512492
1276.821802,919.314598,370.102971,8512.368333
1276.822121,919.314598,444.123565,9104.533087
1276.822440,842.705048,518.144159,9104.533087
1276.822758,995.924147,666.185348,9326.594869
1276.823077,229.828649,592.164754,9474.636058
1276.823396,0.000000,296.082377,9474.636058
1276.823715,0.000000,148.041188,9770.718434
1276.824034,0.000000,148.041188,9548.656652
1276.824352,-153.219100,-0.000000,9992.780217
1276.824671,0.000000,148.041188,9696.697840
1276.824990,153.219100,592.164754,9622.677246
1276.825309,229.828649,370.102971,9474.636058
1276.825628,383.047749,592.164754,9474.636058
1276.825946,459.657299,592.164754,9326.594869
1276.826265,536.266849,666.185348,9178.553681
1276.826584,459.657299,814.226536,9178.553681
1276.826903,536.266849,666.185348,9252.574275
1276.827222,536.266849,370.102971,9474.636058
1276.827540,383.047749,444.123565,9844.739029
1276.827859,306.438199,222.061783,9844.739029
1276.828178,229.828649,148.041188,10140.821405
1276.828497,306.438199,-0.000000,10362.883188
1276.828816,0.000000,-0.000000,10140.821405
1276.829134,306.438199,222.061783,10140.821405
1276.829453,536.266849,370.102971,9918.759623
1276.829772,919.314598,444.123565,9548.656652
1276.830091,1455.581446,518.144159,9474.636058
1276.830410,1608.800546,296.082377,9104.533087
1276.830728,1532.190996,740.205942,8956.491898
1276.831047,1302.362347,370.102971,8808.450710
1276.831366,1608.800546,296.082377,8808.450710
1276.831685,1149.143247,444.123565,9252.574275
1276.832003,919.314598,296.082377,9326.594869
1276.832322,766.095498,518.144159,9178.553681
1276.832641,153.219100,222.061783,9474.636058
1276.832960,229.828649,-148.041188,9326.594869
1276.833279,76.609550,370.102971,9326.594869
1276.833597,0.000000,148.041188,9326.594869
1276.833916,0.000000,148.041188,9326.594869
1276.834235,-153.219100,296.082377,8956.491898
1276.834554,229.828649,518.144159,8882.471304
1276.834873,306.438199,370.102971,8142.265362
1276.835191,229.828649,666.185348,8290.306550
1276.835510,459.657299,888.247130,8142.265362
1276.835829,536.266849,740.205942,8290.306550
1276.836148,153.219100,518.144159,8660.409521
1276.836467,306.438199,592.164754,8586.388927
1276.836785,0.000000,296.082377,8660.409521
1276.837104,76.609550,-0.000000,9030.512492
1276.837423,-153.219100,222.061783,9178.553681
1276.837742,0.000000,-0.000000,9178.553681
1276.838061,153.219100,-0.000000,9030.512492
1276.838379,612.876398,-0.000000,9178.553681
1276.838698,306.438199,222.061783,9400.615463
1276.839017,842.705048,518.144159,9104.533087
1276.839336,1302.362347,370.102971,8734.430116
1276.839655,1455.581446,370.102971,8734.430116
1276.839973,1608.800546,222.061783,8586.388927
1276.840292,1608.800546,-0.000000,8586.388927
1276.840611,1455.581446,-0.000000,8808.450710
1276.840930,1302.362347,-0.000000,9252.574275
1276.841248,919.314598,-74.020594,9474.636058
1276.841567,1225.752797,-0.000000,9474.636058
1276.841886,612.876398,-0.000000,9696.697840
1276.842205,459.657299,-296.082377,9918.759623
1276.842524,0.000000,-370.102971,10140.821405
1276.842842,306.438199,-148.041188,10066.800811
1276.843161,153.219100,-148.041188,10066.800811
1276.843480,229.828649,-296.082377,9918.759623
1276.843799,153.219100,-148.041188,9844.739029
1276.844118,536.266849,-296.082377,9474.636058
1276.844436,459.657299,148.041188,9400.615463
1276.844755,842.705048,518.144159,8956.491898
1276.845074,1072.533697,296.082377,9104.533087
1276.845393,842.705048,740.205942,9030.512492
1276.845712,612.876398,592.164754,9104.533087
1276.846030,383.047749,740.205942,9252.574275
1276.846349,229.828649,666.185348,9400.615463
1276.846668,229.828649,370.102971,9696.697840
1276.846987,306.438199,222.061783,9844.739029
1276.847306,0.000000,518.144159,10214.842000
1276.847624,229.828649,592.164754,9474.636058
1276.847943,612.876398,518.144159,9622.677246
1276.848262,842.705048,1110.308913,9474.636058
1276.848581,1762.019645,962.267725,9326.594869
1276.848900,1225.752797,1036.288319,8882.471304
1276.849218,1225.752797,1036.288319,8660.409521
1276.849537,1149.143247,1110.308913,8586.388927
1276.849856,1225.752797,1258.350101,8512.368333
1276.850175,1378.971896,444.123565,8438.347739
1276.850493,919.314598,740.205942,8734.430116
1276.850812,689.485948,740.205942,9178.553681
1276.851131,229.828649,222.061783,9252.574275
1276.851450,383.047749,222.061783,9252.574275
1276.851769,0.000000,370.102971,9474.636058
1276.852087,-229.828649,222.061783,9770.718434
1276.852406,-383.047749,148.041188,9770.718434
1276.852725,-612.876398,222.061783,9696.697840
1276.853044,-153.219100,296.082377,9622.677246
1276.853363,0.000000,148.041188,9400.615463
1276.853681,0.000000,592.164754,9030.512492
1276.854000,229.828649,370.102971,8956.491898
1276.854319,-229.828649,740.205942,8882.471304
1276.854638,0.000000,666.185348,8734.430116
1276.854957,0.000000,444.123565,8660.409521
1276.855275,0.000000,592.164754,8956.491898
1276.855594,0.000000,370.102971,9252.574275
1276.855913,-383.047749,518.144159,9252.574275
1276.856232,-306.438199,296.082377,9548.656652
1276.856551,-229.828649,296.082377,9474.636058
1276.856869,0.000000,-0.000000,9696.697840
1276.857188,0.000000,-0.000000,9992.780217
1276.857507,0.000000,518.144159,9326.594869
1276.857826,842.705048,888.247130,9030.512492
1276.858145,1072.533697,370.102971,9474.636058
1276.858463,1455.581446,518.144159,9104.533087
1276.858782,1302.362347,296.082377,8734.430116
1276.859101,1608.800546,370.102971,8882.471304
1276.859420,1532.190996,592.164754,8586.388927
1276.859738,1608.800546,444.123565,8734.430116
1276.860057,1302.362347,-0.000000,8956.491898
1276.860376,1378.971896,-0.000000,9104.533087
1276.860695,612.876398,296.082377,9252.574275
1276.861014,536.266849,-74.020594,9474.636058
1276.861332,612.876398,-370.102971,9696.697840
1276.861651,383.047749,-74.020594,9918.759623
1276.861970,383.047749,-296.082377,9992.780217
1276.862289,459.657299,-296.082377,9696.697840
1276.862608,612.876398,-148.041188,9622.677246
1276.862926,766.095498,-0.000000,9400.615463
1276.863245,995.924147,-0.000000,9178.553681
1276.863564,842.705048,-148.041188,8808.450710
1276.863883,1072.533697,518.144159,9178.553681
1276.864202,1072.533697,518.144159,8734.430116
1276.864520,766.095498,148.041188,9030.512492
1276.864839,536.266849,444.123565,8956.491898
1276.865158,0.000000,592.164754,9474.636058
1276.865477,-153.219100,444.123565,9252.574275
1276.865796,0.000000,-0.000000,9622.677246
1276.866114,-306.438199,-0.000000,9770.718434
1276.866433,-306.438199,-222.061783,9770.718434
1276.866752,-229.828649,148.041188,9696.697840
1276.867071,0.000000,444.123565,9252.574275
1276.867389,689.485948,814.226536,9104.533087
1276.867708,689.485948,740.205942,9030.512492
1276.868027,842.705048,814.226536,8808.450710
1276.868346,1072.533697,888.247130,8438.347739
1276.868665,919.314598,962.267725,8364.327145
1276.868983,919.314598,962.267725,8438.347739
1276.869302,919.314598,888.247130,8512.368333
1276.869621,459.657299,518.144159,8956.491898
1276.869940,306.438199,518.144159,9104.533087
1276.870259,229.828649,518.144159,9400.615463
1276.870577,0.000000,370.102971,9474.636058
1276.870896,0.000000,148.041188,9844.739029
1276.871215,0.000000,-370.102971,9770.718434
1276.871534,0.000000,148.041188,9622.677246
1276.871853,0.000000,222.061783,9622.677246
1276.872171,229.828649,518.144159,9474.636058
1276.872490,0.000000,444.123565,9474.636058
1276.872809,0.000000,222.061783,9474.636058
1276.873128,459.657299,370.102971,9178.553681
1276.873447,459.657299,592.164754,9030.512492
1276.873765,689.485948,518.144159,9030.512492
1276.874084,612.876398,518.144159,9178.553681
1276.874403,383.047749,444.123565,9326.594869
1276.874722,306.438199,296.082377,9474.636058
1276.875041,153.219100,296.082377,9770.718434
1276.875359,153.219100,222.061783,9622.677246
1276.875678,76.609550,-0.000000,9696.697840
1276.875997,229.828649,444.123565,9844.739029
1276.876316,842.705048,740.205942,9548.656652
1276.876634,536.266849,592.164754,9696.697840
1276.876953,766.095498,592.164754,9326.594869
1276.877272,995.924147,814.226536,9326.594869
1276.877591,1149.143247,666.185348,8808.450710
1276.877910,1149.143247,666.185348,8882.471304
1276.878228,689.485948,592.164754,8882.471304
1276.878547,1072.533697,518.144159,9030.512492
1276.878866,536.266849,666.185348,9030.512492
1276.879185,536.266849,666.185348,9252.574275
1276.879504,76.609550,444.123565,9178.553681
1276.879822,0.000000,296.082377,9474.636058
1276.880141,-459.657299,-0.000000,9548.656652
1276.880460,-229.828649,-0.000000,9474.636058
1276.880779,-306.438199,222.061783,9474.636058
1276.881098,0.000000,222.061783,9474.636058
1276.881416,153.219100,148.041188,9474.636058
1276.881735,153.219100,-74.020594,9178.553681
1276.882054,536.266849,74.020594,8882.471304
1276.882373,459.657299,222.061783,9178.553681
1276.882692,536.266849,296.082377,8660.409521
1276.883010,766.095498,-0.000000,8808.450710
1276.883329,536.266849,222.061783,8734.430116
1276.883648,229.828649,296.082377,8956.491898
1276.883967,306.438199,444.123565,9326.594869
1276.884286,383.047749,296.082377,9326.594869
1276.884604,459.657299,296.082377,9622.677246
1276.884923,153.219100,148.041188,9474.636058
1276.885242,229.828649,-0.000000,9548.656652
1276.885561,536.266849,222.061783,9696.697840
1276.885879,842.705048,370.102971,9696.697840
1276.886198,995.924147,-74.020594,9474.636058
1276.886517,1455.581446,814.226536,9030.512492
1276.886836,1378.971896,666.185348,8512.368333
1276.887155,1532.190996,740.205942,8586.388927
1276.887473,1685.410096,666.185348,8512.368333
1276.887792,1149.143247,518.144159,8512.368333
1276.888111,842.705048,740.205942,8734.430116
1276.888430,536.266849,518.144159,8882.471304
1276.888749,459.657299,518.144159,9030.512492
1276.889067,76.609550,-0.000000,9400.615463
1276.889386,-459.657299,-296.082377,9474.636058
1276.889705,-612.876398,-370.102971,9548.656652
1276.890024,-383.047749,-0.000000,9696.697840
1276.890343,-383.047749,-0.000000,9696.697840
1276.890661,-229.828649,148.041188,9696.697840
1276.890980,-229.828649,296.082377,9474.636058
1276.891299,76.609550,592.164754,9104.533087
1276.891618,76.609550,592.164754,9030.512492
1276.891937,229.828649,518.144159,8882.471304
1276.892255,919.314598,148.041188,9178.553681
1276.892574,153.219100,444.123565,9326.594869
1276.892893,229.828649,444.123565,9178.553681
1276.893212,153.219100,666.185348,9104.533087
1276.893531,306.438199,518.144159,9696.697840
1276.893849,0.000000,-0.000000,10066.800811
1276.894168,153.219100,222.061783,9770.718434
1276.894487,76.609550,-0.000000,9992.780217
1276.894806,153.219100,222.061783,9844.739029
1276.895124,766.095498,-0.000000,9696.697840
1276.895443,919.314598,-0.000000,9474.636058
1276.895762,995.924147,666.185348,9252.574275
1276.896081,995.924147,888.247130,9030.512492
1276.896400,1302.362347,888.247130,8956.491898
1276.896718,1915.238745,740.205942,8808.450710
1276.897037,1302.362347,740.205942,8808.450710
1276.897356,1455.581446,740.205942,9178.553681
1276.897675,842.705048,518.144159,8956.491898
1276.897994,766.095498,518.144159,9326.594869
1276.898312,306.438199,444.123565,9622.677246
1276.898631,0.000000,370.102971,9770.718434
1276.898950,-153.219100,222.061783,9622.677246
1276.899269,-229.828649,148.041188,9696.697840
1276.899588,-306.438199,296.082377,9696.697840
1276.899906,0.000000,-0.000000,9770.718434
1276.900225,-229.828649,296.082377,9474.636058
1276.900544,0.000000,370.102971,9326.594869
1276.900863,153.219100,444.123565,9030.512492
1276.901182,153.219100,592.164754,8956.491898
1276.901500,229.828649,222.061783,8734.430116
1276.901819,0.000000,296.082377,8882.471304
1276.902138,689.485948,666.185348,8882.471304
1276.902457,459.657299,518.144159,8882.471304
1276.902776,229.828649,518.144159,9178.553681
1276.903094,383.047749,-74.020594,9400.615463
1276.903413,76.609550,222.061783,9400.615463
1276.903732,229.828649,222.061783,9696.697840
1276.904051,153.219100,-0.000000,9770.718434
1276.904369,919.314598,-74.020594,9474.636058
1276.904688,995.924147,296.082377,9770.718434
1276.905007,919.314598,518.144159,9104.533087
1276.905326,1532.190996,814.226536,9178.553681
1276.905645,1455.581446,444.123565,8660.409521
1276.905963,1762.019645,222.061783,8586.388927
1276.906282,1838.629195,518.144159,8734.430116
1276.906601,1455.581446,370.102971,8808.450710
1276.906920,1072.533697,444.123565,8956.491898
1276.907239,995.924147,222.061783,9030.512492
1276.907557,919.314598,222.061783,9178.553681
1276.907876,919.314598,-0.000000,9326.594869
1276.908195,76.609550,-296.082377,9548.656652
1276.908514,0.000000,-74.020594,9474.636058
1276.908833,0.000000,-148.041188,9548.656652
1276.909151,-153.219100,-0.000000,9622.677246
1276.909470,0.000000,-0.000000,9474.636058
1276.909789,0.000000,518.144159,9326.594869
1276.910108,76.609550,296.082377,9104.533087
1276.910427,229.828649,222.061783,9400.615463
1276.910745,383.047749,518.144159,8734.430116
1276.911064,153.219100,370.102971,8734.430116
1276.911383,153.219100,444.123565,8882.471304
1276.911702,0.000000,518.144159,8734.430116
