#time,accel_x,accel_y,accel_z
1364.442185,0.000000,1628.453072,10510.924376
1364.442504,-689.485948,-0.000000,12065.356855
1364.442823,-1608.800546,-1628.453072,11547.212695
1364.443142,-2528.115143,-2220.617826,11843.295072
1364.443461,-3140.991542,-2294.638420,12953.603985
1364.443779,-3983.696590,-2442.679609,13101.645173
1364.444098,-3907.087040,-1332.370696,11769.274478
1364.444417,-3600.648841,-222.061783,10436.903782
1364.444736,-3447.429741,370.102971,10066.800811
1364.445055,-3524.039291,370.102971,9178.553681
1364.445374,-3907.087040,-888.247130,8290.306550
1364.445693,-4290.134789,-1480.411884,7550.100608
1364.446012,-4749.792088,-2072.576638,8068.244768
1364.446331,-4519.963438,-3404.947333,7698.141797
1364.446649,-3983.696590,-2960.823768,7328.038826
1364.446968,-3217.601092,-2516.700203,8142.265362
1364.447287,-2528.115143,-740.205942,7550.100608
1364.447606,-1302.362347,-592.164754,6957.935855
1364.447925,-536.266849,518.144159,6735.874072
1364.448244,0.000000,814.226536,6069.688724
1364.448563,459.657299,444.123565,5995.668130
1364.448882,919.314598,222.061783,5107.421000
1364.449200,1149.143247,444.123565,5181.441594
1364.449519,1149.143247,222.061783,5107.421000
1364.449838,1455.581446,-0.000000,6217.729913
1364.450157,1991.848295,592.164754,6513.812290
1364.450476,1838.629195,1332.370696,5699.585753
1364.450795,2068.457845,1924.535449,5921.647536
1364.451114,2298.286494,1998.556043,6661.853478
1364.451433,1915.238745,1480.411884,6957.935855
1364.451752,919.314598,370.102971,7624.121203
1364.452070,383.047749,-296.082377,8586.388927
1364.452389,-1302.362347,-1110.308913,8808.450710
1364.452708,-1455.581446,-222.061783,8586.388927
1364.453027,-1838.629195,-0.000000,8586.388927
1364.453346,-2374.896044,592.164754,9696.697840
1364.453665,-2834.553343,1628.453072,8882.471304
1364.453984,-3064.381992,2442.679609,8956.491898
1364.454303,-3294.210641,2294.638420,9474.636058
1364.454622,-3753.867940,2812.782580,10807.006753
1364.454940,-4443.353888,2516.700203,9918.759623
1364.455259,-3907.087040,2738.761985,9622.677246
1364.455578,-4673.182538,2886.803174,10214.842000
1364.455897,-5056.230287,3108.864956,10066.800811
1364.456216,-4903.011187,4145.153275,9770.718434
1364.456535,-4826.401637,3997.112087,10140.821405
1364.456854,-4826.401637,4663.297435,10510.924376
1364.457173,-4749.792088,4515.256246,10510.924376
1364.457492,-4673.182538,5033.400406,11103.089130
1364.457810,-4826.401637,4811.338623,11621.233289
1364.458129,-4673.182538,4737.318029,11695.253884
1364.458448,-4136.915689,5551.544565,11621.233289
1364.458767,-3140.991542,5847.626942,10584.944971
1364.459086,-2374.896044,6069.688724,9770.718434
1364.459405,-1608.800546,5995.668130,9696.697840
1364.459724,-689.485948,6143.709319,9252.574275
1364.460043,-766.095498,6661.853478,8660.409521
1364.460362,-919.314598,6957.935855,8882.471304
1364.460680,-766.095498,6809.894666,9548.656652
1364.460999,-766.095498,6735.874072,9992.780217
1364.461318,0.000000,5995.668130,10510.924376
1364.461637,153.219100,5181.441594,11399.171507
1364.461956,1532.190996,4737.318029,11325.150913
1364.462275,2757.943793,4737.318029,10436.903782
1364.462594,3217.601092,4515.256246,9474.636058
1364.462913,3217.601092,3849.070898,9030.512492
1364.463232,3370.820191,3330.926739,8216.285956
1364.463550,3140.991542,3923.091493,7105.977043
1364.463869,1608.800546,4219.173869,5847.626942
1364.464188,76.609550,5033.400406,5921.647536
1364.464507,-2221.676944,4145.153275,6513.812290
1364.464826,-4749.792088,2960.823768,7550.100608
1364.465145,-7124.688131,1998.556043,8882.471304
1364.465464,-9193.145976,1184.329507,10362.883188
1364.465783,-10265.679673,1184.329507,11547.212695
1364.466102,-10648.727422,1332.370696,11769.274478
1364.466420,-10648.727422,1702.473667,11547.212695
1364.466739,-9959.241474,2368.659014,11769.274478
1364.467058,-8733.488677,2960.823768,11103.089130
1364.467377,-7201.297681,4293.194464,10288.862594
1364.467696,-5669.106685,5625.565159,8956.491898
1364.468015,-4213.525239,6217.729913,7476.080014
1364.468334,-3140.991542,6587.832884,6365.771101
1364.468653,-1838.629195,6069.688724,5847.626942
1364.468972,-766.095498,5773.606348,6365.771101
1364.469290,306.438199,5699.585753,6291.750507
1364.469609,766.095498,5255.462188,5921.647536
1364.469928,842.705048,4663.297435,7031.956449
1364.470247,766.095498,3330.926739,7550.100608
1364.470566,229.828649,2146.597232,8364.327145
1364.470885,-689.485948,1554.432478,9178.553681
1364.471204,-1685.410096,2368.659014,9030.512492
1364.471523,-2145.067394,2664.741391,9770.718434
1364.471842,-2221.676944,2294.638420,10288.862594
1364.472160,-2298.286494,666.185348,11547.212695
1364.472479,-1608.800546,-0.000000,12879.583391
1364.472798,-306.438199,518.144159,12657.521608
1364.473117,1072.533697,666.185348,11843.295072
1364.473436,3217.601092,-1036.288319,12435.459826
1364.473755,4979.620737,-1406.391290,12583.501014
1364.474074,6741.640382,-2072.576638,12139.377449
1364.474393,8963.317327,-1258.350101,10362.883188
1364.474712,10648.727422,-74.020594,8882.471304
1364.475030,11108.384721,-0.000000,6883.915261
1364.475349,9729.412825,-0.000000,6217.729913
1364.475668,6741.640382,-2220.617826,7402.059420
1364.475987,2834.553343,-4145.153275,9400.615463
1364.476306,-383.047749,-5107.421000,10436.903782
1364.476625,-2068.457845,-4959.379811,11547.212695
1364.476944,-3677.258390,-4219.173869,12731.542202
1364.477263,-3907.087040,-5107.421000,12953.603985
1364.477581,-3140.991542,-5403.503377,13619.789333
1364.477900,-2757.943793,-5033.400406,13693.809927
1364.478219,-2374.896044,-3775.050304,12287.418637
1364.478538,-1915.238745,-2664.741391,11621.233289
1364.478857,-1915.238745,-1406.391290,10732.986159
1364.479176,-1225.752797,-962.267725,9252.574275
1364.479495,-383.047749,518.144159,7328.038826
1364.479814,1225.752797,2812.782580,5699.585753
1364.480132,1991.848295,3923.091493,3478.967927
1364.480451,1378.971896,3627.009116,2960.823768
1364.480770,536.266849,1850.514855,5033.400406
1364.481089,-1225.752797,-148.041188,6735.874072
1364.481408,-1532.190996,-888.247130,7550.100608
1364.481727,-1685.410096,-518.144159,8364.327145
1364.482046,-1762.019645,444.123565,8512.368333
1364.482364,-1915.238745,1036.288319,8512.368333
1364.482683,-2068.457845,1332.370696,9252.574275
1364.483002,-1838.629195,1924.535449,8956.491898
1364.483321,-995.924147,3034.844362,8364.327145
1364.483640,0.000000,5181.441594,6291.750507
1364.483959,383.047749,5551.544565,5033.400406
1364.484278,1072.533697,4959.379811,4885.359217
1364.484597,1838.629195,4959.379811,5921.647536
1364.484915,2068.457845,3997.112087,6957.935855
1364.485234,2221.676944,3849.070898,7254.018232
1364.485553,2145.067394,4811.338623,7920.203579
1364.485872,2221.676944,4219.173869,9400.615463
1364.486191,1378.971896,2960.823768,10362.883188
1364.486510,306.438199,2664.741391,10510.924376
1364.486829,-153.219100,2960.823768,10510.924376
1364.487148,-995.924147,3627.009116,9252.574275
1364.487466,-1762.019645,3701.029710,9400.615463
1364.487785,-2145.067394,2368.659014,10807.006753
1364.488104,-2604.724693,1036.288319,11029.068536
1364.488423,-2451.505594,1184.329507,11325.150913
1364.488742,-1915.238745,2146.597232,10658.965565
1364.489061,-689.485948,3182.885551,10140.821405
1364.489380,0.000000,3108.864956,10362.883188
1364.489699,612.876398,3182.885551,11251.130318
1364.490017,1378.971896,3108.864956,11325.150913
1364.490336,1915.238745,3552.988522,11325.150913
1364.490655,1991.848295,3997.112087,10732.986159
1364.490974,1762.019645,3256.906145,10584.944971
1364.491293,919.314598,2516.700203,10881.027347
1364.491612,383.047749,1702.473667,11843.295072
1364.491931,689.485948,1332.370696,12287.418637
1364.492249,689.485948,2072.576638,11029.068536
1364.492568,1378.971896,1924.535449,10584.944971
1364.492887,1302.362347,740.205942,11103.089130
1364.493206,689.485948,-1036.288319,11251.130318
1364.493525,612.876398,-1998.556043,10881.027347
1364.493844,536.266849,-1850.514855,11177.109724
1364.494163,229.828649,-1406.391290,11029.068536
1364.494482,306.438199,-2072.576638,10732.986159
1364.494800,0.000000,-2442.679609,11621.233289
1364.495119,0.000000,-3701.029710,12139.377449
1364.495438,612.876398,-2886.803174,11103.089130
1364.495757,1608.800546,-296.082377,9696.697840
1364.496076,1685.410096,-0.000000,9326.594869
1364.496395,1915.238745,-1924.535449,9400.615463
1364.496714,2145.067394,-2960.823768,9548.656652
1364.497033,2221.676944,-2664.741391,9474.636058
1364.497351,1991.848295,-3034.844362,8438.347739
1364.497670,1608.800546,-3330.926739,7772.162391
1364.497989,1838.629195,-3034.844362,8068.244768
1364.498308,1991.848295,-3775.050304,8438.347739
1364.498627,1225.752797,-3404.947333,8142.265362
1364.498946,1455.581446,-2220.617826,8290.306550
1364.499265,1532.190996,-1036.288319,6809.894666
1364.499583,1455.581446,-222.061783,6291.750507
1364.499902,536.266849,-962.267725,7031.956449
1364.500221,76.609550,-1628.453072,7105.977043
1364.500540,-383.047749,-1924.535449,7402.059420
1364.500859,-229.828649,-1480.411884,7624.121203
1364.501178,-306.438199,-814.226536,7105.977043
1364.501497,-383.047749,-1258.350101,7328.038826
1364.501816,-689.485948,-1184.329507,7476.080014
1364.502134,-383.047749,-666.185348,7105.977043
1364.502453,76.609550,666.185348,6587.832884
1364.502772,0.000000,2294.638420,5403.503377
1364.503091,153.219100,2294.638420,5329.482782
1364.503410,-612.876398,1480.411884,5699.585753
1364.503729,-1302.362347,222.061783,6587.832884
1364.504048,-1838.629195,-0.000000,7476.080014
1364.504367,-2145.067394,-296.082377,7846.182985
1364.504685,-2834.553343,962.267725,8660.409521
1364.505004,-3140.991542,222.061783,9474.636058
1364.505323,-3447.429741,-518.144159,10288.862594
1364.505642,-2604.724693,-0.000000,11251.130318
1364.505961,-2451.505594,1480.411884,10807.006753
1364.506280,-1302.362347,2220.617826,9474.636058
1364.506599,-919.314598,3108.864956,9400.615463
1364.506917,-229.828649,2442.679609,9696.697840
1364.507236,76.609550,1702.473667,10436.903782
1364.507555,383.047749,1406.391290,10436.903782
1364.507874,612.876398,2886.803174,10436.903782
1364.508193,919.314598,2886.803174,9696.697840
1364.508512,1378.971896,2590.720797,10214.842000
1364.508831,1149.143247,1776.494261,11325.150913
1364.509150,919.314598,1332.370696,11695.253884
1364.509468,1149.143247,1702.473667,11029.068536
1364.509787,1455.581446,2590.720797,10881.027347
1364.510106,1685.410096,2590.720797,11769.274478
1364.510425,1991.848295,1628.453072,12509.480420
1364.510744,1608.800546,1184.329507,12805.562797
1364.511063,1991.848295,1480.411884,12065.356855
1364.511382,2374.896044,2294.638420,11769.274478
1364.511701,3447.429741,2368.659014,11399.171507
1364.512019,2757.943793,2368.659014,10510.924376
1364.512338,3217.601092,1924.535449,10584.944971
1364.512657,3600.648841,1850.514855,10214.842000
1364.512976,3830.477490,2294.638420,9030.512492
1364.513295,4443.353888,2442.679609,8142.265362
1364.513614,3830.477490,2146.597232,8660.409521
1364.513933,2604.724693,370.102971,9474.636058
1364.514252,1685.410096,-592.164754,9548.656652
1364.514570,612.876398,-740.205942,9992.780217
1364.514889,0.000000,-296.082377,9918.759623
1364.515208,-842.705048,296.082377,9326.594869
1364.515527,-1302.362347,-740.205942,9474.636058
1364.515846,-1532.190996,-1998.556043,10362.883188
1364.516165,-1302.362347,-2294.638420,10732.986159
1364.516484,-1378.971896,-1924.535449,9474.636058
1364.516802,-612.876398,-2146.597232,9178.553681
1364.517121,-459.657299,-2590.720797,9326.594869
1364.517440,-306.438199,-3997.112087,9474.636058
1364.517759,-612.876398,-3627.009116,8660.409521
1364.518078,-689.485948,-2590.720797,8438.347739
1364.518397,0.000000,-2072.576638,7920.203579
1364.518716,-383.047749,-1850.514855,7105.977043
1364.519035,-689.485948,-3256.906145,7846.182985
1364.519353,-919.314598,-4145.153275,8734.430116
1364.519672,-995.924147,-4515.256246,8660.409521
1364.519991,-689.485948,-3997.112087,8216.285956
1364.520310,-459.657299,-2960.823768,7476.080014
1364.520629,-306.438199,-2812.782580,7994.224174
1364.520948,76.609550,-2960.823768,8660.409521
1364.521267,306.438199,-2368.659014,8512.368333
1364.521586,995.924147,-1332.370696,8216.285956
1364.521904,1915.238745,-0.000000,7105.977043
1364.522223,1915.238745,-0.000000,7031.956449
1364.522542,2681.334243,-518.144159,7254.018232
1364.522861,2987.772442,-518.144159,7105.977043
1364.523180,3600.648841,-296.082377,6957.935855
1364.523499,3907.087040,962.267725,5921.647536
1364.523818,4290.134789,888.247130,6143.709319
1364.524136,4290.134789,814.226536,6809.894666
1364.524455,3370.820191,444.123565,7105.977043
1364.524774,2757.943793,222.061783,7624.121203
1364.525093,1762.019645,1406.391290,7994.224174
1364.525412,1378.971896,1406.391290,8290.306550
1364.525731,842.705048,740.205942,8882.471304
1364.526050,229.828649,148.041188,9548.656652
1364.526369,0.000000,-740.205942,10066.800811
1364.526687,-153.219100,-370.102971,9696.697840
1364.527006,153.219100,-0.000000,9178.553681
1364.527325,842.705048,666.185348,9104.533087
1364.527644,459.657299,592.164754,9400.615463
1364.527963,459.657299,222.061783,9474.636058
1364.528282,0.000000,888.247130,9400.615463
1364.528601,-229.828649,1776.494261,9474.636058
1364.528920,-612.876398,962.267725,9548.656652
1364.529238,-1072.533697,222.061783,10584.944971
1364.529557,-1685.410096,-1702.473667,11103.089130
1364.529876,-2068.457845,-2146.597232,11843.295072
1364.530195,-1685.410096,-2072.576638,11769.274478
1364.530514,-1225.752797,-740.205942,11251.130318
1364.530833,-919.314598,-148.041188,11103.089130
1364.531152,-459.657299,-296.082377,11547.212695
1364.531470,153.219100,-0.000000,11843.295072
1364.531789,153.219100,962.267725,11399.171507
1364.532108,919.314598,2072.576638,10436.903782
1364.532427,1532.190996,2368.659014,10140.821405
1364.532746,1991.848295,1850.514855,9992.780217
1364.533065,2068.457845,888.247130,10140.821405
1364.533384,2451.505594,962.267725,9696.697840
1364.533703,2911.162892,1406.391290,9030.512492
1364.534021,2757.943793,2294.638420,8512.368333
1364.534340,2604.724693,2146.597232,8290.306550
1364.534659,1915.238745,1406.391290,8956.491898
1364.534978,842.705048,1258.350101,9844.739029
1364.535297,229.828649,1480.411884,9770.718434
1364.535616,-459.657299,2146.597232,9622.677246
1364.535935,-1149.143247,1702.473667,9770.718434
1364.536254,-995.924147,222.061783,10288.862594
1364.536572,-1149.143247,-666.185348,10658.965565
1364.536891,-612.876398,-666.185348,9770.718434
1364.537210,76.609550,-222.061783,8956.491898
1364.537529,842.705048,814.226536,7994.224174
1364.537848,1149.143247,962.267725,7476.080014
1364.538167,1302.362347,370.102971,7402.059420
1364.538486,842.705048,518.144159,8068.244768
1364.538804,995.924147,444.123565,8142.265362
1364.539123,612.876398,740.205942,7698.141797
1364.539442,0.000000,148.041188,8216.285956
1364.539761,-536.266849,-888.247130,9030.512492
1364.540080,-1072.533697,-2072.576638,9548.656652
1364.540399,-383.047749,-2294.638420,9844.739029
1364.540718,-459.657299,-1332.370696,8882.471304
1364.541037,-383.047749,-814.226536,8438.347739
1364.541355,-153.219100,-370.102971,8512.368333
1364.541674,-383.047749,-1184.329507,9548.656652
1364.541993,0.000000,-370.102971,9622.677246
1364.542312,383.047749,296.082377,8882.471304
1364.542631,536.266849,592.164754,8808.450710
1364.542950,689.485948,370.102971,8586.388927
1364.543269,842.705048,-444.123565,8808.450710
1364.543588,1149.143247,-1480.411884,9178.553681
1364.543906,1608.800546,-1258.350101,8512.368333
1364.544225,2145.067394,-518.144159,7550.100608
1364.544544,2451.505594,518.144159,7624.121203
1364.544863,2221.676944,-0.000000,7772.162391
1364.545182,1762.019645,-296.082377,8586.388927
1364.545501,1302.362347,-148.041188,8956.491898
1364.545820,766.095498,370.102971,9178.553681
1364.546139,536.266849,740.205942,8956.491898
1364.546457,766.095498,148.041188,9326.594869
1364.546776,536.266849,-814.226536,9696.697840
1364.547095,459.657299,-1110.308913,9918.759623
1364.547414,1455.581446,-592.164754,9400.615463
1364.547733,1532.190996,518.144159,8290.306550
1364.548052,2298.286494,1036.288319,8216.285956
1364.548371,1915.238745,962.267725,8660.409521
1364.548689,1455.581446,370.102971,9178.553681
1364.549008,1149.143247,444.123565,9474.636058
1364.549327,689.485948,1184.329507,9474.636058
1364.549646,0.000000,888.247130,9252.574275
1364.549965,0.000000,444.123565,9918.759623
1364.550284,-612.876398,-444.123565,10510.924376
1364.550603,-536.266849,-814.226536,10584.944971
1364.550922,-306.438199,-444.123565,9992.780217
1364.551240,153.219100,592.164754,9548.656652
1364.551559,383.047749,518.144159,9770.718434
1364.551878,383.047749,444.123565,9474.636058
1364.552197,76.609550,444.123565,9770.718434
1364.552516,229.828649,740.205942,9918.759623
1364.552835,0.000000,2220.617826,9474.636058
1364.553154,0.000000,1998.556043,9178.553681
1364.553473,-383.047749,1554.432478,9474.636058
1364.553791,-612.876398,518.144159,9918.759623
1364.554110,-612.876398,-0.000000,10214.842000
1364.554429,-229.828649,888.247130,9622.677246
1364.554748,76.609550,1480.411884,9252.574275
1364.555067,0.000000,1406.391290,9474.636058
1364.555386,-229.828649,1258.350101,9844.739029
1364.555705,76.609550,1480.411884,10214.842000
1364.556023,-153.219100,2368.659014,10214.842000
1364.556342,76.609550,3034.844362,9770.718434
1364.556661,76.609550,3330.926739,9178.553681
1364.556980,612.876398,2368.659014,9400.615463
1364.557299,995.924147,1924.535449,9622.677246
1364.557618,1072.533697,1924.535449,9474.636058
1364.557937,1532.190996,2368.659014,8512.368333
1364.558256,2221.676944,3108.864956,8290.306550
1364.558574,1149.143247,2220.617826,8512.368333
1364.558893,1608.800546,1850.514855,9474.636058
1364.559212,1149.143247,1702.473667,9918.759623
1364.559531,842.705048,1850.514855,9696.697840
1364.559850,459.657299,2368.659014,9696.697840
1364.560169,153.219100,1776.494261,9696.697840
1364.560488,306.438199,962.267725,10362.883188
1364.560807,0.000000,-148.041188,10436.903782
1364.561125,689.485948,-222.061783,9844.739029
1364.561444,842.705048,-0.000000,8808.450710
1364.561763,1302.362347,592.164754,8438.347739
1364.562082,1455.581446,-0.000000,8882.471304
1364.562401,919.314598,-296.082377,9252.574275
1364.562720,689.485948,-296.082377,9474.636058
1364.563039,612.876398,148.041188,9252.574275
1364.563357,459.657299,740.205942,9400.615463
1364.563676,306.438199,296.082377,9474.636058
1364.563995,0.000000,-370.102971,9992.780217
1364.564314,-536.266849,-962.267725,9844.739029
1364.564633,153.219100,-740.205942,9252.574275
1364.564952,229.828649,-222.061783,8438.347739
1364.565271,459.657299,222.061783,8216.285956
1364.565590,76.609550,-370.102971,8512.368333
1364.565908,76.609550,-962.267725,8882.471304
1364.566227,-459.657299,-592.164754,8882.471304
1364.566546,-689.485948,-0.000000,9326.594869
1364.566865,-536.266849,222.061783,8586.388927
1364.567184,-1149.143247,-666.185348,8586.388927
1364.567503,-1532.190996,-1628.453072,9770.718434
1364.567822,-1608.800546,-2294.638420,9474.636058
1364.568141,-1072.533697,-1406.391290,8882.471304
1364.568459,-536.266849,-296.082377,7772.162391
1364.568778,-459.657299,-0.000000,8068.244768
1364.569097,-689.485948,-740.205942,8512.368333
1364.569416,-306.438199,-740.205942,8586.388927
1364.569735,-459.657299,-592.164754,9178.553681
1364.570054,0.000000,-296.082377,8734.430116
1364.570373,76.609550,296.082377,8586.388927
1364.570692,1072.533697,-370.102971,8068.244768
1364.571010,689.485948,-740.205942,9030.512492
1364.571329,1455.581446,-592.164754,8364.327145
1364.571648,2451.505594,444.123565,7772.162391
1364.571967,2834.553343,1702.473667,7179.997637
1364.572286,2911.162892,1998.556043,7476.080014
1364.572605,2757.943793,1776.494261,7772.162391
1364.572924,2451.505594,1702.473667,8068.244768
1364.573242,2451.505594,2146.597232,8956.491898
1364.573561,2068.457845,2812.782580,8734.430116
1364.573880,1762.019645,3108.864956,8734.430116
1364.574199,1455.581446,2146.597232,9030.512492
1364.574518,1072.533697,1332.370696,10066.800811
1364.574837,995.924147,1184.329507,9696.697840
1364.575156,919.314598,2146.597232,9030.512492
1364.575475,1149.143247,3034.844362,8586.388927
1364.575793,766.095498,3108.864956,8660.409521
1364.576112,229.828649,2886.803174,9400.615463
1364.576431,-536.266849,2590.720797,9918.759623
1364.576750,-919.314598,2294.638420,10140.821405
1364.577069,-2068.457845,2812.782580,10214.842000
1364.577388,-2221.676944,2960.823768,10362.883188
1364.577706,-2451.505594,1554.432478,10955.047942
1364.578025,-2987.772442,444.123565,11399.171507
1364.578344,-2834.553343,444.123565,11621.233289
1364.578663,-2604.724693,1110.308913,10584.944971
1364.578982,-1532.190996,1628.453072,10510.924376
1364.579301,-2221.676944,1554.432478,10732.986159
1364.579619,-1838.629195,1184.329507,10955.047942
1364.579938,-2374.896044,1036.288319,11177.109724
1364.580257,-1991.848295,2146.597232,10732.986159
1364.580576,-1838.629195,2220.617826,10584.944971
1364.580895,-1455.581446,1776.494261,10436.903782
1364.581214,-1455.581446,444.123565,10955.047942
1364.581532,-1225.752797,-222.061783,11177.109724
1364.581851,-612.876398,-148.041188,10732.986159
1364.582170,229.828649,962.267725,9622.677246
1364.582489,919.314598,1184.329507,10214.842000
1364.582808,919.314598,592.164754,10658.965565
1364.583127,995.924147,962.267725,10955.047942
1364.583445,1378.971896,962.267725,10658.965565
1364.583764,1225.752797,2368.659014,9844.739029
1364.584083,1685.410096,1776.494261,10288.862594
1364.584402,1302.362347,1036.288319,10288.862594
1364.584721,1685.410096,-0.000000,10362.883188
1364.585040,2145.067394,-222.061783,9696.697840
1364.585358,2911.162892,222.061783,9622.677246
1364.585677,3600.648841,962.267725,8512.368333
1364.585996,4366.744339,814.226536,7402.059420
1364.586315,3907.087040,-148.041188,8512.368333
1364.586634,3830.477490,-518.144159,8438.347739
1364.586953,2987.772442,296.082377,7698.141797
1364.587271,2911.162892,740.205942,7105.977043
1364.587590,2374.896044,-0.000000,7550.100608
1364.587909,1378.971896,-444.123565,7328.038826
1364.588228,689.485948,-1776.494261,7772.162391
1364.588547,612.876398,-1998.556043,7846.182985
1364.588866,306.438199,-1258.350101,7105.977043
1364.589184,229.828649,-740.205942,6217.729913
1364.589503,-229.828649,-666.185348,6365.771101
1364.589822,-1302.362347,-1628.453072,7105.977043
1364.590141,-2068.457845,-1628.453072,7846.182985
1364.590460,-2068.457845,-666.185348,7624.121203
1364.590779,-2757.943793,-444.123565,7920.203579
1364.591098,-3447.429741,-74.020594,7994.224174
1364.591416,-3600.648841,-1110.308913,8512.368333
1364.591735,-3600.648841,-1702.473667,8882.471304
1364.592054,-3140.991542,-1628.453072,8734.430116
1364.592373,-2451.505594,-370.102971,7772.162391
1364.592692,-1608.800546,444.123565,7550.100608
1364.593011,-689.485948,222.061783,8142.265362
1364.593329,-536.266849,-370.102971,8438.347739
1364.593648,-153.219100,-1258.350101,8882.471304
1364.593967,0.000000,-666.185348,8882.471304
1364.594286,306.438199,444.123565,8808.450710
1364.594605,995.924147,1110.308913,8290.306550
1364.594924,1302.362347,-0.000000,8882.471304
1364.595242,1455.581446,-1184.329507,9696.697840
1364.595561,1991.848295,-1258.350101,9992.780217
1364.595880,2528.115143,-370.102971,9474.636058
1364.596199,3140.991542,444.123565,9178.553681
1364.596518,2834.553343,296.082377,9474.636058
1364.596837,2374.896044,-296.082377,10288.862594
1364.597155,1762.019645,-0.000000,11177.109724
1364.597474,1532.190996,888.247130,10807.006753
1364.597793,1685.410096,1998.556043,10732.986159
1364.598112,1838.629195,1702.473667,10881.027347
1364.598431,1302.362347,962.267725,11029.068536
1364.598750,1149.143247,-0.000000,11547.212695
1364.599068,1608.800546,444.123565,11251.130318
1364.599387,2298.286494,1776.494261,10510.924376
1364.599706,2604.724693,2072.576638,9548.656652
1364.600025,2604.724693,1924.535449,10214.842000
1364.600344,2145.067394,1850.514855,10362.883188
1364.600663,1915.238745,1554.432478,9770.718434
1364.600981,1685.410096,1776.494261,9992.780217
1364.601300,1378.971896,1776.494261,10066.800811
1364.601619,919.314598,888.247130,9918.759623
1364.601938,306.438199,-296.082377,9918.759623
1364.602257,153.219100,-888.247130,11177.109724
1364.602576,229.828649,-518.144159,10510.924376
1364.602894,612.876398,592.164754,8882.471304
1364.603213,766.095498,444.123565,9474.636058
1364.603532,766.095498,222.061783,9474.636058
1364.603851,-306.438199,-0.000000,9474.636058
1364.604170,-153.219100,-0.000000,9770.718434
1364.604489,-612.876398,1036.288319,10066.800811
1364.604807,-766.095498,1184.329507,9622.677246
1364.605126,-689.485948,-0.000000,9548.656652
1364.605445,-995.924147,-888.247130,9992.780217
1364.605764,-1149.143247,-1184.329507,9992.780217
1364.606083,-459.657299,-592.164754,9474.636058
1364.606402,0.000000,962.267725,8290.306550
1364.606720,0.000000,740.205942,7105.977043
1364.607039,459.657299,518.144159,7476.080014
1364.607358,76.609550,222.061783,8512.368333
1364.607677,0.000000,222.061783,7846.182985
1364.607996,306.438199,-74.020594,8068.244768
1364.608315,-459.657299,-74.020594,8438.347739
1364.608633,-612.876398,-1850.514855,8808.450710
1364.608952,-153.219100,-2368.659014,9548.656652
1364.609271,-383.047749,-2590.720797,9696.697840
1364.609590,1072.533697,-1184.329507,7550.100608
1364.609909,1455.581446,1036.288319,6809.894666
1364.610228,1838.629195,2146.597232,6809.894666
1364.610547,1455.581446,1998.556043,6735.874072
1364.610865,383.047749,1850.514855,6143.709319
1364.611184,-689.485948,1184.329507,6587.832884
1364.611503,-1608.800546,592.164754,7550.100608
1364.611822,-1302.362347,-962.267725,9474.636058
1364.612141,-1378.971896,-1776.494261,9918.759623
1364.612460,-612.876398,-1998.556043,11399.171507
1364.612778,-153.219100,-1776.494261,9548.656652
1364.613097,536.266849,-518.144159,9178.553681
1364.613416,1915.238745,-222.061783,9400.615463
1364.613735,1915.238745,-0.000000,8216.285956
1364.614054,1608.800546,592.164754,8216.285956
1364.614373,2145.067394,1406.391290,8290.306550
1364.614691,1762.019645,1998.556043,7994.224174
1364.615010,1455.581446,962.267725,8438.347739
1364.615329,995.924147,-0.000000,9474.636058
1364.615648,383.047749,-1998.556043,9844.739029
1364.615967,306.438199,-1628.453072,9992.780217
1364.616286,766.095498,-1258.350101,10584.944971
1364.616604,1455.581446,-888.247130,10140.821405
1364.616923,1455.581446,222.061783,10510.924376
1364.617242,1608.800546,-0.000000,10362.883188
1364.617561,1532.190996,-888.247130,10732.986159
1364.617880,1455.581446,-0.000000,10510.924376
1364.618199,1072.533697,1332.370696,10732.986159
1364.618517,536.266849,1110.308913,9992.780217
1364.618836,0.000000,592.164754,9548.656652
1364.619155,0.000000,-740.205942,10881.027347
1364.619474,0.000000,-1406.391290,10362.883188
1364.619793,766.095498,-1184.329507,9696.697840
1364.620112,1762.019645,-666.185348,9474.636058
1364.620430,1762.019645,-0.000000,9030.512492
1364.620749,1915.238745,-444.123565,9178.553681
1364.621068,1838.629195,-592.164754,10288.862594
1364.621387,1915.238745,-370.102971,10807.006753
1364.621706,1378.971896,592.164754,9548.656652
1364.622025,919.314598,1776.494261,9178.553681
1364.622343,766.095498,1406.391290,8734.430116
1364.622662,0.000000,296.082377,9326.594869
1364.622981,-229.828649,-0.000000,9474.636058
1364.623300,612.876398,370.102971,8956.491898
1364.623619,919.314598,1332.370696,7846.182985
1364.623938,1225.752797,1406.391290,8216.285956
1364.624256,766.095498,1184.329507,8142.265362
1364.624575,76.609550,592.164754,8808.450710
1364.624894,0.000000,962.267725,9326.594869
1364.625213,-383.047749,1332.370696,9252.574275
1364.625532,-536.266849,1776.494261,8882.471304
1364.625851,-995.924147,1480.411884,8512.368333
1364.626169,-1072.533697,444.123565,9178.553681
1364.626488,-995.924147,-0.000000,9252.574275
1364.626807,-306.438199,518.144159,7772.162391
1364.627126,153.219100,1110.308913,7476.080014
1364.627445,383.047749,592.164754,8142.265362
1364.627764,536.266849,-296.082377,8438.347739
1364.628083,0.000000,-888.247130,9178.553681
1364.628401,-229.828649,-370.102971,9178.553681
1364.628720,0.000000,370.102971,8882.471304
1364.629039,536.266849,740.205942,8734.430116
1364.629358,995.924147,222.061783,9326.594869
1364.629677,842.705048,-444.123565,9622.677246
1364.629996,1378.971896,-296.082377,9548.656652
1364.630314,1762.019645,148.041188,8660.409521
1364.630633,2451.505594,962.267725,8068.244768
1364.630952,2528.115143,296.082377,8364.327145
1364.631271,2145.067394,-148.041188,9030.512492
1364.631590,2451.505594,-444.123565,9326.594869
1364.631909,1991.848295,-0.000000,9548.656652
1364.632227,1225.752797,888.247130,9622.677246
1364.632546,1302.362347,-0.000000,9696.697840
1364.632865,612.876398,-814.226536,10288.862594
1364.633184,766.095498,-1776.494261,10807.006753
1364.633503,1378.971896,-1332.370696,10510.924376
1364.633822,1762.019645,-74.020594,9474.636058
1364.634140,2068.457845,740.205942,9252.574275
1364.634459,1762.019645,-0.000000,9400.615463
1364.634778,1608.800546,-518.144159,9474.636058
1364.635097,1302.362347,-1184.329507,9696.697840
1364.635416,1532.190996,-0.000000,9400.615463
1364.635735,1685.410096,444.123565,9030.512492
1364.636053,1225.752797,-0.000000,9474.636058
1364.636372,1072.533697,-1036.288319,10066.800811
1364.636691,766.095498,-1480.411884,9992.780217
1364.637010,1072.533697,-1258.350101,9770.718434
1364.637329,1915.238745,-148.041188,8882.471304
1364.637648,1685.410096,518.144159,8364.327145
1364.637966,1225.752797,518.144159,8660.409521
1364.638285,612.876398,222.061783,8512.368333
1364.638604,0.000000,148.041188,9178.553681
1364.638923,-153.219100,740.205942,8808.450710
1364.639242,-766.095498,1258.350101,8734.430116
1364.639561,-995.924147,592.164754,8808.450710
1364.639879,-1762.019645,-222.061783,9252.574275
1364.640198,-2145.067394,-740.205942,9622.677246
1364.640517,-1685.410096,-74.020594,9252.574275
1364.640836,-1532.190996,740.205942,8586.388927
1364.641155,-1685.410096,1480.411884,8512.368333
1364.641474,-1762.019645,1110.308913,8660.409521
1364.641792,-1915.238745,1036.288319,9030.512492
1364.642111,-2221.676944,1036.288319,9474.636058
1364.642430,-1608.800546,1258.350101,9474.636058
1364.642749,-2068.457845,1554.432478,9548.656652
1364.643068,-1991.848295,1110.308913,9622.677246
1364.643387,-1685.410096,444.123565,9622.677246
1364.643705,-995.924147,-0.000000,9622.677246
1364.644024,-229.828649,518.144159,8808.450710
1364.644343,689.485948,1998.556043,7624.121203
1364.644662,1302.362347,2368.659014,7920.203579
1364.644981,1685.410096,2146.597232,8142.265362
1364.645300,1608.800546,1406.391290,8660.409521
1364.645619,1532.190996,1406.391290,9474.636058
1364.645937,1455.581446,2220.617826,9326.594869
1364.646256,1762.019645,2368.659014,9104.533087
1364.646575,1838.629195,1924.535449,9474.636058
1364.646894,1378.971896,666.185348,9992.780217
1364.647213,1532.190996,444.123565,10436.903782
1364.647532,1685.410096,1258.350101,9622.677246
1364.647850,2604.724693,2146.597232,9104.533087
1364.648169,2681.334243,1998.556043,9400.615463
1364.648488,2298.286494,1702.473667,9622.677246
1364.648807,1455.581446,888.247130,9844.739029
1364.649126,689.485948,1184.329507,10140.821405
1364.649445,536.266849,1406.391290,10066.800811
1364.649763,229.828649,1332.370696,9696.697840
1364.650082,306.438199,444.123565,9992.780217
1364.650401,-383.047749,-222.061783,10510.924376
1364.650720,-612.876398,-740.205942,10436.903782
1364.651039,0.000000,-0.000000,9548.656652
1364.651358,229.828649,592.164754,9326.594869
1364.651676,459.657299,222.061783,9474.636058
1364.651995,-153.219100,-0.000000,9548.656652
1364.652314,-536.266849,-444.123565,10214.842000
1364.652633,-919.314598,-0.000000,10436.903782
1364.652952,-766.095498,296.082377,9622.677246
1364.653271,-842.705048,-0.000000,9622.677246
1364.653589,-612.876398,-370.102971,9918.759623
1364.653908,-306.438199,-1258.350101,9844.739029
1364.654227,0.000000,-1480.411884,9696.697840
1364.654546,536.266849,-1036.288319,9252.574275
1364.654865,1072.533697,-296.082377,8586.388927
1364.655184,919.314598,-0.000000,8290.306550
1364.655502,1149.143247,-0.000000,8734.430116
1364.655821,1149.143247,-0.000000,8734.430116
1364.656140,1072.533697,888.247130,7846.182985
1364.656459,689.485948,1184.329507,7994.224174
1364.656778,612.876398,1258.350101,8142.265362
1364.657097,76.609550,444.123565,8438.347739
1364.657415,-306.438199,-222.061783,8956.491898
1364.657734,76.609550,-518.144159,8734.430116
1364.658053,229.828649,296.082377,8364.327145
1364.658372,689.485948,962.267725,7772.162391
1364.658691,383.047749,1184.329507,7846.182985
1364.659010,-76.609550,518.144159,8438.347739
1364.659328,0.000000,1110.308913,9252.574275
1364.659647,-306.438199,1332.370696,8512.368333
1364.659966,-459.657299,2072.576638,8290.306550
1364.660285,-536.266849,1628.453072,8438.347739
1364.660604,-383.047749,592.164754,9104.533087
1364.660923,-229.828649,-0.000000,8734.430116
1364.661241,229.828649,370.102971,8290.306550
1364.661560,766.095498,888.247130,7846.182985
1364.661879,1225.752797,1110.308913,7994.224174
1364.662198,1455.581446,740.205942,8734.430116
1364.662517,1378.971896,518.144159,9326.594869
1364.662836,1302.362347,1110.308913,8882.471304
1364.663155,766.095498,1554.432478,9252.574275
1364.663473,612.876398,1036.288319,9178.553681
1364.663792,229.828649,1258.350101,9770.718434
1364.664111,0.000000,666.185348,10066.800811
1364.664430,153.219100,296.082377,10807.006753
1364.664749,536.266849,-0.000000,9844.739029
1364.665068,919.314598,1036.288319,9548.656652
1364.665386,1149.143247,740.205942,9770.718434
1364.665705,919.314598,518.144159,10066.800811
1364.666024,919.314598,222.061783,10584.944971
1364.666343,306.438199,888.247130,10436.903782
1364.666662,306.438199,1554.432478,10955.047942
1364.666981,0.000000,1332.370696,9992.780217
1364.667299,0.000000,962.267725,10584.944971
1364.667618,0.000000,-148.041188,10881.027347
1364.667937,766.095498,-370.102971,10658.965565
1364.668256,153.219100,-0.000000,9992.780217
1364.668575,153.219100,296.082377,9918.759623
1364.668894,383.047749,296.082377,10140.821405
1364.669212,76.609550,-148.041188,9992.780217
1364.669531,-383.047749,-0.000000,10510.924376
1364.669850,76.609550,666.185348,10658.965565
1364.670169,459.657299,1554.432478,9844.739029
1364.670488,689.485948,1184.329507,9548.656652
1364.670807,766.095498,296.082377,9548.656652
1364.671125,1302.362347,-444.123565,10288.862594
1364.671444,842.705048,-444.123565,9326.594869
1364.671763,1608.800546,222.061783,8586.388927
1364.672082,1608.800546,1184.329507,7920.203579
1364.672401,1378.971896,962.267725,8142.265362
1364.672720,689.485948,296.082377,8512.368333
1364.673038,153.219100,518.144159,8882.471304
1364.673357,-536.266849,592.164754,9474.636058
1364.673676,-766.095498,1184.329507,9252.574275
1364.673995,-1149.143247,814.226536,9178.553681
1364.674314,-1378.971896,-0.000000,9548.656652
1364.674633,-1991.848295,-666.185348,9844.739029
1364.674951,-1302.362347,-592.164754,9326.594869
1364.675270,-766.095498,222.061783,8290.306550
1364.675589,0.000000,518.144159,7476.080014
1364.675908,306.438199,518.144159,7920.203579
1364.676227,76.609550,444.123565,7994.224174
1364.676546,76.609550,518.144159,7994.224174
1364.676864,0.000000,1110.308913,7994.224174
1364.677183,-919.314598,1554.432478,7624.121203
1364.677502,0.000000,1036.288319,8216.285956
1364.677821,-306.438199,-74.020594,8734.430116
1364.678140,-153.219100,-962.267725,9252.574275
1364.678459,0.000000,-370.102971,8882.471304
1364.678777,1302.362347,296.082377,8068.244768
1364.679096,1225.752797,1036.288319,7994.224174
1364.679415,995.924147,740.205942,8512.368333
1364.679734,612.876398,222.061783,9030.512492
1364.680053,612.876398,592.164754,9252.574275
1364.680371,689.485948,1332.370696,9104.533087
1364.680690,229.828649,2220.617826,9400.615463
1364.681009,383.047749,1554.432478,9030.512492
1364.681328,76.609550,370.102971,9992.780217
1364.681647,306.438199,-148.041188,10066.800811
1364.681965,689.485948,-0.000000,9104.533087
1364.682284,1378.971896,962.267725,9104.533087
1364.682603,1378.971896,1184.329507,9326.594869
1364.682922,1378.971896,814.226536,9474.636058
1364.683241,919.314598,444.123565,9622.677246
1364.683559,689.485948,-148.041188,10066.800811
1364.683878,612.876398,370.102971,10288.862594
1364.684197,459.657299,370.102971,9696.697840
1364.684516,229.828649,-518.144159,10066.800811
1364.684835,0.000000,-1776.494261,11473.192101
1364.685153,153.219100,-1998.556043,11399.171507
1364.685472,536.266849,-1480.411884,10288.862594
1364.685791,919.314598,-814.226536,9770.718434
1364.686110,1149.143247,-74.020594,9992.780217
1364.686429,1455.581446,-814.226536,9844.739029
1364.686747,1072.533697,-814.226536,10066.800811
1364.687066,1149.143247,-148.041188,10288.862594
1364.687385,1225.752797,-0.000000,10214.842000
1364.687704,1225.752797,444.123565,9696.697840
1364.688023,1532.190996,-74.020594,9770.718434
1364.688341,995.924147,-1110.308913,10288.862594
1364.688660,1225.752797,-1184.329507,9844.739029
1364.688979,1685.410096,-592.164754,9474.636058
1364.689298,2298.286494,-0.000000,9178.553681
1364.689617,1915.238745,296.082377,8512.368333
1364.689935,1608.800546,296.082377,8216.285956
1364.690254,1302.362347,518.144159,8660.409521
1364.690573,995.924147,888.247130,8660.409521
1364.690892,0.000000,666.185348,8882.471304
1364.691211,0.000000,814.226536,8586.388927
1364.691529,-536.266849,222.061783,8808.450710
1364.691848,-459.657299,-518.144159,9104.533087
1364.692167,-842.705048,-1110.308913,8882.471304
1364.692486,-229.828649,-0.000000,8216.285956
1364.692805,229.828649,370.102971,7624.121203
1364.693123,0.000000,370.102971,7772.162391
1364.693442,0.000000,-0.000000,8216.285956
1364.693761,-536.266849,-0.000000,8734.430116
1364.694080,-766.095498,962.267725,8660.409521
1364.694399,-689.485948,2072.576638,8290.306550
1364.694717,-919.314598,1480.411884,7920.203579
1364.695036,-153.219100,666.185348,8660.409521
1364.695355,0.000000,-0.000000,8586.388927
1364.695674,153.219100,-74.020594,8364.327145
1364.695993,1072.533697,296.082377,7846.182985
1364.696311,1378.971896,1184.329507,7698.141797
1364.696630,1685.410096,1110.308913,7698.141797
1364.696949,1378.971896,1110.308913,8290.306550
1364.697268,1225.752797,1332.370696,8882.471304
1364.697587,1532.190996,2072.576638,8956.491898
1364.697905,1072.533697,2220.617826,8882.471304
1364.698224,766.095498,1480.411884,9474.636058
1364.698543,459.657299,370.102971,9770.718434
1364.698862,766.095498,-148.041188,10066.800811
1364.699181,766.095498,-148.041188,9548.656652
1364.699499,1378.971896,592.164754,8956.491898
1364.699818,1685.410096,888.247130,8734.430116
1364.700137,919.314598,888.247130,9326.594869
1364.700456,919.314598,-0.000000,9992.780217
1364.700775,153.219100,-74.020594,10436.903782
1364.701093,0.000000,296.082377,10436.903782
1364.701412,-306.438199,222.061783,10214.842000
1364.701731,-229.828649,-444.123565,10584.944971
1364.702050,-306.438199,-1110.308913,11103.089130
1364.702369,0.000000,-1924.535449,11251.130318
1364.702687,153.219100,-1480.411884,10732.986159
1364.703006,1072.533697,-740.205942,10658.965565
1364.703325,1608.800546,-370.102971,9622.677246
1364.703644,1685.410096,-370.102971,9622.677246
1364.703963,1838.629195,-444.123565,10066.800811
1364.704281,1991.848295,-222.061783,9918.759623
1364.704600,1762.019645,-0.000000,9696.697840
1364.704919,1532.190996,444.123565,9696.697840
1364.705238,1532.190996,-222.061783,9696.697840
1364.705557,1149.143247,-1258.350101,10066.800811
1364.705875,1149.143247,-1554.432478,9844.739029
1364.706194,1455.581446,-1110.308913,9474.636058
1364.706513,1838.629195,-222.061783,8956.491898
1364.706832,1532.190996,222.061783,8808.450710
1364.707151,1149.143247,-0.000000,9326.594869
1364.707469,459.657299,-74.020594,9844.739029
1364.707788,153.219100,-0.000000,9992.780217
1364.708107,-229.828649,592.164754,9474.636058
1364.708426,-306.438199,-0.000000,9400.615463
1364.708745,-536.266849,-296.082377,9474.636058
1364.709063,-842.705048,-1184.329507,9918.759623
1364.709382,0.000000,-1110.308913,9252.574275
1364.709701,229.828649,-222.061783,8364.327145
1364.710020,842.705048,370.102971,7550.100608
1364.710339,766.095498,444.123565,7772.162391
1364.710657,383.047749,296.082377,7920.203579
1364.710976,306.438199,518.144159,8364.327145
1364.711295,-306.438199,740.205942,8512.368333
1364.711614,0.000000,1110.308913,8586.388927
1364.711933,-536.266849,1480.411884,8512.368333
1364.712251,-229.828649,444.123565,8660.409521
1364.712570,0.000000,-0.000000,8586.388927
1364.712889,306.438199,-0.000000,7994.224174
1364.713208,459.657299,888.247130,7550.100608
1364.713527,459.657299,1480.411884,6957.935855
1364.713845,1149.143247,1628.453072,7476.080014
1364.714164,153.219100,1406.391290,8216.285956
1364.714483,0.000000,1406.391290,8364.327145
1364.714802,-536.266849,1850.514855,9030.512492
1364.715121,-766.095498,1850.514855,9030.512492
1364.715439,-536.266849,1850.514855,9104.533087
1364.715758,-766.095498,962.267725,9400.615463
1364.716077,-689.485948,444.123565,9844.739029
1364.716396,153.219100,370.102971,9400.615463
1364.716715,995.924147,1110.308913,8438.347739
1364.717033,995.924147,1110.308913,8364.327145
1364.717352,1455.581446,1184.329507,8660.409521
1364.717671,1149.143247,370.102971,9178.553681
1364.717990,459.657299,148.041188,9474.636058
1364.718309,1072.533697,1332.370696,9696.697840
1364.718627,1225.752797,1406.391290,9622.677246
1364.718946,1225.752797,814.226536,10066.800811
1364.719265,1072.533697,-370.102971,10510.924376
1364.719584,1225.752797,-1036.288319,10436.903782
1364.719903,1455.581446,-1110.308913,10288.862594
1364.720221,1915.238745,-74.020594,9770.718434
1364.720540,1762.019645,370.102971,9622.677246
1364.720859,1991.848295,-0.000000,10140.821405
1364.721178,1149.143247,-148.041188,10732.986159
1364.721497,995.924147,-296.082377,10807.006753
1364.721815,842.705048,592.164754,10436.903782
1364.722134,766.095498,962.267725,10214.842000
1364.722453,612.876398,370.102971,10436.903782
1364.722772,842.705048,-740.205942,10807.006753
1364.723091,459.657299,-1036.288319,10214.842000
1364.723409,1149.143247,-370.102971,9548.656652
1364.723728,1072.533697,-148.041188,9104.533087
1364.724047,1762.019645,-0.000000,9104.533087
1364.724366,1378.971896,-0.000000,8956.491898
1364.724685,766.095498,-74.020594,9696.697840
1364.725003,306.438199,370.102971,9992.780217
1364.725322,306.438199,1184.329507,9474.636058
1364.725641,76.609550,888.247130,9030.512492
1364.725960,76.609550,296.082377,9326.594869
1364.726279,0.000000,-666.185348,9474.636058
1364.726597,0.000000,-962.267725,9252.574275
1364.726916,612.876398,-370.102971,8290.306550
1364.727235,842.705048,222.061783,7772.162391
1364.727554,766.095498,518.144159,7328.038826
1364.727873,383.047749,592.164754,7698.141797
1364.728191,0.000000,518.144159,8438.347739
1364.728510,-689.485948,1480.411884,8808.450710
1364.728829,-536.266849,1628.453072,8290.306550
1364.729148,-842.705048,1554.432478,8216.285956
1364.729467,-919.314598,444.123565,8734.430116
1364.729785,-919.314598,-370.102971,9474.636058
1364.730104,-766.095498,-296.082377,8882.471304
1364.730423,0.000000,518.144159,8216.285956
1364.730742,612.876398,1554.432478,7846.182985
1364.731061,536.266849,1480.411884,8364.327145
1364.731379,383.047749,1036.288319,8290.306550
1364.731698,0.000000,1406.391290,8808.450710
1364.732017,-153.219100,1924.535449,8956.491898
1364.732336,-229.828649,2220.617826,8660.409521
1364.732655,-229.828649,1480.411884,8734.430116
1364.732973,-383.047749,444.123565,9474.636058
1364.733292,-229.828649,-370.102971,10288.862594
1364.733611,-229.828649,-518.144159,9474.636058
1364.733930,229.828649,-74.020594,9178.553681
1364.734249,306.438199,-0.000000,8808.450710
1364.734567,459.657299,-0.000000,9548.656652
1364.734886,306.438199,-0.000000,9844.739029
1364.735205,76.609550,-0.000000,9918.759623
1364.735524,306.438199,962.267725,9918.759623
1364.735843,383.047749,1406.391290,9474.636058
1364.736162,459.657299,1184.329507,9696.697840
1364.736480,536.266849,296.082377,9696.697840
1364.736799,1149.143247,-74.020594,9696.697840
1364.737118,1455.581446,-296.082377,9548.656652
1364.737437,1532.190996,370.102971,9400.615463
1364.737756,2374.896044,296.082377,9178.553681
1364.738074,2298.286494,814.226536,9400.615463
1364.738393,1915.238745,222.061783,9918.759623
1364.738712,1608.800546,592.164754,10140.821405
1364.739031,1149.143247,1480.411884,9992.780217
1364.739350,1302.362347,1480.411884,10140.821405
1364.739668,995.924147,814.226536,9992.780217
1364.739987,459.657299,-0.000000,10436.903782
1364.740306,459.657299,-666.185348,9918.759623
1364.740625,995.924147,-370.102971,9474.636058
1364.740944,1225.752797,222.061783,8882.471304
1364.741262,1532.190996,592.164754,8808.450710
1364.741581,1072.533697,-0.000000,9030.512492
1364.741900,842.705048,-0.000000,9326.594869
1364.742219,229.828649,370.102971,9474.636058
1364.742538,612.876398,370.102971,9474.636058
1364.742856,-229.828649,444.123565,9252.574275
1364.743175,-306.438199,518.144159,9474.636058
1364.743494,-229.828649,-444.123565,9622.677246
1364.743813,-459.657299,-814.226536,9844.739029
1364.744132,0.000000,-518.144159,9474.636058
1364.744450,306.438199,296.082377,9030.512492
1364.744769,306.438199,814.226536,8586.388927
1364.745088,842.705048,518.144159,8734.430116
1364.745407,383.047749,296.082377,9252.574275
1364.745726,0.000000,962.267725,8882.471304
1364.746044,229.828649,1332.370696,8882.471304
1364.746363,-306.438199,1702.473667,8512.368333
1364.746682,0.000000,888.247130,9104.533087
1364.747001,0.000000,444.123565,8882.471304
1364.747320,229.828649,296.082377,9252.574275
1364.747638,383.047749,444.123565,8512.368333
1364.747957,459.657299,1258.350101,8068.244768
1364.748276,689.485948,1406.391290,7920.203579
1364.748595,612.876398,1406.391290,8290.306550
1364.748914,153.219100,1184.329507,8660.409521
1364.749232,-229.828649,1554.432478,9104.533087
1364.749551,-766.095498,1776.494261,9326.594869
1364.749870,-842.705048,1850.514855,9104.533087
1364.750189,-919.314598,740.205942,9474.636058
1364.750508,-689.485948,-222.061783,9548.656652
1364.750826,-612.876398,-444.123565,9622.677246
1364.751145,-612.876398,-148.041188,9252.574275
1364.751464,0.000000,518.144159,9178.553681
1364.751783,229.828649,888.247130,9326.594869
1364.752102,229.828649,666.185348,9770.718434
1364.752420,0.000000,370.102971,9770.718434
1364.752739,153.219100,888.247130,10362.883188
1364.753058,689.485948,888.247130,9548.656652
1364.753377,689.485948,518.144159,9474.636058
1364.753696,1149.143247,-148.041188,9696.697840
1364.754014,689.485948,-666.185348,9474.636058
1364.754333,1225.752797,-666.185348,9474.636058
1364.754652,1608.800546,-148.041188,8660.409521
1364.754971,1685.410096,-0.000000,8882.471304
1364.755290,1378.971896,-74.020594,9178.553681
1364.755608,1072.533697,-222.061783,9548.656652
1364.755927,689.485948,-74.020594,10214.842000
1364.756246,-306.438199,518.144159,10140.821405
1364.756565,-306.438199,888.247130,9992.780217
1364.756884,-459.657299,518.144159,10214.842000
1364.757202,-153.219100,-518.144159,10732.986159
1364.757521,0.000000,-814.226536,10658.965565
1364.757840,612.876398,-444.123565,9992.780217
1364.758159,1072.533697,592.164754,8734.430116
1364.758478,1915.238745,814.226536,8660.409521
1364.758796,2068.457845,740.205942,8142.265362
1364.759115,1915.238745,444.123565,8438.347739
1364.759434,1991.848295,1184.329507,8364.327145
1364.759753,1378.971896,1406.391290,8364.327145
1364.760072,1225.752797,1258.350101,8364.327145
1364.760390,842.705048,222.061783,8882.471304
1364.760709,383.047749,-888.247130,9474.636058
1364.761028,0.000000,-1480.411884,9400.615463
1364.761347,76.609550,-888.247130,8734.430116
1364.761666,689.485948,-74.020594,8438.347739
1364.761984,383.047749,-148.041188,7624.121203
1364.762303,-536.266849,-0.000000,8586.388927
1364.762622,-766.095498,-0.000000,9474.636058
1364.762941,-919.314598,592.164754,9326.594869
1364.763260,-1455.581446,1628.453072,8882.471304
1364.763578,-1149.143247,1850.514855,9030.512492
1364.763897,-1455.581446,1184.329507,9178.553681
1364.764216,-995.924147,-0.000000,9548.656652
1364.764535,-459.657299,-148.041188,9474.636058
1364.764854,0.000000,-0.000000,8882.471304
1364.765172,459.657299,1110.308913,8512.368333
1364.765491,842.705048,1184.329507,8290.306550
1364.765810,766.095498,962.267725,8734.430116
1364.766129,383.047749,666.185348,9104.533087
1364.766448,229.828649,1258.350101,9252.574275
1364.766766,0.000000,2072.576638,9178.553681
1364.767085,-306.438199,1924.535449,9104.533087
1364.767404,229.828649,888.247130,9844.739029
1364.767723,153.219100,-222.061783,10140.821405
1364.768042,459.657299,-296.082377,9474.636058
1364.768360,1378.971896,-0.000000,9030.512492
1364.768679,1915.238745,814.226536,8734.430116
1364.768998,2068.457845,1036.288319,8808.450710
1364.769317,2145.067394,962.267725,9104.533087
1364.769636,1685.410096,888.247130,9548.656652
1364.769954,1149.143247,1554.432478,9252.574275
1364.770273,919.314598,2146.597232,9474.636058
1364.770592,995.924147,1776.494261,9326.594869
1364.770911,612.876398,-0.000000,10066.800811
1364.771230,153.219100,-1036.288319,10658.965565
1364.771548,76.609550,-1258.350101,10362.883188
1364.771867,919.314598,-814.226536,9622.677246
1364.772186,766.095498,-296.082377,9696.697840
1364.772505,689.485948,-370.102971,9770.718434
1364.772824,842.705048,-518.144159,9770.718434
1364.773142,536.266849,-0.000000,9844.739029
1364.773461,383.047749,296.082377,9992.780217
1364.773780,842.705048,1110.308913,10066.800811
1364.774099,306.438199,74.020594,9696.697840
1364.774418,612.876398,-518.144159,9770.718434
1364.774736,306.438199,-1628.453072,10140.821405
1364.775055,459.657299,-1332.370696,9474.636058
1364.775374,1225.752797,-592.164754,8586.388927
1364.775693,1532.190996,-148.041188,8734.430116
1364.776012,1149.143247,-370.102971,9326.594869
1364.776331,919.314598,-962.267725,9622.677246
1364.776649,689.485948,-1332.370696,9548.656652
1364.776968,-229.828649,-296.082377,9918.759623
1364.777287,-229.828649,-0.000000,9622.677246
1364.777606,-229.828649,-74.020594,9178.553681
1364.777925,-612.876398,-1036.288319,9252.574275
1364.778244,-383.047749,-1332.370696,9548.656652
1364.778563,536.266849,-888.247130,8734.430116
1364.778881,919.314598,-74.020594,7698.141797
1364.779200,1608.800546,518.144159,7550.100608
1364.779519,1149.143247,370.102971,7476.080014
1364.779838,995.924147,592.164754,8290.306550
1364.780157,842.705048,1110.308913,8586.388927
1364.780476,536.266849,2146.597232,8216.285956
1364.780795,612.876398,2220.617826,8290.306550
1364.781114,536.266849,1850.514855,8216.285956
1364.781432,383.047749,296.082377,8660.409521
1364.781751,-76.609550,-518.144159,8660.409521
1364.782070,0.000000,-0.000000,8512.368333
1364.782389,306.438199,666.185348,7550.100608
1364.782708,76.609550,1628.453072,7624.121203
1364.783027,-229.828649,1332.370696,8290.306550
1364.783346,-689.485948,962.267725,9030.512492
1364.783664,-1302.362347,1480.411884,9326.594869
1364.783983,-1302.362347,2072.576638,9326.594869
1364.784302,-1378.971896,1924.535449,9474.636058
1364.784621,-1072.533697,1036.288319,9400.615463
1364.784940,-153.219100,-0.000000,10288.862594
1364.785259,0.000000,-370.102971,10436.903782
1364.785578,689.485948,148.041188,9326.594869
1364.785897,1685.410096,1184.329507,8734.430116
1364.786215,1762.019645,1332.370696,9178.553681
1364.786534,1838.629195,740.205942,9474.636058
1364.786853,1378.971896,666.185348,9770.718434
1364.787172,995.924147,1036.288319,10066.800811
1364.787491,1225.752797,1406.391290,10288.862594
1364.787810,1149.143247,1332.370696,9918.759623
1364.788129,842.705048,370.102971,10288.862594
1364.788447,766.095498,-444.123565,10955.047942
1364.788766,842.705048,-814.226536,10584.944971
1364.789085,919.314598,-444.123565,10288.862594
1364.789404,1378.971896,-0.000000,9992.780217
1364.789723,1378.971896,592.164754,9992.780217
1364.790042,1225.752797,296.082377,10066.800811
1364.790361,1072.533697,-74.020594,10658.965565
1364.790680,0.000000,444.123565,10510.924376
1364.790998,0.000000,1406.391290,9844.739029
1364.791317,-153.219100,888.247130,10066.800811
1364.791636,-306.438199,-222.061783,10584.944971
1364.791955,383.047749,-1110.308913,10584.944971
1364.792274,153.219100,-1184.329507,10140.821405
1364.792593,536.266849,-740.205942,9400.615463
1364.792912,1378.971896,-148.041188,8956.491898
1364.793230,1455.581446,-222.061783,8734.430116
1364.793549,995.924147,-592.164754,8734.430116
1364.793868,612.876398,-444.123565,9326.594869
1364.794187,842.705048,370.102971,9104.533087
1364.794506,536.266849,370.102971,8882.471304
1364.794825,459.657299,-0.000000,8734.430116
1364.795144,383.047749,-814.226536,9178.553681
1364.795463,383.047749,-1406.391290,9030.512492
1364.795781,766.095498,-888.247130,8586.388927
1364.796100,1378.971896,-296.082377,7920.203579
1364.796419,2145.067394,518.144159,7772.162391
1364.796738,1302.362347,-0.000000,7994.224174
1364.797057,842.705048,370.102971,8586.388927
1364.797376,612.876398,888.247130,8216.285956
1364.797695,76.609550,1628.453072,8290.306550
1364.798013,153.219100,1776.494261,7994.224174
1364.798332,-229.828649,888.247130,8586.388927
1364.798651,-383.047749,-222.061783,8882.471304
1364.798970,-229.828649,-666.185348,8956.491898
1364.799289,0.000000,-444.123565,8290.306550
1364.799608,153.219100,518.144159,7920.203579
1364.799927,689.485948,888.247130,7624.121203
1364.800246,459.657299,666.185348,8142.265362
1364.800564,229.828649,666.185348,8512.368333
1364.800883,0.000000,1036.288319,8882.471304
1364.801202,-229.828649,1406.391290,8882.471304
1364.801521,0.000000,1406.391290,8808.450710
1364.801840,0.000000,518.144159,9030.512492
1364.802159,0.000000,-222.061783,9474.636058
1364.802478,536.266849,-444.123565,9474.636058
1364.802796,1149.143247,-0.000000,8142.265362
1364.803115,1762.019645,962.267725,7846.182985
1364.803434,1378.971896,666.185348,8808.450710
1364.803753,1378.971896,666.185348,9030.512492
1364.804072,919.314598,518.144159,9548.656652
1364.804391,459.657299,1110.308913,9844.739029
1364.804710,0.000000,1554.432478,9696.697840
1364.805029,0.000000,1702.473667,9696.697840
1364.805347,-383.047749,740.205942,10436.903782
1364.805666,0.000000,-222.061783,10881.027347
1364.805985,0.000000,-296.082377,10584.944971
1364.806304,689.485948,222.061783,9992.780217
1364.806623,1072.533697,148.041188,9844.739029
1364.806942,1532.190996,222.061783,9918.759623
1364.807261,1302.362347,-0.000000,10510.924376
1364.807579,1225.752797,-74.020594,10584.944971
1364.807898,1072.533697,740.205942,10732.986159
1364.808217,1225.752797,1036.288319,10436.903782
1364.808536,1225.752797,1036.288319,9918.759623
1364.808855,1149.143247,-74.020594,9992.780217
1364.809174,1455.581446,-814.226536,10066.800811
1364.809493,1685.410096,-1332.370696,9696.697840
1364.809812,2145.067394,-814.226536,9844.739029
1364.810130,2145.067394,-296.082377,9104.533087
1364.810449,1608.800546,-74.020594,9030.512492
1364.810768,1302.362347,-296.082377,9474.636058
1364.811087,459.657299,-296.082377,9844.739029
1364.811406,0.000000,-0.000000,9622.677246
1364.811725,0.000000,962.267725,9696.697840
1364.812044,-383.047749,666.185348,9622.677246
1364.812362,-536.266849,-0.000000,9474.636058
1364.812681,-536.266849,-592.164754,9622.677246
1364.813000,-229.828649,-518.144159,9178.553681
1364.813319,153.219100,222.061783,8216.285956
1364.813638,383.047749,1184.329507,7772.162391
1364.813957,612.876398,1332.370696,7624.121203
1364.814276,306.438199,1036.288319,8068.244768
1364.814595,76.609550,1258.350101,8734.430116
1364.814913,-229.828649,1480.411884,8216.285956
1364.815232,-306.438199,2220.617826,7624.121203
1364.815551,-229.828649,1480.411884,8290.306550
1364.815870,-383.047749,222.061783,8512.368333
1364.816189,-536.266849,-888.247130,8882.471304
1364.816508,-459.657299,-666.185348,8660.409521
1364.816827,-383.047749,-0.000000,8216.285956
1364.817145,76.609550,444.123565,7920.203579
1364.817464,383.047749,888.247130,8142.265362
1364.817783,0.000000,148.041188,8956.491898
1364.818102,0.000000,814.226536,9104.533087
1364.818421,0.000000,1406.391290,8882.471304
1364.818740,0.000000,1850.514855,8734.430116
1364.819059,-229.828649,1110.308913,9178.553681
1364.819378,229.828649,518.144159,9918.759623
1364.819696,459.657299,-370.102971,9622.677246
1364.820015,995.924147,-148.041188,8808.450710
1364.820334,1532.190996,444.123565,8512.368333
1364.820653,1838.629195,592.164754,8512.368333
1364.820972,1532.190996,666.185348,9252.574275
1364.821291,1149.143247,222.061783,9844.739029
1364.821610,689.485948,518.144159,10140.821405
1364.821928,612.876398,962.267725,10140.821405
1364.822247,306.438199,1036.288319,9844.739029
1364.822566,229.828649,592.164754,9992.780217
1364.822885,459.657299,-518.144159,10140.821405
1364.823204,536.266849,-1110.308913,10214.842000
1364.823523,919.314598,-888.247130,9622.677246
1364.823842,1532.190996,-0.000000,9178.553681
1364.824161,1072.533697,518.144159,9178.553681
1364.824479,1072.533697,370.102971,9474.636058
1364.824798,306.438199,296.082377,9844.739029
1364.825117,0.000000,592.164754,10066.800811
1364.825436,-383.047749,1332.370696,10288.862594
1364.825755,-229.828649,1184.329507,10288.862594
1364.826074,76.609550,740.205942,10584.944971
1364.826393,-306.438199,-74.020594,10955.047942
1364.826711,0.000000,-592.164754,10214.842000
1364.827030,766.095498,-296.082377,9696.697840
1364.827349,1225.752797,444.123565,9252.574275
1364.827668,1302.362347,666.185348,9030.512492
1364.827987,1455.581446,518.144159,9030.512492
1364.828306,1608.800546,814.226536,8808.450710
1364.828625,1302.362347,888.247130,8882.471304
1364.828944,1149.143247,1184.329507,8586.388927
1364.829262,995.924147,1184.329507,8142.265362
1364.829581,689.485948,370.102971,9030.512492
1364.829900,459.657299,-222.061783,9104.533087
1364.830219,612.876398,-148.041188,8882.471304
1364.830538,766.095498,222.061783,8586.388927
1364.830857,689.485948,740.205942,8660.409521
1364.831176,306.438199,740.205942,8512.368333
1364.831494,0.000000,740.205942,8882.471304
1364.831813,-229.828649,370.102971,9474.636058
1364.832132,-766.095498,1332.370696,9104.533087
1364.832451,-1149.143247,1480.411884,9326.594869
1364.832770,-919.314598,1480.411884,9326.594869
1364.833089,-612.876398,740.205942,9474.636058
1364.833408,-689.485948,-222.061783,9178.553681
1364.833727,-459.657299,-148.041188,8956.491898
1364.834045,153.219100,444.123565,8660.409521
1364.834364,306.438199,814.226536,7698.141797
1364.834683,459.657299,814.226536,8364.327145
1364.835002,0.000000,296.082377,8734.430116
1364.835321,0.000000,740.205942,9104.533087
1364.835640,-383.047749,1702.473667,8734.430116
1364.835959,0.000000,1628.453072,9104.533087
1364.836277,-153.219100,1110.308913,9104.533087
1364.836596,0.000000,148.041188,9474.636058
1364.836915,153.219100,-814.226536,10140.821405
1364.837234,383.047749,-592.164754,9474.636058
1364.837553,459.657299,-0.000000,8956.491898
1364.837872,1608.800546,962.267725,8660.409521
1364.838191,1072.533697,962.267725,9030.512492
1364.838510,1149.143247,222.061783,9252.574275
1364.838828,229.828649,592.164754,9548.656652
1364.839147,0.000000,962.267725,9992.780217
1364.839466,306.438199,1184.329507,9622.677246
1364.839785,229.828649,296.082377,10066.800811
1364.840104,-229.828649,-1110.308913,10510.924376
1364.840423,0.000000,-1554.432478,10658.965565
1364.840742,536.266849,-1406.391290,9918.759623
1364.841060,995.924147,-518.144159,9474.636058
1364.841379,1608.800546,-0.000000,9474.636058
1364.841698,1532.190996,222.061783,8882.471304
1364.842017,1225.752797,296.082377,9326.594869
1364.842336,1302.362347,740.205942,9474.636058
1364.842655,1225.752797,962.267725,9696.697840
1364.842974,1072.533697,1110.308913,9252.574275
1364.843293,919.314598,-0.000000,9696.697840
1364.843611,919.314598,-518.144159,9770.718434
1364.843930,1072.533697,-814.226536,9770.718434
1364.844249,1378.971896,-296.082377,9178.553681
1364.844568,1685.410096,-0.000000,8882.471304
1364.844887,1072.533697,814.226536,8512.368333
1364.845206,1532.190996,592.164754,8142.265362
1364.845525,766.095498,148.041188,8956.491898
1364.845843,0.000000,814.226536,9178.553681
1364.846162,-459.657299,1184.329507,8956.491898
1364.846481,-919.314598,1036.288319,8808.450710
1364.846800,-1072.533697,592.164754,9326.594869
1364.847119,-1302.362347,-0.000000,9400.615463
1364.847438,-1225.752797,-148.041188,9178.553681
1364.847757,-842.705048,296.082377,8660.409521
1364.848076,-536.266849,1036.288319,8142.265362
1364.848394,-153.219100,1184.329507,8290.306550
1364.848713,-459.657299,740.205942,8956.491898
1364.849032,-689.485948,814.226536,9474.636058
1364.849351,-766.095498,1406.391290,9326.594869
1364.849670,-919.314598,1702.473667,9400.615463
1364.849989,-612.876398,1332.370696,8956.491898
1364.850308,-689.485948,444.123565,9474.636058
1364.850626,-612.876398,-370.102971,9474.636058
1364.850945,459.657299,-74.020594,8882.471304
1364.851264,536.266849,740.205942,7772.162391
1364.851583,1685.410096,1406.391290,7698.141797
1364.851902,1072.533697,1036.288319,8068.244768
1364.852221,995.924147,518.144159,8586.388927
1364.852540,842.705048,518.144159,9178.553681
1364.852859,229.828649,1110.308913,9474.636058
1364.853177,229.828649,1850.514855,9474.636058
1364.853496,153.219100,1554.432478,9474.636058
1364.853815,153.219100,1184.329507,9696.697840
1364.854134,536.266849,-74.020594,10066.800811
1364.854453,1149.143247,-148.041188,9918.759623
1364.854772,1378.971896,592.164754,8956.491898
1364.855091,1685.410096,592.164754,8882.471304
1364.855409,1608.800546,-148.041188,10066.800811
1364.855728,1302.362347,-148.041188,10140.821405
1364.856047,766.095498,-0.000000,9918.759623
1364.856366,919.314598,814.226536,9844.739029
1364.856685,766.095498,888.247130,10140.821405
1364.857004,612.876398,-0.000000,10140.821405
1364.857323,229.828649,-666.185348,10510.924376
1364.857642,536.266849,-1406.391290,10732.986159
1364.857960,306.438199,-1110.308913,10214.842000
1364.858279,689.485948,-666.185348,9474.636058
1364.858598,1149.143247,-296.082377,9548.656652
1364.858917,842.705048,-0.000000,9992.780217
1364.859236,459.657299,-518.144159,10214.842000
1364.859555,459.657299,-148.041188,10066.800811
1364.859874,306.438199,222.061783,10362.883188
1364.860192,459.657299,666.185348,10066.800811
1364.860511,766.095498,296.082377,9696.697840
1364.860830,689.485948,-370.102971,9992.780217
1364.861149,766.095498,-814.226536,9696.697840
1364.861468,1378.971896,-518.144159,9104.533087
1364.861787,1838.629195,-0.000000,8438.347739
1364.862106,2068.457845,370.102971,7994.224174
1364.862425,1685.410096,148.041188,8216.285956
1364.862743,1072.533697,296.082377,7994.224174
1364.863062,1072.533697,888.247130,8660.409521
1364.863381,612.876398,1258.350101,8586.388927
1364.863700,0.000000,1406.391290,8512.368333
1364.864019,-383.047749,592.164754,8734.430116
1364.864338,-229.828649,-222.061783,9030.512492
1364.864657,-689.485948,-814.226536,9326.594869
1364.864975,76.609550,-296.082377,8512.368333
1364.865294,153.219100,592.164754,7846.182985
1364.865613,0.000000,1184.329507,7476.080014
1364.865932,-459.657299,1036.288319,7846.182985
1364.866251,-766.095498,740.205942,8512.368333
1364.866570,-1072.533697,1332.370696,8808.450710
1364.866889,-1302.362347,2072.576638,8660.409521
1364.867208,-1225.752797,1702.473667,8586.388927
1364.867526,-1225.752797,740.205942,9104.533087
1364.867845,-689.485948,-0.000000,9326.594869
1364.868164,-689.485948,-518.144159,9178.553681
1364.868483,229.828649,148.041188,8364.327145
1364.868802,612.876398,962.267725,8364.327145
1364.869121,995.924147,1110.308913,8142.265362
1364.869440,1072.533697,814.226536,8808.450710
1364.869758,842.705048,222.061783,9326.594869
1364.870077,919.314598,1258.350101,9400.615463
1364.870396,842.705048,1850.514855,9400.615463
1364.870715,1302.362347,1998.556043,9326.594869
1364.871034,842.705048,666.185348,9770.718434
1364.871353,995.924147,-444.123565,10214.842000
1364.871672,842.705048,-1036.288319,10066.800811
1364.871991,1532.190996,-296.082377,9844.739029
1364.872309,2145.067394,296.082377,9326.594869
1364.872628,1762.019645,444.123565,9252.574275
1364.872947,1685.410096,-0.000000,10362.883188
1364.873266,919.314598,-0.000000,10584.944971
1364.873585,612.876398,888.247130,10658.965565
1364.873904,306.438199,1036.288319,9992.780217
1364.874223,229.828649,888.247130,10214.842000
1364.874541,229.828649,-74.020594,10732.986159
1364.874860,153.219100,-1628.453072,10732.986159
1364.875179,536.266849,-1184.329507,10066.800811
1364.875498,919.314598,-666.185348,9696.697840
1364.875817,1455.581446,222.061783,9474.636058
1364.876136,1225.752797,-0.000000,9474.636058
1364.876455,995.924147,74.020594,9770.718434
1364.876774,842.705048,222.061783,9844.739029
1364.877092,1072.533697,888.247130,9474.636058
1364.877411,995.924147,1110.308913,9474.636058
1364.877730,919.314598,518.144159,9474.636058
1364.878049,919.314598,-370.102971,9770.718434
1364.878368,995.924147,-1184.329507,9400.615463
1364.878686,1149.143247,-962.267725,9104.533087
1364.879005,1915.238745,-296.082377,8512.368333
1364.879324,1762.019645,296.082377,7550.100608
1364.879643,1378.971896,-0.000000,8142.265362
1364.879961,1072.533697,-0.000000,8364.327145
1364.880280,383.047749,222.061783,9030.512492
1364.880599,0.000000,1036.288319,9030.512492
1364.880917,-612.876398,666.185348,9474.636058
1364.881236,-1072.533697,-0.000000,9770.718434
1364.881555,-995.924147,-1184.329507,9474.636058
1364.881874,-919.314598,-1702.473667,9474.636058
1364.882192,-459.657299,-1480.411884,9030.512492
1364.882511,0.000000,-296.082377,8586.388927
1364.882830,229.828649,296.082377,7920.203579
1364.883148,766.095498,518.144159,7698.141797
1364.883467,229.828649,444.123565,8142.265362
1364.883786,0.000000,1110.308913,8512.368333
1364.884105,383.047749,1480.411884,8290.306550
1364.884423,459.657299,1924.535449,7994.224174
1364.884742,383.047749,740.205942,7920.203579
1364.885061,153.219100,-222.061783,8734.430116
1364.885379,536.266849,-666.185348,8660.409521
1364.885698,766.095498,-0.000000,8290.306550
1364.886017,1225.752797,370.102971,7772.162391
1364.886336,1149.143247,814.226536,7846.182985
1364.886654,229.828649,740.205942,8512.368333
1364.886973,0.000000,370.102971,9474.636058
1364.887292,-153.219100,1036.288319,9696.697840
1364.887610,-306.438199,1924.535449,9474.636058
1364.887929,0.000000,2220.617826,9400.615463
1364.888248,0.000000,1258.350101,9474.636058
1364.888567,229.828649,148.041188,9918.759623
1364.888885,919.314598,-148.041188,9400.615463
1364.889204,1455.581446,370.102971,9178.553681
1364.889523,2221.676944,1110.308913,8216.285956
1364.889841,2374.896044,1184.329507,8586.388927
1364.890160,2221.676944,740.205942,9326.594869
1364.890479,1532.190996,222.061783,9992.780217
1364.890798,995.924147,296.082377,10214.842000
1364.891116,1149.143247,1258.350101,10140.821405
1364.891435,612.876398,962.267725,10288.862594
1364.891754,383.047749,148.041188,10436.903782
1364.892072,689.485948,-740.205942,11029.068536
1364.892391,689.485948,-1184.329507,10807.006753
1364.892710,995.924147,-666.185348,10066.800811
1364.893029,1455.581446,-296.082377,9474.636058
1364.893347,766.095498,-0.000000,9844.739029
1364.893666,612.876398,-222.061783,10066.800811
1364.893985,153.219100,-148.041188,10510.924376
1364.894303,229.828649,740.205942,10584.944971
1364.894622,76.609550,1406.391290,10362.883188
1364.894941,-153.219100,1406.391290,10140.821405
1364.895260,0.000000,592.164754,10510.924376
1364.895578,0.000000,-296.082377,10214.842000
1364.895897,229.828649,-296.082377,9770.718434
1364.896216,612.876398,-0.000000,9178.553681
1364.896534,842.705048,370.102971,8734.430116
1364.896853,919.314598,814.226536,8512.368333
1364.897172,383.047749,518.144159,8586.388927
1364.897491,76.609550,814.226536,8882.471304
1364.897809,-229.828649,1406.391290,8808.450710
1364.898128,-229.828649,1850.514855,8586.388927
1364.898447,-459.657299,1258.350101,8586.388927
1364.898765,-1072.533697,296.082377,9104.533087
1364.899084,-306.438199,-592.164754,9178.553681
1364.899403,-459.657299,-222.061783,9104.533087
1364.899721,306.438199,370.102971,8734.430116
1364.900040,459.657299,1332.370696,7846.182985
1364.900359,842.705048,1036.288319,8068.244768
1364.900678,306.438199,1110.308913,8364.327145
1364.900996,0.000000,1184.329507,8586.388927
1364.901315,153.219100,1554.432478,8512.368333
1364.901634,0.000000,1628.453072,8438.347739
1364.901952,0.000000,1184.329507,8586.388927
1364.902271,153.219100,-74.020594,8660.409521
1364.902590,76.609550,-814.226536,9104.533087
1364.902909,536.266849,-1184.329507,8734.430116
1364.903227,1072.533697,-0.000000,8142.265362
1364.903546,1532.190996,-0.000000,7698.141797
1364.903865,1302.362347,518.144159,8364.327145
1364.904183,995.924147,-0.000000,8734.430116
1364.904502,229.828649,296.082377,9104.533087
1364.904821,0.000000,1110.308913,9474.636058
1364.905140,306.438199,1628.453072,9104.533087
1364.905458,229.828649,1110.308913,9474.636058
1364.905777,153.219100,-74.020594,9844.739029
1364.906096,383.047749,-1110.308913,9992.780217
1364.906414,842.705048,-888.247130,9326.594869
1364.906733,995.924147,-0.000000,8956.491898
1364.907052,1225.752797,370.102971,8956.491898
1364.907371,995.924147,592.164754,8956.491898
1364.907689,383.047749,518.144159,9474.636058
1364.908008,-153.219100,518.144159,10288.862594
1364.908327,-459.657299,1258.350101,10436.903782
1364.908645,-459.657299,888.247130,9992.780217
1364.908964,-536.266849,-0.000000,10658.965565
1364.909283,-229.828649,-1110.308913,10658.965565
1364.909602,-229.828649,-1258.350101,10066.800811
1364.909920,153.219100,-888.247130,9474.636058
1364.910239,995.924147,-296.082377,9474.636058
1364.910558,1608.800546,370.102971,9400.615463
1364.910876,1532.190996,370.102971,9474.636058
1364.911195,1302.362347,1036.288319,9548.656652
1364.911514,1608.800546,1332.370696,9548.656652
1364.911833,1608.800546,2072.576638,9178.553681
1364.912151,1685.410096,1480.411884,9400.615463
1364.912470,1685.410096,814.226536,9770.718434
1364.912789,1532.190996,-0.000000,9400.615463
1364.913107,1608.800546,-444.123565,9030.512492
1364.913426,1762.019645,-518.144159,9030.512492
1364.913745,1455.581446,-0.000000,8660.409521
1364.914064,1149.143247,-0.000000,8734.430116
1364.914382,459.657299,222.061783,9104.533087
1364.914701,0.000000,518.144159,9844.739029
1364.915020,-842.705048,888.247130,9548.656652
1364.915338,-995.924147,1554.432478,9770.718434
1364.915657,-1302.362347,1554.432478,9474.636058
1364.915976,-919.314598,592.164754,9696.697840
1364.916295,-1225.752797,-0.000000,9326.594869
1364.916613,-459.657299,-0.000000,8808.450710
1364.916932,-306.438199,370.102971,8364.327145
1364.917251,76.609550,888.247130,7920.203579
1364.917569,229.828649,1036.288319,8290.306550
1364.917888,76.609550,1258.350101,8660.409521
1364.918207,153.219100,1110.308913,9104.533087
1364.918526,-536.266849,1332.370696,9252.574275
1364.918844,-306.438199,1924.535449,9030.512492
1364.919163,-306.438199,1258.350101,8956.491898
1364.919482,0.000000,370.102971,9400.615463
1364.919800,229.828649,-222.061783,9400.615463
1364.920119,383.047749,-148.041188,8808.450710
1364.920438,1072.533697,518.144159,7772.162391
1364.920757,1378.971896,1036.288319,7994.224174
1364.921075,1072.533697,888.247130,8142.265362
1364.921394,1072.533697,666.185348,8956.491898
1364.921713,536.266849,962.267725,9696.697840
1364.922031,-76.609550,1554.432478,9548.656652
1364.922350,76.609550,1628.453072,9696.697840
1364.922669,0.000000,1036.288319,10066.800811
1364.922988,-306.438199,-296.082377,10510.924376
1364.923306,153.219100,-814.226536,10436.903782
1364.923625,153.219100,-444.123565,9770.718434
1364.923944,842.705048,-148.041188,9474.636058
1364.924262,1378.971896,-0.000000,9622.677246
1364.924581,995.924147,-0.000000,9770.718434
1364.924900,459.657299,148.041188,9918.759623
1364.925219,612.876398,888.247130,9548.656652
1364.925537,383.047749,1110.308913,9474.636058
1364.925856,76.609550,666.185348,9400.615463
1364.926175,383.047749,-0.000000,9474.636058
1364.926493,153.219100,-1184.329507,9548.656652
1364.926812,76.609550,-1110.308913,9548.656652
1364.927131,842.705048,-1110.308913,9326.594869
1364.927449,766.095498,-0.000000,8808.450710
1364.927768,536.266849,444.123565,8956.491898
1364.928087,0.000000,888.247130,9178.553681
1364.928406,-306.438199,740.205942,8882.471304
1364.928724,-612.876398,296.082377,10066.800811
1364.929043,-766.095498,592.164754,10066.800811
1364.929362,-383.047749,592.164754,9770.718434
1364.929680,-229.828649,-0.000000,9548.656652
1364.929999,153.219100,-296.082377,9918.759623
1364.930318,1149.143247,-740.205942,9326.594869
1364.930637,1378.971896,-518.144159,8660.409521
1364.930955,1608.800546,222.061783,8364.327145
1364.931274,2374.896044,740.205942,7994.224174
1364.931593,1915.238745,1258.350101,7698.141797
1364.931911,1838.629195,888.247130,8512.368333
1364.932230,1378.971896,814.226536,9178.553681
1364.932549,383.047749,1110.308913,8660.409521
1364.932868,612.876398,222.061783,9104.533087
1364.933186,229.828649,222.061783,9474.636058
1364.933505,153.219100,-666.185348,9474.636058
1364.933824,229.828649,-1184.329507,9400.615463
1364.934142,459.657299,-296.082377,8956.491898
1364.934461,612.876398,222.061783,8956.491898
1364.934780,383.047749,1110.308913,8216.285956
1364.935099,-229.828649,962.267725,8734.430116
1364.935417,76.609550,1110.308913,9770.718434
1364.935736,-383.047749,1924.535449,9104.533087
1364.936055,-766.095498,1480.411884,9252.574275
1364.936373,-612.876398,888.247130,9622.677246
1364.936692,-536.266849,518.144159,9252.574275
1364.937011,-76.609550,-0.000000,9474.636058
1364.937330,76.609550,592.164754,8808.450710
1364.937648,689.485948,592.164754,8068.244768
1364.937967,1225.752797,1110.308913,7772.162391
1364.938286,766.095498,1554.432478,8290.306550
1364.938604,536.266849,1406.391290,8586.388927
1364.938923,306.438199,1998.556043,8808.450710
1364.939242,76.609550,2294.638420,9104.533087
1364.939561,0.000000,1924.535449,9474.636058
1364.939879,-689.485948,888.247130,9696.697840
1364.940198,-153.219100,-296.082377,10066.800811
1364.940517,0.000000,-814.226536,10584.944971
1364.940835,229.828649,-222.061783,10140.821405
1364.941154,919.314598,444.123565,9548.656652
1364.941473,766.095498,592.164754,9400.615463
1364.941792,689.485948,-0.000000,9918.759623
1364.942110,689.485948,-0.000000,10436.903782
1364.942429,766.095498,370.102971,10066.800811
1364.942748,766.095498,740.205942,10066.800811
1364.943066,306.438199,1036.288319,9844.739029
1364.943385,842.705048,-0.000000,9992.780217
1364.943704,1378.971896,-1406.391290,10955.047942
1364.944023,1072.533697,-1406.391290,10140.821405
1364.944341,1685.410096,-1628.453072,10288.862594
1364.944660,2298.286494,-1036.288319,9548.656652
1364.944979,2298.286494,-0.000000,9474.636058
1364.945297,2374.896044,-666.185348,9474.636058
1364.945616,1608.800546,-740.205942,10288.862594
1364.945935,1685.410096,-74.020594,10881.027347
1364.946254,1685.410096,814.226536,9400.615463
1364.946572,1455.581446,962.267725,9030.512492
1364.946891,1455.581446,-0.000000,10140.821405
1364.947210,1225.752797,-814.226536,9474.636058
1364.947528,1455.581446,-1036.288319,8660.409521
1364.947847,1762.019645,-518.144159,8290.306550
1364.948166,1455.581446,296.082377,7846.182985
1364.948485,1685.410096,444.123565,7698.141797
1364.948803,919.314598,518.144159,8512.368333
1364.949122,-536.266849,370.102971,8956.491898
1364.949441,-1072.533697,518.144159,8734.430116
1364.949759,-995.924147,518.144159,9030.512492
1364.950078,-2374.896044,444.123565,8660.409521
1364.950397,-1838.629195,-592.164754,9030.512492
1364.950716,-1302.362347,-0.000000,9770.718434
1364.951034,-1455.581446,222.061783,8290.306550
1364.951353,-842.705048,962.267725,6439.791695
1364.951672,0.000000,666.185348,8216.285956
1364.951990,-306.438199,962.267725,7772.162391
1364.952309,229.828649,370.102971,7328.038826
1364.952628,306.438199,1036.288319,8364.327145
1364.952947,536.266849,1036.288319,9622.677246
1364.953265,766.095498,888.247130,8216.285956
1364.953584,612.876398,-444.123565,9252.574275
1364.953903,689.485948,-666.185348,9548.656652
1364.954221,919.314598,-1036.288319,8734.430116
1364.954540,919.314598,222.061783,7328.038826
1364.954859,1302.362347,1184.329507,8438.347739
1364.955177,383.047749,2590.720797,7476.080014
1364.955496,-612.876398,2590.720797,7920.203579
1364.955815,-766.095498,1110.308913,8734.430116
1364.956134,-1838.629195,1480.411884,9992.780217
1364.956452,-2068.457845,666.185348,11103.089130
1364.956771,-1915.238745,962.267725,11029.068536
1364.957090,-689.485948,814.226536,11399.171507
1364.957408,-459.657299,-740.205942,11621.233289
1364.957727,306.438199,-666.185348,11177.109724
1364.958046,1685.410096,814.226536,9548.656652
1364.958365,2528.115143,1406.391290,8142.265362
1364.958683,2911.162892,2960.823768,7920.203579
1364.959002,3064.381992,2220.617826,7920.203579
1364.959321,1532.190996,1924.535449,7772.162391
1364.959639,1455.581446,1480.411884,9326.594869
1364.959958,536.266849,1628.453072,9326.594869
1364.960277,459.657299,1184.329507,9622.677246
1364.960596,306.438199,296.082377,10214.842000
1364.960914,0.000000,-666.185348,11177.109724
1364.961233,153.219100,-2072.576638,11621.233289
1364.961552,459.657299,-1554.432478,10955.047942
1364.961870,1072.533697,-0.000000,10362.883188
1364.962189,1532.190996,-0.000000,10214.842000
1364.962508,1762.019645,888.247130,10140.821405
1364.962827,1455.581446,962.267725,9696.697840
1364.963145,995.924147,518.144159,9696.697840
1364.963464,1072.533697,1258.350101,9770.718434
1364.963783,1532.190996,814.226536,9548.656652
1364.964101,1455.581446,-0.000000,9252.574275
1364.964420,1455.581446,-1036.288319,9548.656652
1364.964739,995.924147,-2220.617826,10362.883188
1364.965058,1149.143247,-1554.432478,10140.821405
1364.965376,1685.410096,-740.205942,9178.553681
1364.965695,1149.143247,-814.226536,9622.677246
1364.966014,1149.143247,-444.123565,10066.800811
1364.966332,76.609550,-518.144159,10066.800811
1364.966651,0.000000,-0.000000,9696.697840
1364.966970,-383.047749,592.164754,9252.574275
1364.967289,-153.219100,518.144159,8808.450710
1364.967607,-383.047749,148.041188,7994.224174
1364.967926,76.609550,-888.247130,8142.265362
1364.968245,612.876398,-592.164754,8068.244768
1364.968563,612.876398,-0.000000,7179.997637
1364.968882,1072.533697,814.226536,7105.977043
1364.969201,459.657299,740.205942,7476.080014
1364.969520,0.000000,148.041188,8216.285956
1364.969838,-766.095498,296.082377,8734.430116
1364.970157,-1225.752797,518.144159,9178.553681
1364.970476,-1532.190996,1184.329507,8512.368333
1364.970794,-1072.533697,1406.391290,8364.327145
1364.971113,-1072.533697,-0.000000,9030.512492
1364.971432,-1149.143247,-444.123565,8364.327145
1364.971751,-383.047749,-148.041188,8142.265362
1364.972069,383.047749,888.247130,7772.162391
1364.972388,842.705048,1628.453072,7105.977043
1364.972707,1149.143247,1406.391290,7994.224174
1364.973025,766.095498,666.185348,8808.450710
1364.973344,766.095498,888.247130,9400.615463
1364.973663,612.876398,1332.370696,9178.553681
1364.973982,1149.143247,1184.329507,9400.615463
1364.974300,995.924147,444.123565,9770.718434
1364.974619,1302.362347,-518.144159,9992.780217
1364.974938,1378.971896,-888.247130,9844.739029
1364.975256,1838.629195,-666.185348,9548.656652
1364.975575,1838.629195,370.102971,8364.327145
1364.975894,2221.676944,1036.288319,9178.553681
1364.976213,2068.457845,592.164754,9030.512492
1364.976531,1302.362347,-148.041188,9992.780217
1364.976850,766.095498,-296.082377,10881.027347
1364.977169,536.266849,444.123565,10658.965565
1364.977487,459.657299,296.082377,10066.800811
1364.977806,536.266849,222.061783,10362.883188
1364.978125,689.485948,-962.267725,10288.862594
1364.978444,536.266849,-1406.391290,9918.759623
1364.978762,1225.752797,-296.082377,10140.821405
1364.979081,1149.143247,888.247130,9474.636058
1364.979400,1225.752797,1258.350101,9178.553681
1364.979718,766.095498,1110.308913,9548.656652
1364.980037,612.876398,740.205942,10288.862594
1364.980356,-383.047749,814.226536,9992.780217
1364.980674,-689.485948,1628.453072,10140.821405
1364.980993,-229.828649,1332.370696,10140.821405
1364.981312,0.000000,962.267725,10066.800811
1364.981631,76.609550,-444.123565,10288.862594
1364.981949,459.657299,-888.247130,9844.739029
1364.982268,919.314598,-444.123565,8512.368333
1364.982587,1302.362347,888.247130,7476.080014
1364.982905,1225.752797,1258.350101,7920.203579
1364.983224,689.485948,814.226536,8660.409521
1364.983543,-459.657299,814.226536,8956.491898
1364.983862,-1072.533697,962.267725,9622.677246
1364.984180,-766.095498,1110.308913,9696.697840
1364.984499,-536.266849,962.267725,9622.677246
1364.984818,0.000000,-370.102971,9844.739029
1364.985136,-842.705048,-1036.288319,10362.883188
1364.985455,0.000000,-1110.308913,9548.656652
1364.985774,612.876398,-222.061783,8586.388927
1364.986093,1225.752797,592.164754,8512.368333
1364.986411,1762.019645,1036.288319,8142.265362
1364.986730,1685.410096,1406.391290,7698.141797
1364.987049,1072.533697,592.164754,8438.347739
1364.987367,766.095498,740.205942,8882.471304
1364.987686,383.047749,1406.391290,8438.347739
1364.988005,766.095498,1036.288319,8512.368333
1364.988324,153.219100,-148.041188,9104.533087
1364.988642,306.438199,-666.185348,9474.636058
1364.988961,383.047749,-666.185348,9030.512492
1364.989280,919.314598,-74.020594,8660.409521
1364.989598,1225.752797,1036.288319,8290.306550
1364.989917,536.266849,1332.370696,8216.285956
1364.990236,0.000000,1110.308913,8882.471304
1364.990555,-766.095498,888.247130,9548.656652
1364.990873,-1302.362347,1184.329507,9548.656652
1364.991192,-919.314598,1702.473667,9548.656652
1364.991511,-995.924147,1406.391290,9178.553681
1364.991829,-612.876398,296.082377,9326.594869
1364.992148,-229.828649,-962.267725,9474.636058
1364.992467,0.000000,-666.185348,9178.553681
1364.992785,383.047749,-74.020594,8882.471304
1364.993104,689.485948,740.205942,8586.388927
1364.993423,842.705048,592.164754,9104.533087
1364.993742,459.657299,296.082377,9474.636058
1364.994060,383.047749,666.185348,9474.636058
1364.994379,-306.438199,444.123565,9696.697840
1364.994698,0.000000,222.061783,9474.636058
1364.995016,229.828649,-370.102971,9918.759623
1364.995335,459.657299,-1258.350101,10140.821405
1364.995654,766.095498,-1702.473667,10066.800811
1364.995973,1149.143247,-1036.288319,9770.718434
1364.996291,1532.190996,-0.000000,9178.553681
1364.996610,1532.190996,666.185348,8956.491898
1364.996929,1532.190996,592.164754,9474.636058
1364.997247,766.095498,296.082377,9992.780217
1364.997566,229.828649,444.123565,10362.883188
1364.997885,536.266849,740.205942,10362.883188
1364.998204,383.047749,888.247130,10288.862594
1364.998522,76.609550,-74.020594,10066.800811
1364.998841,536.266849,-296.082377,10066.800811
1364.999160,536.266849,-666.185348,9474.636058
1364.999478,842.705048,-370.102971,9030.512492
1364.999797,1149.143247,444.123565,8364.327145
1365.000116,1378.971896,962.267725,8364.327145
1365.000435,1072.533697,1258.350101,8438.347739
1365.000753,383.047749,1184.329507,8882.471304
1365.001072,0.000000,1480.411884,9178.553681
1365.001391,-153.219100,1332.370696,8808.450710
1365.001709,0.000000,1332.370696,8882.471304
1365.002028,-306.438199,592.164754,9400.615463
1365.002347,0.000000,-518.144159,9400.615463
1365.002665,-153.219100,-444.123565,9696.697840
1365.002984,766.095498,370.102971,8660.409521
1365.003303,1072.533697,1332.370696,7994.224174
1365.003622,1072.533697,1702.473667,7920.203579
1365.003940,766.095498,1258.350101,8512.368333
1365.004259,153.219100,740.205942,9104.533087
1365.004578,-689.485948,814.226536,9326.594869
1365.004896,-612.876398,1036.288319,9474.636058
1365.005215,-842.705048,1332.370696,9030.512492
1365.005534,-153.219100,296.082377,9770.718434
1365.005853,-383.047749,-370.102971,9770.718434
1365.006171,229.828649,-518.144159,9622.677246
1365.006490,766.095498,-222.061783,8734.430116
1365.006809,1149.143247,740.205942,8882.471304
1365.007127,1685.410096,962.267725,9104.533087
1365.007446,306.438199,1332.370696,9178.553681
1365.007765,0.000000,1110.308913,9400.615463
1365.008084,229.828649,1110.308913,9770.718434
1365.008402,0.000000,1184.329507,9844.739029
1365.008721,0.000000,740.205942,10140.821405
1365.009040,306.438199,-0.000000,9844.739029
1365.009358,0.000000,-666.185348,9696.697840
1365.009677,612.876398,-1258.350101,9696.697840
1365.009996,689.485948,-222.061783,9178.553681
1365.010315,1072.533697,296.082377,8882.471304
1365.010633,1149.143247,888.247130,8882.471304
1365.010952,689.485948,962.267725,9252.574275
1365.011271,0.000000,740.205942,9696.697840
1365.011589,-766.095498,1480.411884,9918.759623
1365.011908,0.000000,1036.288319,9992.780217
1365.012227,-459.657299,444.123565,9474.636058
1365.012546,0.000000,-74.020594,9992.780217
1365.012864,0.000000,-666.185348,9844.739029
1365.013183,689.485948,-222.061783,9400.615463
1365.013502,1378.971896,296.082377,8808.450710
1365.013820,1378.971896,666.185348,8586.388927
1365.014139,1991.848295,1332.370696,8216.285956
1365.014458,1532.190996,1036.288319,8882.471304
1365.014776,1225.752797,1184.329507,9178.553681
1365.015095,689.485948,962.267725,9178.553681
1365.015414,1149.143247,666.185348,9474.636058
1365.015733,919.314598,-0.000000,9770.718434
1365.016051,766.095498,-1036.288319,9770.718434
1365.016370,995.924147,-1776.494261,9474.636058
1365.016689,1685.410096,-1258.350101,8808.450710
1365.017007,1915.238745,-370.102971,7920.203579
1365.017326,1915.238745,-0.000000,8142.265362
1365.017645,1072.533697,-148.041188,8882.471304
1365.017964,689.485948,-0.000000,9326.594869
1365.018282,76.609550,222.061783,9400.615463
1365.018601,-306.438199,444.123565,9326.594869
1365.018920,-919.314598,222.061783,9400.615463
1365.019238,-689.485948,-74.020594,9326.594869
1365.019557,-536.266849,-1628.453072,9844.739029
1365.019876,0.000000,-1628.453072,9918.759623
1365.020195,0.000000,-1258.350101,9178.553681
1365.020513,766.095498,-74.020594,8512.368333
1365.020832,536.266849,444.123565,8660.409521
1365.021151,536.266849,740.205942,8956.491898
1365.021469,229.828649,1258.350101,8882.471304
1365.021788,0.000000,1776.494261,8882.471304
1365.022107,153.219100,1998.556043,8660.409521
1365.022426,229.828649,2072.576638,8438.347739
1365.022744,229.828649,814.226536,8882.471304
1365.023063,153.219100,-148.041188,8734.430116
1365.023382,612.876398,-0.000000,8586.388927
1365.023700,766.095498,370.102971,8290.306550
1365.024019,1149.143247,1110.308913,8068.244768
1365.024338,612.876398,1702.473667,8290.306550
1365.024656,0.000000,962.267725,8882.471304
1365.024975,-536.266849,1184.329507,9696.697840
1365.025294,-459.657299,1184.329507,9918.759623
1365.025613,-689.485948,2146.597232,9844.739029
1365.025931,-1072.533697,1998.556043,9918.759623
1365.026250,-612.876398,740.205942,10140.821405
1365.026569,0.000000,-0.000000,10066.800811
1365.026887,0.000000,-592.164754,9844.739029
1365.027206,689.485948,148.041188,9400.615463
1365.027525,1072.533697,740.205942,8660.409521
1365.027844,1455.581446,814.226536,8882.471304
1365.028162,1838.629195,592.164754,9770.718434
1365.028481,612.876398,814.226536,9548.656652
1365.028800,459.657299,1184.329507,9622.677246
1365.029118,153.219100,1258.350101,10140.821405
1365.029437,153.219100,666.185348,10436.903782
1365.029756,-229.828649,-370.102971,10732.986159
1365.030075,-229.828649,-1406.391290,11029.068536
1365.030393,-306.438199,-1554.432478,10140.821405
1365.030712,689.485948,-222.061783,9844.739029
1365.031031,919.314598,888.247130,9474.636058
1365.031349,1762.019645,1406.391290,9104.533087
1365.031668,536.266849,1184.329507,9474.636058
1365.031987,612.876398,1110.308913,9918.759623
1365.032306,306.438199,1332.370696,9696.697840
1365.032624,459.657299,1480.411884,9548.656652
1365.032943,766.095498,1036.288319,9474.636058
1365.033262,766.095498,-148.041188,9474.636058
1365.033580,689.485948,-962.267725,9844.739029
1365.033899,1149.143247,-814.226536,9178.553681
1365.034218,1532.190996,-222.061783,8290.306550
1365.034536,2145.067394,296.082377,8512.368333
1365.034855,1532.190996,740.205942,7994.224174
1365.035174,995.924147,370.102971,8734.430116
1365.035493,153.219100,518.144159,8956.491898
1365.035811,76.609550,370.102971,9178.553681
1365.036130,153.219100,1036.288319,9030.512492
1365.036449,536.266849,-0.000000,9030.512492
1365.036767,459.657299,-888.247130,9400.615463
1365.037086,612.876398,-1554.432478,9030.512492
1365.037405,842.705048,-1332.370696,8364.327145
1365.037724,1378.971896,-222.061783,7846.182985
1365.038042,1608.800546,666.185348,7476.080014
1365.038361,1378.971896,740.205942,7550.100608
1365.038680,766.095498,518.144159,8586.388927
1365.038998,-383.047749,666.185348,9030.512492
1365.039317,-689.485948,814.226536,9474.636058
1365.039636,-689.485948,888.247130,9474.636058
1365.039955,-383.047749,148.041188,9622.677246
1365.040273,-306.438199,-666.185348,9696.697840
1365.040592,0.000000,-1480.411884,9474.636058
1365.040911,383.047749,-814.226536,9326.594869
1365.041229,689.485948,-0.000000,8438.347739
1365.041548,1225.752797,666.185348,8142.265362
1365.041867,1225.752797,740.205942,8734.430116
1365.042186,612.876398,518.144159,8882.471304
1365.042504,0.000000,962.267725,9400.615463
1365.042823,76.609550,1332.370696,9030.512492
1365.043142,306.438199,1480.411884,8956.491898
1365.043460,612.876398,962.267725,9178.553681
1365.043779,536.266849,222.061783,9474.636058
1365.044098,766.095498,-0.000000,9178.553681
1365.044417,995.924147,222.061783,8660.409521
1365.044735,1225.752797,666.185348,8586.388927
1365.045054,1149.143247,740.205942,9104.533087
1365.045373,383.047749,740.205942,9622.677246
1365.045691,76.609550,814.226536,10066.800811
1365.046010,-229.828649,1406.391290,10658.965565
1365.046329,-459.657299,1702.473667,10140.821405
1365.046647,-229.828649,1184.329507,10732.986159
1365.046966,0.000000,-0.000000,10658.965565
1365.047285,536.266849,-444.123565,10807.006753
1365.047604,1225.752797,-444.123565,10881.027347
1365.047922,1072.533697,444.123565,9770.718434
1365.048241,1991.848295,740.205942,9548.656652
1365.048560,2298.286494,1258.350101,9548.656652
1365.048878,1838.629195,1036.288319,9918.759623
1365.049197,1149.143247,592.164754,9918.759623
1365.049516,766.095498,1776.494261,10362.883188
1365.049835,919.314598,1332.370696,10066.800811
1365.050153,612.876398,222.061783,9918.759623
1365.050472,766.095498,-666.185348,10362.883188
1365.050791,689.485948,-1628.453072,10140.821405
1365.051109,1072.533697,-1184.329507,9548.656652
1365.051428,995.924147,-370.102971,9252.574275
1365.051747,1685.410096,-0.000000,8808.450710
1365.052066,995.924147,814.226536,8364.327145
1365.052384,995.924147,740.205942,9400.615463
1365.052703,0.000000,518.144159,9474.636058
1365.053022,-383.047749,1110.308913,9400.615463
1365.053340,-306.438199,1776.494261,8734.430116
1365.053659,-153.219100,1332.370696,9104.533087
1365.053978,-383.047749,-444.123565,9474.636058
1365.054297,-306.438199,-1110.308913,9474.636058
1365.054615,76.609550,-666.185348,8734.430116
1365.054934,459.657299,518.144159,7994.224174
1365.055253,766.095498,1184.329507,7550.100608
1365.055571,536.266849,962.267725,7698.141797
1365.055890,306.438199,962.267725,7624.121203
1365.056209,0.000000,740.205942,8438.347739
1365.056527,-536.266849,1110.308913,8290.306550
1365.056846,-536.266849,1258.350101,8808.450710
1365.057165,-306.438199,592.164754,7846.182985
1365.057484,-459.657299,-666.185348,8956.491898
1365.057802,0.000000,-1480.411884,8882.471304
1365.058121,229.828649,-740.205942,7994.224174
1365.058440,1072.533697,740.205942,7476.080014
1365.058758,1302.362347,592.164754,7402.059420
1365.059077,536.266849,518.144159,8216.285956
1365.059396,0.000000,-0.000000,8808.450710
1365.059715,-612.876398,296.082377,9474.636058
1365.060033,-306.438199,962.267725,9474.636058
1365.060352,-459.657299,1110.308913,9178.553681
1365.060671,-153.219100,-148.041188,9548.656652
1365.060989,0.000000,-1702.473667,9992.780217
1365.061308,0.000000,-1702.473667,9622.677246
1365.061627,536.266849,-1258.350101,9696.697840
1365.061946,1378.971896,-0.000000,8956.491898
1365.062264,1685.410096,666.185348,8660.409521
1365.062583,1762.019645,814.226536,9104.533087
1365.062902,1302.362347,222.061783,9622.677246
1365.063220,536.266849,962.267725,9474.636058
1365.063539,612.876398,1702.473667,9400.615463
1365.063858,536.266849,1184.329507,9474.636058
1365.064177,383.047749,-0.000000,10288.862594
1365.064495,383.047749,-666.185348,10436.903782
1365.064814,612.876398,-814.226536,9844.739029
1365.065133,995.924147,-0.000000,9918.759623
1365.065451,1378.971896,740.205942,9326.594869
1365.065770,1302.362347,1258.350101,9178.553681
1365.066089,919.314598,666.185348,9474.636058
1365.066407,76.609550,1184.329507,10288.862594
1365.066726,-153.219100,1406.391290,9992.780217
1365.067045,0.000000,1776.494261,9696.697840
1365.067364,-306.438199,1258.350101,9770.718434
1365.067682,0.000000,296.082377,10436.903782
1365.068001,-229.828649,-814.226536,10066.800811
1365.068320,459.657299,-1184.329507,10066.800811
1365.068638,842.705048,-962.267725,9474.636058
1365.068957,1532.190996,-74.020594,9030.512492
1365.069276,1302.362347,-0.000000,9104.533087
1365.069595,766.095498,518.144159,9400.615463
1365.069913,459.657299,888.247130,9622.677246
1365.070232,306.438199,1036.288319,9622.677246
1365.070551,229.828649,1702.473667,9548.656652
1365.070869,306.438199,1332.370696,9696.697840
1365.071188,306.438199,444.123565,9252.574275
1365.071507,689.485948,-518.144159,9696.697840
1365.071826,766.095498,-518.144159,9474.636058
1365.072144,1072.533697,-148.041188,8290.306550
1365.072463,1302.362347,740.205942,8290.306550
1365.072782,1149.143247,1110.308913,8734.430116
1365.073100,536.266849,962.267725,8808.450710
1365.073419,0.000000,1184.329507,9400.615463
1365.073738,-383.047749,1258.350101,9474.636058
1365.074057,-689.485948,1776.494261,9400.615463
1365.074375,-306.438199,1332.370696,8882.471304
1365.074694,-536.266849,370.102971,9474.636058
1365.075013,0.000000,-666.185348,9252.574275
1365.075331,0.000000,-740.205942,8734.430116
1365.075650,536.266849,-0.000000,8216.285956
1365.075969,995.924147,814.226536,7920.203579
1365.076288,919.314598,1184.329507,7920.203579
1365.076606,689.485948,1184.329507,8512.368333
1365.076925,229.828649,1332.370696,8586.388927
1365.077244,153.219100,1480.411884,8364.327145
1365.077562,383.047749,1406.391290,8512.368333
1365.077881,306.438199,666.185348,8808.450710
1365.078200,306.438199,-296.082377,9474.636058
1365.078518,383.047749,-1110.308913,9178.553681
1365.078837,459.657299,-1036.288319,9178.553681
1365.079156,766.095498,-222.061783,8956.491898
1365.079475,689.485948,370.102971,8660.409521
1365.079793,689.485948,666.185348,8808.450710
1365.080112,536.266849,518.144159,9474.636058
1365.080431,0.000000,888.247130,9844.739029
1365.080749,459.657299,1110.308913,9474.636058
1365.081068,306.438199,814.226536,9918.759623
1365.081387,0.000000,-0.000000,10510.924376
1365.081705,383.047749,-888.247130,10436.903782
1365.082024,689.485948,-1036.288319,9770.718434
1365.082343,1225.752797,-1184.329507,9474.636058
1365.082661,1838.629195,-148.041188,9178.553681
1365.082980,2068.457845,518.144159,8882.471304
1365.083299,1915.238745,296.082377,8956.491898
1365.083617,1378.971896,296.082377,9696.697840
1365.083936,766.095498,888.247130,9844.739029
1365.084255,766.095498,666.185348,9622.677246
1365.084573,766.095498,370.102971,9992.780217
1365.084892,766.095498,-444.123565,10066.800811
1365.085211,536.266849,-1480.411884,10214.842000
1365.085529,1149.143247,-1628.453072,9918.759623
1365.085848,1455.581446,-888.247130,9178.553681
1365.086167,1608.800546,-0.000000,8660.409521
1365.086486,1378.971896,370.102971,8586.388927
1365.086804,1302.362347,444.123565,8660.409521
1365.087123,842.705048,666.185348,9474.636058
1365.087442,-459.657299,1036.288319,9474.636058
1365.087760,-689.485948,1628.453072,9400.615463
1365.088079,-766.095498,1332.370696,9474.636058
1365.088398,-689.485948,222.061783,9548.656652
1365.088716,-842.705048,-518.144159,9918.759623
1365.089035,-536.266849,-814.226536,9474.636058
1365.089354,-229.828649,-0.000000,9104.533087
1365.089672,0.000000,666.185348,8512.368333
1365.089991,306.438199,1258.350101,8586.388927
1365.090310,0.000000,1184.329507,8734.430116
1365.090628,-153.219100,1036.288319,9104.533087
1365.090947,-459.657299,1702.473667,9030.512492
1365.091266,-383.047749,1850.514855,8660.409521
1365.091584,-383.047749,1258.350101,8734.430116
1365.091903,0.000000,370.102971,9030.512492
1365.092222,229.828649,-592.164754,9104.533087
1365.092540,306.438199,-592.164754,8586.388927
1365.092859,1225.752797,-74.020594,8512.368333
1365.093178,1072.533697,888.247130,8290.306550
1365.093496,612.876398,1184.329507,8512.368333
1365.093815,-153.219100,814.226536,8956.491898
1365.094134,-612.876398,888.247130,9474.636058
1365.094453,-842.705048,1036.288319,9696.697840
1365.094771,-842.705048,1554.432478,9326.594869
1365.095090,-919.314598,814.226536,9696.697840
1365.095409,-459.657299,-0.000000,10140.821405
1365.095727,0.000000,-296.082377,9918.759623
1365.096046,536.266849,-0.000000,9918.759623
1365.096365,1149.143247,666.185348,9030.512492
1365.096683,1838.629195,1554.432478,8364.327145
1365.097002,1991.848295,1850.514855,8660.409521
1365.097321,1838.629195,1628.453072,8956.491898
1365.097639,1685.410096,1554.432478,9104.533087
1365.097958,1225.752797,1776.494261,9252.574275
1365.098277,1072.533697,1332.370696,9252.574275
1365.098595,766.095498,296.082377,9474.636058
1365.098914,306.438199,-962.267725,10288.862594
1365.099233,229.828649,-1776.494261,10066.800811
1365.099551,306.438199,-1184.329507,9918.759623
1365.099870,689.485948,-148.041188,9326.594869
1365.100189,766.095498,370.102971,9474.636058
1365.100507,919.314598,-0.000000,9622.677246
1365.100826,0.000000,370.102971,9918.759623
1365.101145,-459.657299,444.123565,10140.821405
1365.101463,0.000000,592.164754,9844.739029
1365.101782,76.609550,666.185348,10288.862594
1365.102101,153.219100,-148.041188,10140.821405
1365.102420,536.266849,-1110.308913,9770.718434
1365.102738,842.705048,-1258.350101,9474.636058
1365.103057,1838.629195,-592.164754,8734.430116
1365.103376,2451.505594,-0.000000,8290.306550
1365.103694,2451.505594,518.144159,8290.306550
1365.104013,1685.410096,518.144159,8438.347739
1365.104332,919.314598,666.185348,8808.450710
1365.104650,229.828649,370.102971,9474.636058
1365.104969,0.000000,1110.308913,9992.780217
1365.105288,0.000000,740.205942,9548.656652
1365.105606,-383.047749,-0.000000,9474.636058
1365.105925,-229.828649,-888.247130,9622.677246
1365.106244,-383.047749,-1184.329507,9474.636058
1365.106562,0.000000,-148.041188,8882.471304
1365.106881,995.924147,962.267725,8290.306550
1365.107200,459.657299,1554.432478,7772.162391
1365.107518,383.047749,1110.308913,8068.244768
1365.107837,-383.047749,1406.391290,8142.265362
1365.108156,-842.705048,1924.535449,8364.327145
1365.108474,-689.485948,1998.556043,8216.285956
1365.108793,-1149.143247,1184.329507,8586.388927
1365.109112,-919.314598,222.061783,9696.697840
1365.109430,-842.705048,-444.123565,9474.636058
1365.109749,-536.266849,-148.041188,9474.636058
1365.110068,76.609550,-148.041188,9252.574275
1365.110387,842.705048,740.205942,8290.306550
1365.110705,1072.533697,592.164754,8734.430116
1365.111024,766.095498,814.226536,9252.574275
1365.111343,919.314598,1036.288319,9474.636058
1365.111661,689.485948,1332.370696,8808.450710
1365.111980,1225.752797,1924.535449,9178.553681
1365.112299,1072.533697,1184.329507,9326.594869
1365.112617,1608.800546,666.185348,9622.677246
1365.112936,1915.238745,-296.082377,9326.594869
1365.113255,2221.676944,-370.102971,9474.636058
1365.113573,2374.896044,740.205942,8808.450710
1365.113892,2145.067394,962.267725,8586.388927
1365.114211,2068.457845,444.123565,9252.574275
1365.114529,995.924147,-0.000000,9696.697840
1365.114848,536.266849,296.082377,10288.862594
1365.115167,-153.219100,1036.288319,10436.903782
1365.115485,-766.095498,814.226536,10732.986159
1365.115804,-153.219100,-0.000000,10807.006753
1365.116123,-612.876398,-740.205942,10807.006753
1365.116441,-383.047749,-1258.350101,10732.986159
1365.116760,0.000000,-518.144159,9622.677246
1365.117079,1225.752797,-0.000000,9474.636058
1365.117398,1072.533697,296.082377,8956.491898
1365.117716,1225.752797,296.082377,8956.491898
1365.118035,383.047749,-0.000000,9474.636058
1365.118354,459.657299,-74.020594,10436.903782
1365.118672,-459.657299,296.082377,10066.800811
1365.118991,229.828649,-0.000000,10288.862594
1365.119310,76.609550,-370.102971,10510.924376
1365.119628,383.047749,-1258.350101,10288.862594
1365.119947,459.657299,-1406.391290,9622.677246
1365.120266,1302.362347,-1036.288319,9104.533087
1365.120584,1532.190996,222.061783,8586.388927
1365.120903,1685.410096,1036.288319,7994.224174
1365.121222,1608.800546,888.247130,7698.141797
1365.121540,919.314598,296.082377,8512.368333
1365.121859,0.000000,444.123565,8586.388927
1365.122178,383.047749,740.205942,8956.491898
1365.122496,0.000000,592.164754,8882.471304
1365.122815,76.609550,-0.000000,9178.553681
1365.123134,383.047749,-518.144159,9696.697840
1365.123452,536.266849,-740.205942,9178.553681
1365.123771,766.095498,-0.000000,8216.285956
1365.124090,1532.190996,1628.453072,7550.100608
1365.124408,1685.410096,2146.597232,7179.997637
1365.124727,1225.752797,1480.411884,7402.059420
1365.125046,459.657299,1480.411884,8512.368333
1365.125365,0.000000,1554.432478,8142.265362
1365.125683,0.000000,2294.638420,7994.224174
1365.126002,0.000000,1924.535449,8142.265362
1365.126321,0.000000,666.185348,8216.285956
1365.126639,-153.219100,-74.020594,8808.450710
1365.126958,0.000000,-444.123565,8882.471304
1365.127277,0.000000,-0.000000,8364.327145
1365.127595,0.000000,814.226536,8364.327145
1365.127914,0.000000,814.226536,8438.347739
1365.128233,-612.876398,1036.288319,8808.450710
1365.128551,-1225.752797,814.226536,9548.656652
1365.128870,-1685.410096,1554.432478,9770.718434
1365.129189,-1149.143247,2072.576638,9548.656652
1365.129507,-842.705048,1628.453072,9622.677246
1365.129826,-306.438199,444.123565,10140.821405
1365.130145,76.609550,-518.144159,10288.862594
1365.130463,766.095498,-592.164754,9770.718434
1365.130782,995.924147,-0.000000,9252.574275
1365.131101,1608.800546,814.226536,8734.430116
1365.131419,1608.800546,592.164754,9400.615463
1365.131738,1225.752797,740.205942,9252.574275
1365.132057,766.095498,592.164754,9992.780217
1365.132375,383.047749,962.267725,10140.821405
1365.132694,459.657299,1406.391290,10066.800811
1365.133013,459.657299,518.144159,10584.944971
1365.133332,153.219100,-592.164754,10955.047942
1365.133650,229.828649,-1480.411884,10955.047942
1365.133969,689.485948,-1480.411884,11029.068536
1365.134288,1225.752797,-1332.370696,10140.821405
1365.134606,1838.629195,-518.144159,9918.759623
1365.134925,1838.629195,-518.144159,10066.800811
1365.135244,1378.971896,-814.226536,10510.924376
1365.135562,1455.581446,-148.041188,10362.883188
1365.135881,1455.581446,666.185348,10288.862594
1365.136200,1838.629195,1036.288319,9696.697840
1365.136518,1838.629195,148.041188,9622.677246
1365.136837,2068.457845,-296.082377,9770.718434
1365.137156,2145.067394,-1258.350101,9474.636058
1365.137474,2298.286494,-888.247130,9030.512492
1365.137793,2528.115143,-592.164754,8586.388927
1365.138112,2528.115143,222.061783,8364.327145
1365.138430,1762.019645,-0.000000,8586.388927
1365.138749,689.485948,222.061783,9178.553681
1365.139068,229.828649,740.205942,9400.615463
1365.139386,0.000000,1332.370696,9030.512492
1365.139705,-229.828649,962.267725,8734.430116
1365.140024,-536.266849,-0.000000,8808.450710
1365.140342,-842.705048,-740.205942,8364.327145
1365.140661,-842.705048,-1110.308913,8364.327145
1365.140980,0.000000,-518.144159,7772.162391
1365.141299,-383.047749,296.082377,7105.977043
1365.141617,-383.047749,888.247130,7254.018232
1365.141936,-1608.800546,740.205942,7920.203579
1365.142255,-2068.457845,740.205942,8438.347739
1365.142573,-1991.848295,1110.308913,8660.409521
1365.142892,-2221.676944,1702.473667,8808.450710
1365.143211,-2068.457845,1332.370696,8438.347739
1365.143529,-1838.629195,962.267725,8586.388927
1365.143848,-1302.362347,-0.000000,8956.491898
1365.144167,-383.047749,-0.000000,8660.409521
1365.144485,76.609550,592.164754,8068.244768
1365.144804,689.485948,1480.411884,7624.121203
1365.145123,995.924147,1924.535449,7846.182985
1365.145441,1072.533697,1776.494261,8216.285956
1365.145760,766.095498,1998.556043,9104.533087
1365.146079,842.705048,2516.700203,9030.512492
1365.146397,995.924147,2294.638420,9474.636058
1365.146716,1378.971896,1554.432478,9844.739029
1365.147035,1608.800546,-148.041188,10288.862594
1365.147353,1608.800546,-1036.288319,10362.883188
1365.147672,1378.971896,-962.267725,9992.780217
1365.147991,2374.896044,-0.000000,9474.636058
1365.148309,2145.067394,962.267725,9178.553681
1365.148628,1685.410096,1110.308913,9474.636058
1365.148947,1685.410096,814.226536,10140.821405
1365.149266,919.314598,518.144159,10732.986159
1365.149584,689.485948,592.164754,11103.089130
1365.149903,766.095498,740.205942,11251.130318
1365.150222,536.266849,-0.000000,10955.047942
1365.150540,612.876398,-1406.391290,11251.130318
1365.150859,459.657299,-1702.473667,11251.130318
1365.151178,1072.533697,-1332.370696,10807.006753
1365.151496,1608.800546,-666.185348,10510.924376
1365.151815,1915.238745,-222.061783,10066.800811
1365.152134,1685.410096,222.061783,10140.821405
1365.152452,1302.362347,-74.020594,9992.780217
1365.152771,919.314598,296.082377,10362.883188
1365.153090,459.657299,-0.000000,10510.924376
1365.153408,689.485948,740.205942,9548.656652
1365.153727,1225.752797,-0.000000,9696.697840
1365.154046,995.924147,-1036.288319,9770.718434
1365.154364,1072.533697,-1776.494261,9474.636058
1365.154683,1072.533697,-1702.473667,8956.491898
1365.155002,1302.362347,-444.123565,8290.306550
1365.155320,1608.800546,666.185348,7994.224174
1365.155639,536.266849,1184.329507,7846.182985
1365.155958,-383.047749,962.267725,8808.450710
1365.156277,-1378.971896,518.144159,9104.533087
1365.156595,-1762.019645,740.205942,9326.594869
1365.156914,-1608.800546,1184.329507,8956.491898
1365.157233,-1991.848295,296.082377,9104.533087
1365.157551,-1378.971896,-666.185348,9104.533087
1365.157870,-1378.971896,-962.267725,8882.471304
1365.158189,-766.095498,-444.123565,8216.285956
1365.158507,-153.219100,814.226536,7254.018232
1365.158826,459.657299,1850.514855,7105.977043
1365.159145,153.219100,1702.473667,7179.997637
1365.159463,0.000000,1184.329507,7550.100608
1365.159782,-383.047749,1258.350101,7920.203579
1365.160101,0.000000,1554.432478,7624.121203
1365.160419,0.000000,1258.350101,7772.162391
1365.160738,0.000000,592.164754,8364.327145
1365.161057,153.219100,-740.205942,8734.430116
1365.161375,0.000000,-1036.288319,8882.471304
1365.161694,383.047749,-0.000000,8808.450710
1365.162013,995.924147,740.205942,8068.244768
1365.162331,689.485948,2146.597232,8216.285956
1365.162650,536.266849,1998.556043,9178.553681
1365.162969,0.000000,1924.535449,9622.677246
1365.163287,-153.219100,1480.411884,9992.780217
1365.163606,-689.485948,1628.453072,9918.759623
1365.163925,-306.438199,1036.288319,10140.821405
1365.164244,76.609550,222.061783,10362.883188
1365.164562,306.438199,-444.123565,10510.924376
1365.164881,842.705048,-444.123565,10066.800811
1365.165200,1302.362347,296.082377,9548.656652
1365.165518,1455.581446,1184.329507,9400.615463
1365.165837,1685.410096,1406.391290,9474.636058
1365.166156,1455.581446,1184.329507,9918.759623
1365.166474,995.924147,888.247130,10214.842000
1365.166793,76.609550,370.102971,10288.862594
1365.167112,0.000000,666.185348,10288.862594
1365.167430,153.219100,-0.000000,10881.027347
1365.167749,612.876398,-1332.370696,11029.068536
1365.168068,536.266849,-2072.576638,11177.109724
1365.168386,689.485948,-1554.432478,10732.986159
1365.168705,1302.362347,-518.144159,10140.821405
1365.169024,1762.019645,592.164754,9844.739029
1365.169342,1762.019645,1036.288319,9622.677246
1365.169661,1072.533697,1480.411884,9770.718434
1365.169980,766.095498,1406.391290,10214.842000
1365.170298,612.876398,962.267725,9844.739029
1365.170617,536.266849,1036.288319,9474.636058
1365.170936,459.657299,148.041188,9696.697840
1365.171254,612.876398,-814.226536,9622.677246
1365.171573,842.705048,-1184.329507,9400.615463
1365.171892,995.924147,-666.185348,8882.471304
1365.172211,1225.752797,222.061783,8216.285956
1365.172529,1149.143247,666.185348,8142.265362
1365.172848,459.657299,666.185348,8586.388927
1365.173167,-383.047749,666.185348,8734.430116
1365.173485,-842.705048,740.205942,8660.409521
1365.173804,-1072.533697,1184.329507,8808.450710
1365.174123,-536.266849,592.164754,8512.368333
1365.174441,-919.314598,-0.000000,8882.471304
1365.174760,-842.705048,-740.205942,8882.471304
1365.175079,-612.876398,-888.247130,8734.430116
1365.175397,-229.828649,-370.102971,7994.224174
1365.175716,153.219100,740.205942,7846.182985
1365.176035,153.219100,1332.370696,7476.080014
1365.176353,76.609550,1554.432478,7254.018232
1365.176672,-459.657299,1036.288319,8068.244768
1365.176991,-689.485948,1258.350101,8586.388927
1365.177309,-229.828649,1554.432478,8438.347739
1365.177628,-229.828649,740.205942,8586.388927
1365.177947,-153.219100,-148.041188,8808.450710
1365.178265,0.000000,-814.226536,8956.491898
1365.178584,76.609550,-592.164754,8660.409521
1365.178903,842.705048,518.144159,8068.244768
1365.179221,1378.971896,1850.514855,8142.265362
1365.179540,1532.190996,1924.535449,8438.347739
1365.179859,1838.629195,1332.370696,8882.471304
1365.180178,1225.752797,962.267725,9474.636058
1365.180496,842.705048,962.267725,9844.739029
1365.180815,1225.752797,1184.329507,9474.636058
1365.181133,1149.143247,1036.288319,9400.615463
1365.181452,1302.362347,-222.061783,9844.739029
1365.181771,1378.971896,-962.267725,10066.800811
1365.182089,1532.190996,-444.123565,9770.718434
1365.182408,1685.410096,296.082377,9104.533087
1365.182727,1762.019645,1036.288319,9030.512492
1365.183045,1685.410096,740.205942,9474.636058
1365.183364,536.266849,-0.000000,9844.739029
1365.183683,-306.438199,-592.164754,10658.965565
1365.184002,-689.485948,-74.020594,11177.109724
1365.184320,-766.095498,-0.000000,11103.089130
1365.184639,-459.657299,-814.226536,11029.068536
1365.184958,-612.876398,-1554.432478,11399.171507
1365.185276,0.000000,-1998.556043,11029.068536
1365.185595,383.047749,-888.247130,10140.821405
1365.185914,1378.971896,370.102971,9400.615463
1365.186232,2145.067394,1258.350101,9030.512492
1365.186551,1608.800546,1406.391290,8882.471304
1365.186870,1225.752797,592.164754,9326.594869
1365.187188,919.314598,370.102971,9696.697840
1365.187507,536.266849,444.123565,9918.759623
1365.187826,536.266849,444.123565,9474.636058
1365.188145,1302.362347,-0.000000,9474.636058
1365.188463,1149.143247,-740.205942,9844.739029
1365.188782,919.314598,-1110.308913,9548.656652
1365.189101,1532.190996,-370.102971,9178.553681
1365.189419,1762.019645,962.267725,8586.388927
1365.189738,1072.533697,1406.391290,7994.224174
1365.190057,766.095498,1406.391290,8068.244768
1365.190375,-229.828649,814.226536,8364.327145
1365.190694,-612.876398,740.205942,8882.471304
1365.191013,-1455.581446,962.267725,9178.553681
1365.191331,-995.924147,740.205942,9104.533087
1365.191650,-842.705048,222.061783,8882.471304
1365.191969,-842.705048,-666.185348,9326.594869
1365.192287,-766.095498,-740.205942,9474.636058
1365.192606,-536.266849,-296.082377,8882.471304
1365.192925,459.657299,962.267725,8068.244768
1365.193244,689.485948,1628.453072,7846.182985
1365.193562,383.047749,1776.494261,7846.182985
1365.193881,689.485948,1036.288319,8660.409521
1365.194200,0.000000,814.226536,8734.430116
1365.194518,0.000000,1184.329507,8956.491898
1365.194837,76.609550,1258.350101,8660.409521
1365.195156,383.047749,740.205942,8660.409521
1365.195474,919.314598,-962.267725,9400.615463
1365.195793,536.266849,-1184.329507,9474.636058
1365.196112,459.657299,-444.123565,8882.471304
1365.196430,1302.362347,1110.308913,8512.368333
1365.196749,1378.971896,1998.556043,8512.368333
1365.197068,919.314598,1850.514855,9400.615463
1365.197387,153.219100,740.205942,9770.718434
1365.197705,-229.828649,1036.288319,10066.800811
1365.198024,0.000000,1628.453072,9548.656652
1365.198343,153.219100,1628.453072,9622.677246
1365.198661,306.438199,666.185348,10362.883188
1365.198980,536.266849,-296.082377,10140.821405
1365.199299,459.657299,-1332.370696,10214.842000
1365.199617,995.924147,-518.144159,9622.677246
1365.199936,1455.581446,148.041188,9474.636058
1365.200255,1532.190996,962.267725,9400.615463
1365.200573,919.314598,740.205942,9548.656652
1365.200892,536.266849,-296.082377,10732.986159
1365.201211,0.000000,-0.000000,10436.903782
1365.201529,0.000000,296.082377,10288.862594
1365.201848,306.438199,-0.000000,10214.842000
1365.202167,383.047749,-592.164754,10362.883188
1365.202486,766.095498,-2072.576638,10140.821405
1365.202804,766.095498,-1406.391290,9770.718434
1365.203123,1762.019645,-370.102971,9326.594869
1365.203442,1838.629195,666.185348,8068.244768
1365.203760,1915.238745,1184.329507,8586.388927
1365.204079,1225.752797,296.082377,9252.574275
1365.204398,612.876398,592.164754,9696.697840
1365.204716,-153.219100,592.164754,9400.615463
1365.205035,459.657299,592.164754,9548.656652
1365.205354,0.000000,444.123565,9474.636058
1365.205672,229.828649,-296.082377,9474.636058
1365.205991,536.266849,-1258.350101,9326.594869
1365.206310,536.266849,-962.267725,9326.594869
1365.206629,842.705048,222.061783,8512.368333
1365.206947,1378.971896,1258.350101,7994.224174
1365.207266,1149.143247,1480.411884,8068.244768
1365.207585,1225.752797,1332.370696,8512.368333
1365.207903,459.657299,888.247130,8512.368333
1365.208222,459.657299,1184.329507,8438.347739
1365.208541,153.219100,740.205942,8364.327145
1365.208859,229.828649,666.185348,8216.285956
1365.209178,383.047749,-592.164754,8438.347739
1365.209497,76.609550,-1184.329507,8660.409521
1365.209815,536.266849,-962.267725,8364.327145
1365.210134,689.485948,518.144159,7550.100608
1365.210453,536.266849,1332.370696,7698.141797
1365.210772,0.000000,1110.308913,8216.285956
1365.211090,-459.657299,1036.288319,9104.533087
1365.211409,-1072.533697,370.102971,9696.697840
1365.211728,-995.924147,666.185348,9770.718434
1365.212046,-842.705048,888.247130,10214.842000
1365.212365,-536.266849,296.082377,9770.718434
1365.212684,-383.047749,-444.123565,9918.759623
1365.213002,229.828649,-1110.308913,9992.780217
1365.213321,689.485948,-296.082377,9252.574275
1365.213640,1225.752797,1110.308913,8808.450710
1365.213958,1762.019645,1776.494261,8512.368333
1365.214277,1455.581446,1702.473667,9030.512492
1365.214596,919.314598,1258.350101,9400.615463
1365.214914,766.095498,1332.370696,9770.718434
1365.215233,383.047749,1036.288319,9844.739029
1365.215552,383.047749,814.226536,9992.780217
1365.215871,612.876398,-0.000000,10214.842000
1365.216189,612.876398,-962.267725,10362.883188
1365.216508,766.095498,-1184.329507,10436.903782
1365.216827,842.705048,-518.144159,9770.718434
1365.217145,1225.752797,1036.288319,9178.553681
1365.217464,1149.143247,1776.494261,9104.533087
1365.217783,842.705048,1554.432478,9400.615463
1365.218101,536.266849,1036.288319,10066.800811
1365.218420,306.438199,1332.370696,10140.821405
1365.218739,229.828649,1554.432478,10362.883188
1365.219057,766.095498,740.205942,9918.759623
1365.219376,1838.629195,-0.000000,9844.739029
1365.219695,1225.752797,-814.226536,9696.697840
1365.220014,1532.190996,-814.226536,9178.553681
1365.220332,1991.848295,-222.061783,8808.450710
1365.220651,2298.286494,740.205942,8586.388927
1365.220970,2068.457845,1332.370696,8290.306550
1365.221288,1608.800546,1258.350101,8586.388927
1365.221607,689.485948,222.061783,9400.615463
1365.221926,383.047749,666.185348,9696.697840
1365.222244,689.485948,666.185348,9474.636058
1365.222563,536.266849,-0.000000,9622.677246
1365.222882,842.705048,-666.185348,9474.636058
1365.223200,842.705048,-1332.370696,9326.594869
1365.223519,1225.752797,-1184.329507,8808.450710
1365.223838,1762.019645,-0.000000,8438.347739
1365.224156,1149.143247,888.247130,7846.182985
1365.224475,1302.362347,1258.350101,7994.224174
1365.224794,0.000000,666.185348,8586.388927
1365.225113,-995.924147,148.041188,9178.553681
1365.225431,-1378.971896,-0.000000,9622.677246
1365.225750,-1532.190996,-0.000000,9548.656652
1365.226069,-1532.190996,-296.082377,9252.574275
1365.226387,-1378.971896,-1480.411884,9548.656652
1365.226706,-1149.143247,-2294.638420,9474.636058
1365.227025,-459.657299,-2072.576638,9474.636058
1365.227343,0.000000,-814.226536,8512.368333
1365.227662,76.609550,370.102971,7994.224174
1365.227981,229.828649,888.247130,8216.285956
1365.228299,0.000000,1406.391290,8216.285956
1365.228618,306.438199,1036.288319,8660.409521
1365.228937,76.609550,1332.370696,8660.409521
1365.229256,459.657299,962.267725,8512.368333
1365.229574,383.047749,148.041188,8586.388927
1365.229893,919.314598,-1110.308913,9178.553681
1365.230212,766.095498,-1554.432478,9474.636058
1365.230530,766.095498,-740.205942,8882.471304
1365.230849,1072.533697,962.267725,8438.347739
1365.231168,1225.752797,1924.535449,8364.327145
1365.231486,1149.143247,2294.638420,8660.409521
1365.231805,459.657299,1406.391290,9474.636058
1365.232124,229.828649,1184.329507,10140.821405
1365.232442,0.000000,1184.329507,10066.800811
1365.232761,0.000000,1258.350101,9696.697840
1365.233080,153.219100,370.102971,9992.780217
1365.233398,612.876398,-518.144159,10140.821405
1365.233717,1225.752797,-518.144159,10288.862594
1365.234036,1532.190996,222.061783,9844.739029
1365.234355,1915.238745,962.267725,9104.533087
1365.234673,1915.238745,1702.473667,9178.553681
1365.234992,1762.019645,1258.350101,9474.636058
1365.235311,1225.752797,1258.350101,10066.800811
1365.235629,919.314598,1184.329507,10214.842000
1365.235948,383.047749,1110.308913,10066.800811
1365.236267,383.047749,1110.308913,9844.739029
1365.236585,383.047749,-0.000000,10288.862594
1365.236904,229.828649,-666.185348,10140.821405
1365.237223,153.219100,-1258.350101,9548.656652
1365.237541,536.266849,-296.082377,9252.574275
1365.237860,766.095498,962.267725,8882.471304
1365.238179,459.657299,1776.494261,8882.471304
1365.238498,0.000000,1702.473667,9622.677246
1365.238816,-842.705048,1184.329507,9844.739029
1365.239135,-1302.362347,962.267725,10288.862594
1365.239454,-1149.143247,962.267725,10140.821405
1365.239772,-1378.971896,518.144159,9696.697840
1365.240091,-689.485948,296.082377,9400.615463
1365.240410,-383.047749,-592.164754,9696.697840
1365.240728,0.000000,-222.061783,8956.491898
1365.241047,689.485948,370.102971,8438.347739
1365.241366,536.266849,1258.350101,8216.285956
1365.241684,1072.533697,1628.453072,8068.244768
1365.242003,459.657299,1332.370696,8216.285956
1365.242322,306.438199,888.247130,8956.491898
1365.242640,76.609550,666.185348,9252.574275
1365.242959,459.657299,592.164754,9104.533087
1365.243278,536.266849,-0.000000,8808.450710
1365.243597,842.705048,-740.205942,9030.512492
1365.243915,1149.143247,-962.267725,8882.471304
1365.244234,1072.533697,-962.267725,8586.388927
1365.244553,1532.190996,-74.020594,8438.347739
1365.244871,1532.190996,1036.288319,8068.244768
1365.245190,1455.581446,1554.432478,8216.285956
1365.245509,1149.143247,1110.308913,8956.491898
1365.245827,383.047749,592.164754,9326.594869
1365.246146,153.219100,296.082377,9474.636058
1365.246465,229.828649,-0.000000,9400.615463
1365.246783,0.000000,-222.061783,9252.574275
1365.247102,0.000000,-962.267725,9326.594869
1365.247421,536.266849,-1554.432478,9474.636058
1365.247740,612.876398,-1110.308913,9400.615463
1365.248058,1149.143247,-0.000000,8956.491898
1365.248377,536.266849,1184.329507,8660.409521
1365.248696,536.266849,1480.411884,8882.471304
1365.249014,0.000000,1184.329507,9252.574275
1365.249333,-229.828649,740.205942,9548.656652
1365.249652,0.000000,592.164754,9770.718434
1365.249970,0.000000,666.185348,9400.615463
1365.250289,689.485948,-0.000000,9474.636058
1365.250608,842.705048,-666.185348,9696.697840
1365.250926,842.705048,-740.205942,9326.594869
1365.251245,1455.581446,-888.247130,9030.512492
1365.251564,1302.362347,592.164754,8956.491898
