#time,accel_x,accel_y,accel_z
1322.604124,0.000000,1776.494261,12065.356855
1322.604442,383.047749,2738.761985,10732.986159
1322.604761,383.047749,2368.659014,9474.636058
1322.605080,459.657299,1258.350101,9474.636058
1322.605399,-459.657299,-74.020594,10288.862594
1322.605718,-1302.362347,-1554.432478,10362.883188
1322.606036,-1608.800546,-2368.659014,10807.006753
1322.606355,-2834.553343,-3108.864956,11473.192101
1322.606674,-3370.820191,-3627.009116,11251.130318
1322.606993,-3370.820191,-3256.906145,10955.047942
1322.607312,-3217.601092,-2294.638420,10140.821405
1322.607630,-3140.991542,-1184.329507,9844.739029
1322.607949,-2604.724693,-1332.370696,8438.347739
1322.608268,-2987.772442,-222.061783,7328.038826
1322.608587,-3217.601092,-370.102971,7698.141797
1322.608906,-3983.696590,-2294.638420,6883.915261
1322.609225,-3370.820191,-2368.659014,7105.977043
1322.609543,-2451.505594,-2368.659014,7624.121203
1322.609862,-2145.067394,-1776.494261,6735.874072
1322.610181,-1149.143247,-1406.391290,6883.915261
1322.610500,-612.876398,-740.205942,6143.709319
1322.610819,459.657299,1110.308913,5699.585753
1322.611137,1149.143247,1406.391290,5847.626942
1322.611456,1685.410096,1258.350101,5329.482782
1322.611775,1685.410096,1332.370696,5329.482782
1322.612094,1455.581446,1110.308913,4885.359217
1322.612413,1685.410096,666.185348,5773.606348
1322.612732,1149.143247,-0.000000,6661.853478
1322.613050,1149.143247,444.123565,6291.750507
1322.613369,1225.752797,740.205942,6513.812290
1322.613688,995.924147,592.164754,7402.059420
1322.614007,1149.143247,888.247130,7476.080014
1322.614326,459.657299,222.061783,7994.224174
1322.614644,0.000000,-148.041188,8364.327145
1322.614963,-1455.581446,-222.061783,8956.491898
1322.615282,-2757.943793,148.041188,8734.430116
1322.615601,-3140.991542,444.123565,9178.553681
1322.615920,-3677.258390,962.267725,9252.574275
1322.616238,-4519.963438,2220.617826,9104.533087
1322.616557,-4443.353888,3108.864956,8364.327145
1322.616876,-5132.839837,2738.761985,9474.636058
1322.617195,-5209.449386,4145.153275,10436.903782
1322.617514,-5056.230287,3849.070898,10362.883188
1322.617833,-3983.696590,4589.276840,10584.944971
1322.618151,-4979.620737,3849.070898,11399.171507
1322.618470,-4749.792088,4145.153275,11325.150913
1322.618789,-4366.744339,4663.297435,11103.089130
1322.619108,-3983.696590,4663.297435,11103.089130
1322.619427,-3830.477490,5255.462188,10881.027347
1322.619745,-3370.820191,4737.318029,11029.068536
1322.620064,-3524.039291,5699.585753,10658.965565
1322.620383,-3753.867940,5995.668130,10658.965565
1322.620702,-3294.210641,5995.668130,10732.986159
1322.621021,-3753.867940,6069.688724,10807.006753
1322.621340,-2604.724693,6735.874072,11103.089130
1322.621658,-2451.505594,6883.915261,10362.883188
1322.621977,-1149.143247,6809.894666,10807.006753
1322.622296,-229.828649,6365.771101,10955.047942
1322.622615,1378.971896,5699.585753,11251.130318
1322.622934,1685.410096,4663.297435,11695.253884
1322.623252,2528.115143,4515.256246,11621.233289
1322.623571,2528.115143,5403.503377,10140.821405
1322.623890,2987.772442,5551.544565,9548.656652
1322.624209,3600.648841,5477.523971,9252.574275
1322.624528,3600.648841,5847.626942,7920.203579
1322.624846,2834.553343,6439.791695,7031.956449
1322.625165,1149.143247,5847.626942,6513.812290
1322.625484,-766.095498,3997.112087,7328.038826
1322.625803,-3370.820191,2516.700203,8068.244768
1322.626122,-6128.763984,1036.288319,9622.677246
1322.626441,-8273.831378,148.041188,11325.150913
1322.626759,-9729.412825,740.205942,11843.295072
1322.627078,-9422.974625,1554.432478,11843.295072
1322.627397,-8427.050478,2664.741391,11917.315666
1322.627716,-7124.688131,3256.906145,11029.068536
1322.628035,-6281.983084,3330.926739,10140.821405
1322.628353,-4749.792088,3997.112087,9030.512492
1322.628672,-3217.601092,3775.050304,7772.162391
1322.628991,-2068.457845,4515.256246,6957.935855
1322.629310,-995.924147,4441.235652,6069.688724
1322.629629,76.609550,4367.215058,5847.626942
1322.629948,1302.362347,4219.173869,5921.647536
1322.630266,2757.943793,3404.947333,6217.729913
1322.630585,3294.210641,3404.947333,6587.832884
1322.630904,3907.087040,2886.803174,7179.997637
1322.631223,3677.258390,814.226536,7920.203579
1322.631542,3677.258390,-296.082377,8734.430116
1322.631860,3600.648841,-888.247130,9474.636058
1322.632179,3830.477490,-1776.494261,9474.636058
1322.632498,4136.915689,-1702.473667,9474.636058
1322.632817,4519.963438,-2294.638420,9918.759623
1322.633136,4903.011187,-2294.638420,9548.656652
1322.633455,4290.134789,-2738.761985,9178.553681
1322.633773,3217.601092,-3108.864956,9548.656652
1322.634092,2451.505594,-4071.132681,9252.574275
1322.634411,1608.800546,-4737.318029,9770.718434
1322.634730,2068.457845,-5107.421000,11621.233289
1322.635049,2298.286494,-6143.709319,12435.459826
1322.635367,2145.067394,-6439.791695,12583.501014
1322.635686,1915.238745,-6957.935855,12583.501014
1322.636005,1225.752797,-8438.347739,12509.480420
1322.636323,689.485948,-7698.141797,12361.439231
1322.636642,306.438199,-6661.853478,11843.295072
1322.636961,919.314598,-5033.400406,10362.883188
1322.637279,1455.581446,-2886.803174,8956.491898
1322.637598,2374.896044,-2368.659014,7624.121203
1322.637917,2374.896044,-1406.391290,6809.894666
1322.638236,1302.362347,-2294.638420,6809.894666
1322.638554,-306.438199,-3404.947333,7550.100608
1322.638873,-2374.896044,-3552.988522,8364.327145
1322.639192,-2451.505594,-2960.823768,9030.512492
1322.639510,-2145.067394,-518.144159,9104.533087
1322.639829,-995.924147,1332.370696,9178.553681
1322.640148,-459.657299,2146.597232,8438.347739
1322.640466,0.000000,3108.864956,7994.224174
1322.640785,459.657299,3627.009116,7179.997637
1322.641104,-306.438199,3923.091493,6661.853478
1322.641422,-689.485948,3701.029710,6587.832884
1322.641741,-1378.971896,3256.906145,6735.874072
1322.642060,-766.095498,2886.803174,6217.729913
1322.642378,0.000000,4219.173869,5625.565159
1322.642697,1225.752797,5181.441594,5403.503377
1322.643016,1685.410096,6291.750507,4811.338623
1322.643335,842.705048,5329.482782,5107.421000
1322.643653,383.047749,4145.153275,7031.956449
1322.643972,-1762.019645,4071.132681,8290.306550
1322.644291,-2451.505594,3108.864956,8512.368333
1322.644609,-3064.381992,3256.906145,9918.759623
1322.644928,-2911.162892,3552.988522,10288.862594
1322.645247,-2145.067394,4663.297435,10066.800811
1322.645565,-1532.190996,4737.318029,10658.965565
1322.645884,-1685.410096,4885.359217,10510.924376
1322.646203,-919.314598,4515.256246,10807.006753
1322.646521,-229.828649,3923.091493,11103.089130
1322.646840,-229.828649,4441.235652,10584.944971
1322.647159,229.828649,4737.318029,9474.636058
1322.647477,1685.410096,5107.421000,9622.677246
1322.647796,2221.676944,4515.256246,10362.883188
1322.648115,2451.505594,3849.070898,9992.780217
1322.648433,2221.676944,3701.029710,10362.883188
1322.648752,1149.143247,2146.597232,11843.295072
1322.649071,459.657299,2146.597232,11917.315666
1322.649390,0.000000,1776.494261,11843.295072
1322.649708,-995.924147,1850.514855,12139.377449
1322.650027,-306.438199,3627.009116,12287.418637
1322.650346,383.047749,3552.988522,11547.212695
1322.650664,383.047749,3034.844362,12361.439231
1322.650983,919.314598,2516.700203,12435.459826
1322.651302,1225.752797,2590.720797,11103.089130
1322.651620,842.705048,2146.597232,11325.150913
1322.651939,995.924147,1702.473667,10510.924376
1322.652258,1608.800546,-0.000000,11029.068536
1322.652576,1455.581446,-0.000000,10881.027347
1322.652895,2451.505594,740.205942,11103.089130
1322.653214,2987.772442,1036.288319,9622.677246
1322.653532,2451.505594,1184.329507,8956.491898
1322.653851,2374.896044,-740.205942,9474.636058
1322.654170,536.266849,-2664.741391,10510.924376
1322.654488,-919.314598,-4441.235652,11029.068536
1322.654807,-919.314598,-3849.070898,10214.842000
1322.655126,-1455.581446,-3997.112087,10807.006753
1322.655445,-1608.800546,-3552.988522,11547.212695
1322.655763,-536.266849,-4589.276840,10436.903782
1322.656082,-229.828649,-4737.318029,10436.903782
1322.656401,-766.095498,-3775.050304,9474.636058
1322.656719,0.000000,-3997.112087,8734.430116
1322.657038,689.485948,-3330.926739,7031.956449
1322.657357,383.047749,-3701.029710,7476.080014
1322.657675,995.924147,-2442.679609,6735.874072
1322.657994,1838.629195,-2590.720797,6143.709319
1322.658313,1991.848295,-2294.638420,5625.565159
1322.658631,2221.676944,-2146.597232,6069.688724
1322.658950,1149.143247,-2220.617826,6069.688724
1322.659269,229.828649,-2368.659014,6587.832884
1322.659587,-536.266849,-2516.700203,7179.997637
1322.659906,-689.485948,-2368.659014,6809.894666
1322.660225,-229.828649,-1480.411884,6957.935855
1322.660543,1302.362347,-518.144159,6291.750507
1322.660862,1455.581446,-0.000000,5033.400406
1322.661181,1762.019645,-74.020594,5403.503377
1322.661500,1608.800546,-222.061783,5847.626942
1322.661818,689.485948,-444.123565,5921.647536
1322.662137,842.705048,-0.000000,5921.647536
1322.662456,1455.581446,1258.350101,5773.606348
1322.662774,1378.971896,2220.617826,5107.421000
1322.663093,1685.410096,2516.700203,5181.441594
1322.663412,1532.190996,2146.597232,5921.647536
1322.663730,459.657299,1110.308913,6883.915261
1322.664049,229.828649,814.226536,7772.162391
1322.664368,-766.095498,370.102971,8808.450710
1322.664686,-1608.800546,-740.205942,9770.718434
1322.665005,-2221.676944,-592.164754,10288.862594
1322.665324,-1608.800546,-0.000000,10362.883188
1322.665642,-1608.800546,888.247130,10732.986159
1322.665961,-842.705048,1850.514855,10658.965565
1322.666280,-1762.019645,-370.102971,10658.965565
1322.666598,-995.924147,666.185348,11103.089130
1322.666917,-1072.533697,148.041188,11177.109724
1322.667236,-919.314598,592.164754,11177.109724
1322.667555,-306.438199,888.247130,11399.171507
1322.667873,-612.876398,2072.576638,11695.253884
1322.668192,153.219100,2072.576638,11991.336260
1322.668511,-153.219100,2146.597232,11843.295072
1322.668829,0.000000,2072.576638,12361.439231
1322.669148,0.000000,2072.576638,12583.501014
1322.669467,0.000000,2368.659014,12065.356855
1322.669785,-459.657299,2442.679609,12657.521608
1322.670104,-459.657299,1850.514855,12583.501014
1322.670423,0.000000,2220.617826,12583.501014
1322.670741,919.314598,2442.679609,12065.356855
1322.671060,2221.676944,3108.864956,11473.192101
1322.671379,2451.505594,3330.926739,11029.068536
1322.671697,2757.943793,3034.844362,10658.965565
1322.672016,2757.943793,2886.803174,10362.883188
1322.672335,2757.943793,3182.885551,10362.883188
1322.672653,2757.943793,3404.947333,10214.842000
1322.672972,2911.162892,3478.967927,9326.594869
1322.673291,3294.210641,3256.906145,9548.656652
1322.673610,3140.991542,2442.679609,9474.636058
1322.673928,2298.286494,1332.370696,9474.636058
1322.674247,1762.019645,666.185348,9622.677246
1322.674566,919.314598,592.164754,9696.697840
1322.674884,612.876398,444.123565,9918.759623
1322.675203,536.266849,296.082377,9844.739029
1322.675522,689.485948,444.123565,9696.697840
1322.675840,766.095498,296.082377,9400.615463
1322.676159,306.438199,-444.123565,8956.491898
1322.676478,153.219100,-962.267725,8216.285956
1322.676796,153.219100,-1776.494261,8438.347739
1322.677115,-459.657299,-2072.576638,8364.327145
1322.677434,-612.876398,-2368.659014,8216.285956
1322.677752,-842.705048,-2442.679609,8142.265362
1322.678071,-766.095498,-2146.597232,7698.141797
1322.678390,-689.485948,-2072.576638,7698.141797
1322.678708,-459.657299,-1850.514855,7624.121203
1322.679027,-919.314598,-2442.679609,7772.162391
1322.679346,-1378.971896,-2960.823768,7994.224174
1322.679665,-1915.238745,-3627.009116,8142.265362
1322.679983,-1378.971896,-3923.091493,8438.347739
1322.680302,-919.314598,-3552.988522,8290.306550
1322.680621,0.000000,-2812.782580,7994.224174
1322.680939,1072.533697,-2368.659014,7105.977043
1322.681258,1762.019645,-2590.720797,6883.915261
1322.681577,1991.848295,-2368.659014,7031.956449
1322.681895,1762.019645,-2220.617826,6587.832884
1322.682214,1685.410096,-2072.576638,6661.853478
1322.682533,1608.800546,-1628.453072,6587.832884
1322.682851,2834.553343,-1850.514855,6883.915261
1322.683170,1991.848295,-1554.432478,6809.894666
1322.683489,2374.896044,-1850.514855,7179.997637
1322.683807,2068.457845,-2220.617826,7698.141797
1322.684126,1762.019645,-2516.700203,8512.368333
1322.684445,1455.581446,-2886.803174,8734.430116
1322.684763,766.095498,-2294.638420,8956.491898
1322.685082,1532.190996,-1554.432478,9104.533087
1322.685401,1838.629195,-1036.288319,9400.615463
1322.685720,2451.505594,-222.061783,8882.471304
1322.686038,2834.553343,-296.082377,8586.388927
1322.686357,2757.943793,-296.082377,8808.450710
1322.686676,2911.162892,-740.205942,8882.471304
1322.686994,2528.115143,-666.185348,8808.450710
1322.687313,1991.848295,-814.226536,9030.512492
1322.687632,1378.971896,-222.061783,9178.553681
1322.687950,995.924147,-0.000000,9474.636058
1322.688269,1149.143247,814.226536,9918.759623
1322.688588,459.657299,740.205942,10214.842000
1322.688906,0.000000,444.123565,10732.986159
1322.689225,-612.876398,-0.000000,11103.089130
1322.689544,-1302.362347,-0.000000,11177.109724
1322.689862,-1685.410096,-0.000000,11695.253884
1322.690181,-1455.581446,148.041188,11917.315666
1322.690500,-919.314598,1184.329507,11251.130318
1322.690818,0.000000,2368.659014,10732.986159
1322.691137,536.266849,3330.926739,10288.862594
1322.691456,766.095498,3182.885551,9696.697840
1322.691775,536.266849,3034.844362,9400.615463
1322.692093,842.705048,3108.864956,9252.574275
1322.692412,766.095498,3552.988522,9178.553681
1322.692731,459.657299,3330.926739,9030.512492
1322.693049,306.438199,3034.844362,9474.636058
1322.693368,383.047749,3182.885551,9474.636058
1322.693687,306.438199,2960.823768,9844.739029
1322.694005,-229.828649,2664.741391,9918.759623
1322.694324,-919.314598,2368.659014,10288.862594
1322.694643,-995.924147,2146.597232,10436.903782
1322.694961,-1762.019645,1998.556043,10955.047942
1322.695280,-1532.190996,2146.597232,10807.006753
1322.695599,-766.095498,2516.700203,10436.903782
1322.695917,229.828649,2368.659014,10066.800811
1322.696236,919.314598,2294.638420,9770.718434
1322.696555,1302.362347,1628.453072,9474.636058
1322.696873,1149.143247,1332.370696,9252.574275
1322.697192,1302.362347,962.267725,9400.615463
1322.697511,995.924147,740.205942,8808.450710
1322.697830,1532.190996,888.247130,9178.553681
1322.698148,1455.581446,740.205942,9326.594869
1322.698467,1532.190996,1036.288319,9178.553681
1322.698786,1685.410096,-148.041188,9474.636058
1322.699104,1149.143247,-296.082377,9400.615463
1322.699423,0.000000,-1036.288319,9474.636058
1322.699742,536.266849,-2072.576638,9918.759623
1322.700060,76.609550,-1776.494261,10066.800811
1322.700379,229.828649,-1628.453072,9696.697840
1322.700698,919.314598,-1406.391290,9548.656652
1322.701016,1149.143247,-1036.288319,9104.533087
1322.701335,1991.848295,-814.226536,9030.512492
1322.701654,1991.848295,-740.205942,7846.182985
1322.701972,1455.581446,-1332.370696,7994.224174
1322.702291,1302.362347,-2146.597232,8586.388927
1322.702610,766.095498,-1850.514855,8734.430116
1322.702928,1072.533697,-2368.659014,8734.430116
1322.703247,612.876398,-2146.597232,8290.306550
1322.703566,612.876398,-1702.473667,8364.327145
1322.703885,995.924147,-1998.556043,8290.306550
1322.704203,689.485948,-2368.659014,8290.306550
1322.704522,-229.828649,-2812.782580,8364.327145
1322.704841,-766.095498,-2664.741391,8660.409521
1322.705159,-766.095498,-2072.576638,8586.388927
1322.705478,-153.219100,-1998.556043,8438.347739
1322.705797,153.219100,-1258.350101,8216.285956
1322.706115,612.876398,-1110.308913,7994.224174
1322.706434,1302.362347,-888.247130,7772.162391
1322.706753,1532.190996,-1258.350101,7624.121203
1322.707071,1302.362347,-1184.329507,7920.203579
1322.707390,1149.143247,-1036.288319,7994.224174
1322.707709,995.924147,-370.102971,7624.121203
1322.708027,1149.143247,-222.061783,7550.100608
1322.708346,1225.752797,296.082377,8512.368333
1322.708665,689.485948,296.082377,8438.347739
1322.708983,766.095498,444.123565,8586.388927
1322.709302,306.438199,222.061783,8956.491898
1322.709621,0.000000,296.082377,9104.533087
1322.709940,459.657299,444.123565,9326.594869
1322.710258,0.000000,962.267725,9326.594869
1322.710577,229.828649,1184.329507,9104.533087
1322.710896,1225.752797,1924.535449,8660.409521
1322.711214,1455.581446,2368.659014,8882.471304
1322.711533,1225.752797,2294.638420,8882.471304
1322.711852,1149.143247,1924.535449,9178.553681
1322.712170,766.095498,2146.597232,9030.512492
1322.712489,306.438199,2220.617826,9326.594869
1322.712808,-306.438199,2368.659014,9696.697840
1322.713126,-306.438199,2516.700203,9622.677246
1322.713445,-153.219100,2886.803174,9918.759623
1322.713764,-612.876398,2812.782580,10288.862594
1322.714082,-995.924147,2738.761985,10510.924376
1322.714401,-1072.533697,2516.700203,11103.089130
1322.714720,-1532.190996,2368.659014,11325.150913
1322.715038,-1838.629195,2368.659014,11325.150913
1322.715357,-2068.457845,2220.617826,11547.212695
1322.715676,-1455.581446,2516.700203,11547.212695
1322.715995,229.828649,2886.803174,10732.986159
1322.716313,689.485948,3330.926739,10732.986159
1322.716632,612.876398,3182.885551,10288.862594
1322.716951,229.828649,2590.720797,9918.759623
1322.717269,76.609550,2442.679609,10066.800811
1322.717588,229.828649,1998.556043,9992.780217
1322.717907,0.000000,1924.535449,10362.883188
1322.718225,0.000000,2294.638420,10436.903782
1322.718544,306.438199,2220.617826,10658.965565
1322.718863,306.438199,1850.514855,10955.047942
1322.719181,229.828649,1110.308913,10732.986159
1322.719500,153.219100,740.205942,10955.047942
1322.719819,76.609550,518.144159,10807.006753
1322.720137,229.828649,814.226536,10658.965565
1322.720456,459.657299,814.226536,10436.903782
1322.720775,1072.533697,814.226536,9844.739029
1322.721093,1762.019645,962.267725,9622.677246
1322.721412,2221.676944,740.205942,9400.615463
1322.721731,2451.505594,370.102971,8512.368333
1322.722050,2374.896044,-0.000000,8660.409521
1322.722368,2221.676944,-296.082377,8808.450710
1322.722687,1762.019645,-592.164754,8512.368333
1322.723006,1302.362347,-518.144159,8438.347739
1322.723324,1072.533697,-222.061783,8512.368333
1322.723643,995.924147,-518.144159,8808.450710
1322.723962,1072.533697,-444.123565,8216.285956
1322.724280,842.705048,-740.205942,8068.244768
1322.724599,229.828649,-1184.329507,8512.368333
1322.724918,-842.705048,-1480.411884,8290.306550
1322.725236,-842.705048,-1850.514855,8512.368333
1322.725555,-842.705048,-1406.391290,8438.347739
1322.725874,-536.266849,-888.247130,8364.327145
1322.726192,0.000000,-370.102971,7846.182985
1322.726511,383.047749,-444.123565,7698.141797
1322.726830,536.266849,-444.123565,7105.977043
1322.727148,842.705048,-814.226536,7254.018232
1322.727467,76.609550,-1036.288319,7105.977043
1322.727786,0.000000,-1258.350101,6957.935855
1322.728105,229.828649,-1258.350101,7031.956449
1322.728423,153.219100,-888.247130,7624.121203
1322.728742,0.000000,-296.082377,7624.121203
1322.729061,0.000000,-148.041188,7624.121203
1322.729379,-306.438199,-222.061783,7772.162391
1322.729698,-153.219100,-444.123565,7846.182985
1322.730017,-842.705048,-296.082377,8586.388927
1322.730335,-153.219100,296.082377,8512.368333
1322.730654,0.000000,222.061783,8734.430116
1322.730973,689.485948,814.226536,8734.430116
1322.731291,919.314598,1110.308913,8586.388927
1322.731610,1225.752797,1184.329507,8438.347739
1322.731929,1225.752797,1036.288319,8512.368333
1322.732247,1378.971896,1110.308913,8882.471304
1322.732566,1378.971896,1628.453072,8808.450710
1322.732885,1072.533697,1554.432478,8808.450710
1322.733204,842.705048,1554.432478,9474.636058
1322.733522,612.876398,1702.473667,9548.656652
1322.733841,689.485948,1628.453072,9548.656652
1322.734160,1149.143247,1184.329507,9548.656652
1322.734478,229.828649,1110.308913,10436.903782
1322.734797,0.000000,962.267725,10955.047942
1322.735116,-76.609550,1036.288319,10955.047942
1322.735434,-612.876398,1258.350101,11325.150913
1322.735753,-612.876398,1036.288319,11325.150913
1322.736072,76.609550,2220.617826,10881.027347
1322.736390,766.095498,3108.864956,10807.006753
1322.736709,1072.533697,2960.823768,10436.903782
1322.737028,1302.362347,2812.782580,10732.986159
1322.737346,766.095498,2516.700203,10140.821405
1322.737665,459.657299,2368.659014,10140.821405
1322.737984,153.219100,2294.638420,10288.862594
1322.738303,0.000000,2368.659014,10658.965565
1322.738622,76.609550,2146.597232,10881.027347
1322.738941,0.000000,2294.638420,11029.068536
1322.739260,-383.047749,1998.556043,10807.006753
1322.739578,-1149.143247,1702.473667,11103.089130
1322.739897,-1225.752797,1480.411884,11177.109724
1322.740216,-1149.143247,814.226536,11325.150913
1322.740535,-1532.190996,814.226536,11399.171507
1322.740854,-1149.143247,962.267725,11103.089130
1322.741173,-689.485948,1184.329507,10658.965565
1322.741492,-306.438199,1406.391290,9844.739029
1322.741811,383.047749,1110.308913,9474.636058
1322.742129,229.828649,1036.288319,9252.574275
1322.742448,76.609550,592.164754,8734.430116
1322.742767,0.000000,444.123565,8734.430116
1322.743086,0.000000,222.061783,8956.491898
1322.743405,-229.828649,222.061783,9030.512492
1322.743724,-306.438199,296.082377,8956.491898
1322.744043,-306.438199,-222.061783,8808.450710
1322.744362,-536.266849,-518.144159,9104.533087
1322.744680,229.828649,-1036.288319,8734.430116
1322.744999,-612.876398,-888.247130,9030.512492
1322.745318,-536.266849,-814.226536,9030.512492
1322.745637,-536.266849,-370.102971,8956.491898
1322.745956,229.828649,-370.102971,8586.388927
1322.746275,842.705048,-444.123565,8290.306550
1322.746594,1608.800546,-222.061783,8142.265362
1322.746913,2068.457845,-148.041188,7698.141797
1322.747231,2374.896044,-518.144159,7328.038826
1322.747550,2374.896044,-1036.288319,7254.018232
1322.747869,2145.067394,-888.247130,7105.977043
1322.748188,2374.896044,-592.164754,7105.977043
1322.748507,2068.457845,-222.061783,7105.977043
1322.748826,1991.848295,-74.020594,7254.018232
1322.749145,1915.238745,-444.123565,7476.080014
1322.749463,1685.410096,-444.123565,7994.224174
1322.749782,766.095498,-1110.308913,8216.285956
1322.750101,229.828649,-1406.391290,8364.327145
1322.750420,-306.438199,-1480.411884,8734.430116
1322.750739,0.000000,-1406.391290,9178.553681
1322.751058,153.219100,-962.267725,8734.430116
1322.751377,306.438199,-370.102971,9030.512492
1322.751696,612.876398,-148.041188,8734.430116
1322.752014,306.438199,-0.000000,8068.244768
1322.752333,766.095498,-370.102971,8586.388927
1322.752652,459.657299,-0.000000,8586.388927
1322.752971,0.000000,-222.061783,8660.409521
1322.753290,0.000000,-0.000000,8808.450710
1322.753609,76.609550,296.082377,8956.491898
1322.753928,-306.438199,222.061783,9474.636058
1322.754247,-612.876398,-74.020594,9326.594869
1322.754565,-766.095498,-296.082377,9844.739029
1322.754884,-766.095498,-222.061783,10436.903782
1322.755203,-689.485948,222.061783,10140.821405
1322.755522,-306.438199,370.102971,10140.821405
1322.755841,-536.266849,740.205942,10510.924376
1322.756160,0.000000,962.267725,10658.965565
1322.756479,689.485948,1332.370696,10436.903782
1322.756798,1455.581446,1036.288319,9918.759623
1322.757116,1608.800546,1480.411884,9770.718434
1322.757435,1685.410096,1258.350101,9770.718434
1322.757754,1685.410096,1184.329507,9622.677246
1322.758073,1532.190996,1258.350101,9844.739029
1322.758392,1608.800546,1406.391290,10066.800811
1322.758711,1532.190996,1628.453072,10288.862594
1322.759030,1991.848295,2072.576638,10140.821405
1322.759348,1685.410096,2072.576638,10436.903782
1322.759667,1302.362347,1332.370696,10732.986159
1322.759986,1072.533697,888.247130,10436.903782
1322.760305,689.485948,740.205942,10807.006753
1322.760624,459.657299,888.247130,10807.006753
1322.760943,459.657299,1258.350101,10584.944971
1322.761262,995.924147,1110.308913,10288.862594
1322.761581,1149.143247,1184.329507,10214.842000
1322.761899,1455.581446,1332.370696,9622.677246
1322.762218,1072.533697,814.226536,9400.615463
1322.762537,919.314598,740.205942,9326.594869
1322.762856,689.485948,296.082377,9474.636058
1322.763175,229.828649,592.164754,9474.636058
1322.763494,-229.828649,666.185348,9474.636058
1322.763813,-383.047749,666.185348,9326.594869
1322.764132,-766.095498,370.102971,9400.615463
1322.764450,-995.924147,-0.000000,9104.533087
1322.764769,-1072.533697,-740.205942,9548.656652
1322.765088,-1685.410096,-1036.288319,9622.677246
1322.765407,-1991.848295,-740.205942,9548.656652
1322.765726,-1608.800546,-518.144159,9326.594869
1322.766045,-1302.362347,-444.123565,9252.574275
1322.766364,-459.657299,-0.000000,8956.491898
1322.766682,76.609550,-0.000000,8660.409521
1322.767001,612.876398,-74.020594,8068.244768
1322.767320,1685.410096,-296.082377,7994.224174
1322.767639,1149.143247,-518.144159,8364.327145
1322.767958,1225.752797,-814.226536,7476.080014
1322.768277,1455.581446,-444.123565,7476.080014
1322.768596,1378.971896,-296.082377,7328.038826
1322.768915,1149.143247,-444.123565,7550.100608
1322.769233,1532.190996,-74.020594,7698.141797
1322.769552,1302.362347,-370.102971,7772.162391
1322.769871,842.705048,-1110.308913,8512.368333
1322.770190,229.828649,-1702.473667,8808.450710
1322.770509,0.000000,-2294.638420,9400.615463
1322.770828,612.876398,-1628.453072,9400.615463
1322.771147,383.047749,-1184.329507,9178.553681
1322.771466,1378.971896,-1036.288319,9178.553681
1322.771784,1532.190996,-888.247130,8734.430116
1322.772103,2068.457845,-962.267725,8660.409521
1322.772422,2298.286494,-888.247130,8216.285956
1322.772741,2068.457845,-1036.288319,7994.224174
1322.773060,1838.629195,-1036.288319,7994.224174
1322.773379,1838.629195,-518.144159,8290.306550
1322.773698,1302.362347,-592.164754,8290.306550
1322.774017,1072.533697,-666.185348,8586.388927
1322.774335,153.219100,-592.164754,9030.512492
1322.774654,0.000000,-888.247130,9400.615463
1322.774973,-229.828649,-1258.350101,10214.842000
1322.775292,-995.924147,-1110.308913,9992.780217
1322.775611,-1149.143247,-666.185348,10288.862594
1322.775930,-1302.362347,-0.000000,10436.903782
1322.776249,-689.485948,518.144159,10214.842000
1322.776567,0.000000,666.185348,9918.759623
1322.776886,536.266849,1258.350101,9326.594869
1322.777205,919.314598,1036.288319,9400.615463
1322.777524,1455.581446,1036.288319,8734.430116
1322.777843,1225.752797,1036.288319,8586.388927
1322.778162,1302.362347,1332.370696,8660.409521
1322.778481,842.705048,1480.411884,8956.491898
1322.778800,842.705048,1554.432478,9030.512492
1322.779118,766.095498,1702.473667,9474.636058
1322.779437,459.657299,1702.473667,9844.739029
1322.779756,383.047749,1110.308913,9992.780217
1322.780075,76.609550,740.205942,10436.903782
1322.780394,-383.047749,370.102971,10732.986159
1322.780713,-229.828649,370.102971,11103.089130
1322.781032,0.000000,888.247130,11029.068536
1322.781351,766.095498,1628.453072,10436.903782
1322.781669,1762.019645,2220.617826,9844.739029
1322.781988,2374.896044,2146.597232,9474.636058
1322.782307,3217.601092,1628.453072,9474.636058
1322.782626,2757.943793,1480.411884,9030.512492
1322.782945,2451.505594,1036.288319,8882.471304
1322.783264,1991.848295,740.205942,9178.553681
1322.783583,1608.800546,666.185348,9326.594869
1322.783902,1762.019645,666.185348,9178.553681
1322.784220,995.924147,370.102971,9400.615463
1322.784539,612.876398,-0.000000,9844.739029
1322.784858,229.828649,-0.000000,9918.759623
1322.785177,-229.828649,-592.164754,10214.842000
1322.785496,-919.314598,-888.247130,10658.965565
1322.785815,-1225.752797,-592.164754,10732.986159
1322.786134,-995.924147,-74.020594,10436.903782
1322.786452,-689.485948,444.123565,10140.821405
1322.786771,0.000000,592.164754,9622.677246
1322.787090,612.876398,592.164754,9252.574275
1322.787409,766.095498,518.144159,8586.388927
1322.787728,1225.752797,444.123565,8586.388927
1322.788047,1302.362347,-0.000000,8586.388927
1322.788366,1225.752797,-74.020594,8290.306550
1322.788685,1072.533697,296.082377,8290.306550
1322.789003,1225.752797,296.082377,8290.306550
1322.789322,919.314598,-0.000000,8290.306550
1322.789641,919.314598,-74.020594,8364.327145
1322.789960,1072.533697,-592.164754,8364.327145
1322.790279,153.219100,-814.226536,8808.450710
1322.790598,153.219100,-1184.329507,8882.471304
1322.790917,0.000000,-1258.350101,9252.574275
1322.791236,153.219100,-1184.329507,9252.574275
1322.791554,459.657299,-1036.288319,9400.615463
1322.791873,995.924147,-518.144159,8808.450710
1322.792192,1532.190996,-296.082377,8512.368333
1322.792511,2068.457845,-222.061783,8068.244768
1322.792830,2528.115143,-148.041188,7846.182985
1322.793149,2221.676944,-592.164754,7846.182985
1322.793468,1838.629195,-370.102971,7772.162391
1322.793786,1991.848295,-0.000000,7846.182985
1322.794105,1608.800546,-0.000000,7920.203579
1322.794424,1225.752797,-222.061783,8216.285956
1322.794743,919.314598,-222.061783,8512.368333
1322.795062,306.438199,-148.041188,8808.450710
1322.795381,0.000000,-740.205942,9252.574275
1322.795700,-153.219100,-592.164754,9252.574275
1322.796019,76.609550,-222.061783,9474.636058
1322.796337,-383.047749,-222.061783,9474.636058
1322.796656,0.000000,148.041188,9474.636058
1322.796975,76.609550,222.061783,9474.636058
1322.797294,536.266849,148.041188,8734.430116
1322.797613,536.266849,370.102971,8734.430116
1322.797932,612.876398,370.102971,8882.471304
1322.798251,229.828649,592.164754,8586.388927
1322.798570,229.828649,814.226536,8660.409521
1322.798888,0.000000,1258.350101,9104.533087
1322.799207,0.000000,1184.329507,9326.594869
1322.799526,-383.047749,1480.411884,9474.636058
1322.799845,-689.485948,1036.288319,9696.697840
1322.800164,-1072.533697,740.205942,10140.821405
1322.800483,-919.314598,1110.308913,10510.924376
1322.800802,-1378.971896,962.267725,10807.006753
1322.801121,-1225.752797,962.267725,10584.944971
1322.801439,-919.314598,1480.411884,10362.883188
1322.801758,-153.219100,1998.556043,10066.800811
1322.802077,306.438199,1998.556043,9400.615463
1322.802396,612.876398,2220.617826,9178.553681
1322.802715,995.924147,2146.597232,9474.636058
1322.803034,842.705048,1998.556043,9326.594869
1322.803353,919.314598,1332.370696,9400.615463
1322.803671,536.266849,1480.411884,9474.636058
1322.803990,459.657299,1406.391290,9844.739029
1322.804309,383.047749,1702.473667,9918.759623
1322.804628,306.438199,1554.432478,10066.800811
1322.804947,153.219100,1406.391290,10140.821405
1322.805266,76.609550,962.267725,10288.862594
1322.805585,0.000000,962.267725,10140.821405
1322.805904,153.219100,1110.308913,10362.883188
1322.806222,229.828649,1332.370696,10288.862594
1322.806541,383.047749,1332.370696,9474.636058
1322.806860,1225.752797,1628.453072,9474.636058
1322.807179,1455.581446,1554.432478,9474.636058
1322.807498,1532.190996,1332.370696,9252.574275
1322.807817,1302.362347,1184.329507,9252.574275
1322.808136,1608.800546,1036.288319,8808.450710
1322.808455,1225.752797,814.226536,9030.512492
1322.808773,995.924147,740.205942,9104.533087
1322.809092,766.095498,888.247130,9104.533087
1322.809411,766.095498,740.205942,9104.533087
1322.809730,383.047749,444.123565,9548.656652
1322.810049,383.047749,444.123565,9474.636058
1322.810368,0.000000,-74.020594,9400.615463
1322.810687,0.000000,-74.020594,9548.656652
1322.811006,0.000000,148.041188,9548.656652
1322.811324,0.000000,222.061783,9326.594869
1322.811643,306.438199,370.102971,9326.594869
1322.811962,612.876398,370.102971,9104.533087
1322.812281,1302.362347,222.061783,8734.430116
1322.812600,1455.581446,-148.041188,9030.512492
1322.812919,1149.143247,-370.102971,8364.327145
1322.813238,306.438199,-370.102971,8142.265362
1322.813556,0.000000,-592.164754,8364.327145
1322.813875,0.000000,-518.144159,8512.368333
1322.814194,-612.876398,-666.185348,9030.512492
1322.814513,-995.924147,-0.000000,8808.450710
1322.814832,-919.314598,-222.061783,9252.574275
1322.815151,-919.314598,-740.205942,9178.553681
1322.815470,-1072.533697,-888.247130,9178.553681
1322.815789,-766.095498,-814.226536,9178.553681
1322.816107,-459.657299,-370.102971,9400.615463
1322.816426,0.000000,-296.082377,9178.553681
1322.816745,766.095498,296.082377,8956.491898
1322.817064,766.095498,222.061783,8734.430116
1322.817383,1685.410096,740.205942,8290.306550
1322.817702,2068.457845,814.226536,7994.224174
1322.818021,2145.067394,666.185348,7772.162391
1322.818340,2068.457845,666.185348,7920.203579
1322.818658,1608.800546,888.247130,7772.162391
1322.818977,1455.581446,1036.288319,8290.306550
1322.819296,842.705048,740.205942,8660.409521
1322.819615,689.485948,814.226536,9030.512492
1322.819934,612.876398,740.205942,9548.656652
1322.820253,306.438199,444.123565,9844.739029
1322.820572,229.828649,296.082377,10140.821405
1322.820890,0.000000,444.123565,10140.821405
1322.821209,306.438199,592.164754,10140.821405
1322.821528,383.047749,888.247130,9844.739029
1322.821847,1225.752797,1406.391290,9696.697840
1322.822166,1838.629195,1628.453072,9178.553681
1322.822485,1838.629195,1702.473667,9104.533087
1322.822804,1762.019645,1184.329507,8882.471304
1322.823123,1685.410096,814.226536,9178.553681
1322.823441,612.876398,740.205942,9252.574275
1322.823760,76.609550,740.205942,9474.636058
1322.824079,-536.266849,888.247130,9474.636058
1322.824398,-995.924147,814.226536,10066.800811
1322.824717,-1685.410096,370.102971,10362.883188
1322.825036,-1685.410096,-0.000000,10436.903782
1322.825355,-2221.676944,-444.123565,10881.027347
1322.825674,-2451.505594,-0.000000,11103.089130
1322.825992,-2298.286494,-74.020594,10955.047942
1322.826311,-2374.896044,592.164754,10955.047942
1322.826630,-1915.238745,962.267725,10436.903782
1322.826949,-995.924147,1628.453072,10140.821405
1322.827268,-153.219100,1924.535449,9548.656652
1322.827587,229.828649,2072.576638,9030.512492
1322.827906,766.095498,1702.473667,8586.388927
1322.828225,689.485948,1184.329507,8734.430116
1322.828543,919.314598,1036.288319,8660.409521
1322.828862,229.828649,1110.308913,8808.450710
1322.829181,536.266849,1258.350101,9104.533087
1322.829500,383.047749,1332.370696,9178.553681
1322.829819,229.828649,1258.350101,9400.615463
1322.830138,229.828649,888.247130,9400.615463
1322.830457,0.000000,592.164754,9622.677246
1322.830775,0.000000,444.123565,9622.677246
1322.831094,153.219100,518.144159,9696.697840
1322.831413,612.876398,740.205942,9548.656652
1322.831732,919.314598,740.205942,9252.574275
1322.832051,1532.190996,962.267725,9178.553681
1322.832370,2374.896044,1110.308913,8660.409521
1322.832689,2528.115143,1184.329507,8512.368333
1322.833008,2681.334243,592.164754,8142.265362
1322.833326,3064.381992,666.185348,8216.285956
1322.833645,2145.067394,-0.000000,8068.244768
1322.833964,1608.800546,296.082377,8290.306550
1322.834283,995.924147,-0.000000,8216.285956
1322.834602,689.485948,-0.000000,8808.450710
1322.834921,153.219100,-444.123565,9252.574275
1322.835240,-229.828649,-518.144159,9474.636058
1322.835559,-1149.143247,-1554.432478,9696.697840
1322.835877,-1302.362347,-1480.411884,10214.842000
1322.836196,-1455.581446,-1258.350101,9918.759623
1322.836515,-1225.752797,-1110.308913,9992.780217
1322.836834,-612.876398,-148.041188,9844.739029
1322.837153,-153.219100,-0.000000,9474.636058
1322.837472,459.657299,-0.000000,8808.450710
1322.837791,995.924147,222.061783,8586.388927
1322.838110,1532.190996,296.082377,8512.368333
1322.838428,689.485948,-0.000000,8438.347739
1322.838747,842.705048,-74.020594,8216.285956
1322.839066,459.657299,-0.000000,8290.306550
1322.839385,306.438199,296.082377,8512.368333
1322.839704,0.000000,296.082377,8808.450710
1322.840023,76.609550,-0.000000,9326.594869
1322.840341,0.000000,-296.082377,9326.594869
1322.840660,-383.047749,-518.144159,9622.677246
1322.840979,-229.828649,-740.205942,10140.821405
1322.841298,0.000000,-370.102971,9696.697840
1322.841617,76.609550,-148.041188,9844.739029
1322.841936,919.314598,444.123565,9548.656652
1322.842254,1149.143247,666.185348,9400.615463
1322.842573,2068.457845,592.164754,8882.471304
1322.842892,2604.724693,740.205942,8364.327145
1322.843211,2681.334243,740.205942,8290.306550
1322.843530,2528.115143,740.205942,8290.306550
1322.843848,2145.067394,666.185348,8586.388927
1322.844167,2068.457845,666.185348,9326.594869
1322.844486,1378.971896,370.102971,8882.471304
1322.844805,995.924147,-0.000000,9696.697840
1322.845124,459.657299,-148.041188,9770.718434
1322.845443,153.219100,-592.164754,10214.842000
1322.845761,-306.438199,-1036.288319,10584.944971
1322.846080,-842.705048,-1110.308913,10658.965565
1322.846399,-919.314598,-592.164754,10436.903782
1322.846718,-766.095498,-222.061783,10362.883188
1322.847037,-383.047749,-296.082377,10436.903782
1322.847355,0.000000,592.164754,9992.780217
1322.847674,766.095498,740.205942,9326.594869
1322.847993,842.705048,518.144159,9326.594869
1322.848312,1149.143247,592.164754,8882.471304
1322.848631,1302.362347,518.144159,8512.368333
1322.848950,842.705048,666.185348,8290.306550
1322.849268,689.485948,1184.329507,8512.368333
1322.849587,612.876398,1332.370696,8808.450710
1322.849906,459.657299,1332.370696,8882.471304
1322.850225,383.047749,888.247130,9326.594869
1322.850544,-612.876398,444.123565,9474.636058
1322.850863,-459.657299,370.102971,9696.697840
1322.851181,-842.705048,370.102971,9696.697840
1322.851500,-766.095498,370.102971,9696.697840
1322.851819,-536.266849,592.164754,9844.739029
1322.852138,76.609550,1036.288319,9326.594869
1322.852457,842.705048,1258.350101,8956.491898
1322.852775,1302.362347,1110.308913,8364.327145
1322.853094,1225.752797,740.205942,8364.327145
1322.853413,1608.800546,592.164754,7994.224174
1322.853732,1608.800546,962.267725,7920.203579
1322.854051,1378.971896,592.164754,7846.182985
1322.854370,1149.143247,740.205942,8216.285956
1322.854688,995.924147,444.123565,8734.430116
1322.855007,229.828649,-0.000000,8882.471304
1322.855326,153.219100,-148.041188,9326.594869
1322.855645,0.000000,-222.061783,9474.636058
1322.855964,-153.219100,-148.041188,9474.636058
1322.856282,-612.876398,-740.205942,9770.718434
1322.856601,-536.266849,-518.144159,9844.739029
1322.856920,-383.047749,-370.102971,9696.697840
1322.857239,306.438199,-148.041188,9696.697840
1322.857558,76.609550,-592.164754,9548.656652
1322.857877,842.705048,-74.020594,9474.636058
1322.858195,919.314598,-444.123565,9326.594869
1322.858514,1072.533697,-888.247130,8956.491898
1322.858833,689.485948,-888.247130,9252.574275
1322.859152,612.876398,-296.082377,9178.553681
1322.859471,766.095498,-0.000000,9252.574275
1322.859789,766.095498,148.041188,9326.594869
1322.860108,689.485948,-148.041188,9474.636058
1322.860427,612.876398,-444.123565,9696.697840
1322.860746,383.047749,-518.144159,9992.780217
1322.861065,76.609550,-814.226536,9844.739029
1322.861384,536.266849,-518.144159,10140.821405
1322.861702,689.485948,-222.061783,9992.780217
1322.862021,2068.457845,370.102971,9622.677246
1322.862340,2068.457845,444.123565,9400.615463
1322.862659,2451.505594,666.185348,8808.450710
1322.862978,2604.724693,592.164754,8660.409521
1322.863296,2604.724693,444.123565,8438.347739
1322.863615,2068.457845,148.041188,8364.327145
1322.863934,1532.190996,222.061783,8364.327145
1322.864253,919.314598,-0.000000,9030.512492
1322.864572,459.657299,-0.000000,9104.533087
1322.864891,76.609550,-0.000000,9400.615463
1322.865209,-229.828649,-370.102971,9326.594869
1322.865528,-842.705048,-370.102971,9770.718434
1322.865847,-1225.752797,-666.185348,9992.780217
1322.866166,-1302.362347,-444.123565,9844.739029
1322.866485,-1532.190996,-0.000000,9844.739029
1322.866804,-306.438199,-0.000000,9770.718434
1322.867122,-306.438199,962.267725,9474.636058
1322.867441,0.000000,740.205942,9326.594869
1322.867760,842.705048,1184.329507,9252.574275
1322.868079,1302.362347,1258.350101,8882.471304
1322.868398,1532.190996,1036.288319,8438.347739
1322.868716,1685.410096,740.205942,8142.265362
1322.869035,1378.971896,814.226536,8216.285956
1322.869354,1532.190996,740.205942,8290.306550
1322.869673,1455.581446,740.205942,8512.368333
1322.869992,919.314598,962.267725,8660.409521
1322.870311,766.095498,1036.288319,8882.471304
1322.870629,536.266849,518.144159,9400.615463
1322.870948,306.438199,370.102971,9474.636058
1322.871267,153.219100,-0.000000,9548.656652
1322.871586,0.000000,518.144159,9696.697840
1322.871905,153.219100,814.226536,9548.656652
1322.872223,536.266849,1110.308913,9326.594869
1322.872542,995.924147,1184.329507,9326.594869
1322.872861,766.095498,962.267725,9178.553681
1322.873180,1608.800546,888.247130,8882.471304
1322.873499,1532.190996,740.205942,9252.574275
1322.873818,1378.971896,370.102971,8882.471304
1322.874136,689.485948,444.123565,9178.553681
1322.874455,612.876398,740.205942,9178.553681
1322.874774,229.828649,666.185348,9400.615463
1322.875093,76.609550,444.123565,9474.636058
1322.875412,-229.828649,370.102971,9474.636058
1322.875730,-306.438199,-0.000000,9548.656652
1322.876049,-229.828649,-222.061783,9696.697840
1322.876368,-919.314598,-370.102971,9992.780217
1322.876687,-766.095498,-296.082377,9918.759623
1322.877006,-842.705048,148.041188,9992.780217
1322.877325,-229.828649,666.185348,9696.697840
1322.877643,229.828649,740.205942,9548.656652
1322.877962,383.047749,962.267725,9400.615463
1322.878281,689.485948,888.247130,8956.491898
1322.878600,612.876398,592.164754,8512.368333
1322.878919,919.314598,740.205942,8956.491898
1322.879237,1149.143247,962.267725,8586.388927
1322.879556,995.924147,740.205942,8956.491898
1322.879875,995.924147,888.247130,9104.533087
1322.880194,1378.971896,592.164754,9252.574275
1322.880513,919.314598,814.226536,9178.553681
1322.880832,612.876398,222.061783,9474.636058
1322.881150,612.876398,-0.000000,9474.636058
1322.881469,689.485948,-0.000000,9474.636058
1322.881788,689.485948,-74.020594,9474.636058
1322.882107,995.924147,148.041188,9474.636058
1322.882426,1225.752797,-0.000000,9474.636058
1322.882744,1532.190996,222.061783,9178.553681
1322.883063,1838.629195,-74.020594,8956.491898
1322.883382,1685.410096,-148.041188,8660.409521
1322.883701,1532.190996,-296.082377,8956.491898
1322.884020,1608.800546,-296.082377,8808.450710
1322.884339,1072.533697,-0.000000,8882.471304
1322.884657,842.705048,148.041188,9178.553681
1322.884976,766.095498,-0.000000,9252.574275
1322.885295,0.000000,-148.041188,9400.615463
1322.885614,-153.219100,-444.123565,9548.656652
1322.885933,-536.266849,-666.185348,9992.780217
1322.886252,-766.095498,-592.164754,9918.759623
1322.886570,-995.924147,-814.226536,9844.739029
1322.886889,-842.705048,-370.102971,9622.677246
1322.887208,-612.876398,-148.041188,9622.677246
1322.887527,-153.219100,-74.020594,9474.636058
1322.887846,76.609550,518.144159,9104.533087
1322.888164,229.828649,666.185348,8734.430116
1322.888483,383.047749,666.185348,8734.430116
1322.888802,612.876398,370.102971,8438.347739
1322.889121,229.828649,296.082377,8660.409521
1322.889440,229.828649,444.123565,8364.327145
1322.889759,383.047749,1036.288319,8660.409521
1322.890077,459.657299,1406.391290,8512.368333
1322.890396,536.266849,1406.391290,8586.388927
1322.890715,383.047749,1036.288319,9326.594869
1322.891034,0.000000,740.205942,9252.574275
1322.891353,0.000000,962.267725,9252.574275
1322.891671,229.828649,962.267725,9400.615463
1322.891990,536.266849,1110.308913,9474.636058
1322.892309,919.314598,1554.432478,9622.677246
1322.892628,1072.533697,1480.411884,9030.512492
1322.892947,1608.800546,1850.514855,9030.512492
1322.893266,1991.848295,1554.432478,8808.450710
1322.893584,2068.457845,1184.329507,8808.450710
1322.893903,2068.457845,1036.288319,8808.450710
1322.894222,1455.581446,518.144159,9104.533087
1322.894541,689.485948,518.144159,9252.574275
1322.894860,612.876398,666.185348,9326.594869
1322.895178,153.219100,-0.000000,9474.636058
1322.895497,153.219100,-0.000000,9770.718434
1322.895816,-536.266849,-222.061783,9992.780217
1322.896135,-689.485948,-666.185348,10436.903782
1322.896454,-1072.533697,-666.185348,10658.965565
1322.896773,-1455.581446,-518.144159,10658.965565
1322.897091,-1378.971896,-0.000000,10288.862594
1322.897410,-536.266849,444.123565,10214.842000
1322.897729,0.000000,592.164754,9992.780217
1322.898048,153.219100,888.247130,9474.636058
1322.898367,459.657299,740.205942,9252.574275
1322.898685,995.924147,592.164754,9400.615463
1322.899004,919.314598,666.185348,8882.471304
1322.899323,919.314598,592.164754,8882.471304
1322.899642,919.314598,1036.288319,8882.471304
1322.899961,689.485948,888.247130,8882.471304
1322.900280,459.657299,1184.329507,8660.409521
1322.900598,459.657299,1110.308913,9178.553681
1322.900917,153.219100,1110.308913,9104.533087
1322.901236,229.828649,888.247130,9104.533087
1322.901555,76.609550,518.144159,9326.594869
1322.901874,-229.828649,1036.288319,9474.636058
1322.902193,229.828649,1110.308913,9400.615463
1322.902511,689.485948,1554.432478,9252.574275
1322.902830,1838.629195,1480.411884,8808.450710
1322.903149,1915.238745,1628.453072,8290.306550
1322.903468,2145.067394,1184.329507,8290.306550
1322.903787,2145.067394,814.226536,8216.285956
1322.904105,1838.629195,444.123565,7846.182985
1322.904424,1225.752797,518.144159,7994.224174
1322.904743,612.876398,296.082377,8734.430116
1322.905062,612.876398,296.082377,8882.471304
1322.905381,-229.828649,-0.000000,9326.594869
1322.905700,-766.095498,-0.000000,9252.574275
1322.906018,-1072.533697,-666.185348,9548.656652
1322.906337,-1378.971896,-814.226536,9992.780217
1322.906656,-1762.019645,-1036.288319,10066.800811
1322.906975,-1532.190996,-1110.308913,9918.759623
1322.907294,-1838.629195,-666.185348,10510.924376
1322.907612,-842.705048,-370.102971,9992.780217
1322.907931,-459.657299,-0.000000,9844.739029
1322.908250,0.000000,148.041188,9400.615463
1322.908569,383.047749,296.082377,9030.512492
1322.908888,612.876398,296.082377,8882.471304
1322.909207,766.095498,222.061783,8882.471304
1322.909525,689.485948,444.123565,8808.450710
1322.909844,536.266849,666.185348,8660.409521
1322.910163,383.047749,444.123565,8956.491898
1322.910482,383.047749,592.164754,9178.553681
1322.910801,229.828649,518.144159,9400.615463
1322.911119,0.000000,-0.000000,9696.697840
1322.911438,0.000000,-0.000000,9696.697840
1322.911757,-229.828649,-0.000000,9918.759623
1322.912076,383.047749,444.123565,9622.677246
1322.912395,383.047749,666.185348,9696.697840
1322.912714,1072.533697,740.205942,9474.636058
1322.913032,1685.410096,1332.370696,9252.574275
1322.913351,1838.629195,1110.308913,8956.491898
1322.913670,1991.848295,888.247130,8660.409521
1322.913989,2145.067394,740.205942,8438.347739
1322.914308,1915.238745,740.205942,8734.430116
1322.914626,1532.190996,666.185348,8734.430116
1322.914945,1455.581446,814.226536,9104.533087
1322.915264,536.266849,962.267725,9252.574275
1322.915583,76.609550,444.123565,9474.636058
1322.915902,0.000000,-0.000000,9474.636058
1322.916221,-766.095498,-222.061783,9622.677246
1322.916539,-919.314598,-740.205942,9770.718434
1322.916858,-1149.143247,-518.144159,9918.759623
1322.917177,-689.485948,-222.061783,10140.821405
1322.917496,-536.266849,-0.000000,9548.656652
1322.917815,0.000000,518.144159,9696.697840
1322.918133,306.438199,740.205942,9474.636058
1322.918452,766.095498,1258.350101,8956.491898
1322.918771,1149.143247,962.267725,8734.430116
1322.919090,995.924147,740.205942,8512.368333
1322.919409,1378.971896,518.144159,8068.244768
1322.919728,919.314598,888.247130,8364.327145
1322.920046,689.485948,888.247130,8586.388927
1322.920365,153.219100,518.144159,8882.471304
1322.920684,0.000000,666.185348,9326.594869
1322.921003,0.000000,518.144159,9622.677246
1322.921322,-1072.533697,74.020594,9770.718434
1322.921641,-1302.362347,-0.000000,9770.718434
1322.921959,-1608.800546,296.082377,10140.821405
1322.922278,-1072.533697,592.164754,9844.739029
1322.922597,-612.876398,666.185348,9548.656652
1322.922916,0.000000,1332.370696,9474.636058
1322.923235,842.705048,1332.370696,9178.553681
1322.923553,1302.362347,1110.308913,8586.388927
1322.923872,1838.629195,888.247130,8660.409521
1322.924191,2068.457845,814.226536,8512.368333
1322.924510,1685.410096,1258.350101,8068.244768
1322.924829,1072.533697,814.226536,8216.285956
1322.925148,842.705048,1110.308913,8734.430116
1322.925466,306.438199,592.164754,8882.471304
1322.925785,612.876398,370.102971,9104.533087
1322.926104,-229.828649,-0.000000,9474.636058
1322.926423,-383.047749,-518.144159,10140.821405
1322.926742,-919.314598,-1036.288319,10288.862594
1322.927060,-995.924147,-666.185348,10436.903782
1322.927379,-689.485948,-444.123565,10214.842000
1322.927698,229.828649,222.061783,10066.800811
1322.928017,383.047749,148.041188,9992.780217
1322.928336,1225.752797,592.164754,9696.697840
1322.928655,1455.581446,148.041188,9178.553681
1322.928973,2145.067394,370.102971,8734.430116
1322.929292,2298.286494,444.123565,8364.327145
1322.929611,1991.848295,518.144159,8216.285956
1322.929930,2145.067394,518.144159,8512.368333
1322.930249,1762.019645,370.102971,8808.450710
1322.930567,1072.533697,518.144159,9104.533087
1322.930886,766.095498,444.123565,9474.636058
1322.931205,153.219100,296.082377,9696.697840
1322.931524,-459.657299,-0.000000,9992.780217
1322.931843,-459.657299,-444.123565,10288.862594
1322.932162,-459.657299,-222.061783,10288.862594
1322.932480,-383.047749,-74.020594,10140.821405
1322.932799,153.219100,296.082377,9844.739029
1322.933118,766.095498,148.041188,9696.697840
1322.933437,1378.971896,592.164754,8882.471304
1322.933756,1302.362347,296.082377,8956.491898
1322.934074,1685.410096,296.082377,8216.285956
1322.934393,1685.410096,-0.000000,7994.224174
1322.934712,1685.410096,148.041188,7994.224174
1322.935031,1302.362347,518.144159,8438.347739
1322.935350,995.924147,592.164754,8512.368333
1322.935669,689.485948,-0.000000,8808.450710
1322.935987,229.828649,-74.020594,9252.574275
1322.936306,-306.438199,-962.267725,9548.656652
1322.936625,-766.095498,-1036.288319,9918.759623
1322.936944,-842.705048,-888.247130,9918.759623
1322.937263,-1225.752797,-1036.288319,10140.821405
1322.937582,-689.485948,-222.061783,9992.780217
1322.937900,-536.266849,-0.000000,10066.800811
1322.938219,-229.828649,-0.000000,9770.718434
1322.938538,76.609550,296.082377,9252.574275
1322.938857,536.266849,296.082377,8882.471304
1322.939175,919.314598,370.102971,8882.471304
1322.939494,995.924147,370.102971,8956.491898
1322.939813,689.485948,222.061783,8660.409521
1322.940131,689.485948,888.247130,8660.409521
1322.940450,1072.533697,666.185348,8956.491898
1322.940769,612.876398,1184.329507,9030.512492
1322.941088,459.657299,962.267725,9178.553681
1322.941406,306.438199,592.164754,9104.533087
1322.941725,0.000000,296.082377,9400.615463
1322.942044,-459.657299,222.061783,9474.636058
1322.942362,153.219100,592.164754,9474.636058
1322.942681,459.657299,814.226536,9474.636058
1322.943000,1072.533697,814.226536,9252.574275
1322.943319,1838.629195,1702.473667,9104.533087
1322.943637,1762.019645,1110.308913,8734.430116
1322.943956,2068.457845,1480.411884,8512.368333
1322.944275,1991.848295,1184.329507,8290.306550
1322.944593,2145.067394,1036.288319,8364.327145
1322.944912,1685.410096,740.205942,8290.306550
1322.945231,1302.362347,740.205942,8660.409521
1322.945549,919.314598,518.144159,9400.615463
1322.945868,536.266849,-0.000000,9400.615463
1322.946187,0.000000,-74.020594,9474.636058
1322.946506,-229.828649,-592.164754,9992.780217
1322.946824,-306.438199,-518.144159,9770.718434
1322.947143,-153.219100,-518.144159,9918.759623
1322.947462,-612.876398,-74.020594,9918.759623
1322.947780,-612.876398,-0.000000,10066.800811
1322.948099,-229.828649,74.020594,9770.718434
1322.948418,-76.609550,-74.020594,9918.759623
1322.948737,76.609550,-0.000000,9770.718434
1322.949055,612.876398,-0.000000,9030.512492
1322.949374,612.876398,-0.000000,9104.533087
1322.949693,1072.533697,-0.000000,8956.491898
1322.950011,919.314598,222.061783,8734.430116
1322.950330,842.705048,666.185348,9178.553681
1322.950649,536.266849,518.144159,9104.533087
1322.950968,612.876398,444.123565,9178.553681
1322.951286,383.047749,222.061783,9474.636058
1322.951605,306.438199,370.102971,9400.615463
1322.951924,0.000000,-0.000000,9474.636058
1322.952242,229.828649,-0.000000,9474.636058
1322.952561,536.266849,-0.000000,9548.656652
1322.952880,1149.143247,296.082377,9400.615463
1322.953199,1302.362347,888.247130,9178.553681
1322.953517,1915.238745,666.185348,8586.388927
1322.953836,1991.848295,666.185348,8438.347739
1322.954155,2298.286494,518.144159,8142.265362
1322.954473,1378.971896,222.061783,8068.244768
1322.954792,1378.971896,592.164754,8586.388927
1322.955111,1378.971896,370.102971,8586.388927
1322.955430,842.705048,222.061783,9030.512492
1322.955748,459.657299,-222.061783,9178.553681
1322.956067,229.828649,-148.041188,9548.656652
1322.956386,0.000000,-148.041188,9326.594869
1322.956704,-536.266849,-666.185348,9474.636058
1322.957023,-459.657299,-740.205942,9622.677246
1322.957342,0.000000,-0.000000,9474.636058
1322.957660,-536.266849,-222.061783,9548.656652
1322.957979,0.000000,222.061783,9622.677246
1322.958298,-306.438199,296.082377,9696.697840
1322.958617,229.828649,222.061783,9622.677246
1322.958935,383.047749,222.061783,9474.636058
1322.959254,612.876398,-222.061783,9400.615463
1322.959573,1302.362347,-0.000000,9178.553681
1322.959891,766.095498,-222.061783,9030.512492
1322.960210,919.314598,-0.000000,8882.471304
1322.960529,612.876398,444.123565,8734.430116
1322.960848,459.657299,740.205942,8660.409521
1322.961166,229.828649,740.205942,9326.594869
1322.961485,0.000000,296.082377,9326.594869
1322.961804,-383.047749,296.082377,9474.636058
1322.962122,-153.219100,-0.000000,9474.636058
1322.962441,-76.609550,296.082377,9622.677246
1322.962760,0.000000,518.144159,9548.656652
1322.963079,536.266849,1036.288319,9474.636058
1322.963397,1532.190996,1036.288319,9400.615463
1322.963716,1455.581446,1258.350101,9104.533087
1322.964035,1762.019645,1332.370696,8956.491898
1322.964353,1915.238745,1036.288319,8512.368333
1322.964672,1762.019645,1110.308913,8586.388927
1322.964991,1608.800546,888.247130,8290.306550
1322.965310,1149.143247,1332.370696,8882.471304
1322.965628,612.876398,666.185348,9104.533087
1322.965947,612.876398,592.164754,9400.615463
1322.966266,0.000000,222.061783,9400.615463
1322.966584,-229.828649,-148.041188,9770.718434
1322.966903,-459.657299,-222.061783,9844.739029
1322.967222,-612.876398,-592.164754,9992.780217
1322.967540,-536.266849,-148.041188,10066.800811
1322.967859,229.828649,370.102971,9844.739029
1322.968178,76.609550,592.164754,9992.780217
1322.968497,612.876398,666.185348,9474.636058
1322.968815,766.095498,814.226536,9548.656652
1322.969134,1072.533697,370.102971,8956.491898
1322.969453,689.485948,222.061783,8882.471304
1322.969771,1378.971896,444.123565,8290.306550
1322.970090,995.924147,592.164754,8364.327145
1322.970409,842.705048,666.185348,8438.347739
1322.970728,536.266849,518.144159,8882.471304
1322.971046,0.000000,444.123565,9030.512492
1322.971365,-459.657299,74.020594,9252.574275
1322.971684,-842.705048,-74.020594,9696.697840
1322.972002,-1149.143247,-148.041188,9918.759623
1322.972321,-1072.533697,222.061783,10066.800811
1322.972640,-842.705048,-0.000000,9844.739029
1322.972959,-306.438199,296.082377,9844.739029
1322.973277,459.657299,592.164754,9474.636058
1322.973596,766.095498,814.226536,9104.533087
1322.973915,1378.971896,888.247130,8660.409521
1322.974233,1838.629195,518.144159,8142.265362
1322.974552,1838.629195,444.123565,8216.285956
1322.974871,1685.410096,740.205942,8290.306550
1322.975190,1685.410096,740.205942,8142.265362
1322.975508,1302.362347,962.267725,8956.491898
1322.975827,842.705048,518.144159,9030.512492
1322.976146,612.876398,222.061783,9326.594869
1322.976464,383.047749,-74.020594,9474.636058
1322.976783,536.266849,-1036.288319,9844.739029
1322.977102,76.609550,-666.185348,10066.800811
1322.977421,-306.438199,-222.061783,9844.739029
1322.977739,0.000000,-0.000000,9918.759623
1322.978058,229.828649,370.102971,9918.759623
1322.978377,612.876398,370.102971,9474.636058
1322.978695,1072.533697,1184.329507,9400.615463
1322.979014,1149.143247,1258.350101,8808.450710
1322.979333,1532.190996,1036.288319,8290.306550
1322.979651,1532.190996,1036.288319,8290.306550
1322.979970,1302.362347,518.144159,8586.388927
1322.980289,1149.143247,888.247130,8438.347739
1322.980608,689.485948,1036.288319,8512.368333
1322.980926,306.438199,888.247130,9030.512492
1322.981245,153.219100,666.185348,9474.636058
1322.981564,0.000000,592.164754,9696.697840
1322.981882,-1072.533697,296.082377,9696.697840
1322.982201,-842.705048,888.247130,9474.636058
1322.982520,-766.095498,592.164754,9474.636058
1322.982839,0.000000,444.123565,9474.636058
1322.983157,-383.047749,666.185348,9844.739029
1322.983476,229.828649,740.205942,9326.594869
1322.983795,536.266849,814.226536,8882.471304
1322.984113,1149.143247,592.164754,9104.533087
1322.984432,1225.752797,222.061783,8882.471304
1322.984751,1225.752797,148.041188,8512.368333
1322.985070,1455.581446,-0.000000,8512.368333
1322.985388,842.705048,-222.061783,9474.636058
1322.985707,842.705048,-296.082377,9474.636058
1322.986026,766.095498,-222.061783,9770.718434
1322.986344,76.609550,-370.102971,9992.780217
1322.986663,0.000000,-444.123565,10140.821405
1322.986982,-306.438199,-740.205942,10288.862594
1322.987301,0.000000,-518.144159,10140.821405
1322.987619,536.266849,-222.061783,10362.883188
1322.987938,612.876398,-0.000000,9918.759623
1322.988257,842.705048,-74.020594,10510.924376
1322.988575,1378.971896,-0.000000,10214.842000
1322.988894,1685.410096,-0.000000,9770.718434
1322.989213,2145.067394,-0.000000,9474.636058
1322.989532,2374.896044,296.082377,9030.512492
1322.989850,2221.676944,296.082377,8882.471304
1322.990169,1991.848295,444.123565,8438.347739
1322.990488,2145.067394,888.247130,8882.471304
1322.990806,1149.143247,814.226536,8660.409521
1322.991125,383.047749,666.185348,8956.491898
1322.991444,76.609550,740.205942,8956.491898
1322.991762,-536.266849,370.102971,9030.512492
1322.992081,-995.924147,-0.000000,9622.677246
1322.992400,-1455.581446,296.082377,9400.615463
1322.992719,-1685.410096,666.185348,9400.615463
1322.993037,-1072.533697,1184.329507,9178.553681
1322.993356,-995.924147,1258.350101,9252.574275
1322.993675,-536.266849,1628.453072,8882.471304
1322.993993,-153.219100,1850.514855,8216.285956
1322.994312,306.438199,2072.576638,8142.265362
1322.994631,459.657299,1850.514855,8068.244768
1322.994950,842.705048,1406.391290,7772.162391
1322.995268,459.657299,1406.391290,7920.203579
1322.995587,229.828649,1258.350101,8142.265362
1322.995906,153.219100,1110.308913,8438.347739
1322.996224,0.000000,1036.288319,8438.347739
1322.996543,-383.047749,370.102971,8956.491898
1322.996862,-306.438199,370.102971,9474.636058
1322.997181,-689.485948,74.020594,9548.656652
1322.997499,-995.924147,-74.020594,9622.677246
1322.997818,-612.876398,-0.000000,10066.800811
1322.998137,-842.705048,-0.000000,9844.739029
1322.998455,-306.438199,222.061783,9918.759623
1322.998774,0.000000,518.144159,9844.739029
1322.999093,612.876398,444.123565,9696.697840
1322.999412,766.095498,444.123565,9622.677246
1322.999730,1225.752797,370.102971,9548.656652
1323.000049,1302.362347,148.041188,9548.656652
1323.000368,1532.190996,518.144159,9474.636058
1323.000686,1608.800546,222.061783,9548.656652
1323.001005,1532.190996,222.061783,9770.718434
1323.001324,1532.190996,814.226536,9622.677246
1323.001643,1225.752797,592.164754,9622.677246
1323.001961,842.705048,296.082377,9622.677246
1323.002280,919.314598,222.061783,9770.718434
1323.002599,689.485948,-0.000000,9696.697840
1323.002917,536.266849,444.123565,9622.677246
1323.003236,306.438199,444.123565,9696.697840
1323.003555,459.657299,592.164754,9474.636058
1323.003873,995.924147,740.205942,9474.636058
1323.004192,459.657299,444.123565,8956.491898
1323.004511,1072.533697,888.247130,9030.512492
1323.004830,459.657299,444.123565,9030.512492
1323.005148,536.266849,370.102971,8956.491898
1323.005467,459.657299,740.205942,8956.491898
1323.005786,306.438199,888.247130,8808.450710
1323.006104,-153.219100,740.205942,9030.512492
1323.006423,-153.219100,666.185348,9104.533087
1323.006742,-459.657299,370.102971,9104.533087
1323.007061,-536.266849,-74.020594,9474.636058
1323.007379,-689.485948,-666.185348,9474.636058
1323.007698,-689.485948,-592.164754,9474.636058
1323.008017,-766.095498,-518.144159,9548.656652
1323.008335,-536.266849,-296.082377,9770.718434
1323.008654,0.000000,-74.020594,9844.739029
1323.008973,153.219100,-0.000000,9696.697840
1323.009292,689.485948,-74.020594,9474.636058
1323.009610,1302.362347,-0.000000,9104.533087
1323.009929,1302.362347,-0.000000,8142.265362
1323.010248,1685.410096,-0.000000,8808.450710
1323.010566,1455.581446,518.144159,8586.388927
1323.010885,1838.629195,814.226536,8290.306550
1323.011204,1302.362347,518.144159,8660.409521
1323.011523,1072.533697,444.123565,8734.430116
1323.011841,1149.143247,444.123565,8808.450710
1323.012160,919.314598,-0.000000,9178.553681
1323.012479,766.095498,-148.041188,9474.636058
1323.012797,612.876398,-74.020594,9474.636058
1323.013116,229.828649,148.041188,9326.594869
1323.013435,536.266849,444.123565,9400.615463
1323.013753,1225.752797,1258.350101,9104.533087
1323.014072,1149.143247,1332.370696,8734.430116
1323.014391,995.924147,962.267725,8512.368333
1323.014710,1072.533697,666.185348,8586.388927
1323.015028,153.219100,444.123565,8438.347739
1323.015347,0.000000,444.123565,8734.430116
1323.015666,0.000000,444.123565,8660.409521
1323.015984,-383.047749,592.164754,8956.491898
1323.016303,-689.485948,518.144159,8956.491898
1323.016622,-1149.143247,296.082377,9400.615463
1323.016941,-1378.971896,-0.000000,9326.594869
1323.017259,-1608.800546,-0.000000,9548.656652
1323.017578,-1378.971896,-370.102971,9918.759623
1323.017897,-1762.019645,-518.144159,10214.842000
1323.018215,-1991.848295,-0.000000,9992.780217
1323.018534,-1532.190996,370.102971,10288.862594
1323.018853,-995.924147,444.123565,10288.862594
1323.019172,-536.266849,370.102971,9844.739029
1323.019490,459.657299,666.185348,9622.677246
1323.019809,766.095498,-0.000000,9548.656652
1323.020128,1608.800546,-0.000000,9104.533087
1323.020446,1532.190996,-148.041188,8808.450710
1323.020765,1915.238745,444.123565,8956.491898
1323.021084,1608.800546,222.061783,9178.553681
1323.021403,1762.019645,370.102971,9326.594869
1323.021721,1685.410096,296.082377,9400.615463
1323.022040,1532.190996,-0.000000,9622.677246
1323.022359,1455.581446,-0.000000,9622.677246
1323.022677,1455.581446,-0.000000,9548.656652
1323.022996,1608.800546,74.020594,9548.656652
1323.023315,1838.629195,740.205942,9252.574275
1323.023634,2068.457845,888.247130,9104.533087
1323.023952,1915.238745,1036.288319,9252.574275
1323.024271,2451.505594,1406.391290,8882.471304
1323.024590,2374.896044,888.247130,8586.388927
1323.024908,2221.676944,740.205942,8438.347739
1323.025227,2298.286494,518.144159,8512.368333
1323.025546,1685.410096,1110.308913,8068.244768
1323.025864,995.924147,888.247130,8068.244768
1323.026183,689.485948,888.247130,8512.368333
1323.026502,-612.876398,222.061783,8808.450710
1323.026821,-689.485948,370.102971,9104.533087
1323.027139,-1225.752797,-0.000000,9474.636058
1323.027458,-1685.410096,-222.061783,9770.718434
1323.027777,-2145.067394,-296.082377,10140.821405
1323.028095,-2221.676944,-370.102971,9918.759623
1323.028414,-2374.896044,-0.000000,10066.800811
1323.028733,-1915.238745,296.082377,9992.780217
1323.029052,-1302.362347,370.102971,9622.677246
1323.029370,-766.095498,148.041188,9548.656652
1323.029689,0.000000,-222.061783,9770.718434
1323.030008,-153.219100,-0.000000,8512.368333
1323.030326,0.000000,296.082377,8586.388927
1323.030645,459.657299,222.061783,8512.368333
1323.030964,459.657299,962.267725,8882.471304
1323.031283,383.047749,296.082377,8734.430116
1323.031601,153.219100,74.020594,9030.512492
1323.031920,-153.219100,-0.000000,9474.636058
1323.032239,0.000000,-74.020594,9474.636058
1323.032557,-306.438199,-444.123565,9918.759623
1323.032876,-383.047749,-518.144159,10214.842000
1323.033195,0.000000,-74.020594,10140.821405
1323.033514,536.266849,296.082377,9770.718434
1323.033832,1378.971896,370.102971,9696.697840
1323.034151,2068.457845,296.082377,9326.594869
1323.034470,2528.115143,888.247130,8808.450710
1323.034788,2834.553343,666.185348,8586.388927
1323.035107,3370.820191,888.247130,8364.327145
1323.035426,3217.601092,962.267725,8142.265362
1323.035745,3447.429741,1258.350101,8364.327145
1323.036063,2681.334243,888.247130,8068.244768
1323.036382,2451.505594,518.144159,8660.409521
1323.036701,1608.800546,-0.000000,9030.512492
1323.037019,1685.410096,-0.000000,9474.636058
1323.037338,459.657299,-592.164754,9622.677246
1323.037657,306.438199,-666.185348,9918.759623
1323.037975,229.828649,-222.061783,10066.800811
1323.038294,76.609550,-0.000000,10066.800811
1323.038613,0.000000,222.061783,10140.821405
1323.038932,153.219100,444.123565,9992.780217
1323.039250,919.314598,666.185348,9252.574275
1323.039569,1149.143247,370.102971,9178.553681
1323.039888,1149.143247,-0.000000,9104.533087
1323.040206,995.924147,-0.000000,8956.491898
1323.040525,995.924147,-0.000000,8586.388927
1323.040844,766.095498,-74.020594,8734.430116
1323.041163,229.828649,148.041188,9104.533087
1323.041482,76.609550,74.020594,9178.553681
1323.041801,-229.828649,-148.041188,9252.574275
1323.042119,-1225.752797,-296.082377,9992.780217
1323.042438,-1072.533697,-444.123565,9992.780217
1323.042757,-1455.581446,-518.144159,9770.718434
1323.043076,-1532.190996,-222.061783,10066.800811
1323.043395,-1225.752797,-148.041188,9844.739029
1323.043713,-459.657299,148.041188,9770.718434
1323.044032,0.000000,518.144159,9252.574275
1323.044351,612.876398,740.205942,8956.491898
1323.044670,1072.533697,518.144159,8438.347739
1323.044989,1378.971896,1110.308913,8290.306550
1323.045308,1838.629195,1036.288319,8142.265362
1323.045626,1762.019645,962.267725,7920.203579
1323.045945,1532.190996,1110.308913,7994.224174
1323.046264,1225.752797,1184.329507,8512.368333
1323.046583,459.657299,888.247130,8660.409521
1323.046902,383.047749,592.164754,9400.615463
1323.047221,0.000000,444.123565,9696.697840
1323.047539,0.000000,222.061783,9918.759623
1323.047858,0.000000,-74.020594,9770.718434
1323.048177,0.000000,518.144159,9770.718434
1323.048496,536.266849,740.205942,9622.677246
1323.048815,383.047749,1036.288319,9326.594869
1323.049133,1378.971896,1036.288319,9030.512492
1323.049452,1225.752797,962.267725,8882.471304
1323.049771,1149.143247,888.247130,8808.450710
1323.050090,1378.971896,666.185348,8660.409521
1323.050409,1225.752797,444.123565,8512.368333
1323.050728,689.485948,814.226536,8808.450710
1323.051046,306.438199,518.144159,8734.430116
1323.051365,306.438199,814.226536,9252.574275
1323.051684,-229.828649,518.144159,9918.759623
1323.052003,-1302.362347,-0.000000,10214.842000
1323.052322,-995.924147,-0.000000,10436.903782
1323.052640,-1149.143247,-148.041188,10436.903782
1323.052959,-842.705048,-222.061783,10955.047942
1323.053278,-1149.143247,-0.000000,10436.903782
1323.053597,-536.266849,518.144159,10214.842000
1323.053916,383.047749,1036.288319,9474.636058
1323.054235,1072.533697,1332.370696,9400.615463
1323.054553,1532.190996,1036.288319,8956.491898
1323.054872,1915.238745,962.267725,8734.430116
1323.055191,2145.067394,518.144159,8512.368333
1323.055510,1915.238745,666.185348,8438.347739
1323.055829,1532.190996,296.082377,8512.368333
1323.056148,1072.533697,-0.000000,8882.471304
1323.056466,766.095498,-74.020594,9030.512492
1323.056785,459.657299,444.123565,9622.677246
1323.057104,153.219100,-0.000000,9696.697840
1323.057423,0.000000,-74.020594,9622.677246
1323.057742,153.219100,-592.164754,9918.759623
1323.058060,0.000000,-592.164754,9918.759623
1323.058379,229.828649,-222.061783,9918.759623
1323.058698,612.876398,-74.020594,9622.677246
1323.059017,1455.581446,666.185348,9178.553681
1323.059336,2068.457845,592.164754,8956.491898
1323.059655,2451.505594,148.041188,8586.388927
1323.059973,2987.772442,740.205942,8142.265362
1323.060292,3064.381992,148.041188,7772.162391
1323.060611,2451.505594,-0.000000,7698.141797
1323.060930,2145.067394,148.041188,7846.182985
1323.061249,1302.362347,-0.000000,8586.388927
1323.061567,536.266849,-0.000000,8660.409521
1323.061886,0.000000,-0.000000,8956.491898
1323.062205,-919.314598,-148.041188,9326.594869
1323.062524,-919.314598,-518.144159,9696.697840
1323.062843,-1532.190996,-740.205942,10362.883188
1323.063162,-1838.629195,-740.205942,10140.821405
1323.063480,-1608.800546,-222.061783,9844.739029
1323.063799,-1072.533697,296.082377,9770.718434
1323.064118,-612.876398,518.144159,9474.636058
1323.064437,-383.047749,1036.288319,9178.553681
1323.064756,0.000000,962.267725,8290.306550
1323.065075,459.657299,1184.329507,8290.306550
1323.065393,306.438199,962.267725,7994.224174
1323.065712,383.047749,1036.288319,8364.327145
1323.066031,0.000000,666.185348,8364.327145
1323.066350,0.000000,962.267725,8364.327145
1323.066669,-306.438199,740.205942,8734.430116
1323.066987,-383.047749,592.164754,9030.512492
1323.067306,-919.314598,148.041188,9474.636058
1323.067625,-1455.581446,-0.000000,9844.739029
1323.067944,-1149.143247,-0.000000,10362.883188
1323.068263,-1225.752797,296.082377,10140.821405
1323.068582,-766.095498,296.082377,10140.821405
1323.068900,-306.438199,1184.329507,9992.780217
1323.069219,612.876398,1184.329507,9992.780217
1323.069538,1378.971896,1776.494261,9696.697840
1323.069857,1838.629195,1554.432478,9548.656652
1323.070176,2374.896044,1110.308913,9474.636058
1323.070494,2834.553343,1184.329507,9030.512492
1323.070813,3294.210641,1406.391290,8882.471304
1323.071132,2834.553343,1110.308913,8586.388927
1323.071451,3064.381992,1480.411884,8956.491898
1323.071770,2834.553343,1036.288319,9474.636058
1323.072089,2068.457845,888.247130,9770.718434
1323.072407,1149.143247,518.144159,9844.739029
1323.072726,995.924147,296.082377,10214.842000
1323.073045,459.657299,-0.000000,10066.800811
1323.073364,229.828649,-148.041188,10732.986159
1323.073683,-229.828649,-148.041188,10732.986159
1323.074001,0.000000,518.144159,10510.924376
1323.074320,76.609550,444.123565,10214.842000
1323.074639,536.266849,444.123565,9992.780217
1323.074958,536.266849,666.185348,9622.677246
1323.075277,383.047749,666.185348,9178.553681
1323.075596,306.438199,370.102971,8956.491898
1323.075914,153.219100,592.164754,8882.471304
1323.076233,-153.219100,666.185348,8882.471304
1323.076552,0.000000,370.102971,8956.491898
1323.076871,-689.485948,74.020594,9030.512492
1323.077190,-1072.533697,-0.000000,9178.553681
1323.077509,-1608.800546,-592.164754,9252.574275
1323.077827,-1915.238745,-592.164754,9400.615463
1323.078146,-1915.238745,-740.205942,9474.636058
1323.078465,-1991.848295,-296.082377,9474.636058
1323.078784,-1532.190996,-0.000000,9326.594869
1323.079103,-919.314598,296.082377,9326.594869
1323.079421,-383.047749,444.123565,9178.553681
1323.079740,0.000000,444.123565,8660.409521
1323.080059,919.314598,740.205942,8512.368333
1323.080378,1608.800546,444.123565,8068.244768
1323.080697,1838.629195,444.123565,7402.059420
1323.081016,1915.238745,444.123565,7254.018232
1323.081334,2374.896044,740.205942,7179.997637
1323.081653,2068.457845,1036.288319,7698.141797
1323.081972,1378.971896,740.205942,8142.265362
1323.082291,1378.971896,888.247130,8290.306550
1323.082610,1225.752797,370.102971,8586.388927
1323.082928,766.095498,-0.000000,9030.512492
1323.083247,689.485948,-222.061783,9104.533087
1323.083566,383.047749,-148.041188,9474.636058
1323.083885,0.000000,-518.144159,9622.677246
1323.084204,153.219100,-148.041188,9770.718434
1323.084523,766.095498,-0.000000,9474.636058
1323.084841,1149.143247,518.144159,9252.574275
1323.085160,1302.362347,592.164754,9030.512492
1323.085479,1532.190996,148.041188,8586.388927
1323.085798,1378.971896,222.061783,8882.471304
1323.086117,1302.362347,666.185348,8660.409521
1323.086436,1762.019645,1110.308913,8512.368333
1323.086754,229.828649,518.144159,8586.388927
1323.087073,-153.219100,296.082377,9474.636058
1323.087392,-306.438199,-148.041188,9252.574275
1323.087711,-995.924147,-592.164754,10140.821405
1323.088030,-1225.752797,-518.144159,10510.924376
1323.088348,-1685.410096,-74.020594,10807.006753
1323.088667,-1532.190996,-0.000000,10510.924376
1323.088986,-1378.971896,-0.000000,11029.068536
1323.089305,-1302.362347,296.082377,11029.068536
1323.089624,-383.047749,666.185348,10510.924376
1323.089943,229.828649,740.205942,9548.656652
1323.090261,1149.143247,814.226536,9770.718434
1323.090580,1149.143247,370.102971,9474.636058
1323.090899,1685.410096,740.205942,8882.471304
1323.091218,2145.067394,444.123565,8956.491898
1323.091537,1991.848295,666.185348,8734.430116
1323.091855,2145.067394,1258.350101,8734.430116
1323.092174,1838.629195,1332.370696,8734.430116
1323.092493,1762.019645,1110.308913,8734.430116
1323.092812,1225.752797,444.123565,9474.636058
1323.093131,536.266849,296.082377,9696.697840
1323.093450,153.219100,-0.000000,10140.821405
1323.093768,76.609550,-0.000000,10066.800811
1323.094087,383.047749,740.205942,10066.800811
1323.094406,536.266849,888.247130,10140.821405
1323.094725,995.924147,888.247130,9548.656652
1323.095044,1378.971896,814.226536,9622.677246
1323.095363,1838.629195,592.164754,9178.553681
1323.095681,1532.190996,518.144159,9178.553681
1323.096000,2145.067394,370.102971,8290.306550
1323.096319,2221.676944,518.144159,8290.306550
1323.096638,1915.238745,370.102971,8290.306550
1323.096957,1302.362347,592.164754,8216.285956
1323.097275,842.705048,814.226536,8364.327145
1323.097594,536.266849,370.102971,8216.285956
1323.097913,0.000000,-0.000000,8808.450710
1323.098232,-919.314598,-296.082377,9030.512492
1323.098551,-1608.800546,-444.123565,9474.636058
1323.098870,-1225.752797,-222.061783,9696.697840
1323.099188,-2145.067394,-0.000000,9918.759623
1323.099507,-2221.676944,74.020594,10140.821405
1323.099826,-1915.238745,370.102971,9770.718434
1323.100145,-1225.752797,518.144159,9844.739029
1323.100464,-612.876398,592.164754,9326.594869
1323.100782,-459.657299,444.123565,8882.471304
1323.101101,0.000000,666.185348,8586.388927
1323.101420,0.000000,1036.288319,8364.327145
1323.101739,306.438199,740.205942,8216.285956
1323.102058,76.609550,1036.288319,8216.285956
1323.102377,459.657299,1184.329507,8290.306550
1323.102695,76.609550,592.164754,8882.471304
1323.103014,0.000000,-0.000000,8956.491898
1323.103333,229.828649,-148.041188,9474.636058
1323.103652,-229.828649,-444.123565,9474.636058
1323.103971,153.219100,-222.061783,9474.636058
1323.104290,842.705048,370.102971,9770.718434
1323.104608,1455.581446,1036.288319,9326.594869
1323.104927,2068.457845,1184.329507,9104.533087
1323.105246,2221.676944,740.205942,8956.491898
1323.105565,2987.772442,518.144159,8660.409521
1323.105884,2681.334243,296.082377,8512.368333
1323.106202,2757.943793,-0.000000,8438.347739
1323.106521,2604.724693,222.061783,8586.388927
1323.106840,2298.286494,370.102971,8808.450710
1323.107159,1915.238745,148.041188,9326.594869
1323.107478,1685.410096,-222.061783,9622.677246
1323.107797,842.705048,-518.144159,9844.739029
1323.108115,536.266849,-814.226536,10066.800811
1323.108434,153.219100,-1036.288319,10436.903782
1323.108753,0.000000,-1258.350101,10436.903782
1323.109072,0.000000,-666.185348,10658.965565
1323.109391,-229.828649,-518.144159,10436.903782
1323.109709,306.438199,-0.000000,9992.780217
1323.110028,383.047749,-0.000000,9696.697840
1323.110347,919.314598,370.102971,9474.636058
1323.110666,383.047749,-296.082377,9178.553681
1323.110985,1302.362347,-148.041188,9030.512492
1323.111304,1378.971896,222.061783,9104.533087
1323.111622,995.924147,518.144159,8734.430116
1323.111941,612.876398,740.205942,8734.430116
1323.112260,0.000000,814.226536,9104.533087
1323.112579,-612.876398,444.123565,9400.615463
1323.112898,-1072.533697,-0.000000,9400.615463
1323.113217,-1762.019645,-0.000000,9622.677246
1323.113535,-1762.019645,148.041188,9918.759623
1323.113854,-1608.800546,296.082377,9770.718434
1323.114173,-1532.190996,666.185348,9474.636058
1323.114492,-1149.143247,740.205942,9326.594869
1323.114811,-536.266849,1036.288319,9178.553681
1323.115129,-153.219100,814.226536,8734.430116
1323.115448,459.657299,1258.350101,7920.203579
1323.115767,919.314598,1258.350101,7772.162391
1323.116086,842.705048,814.226536,8068.244768
1323.116405,842.705048,518.144159,8068.244768
1323.116724,995.924147,592.164754,8586.388927
1323.117042,612.876398,1554.432478,8364.327145
1323.117361,536.266849,1702.473667,7846.182985
1323.117680,153.219100,1036.288319,8290.306550
1323.117999,0.000000,-74.020594,9918.759623
1323.118318,0.000000,-444.123565,10140.821405
1323.118636,0.000000,222.061783,9770.718434
1323.118955,153.219100,814.226536,9548.656652
1323.119274,919.314598,888.247130,9992.780217
1323.119593,1455.581446,888.247130,9918.759623
1323.119912,1608.800546,444.123565,10140.821405
1323.120231,2451.505594,592.164754,9548.656652
1323.120549,3294.210641,888.247130,8956.491898
1323.120868,3677.258390,1258.350101,8438.347739
1323.121187,3983.696590,666.185348,8586.388927
1323.121506,3600.648841,-0.000000,8660.409521
1323.121825,2757.943793,-0.000000,8660.409521
1323.122143,2068.457845,-0.000000,8882.471304
1323.122462,1762.019645,-0.000000,9548.656652
1323.122781,689.485948,518.144159,9770.718434
1323.123100,306.438199,-444.123565,10436.903782
1323.123419,-306.438199,-1406.391290,11103.089130
1323.123738,-766.095498,-666.185348,10584.944971
1323.124056,-689.485948,-74.020594,10214.842000
1323.124375,-842.705048,370.102971,9918.759623
1323.124694,-766.095498,296.082377,10362.883188
1323.125013,-306.438199,296.082377,9622.677246
1323.125332,-383.047749,444.123565,9400.615463
1323.125651,76.609550,592.164754,8808.450710
1323.125969,-153.219100,666.185348,8586.388927
1323.126288,76.609550,666.185348,8068.244768
1323.126607,0.000000,444.123565,8290.306550
1323.126926,-766.095498,518.144159,8216.285956
1323.127245,-919.314598,-0.000000,8586.388927
1323.127563,-1378.971896,296.082377,8956.491898
1323.127882,-1302.362347,666.185348,9326.594869
1323.128201,-1838.629195,222.061783,9252.574275
1323.128520,-1915.238745,-222.061783,9474.636058
1323.128839,-1455.581446,-814.226536,9548.656652
1323.129158,-1378.971896,-296.082377,9548.656652
1323.129476,-689.485948,518.144159,9400.615463
1323.129795,229.828649,1332.370696,9326.594869
1323.130114,766.095498,1554.432478,8882.471304
1323.130433,1838.629195,1110.308913,8660.409521
1323.130752,2374.896044,740.205942,8438.347739
1323.131070,2987.772442,1036.288319,8216.285956
1323.131389,3064.381992,1258.350101,7698.141797
1323.131708,3447.429741,1406.391290,8068.244768
1323.132027,2681.334243,1258.350101,7846.182985
1323.132346,2374.896044,740.205942,8364.327145
1323.132665,1608.800546,370.102971,8956.491898
1323.132983,1532.190996,518.144159,9326.594869
1323.133302,919.314598,444.123565,9474.636058
1323.133621,536.266849,-74.020594,9918.759623
1323.133940,-229.828649,-592.164754,10510.924376
1323.134259,-306.438199,-962.267725,10658.965565
1323.134578,0.000000,-370.102971,10584.944971
1323.134896,0.000000,296.082377,10140.821405
1323.135215,1302.362347,1036.288319,9696.697840
1323.135534,1225.752797,740.205942,9474.636058
1323.135853,1225.752797,296.082377,9104.533087
1323.136172,1455.581446,-0.000000,9030.512492
1323.136490,1149.143247,222.061783,8734.430116
1323.136809,995.924147,666.185348,8364.327145
1323.137128,459.657299,370.102971,8956.491898
1323.137447,76.609550,-0.000000,9326.594869
1323.137766,-995.924147,-74.020594,9696.697840
1323.138085,-919.314598,-592.164754,9992.780217
1323.138403,-1915.238745,-740.205942,10362.883188
1323.138722,-1685.410096,-888.247130,10584.944971
1323.139041,-1991.848295,-518.144159,10436.903782
1323.139352,-1378.971896,-518.144159,10807.006753
1323.139671,-1225.752797,-0.000000,10140.821405
1323.139990,-536.266849,518.144159,9622.677246
1323.140309,153.219100,666.185348,9326.594869
1323.140627,536.266849,518.144159,9178.553681
1323.140946,842.705048,518.144159,9252.574275
1323.141265,1685.410096,370.102971,8438.347739
1323.141584,1762.019645,-0.000000,8364.327145
1323.141903,2145.067394,444.123565,8290.306550
1323.142222,1685.410096,888.247130,8364.327145
1323.142541,1762.019645,1184.329507,8660.409521
1323.142860,1532.190996,962.267725,9030.512492
1323.143178,995.924147,592.164754,9104.533087
1323.143497,536.266849,-0.000000,9326.594869
1323.143816,306.438199,-0.000000,9474.636058
1323.144135,76.609550,-0.000000,9622.677246
1323.144454,612.876398,-0.000000,9474.636058
1323.144773,1149.143247,518.144159,9400.615463
1323.145092,1608.800546,444.123565,9104.533087
1323.145410,2374.896044,370.102971,8734.430116
1323.145729,2451.505594,-0.000000,8586.388927
1323.146048,2374.896044,444.123565,8290.306550
1323.146367,2298.286494,-0.000000,8068.244768
1323.146686,2298.286494,370.102971,8068.244768
1323.147005,1455.581446,-0.000000,8512.368333
1323.147324,536.266849,222.061783,8438.347739
1323.147643,0.000000,-0.000000,9252.574275
1323.147961,-612.876398,-0.000000,9178.553681
1323.148280,-1149.143247,-370.102971,9104.533087
1323.148599,-1838.629195,-962.267725,9992.780217
1323.148918,-2145.067394,-888.247130,10510.924376
1323.149237,-1915.238745,-740.205942,9770.718434
1323.149556,-2221.676944,-0.000000,9548.656652
1323.149875,-1072.533697,1036.288319,10214.842000
1323.150194,-919.314598,1554.432478,8660.409521
1323.150512,-536.266849,1702.473667,8660.409521
1323.150831,0.000000,814.226536,9696.697840
1323.151150,229.828649,1110.308913,8660.409521
1323.151469,919.314598,1406.391290,7328.038826
1323.151788,1302.362347,1110.308913,8734.430116
1323.152107,766.095498,1406.391290,9252.574275
1323.152426,1225.752797,1036.288319,8512.368333
1323.152744,689.485948,1036.288319,8438.347739
1323.153063,842.705048,296.082377,9918.759623
1323.153382,383.047749,370.102971,9178.553681
1323.153701,0.000000,-0.000000,9622.677246
1323.154020,383.047749,-666.185348,10658.965565
1323.154339,383.047749,-370.102971,11029.068536
1323.154658,842.705048,1110.308913,9474.636058
1323.154977,1455.581446,1258.350101,9474.636058
1323.155295,1608.800546,1776.494261,8956.491898
1323.155614,2145.067394,666.185348,9030.512492
1323.155933,1915.238745,666.185348,9326.594869
1323.156252,2298.286494,814.226536,9178.553681
1323.156571,2145.067394,740.205942,9178.553681
1323.156890,2451.505594,1850.514855,9104.533087
1323.157209,1455.581446,1776.494261,9178.553681
1323.157528,689.485948,1184.329507,8882.471304
1323.157846,0.000000,814.226536,9030.512492
1323.158165,-536.266849,-0.000000,10288.862594
1323.158484,-1072.533697,-222.061783,9696.697840
1323.158803,-1149.143247,-222.061783,11029.068536
1323.159122,-1915.238745,-148.041188,10881.027347
1323.159441,-1685.410096,-0.000000,10362.883188
1323.159760,-1608.800546,-370.102971,9696.697840
1323.160078,-1532.190996,-370.102971,10362.883188
1323.160397,-459.657299,370.102971,10288.862594
1323.160716,-229.828649,1406.391290,9030.512492
1323.161035,-76.609550,1406.391290,8438.347739
1323.161354,459.657299,1258.350101,8586.388927
1323.161673,383.047749,666.185348,8216.285956
1323.161992,306.438199,-74.020594,8216.285956
1323.162311,383.047749,518.144159,8364.327145
1323.162629,76.609550,814.226536,8290.306550
1323.162948,153.219100,592.164754,8882.471304
1323.163267,-306.438199,444.123565,9474.636058
1323.163586,-229.828649,-592.164754,9696.697840
1323.163905,-383.047749,-444.123565,9918.759623
1323.164224,-153.219100,296.082377,9548.656652
1323.164543,383.047749,518.144159,9326.594869
1323.164861,536.266849,740.205942,9548.656652
1323.165180,1149.143247,148.041188,9474.636058
1323.165499,1685.410096,-74.020594,9474.636058
1323.165818,2221.676944,518.144159,8290.306550
1323.166137,2834.553343,666.185348,7920.203579
1323.166456,3370.820191,518.144159,7476.080014
1323.166775,3064.381992,592.164754,7624.121203
1323.167094,2911.162892,-0.000000,7846.182985
1323.167412,2604.724693,-0.000000,8438.347739
1323.167731,2374.896044,-74.020594,8956.491898
1323.168050,1685.410096,-0.000000,9104.533087
1323.168369,1302.362347,222.061783,9030.512492
1323.168688,383.047749,-592.164754,9474.636058
1323.169007,-229.828649,-962.267725,9622.677246
1323.169326,-766.095498,-888.247130,9474.636058
1323.169645,-612.876398,-444.123565,9844.739029
1323.169963,-536.266849,-0.000000,10066.800811
1323.170282,-536.266849,-0.000000,9918.759623
1323.170601,-229.828649,-0.000000,9622.677246
1323.170920,0.000000,-222.061783,9474.636058
1323.171239,0.000000,222.061783,9474.636058
1323.171558,153.219100,-0.000000,9178.553681
1323.171877,229.828649,222.061783,9178.553681
1323.172195,0.000000,518.144159,9030.512492
1323.172514,-229.828649,592.164754,8586.388927
1323.172833,-459.657299,592.164754,8438.347739
1323.173152,-76.609550,1258.350101,8734.430116
1323.173471,-536.266849,814.226536,9104.533087
1323.173790,-1302.362347,148.041188,9178.553681
1323.174109,-1302.362347,-0.000000,9918.759623
1323.174428,-1455.581446,-0.000000,10066.800811
1323.174746,-1149.143247,370.102971,9770.718434
1323.175065,-919.314598,444.123565,9992.780217
1323.175384,0.000000,814.226536,9992.780217
1323.175703,229.828649,962.267725,9326.594869
1323.176022,919.314598,666.185348,9252.574275
1323.176341,1225.752797,518.144159,9474.636058
1323.176660,1762.019645,814.226536,9104.533087
1323.176979,1838.629195,962.267725,8808.450710
1323.177297,1762.019645,1406.391290,8808.450710
1323.177616,1838.629195,1332.370696,8734.430116
1323.177935,1608.800546,1036.288319,8586.388927
1323.178254,1378.971896,888.247130,9326.594869
1323.178573,1149.143247,444.123565,9474.636058
1323.178892,919.314598,-0.000000,9326.594869
1323.179211,612.876398,-148.041188,10140.821405
1323.179529,306.438199,-74.020594,9992.780217
1323.179848,459.657299,370.102971,9992.780217
1323.180167,536.266849,1258.350101,9696.697840
1323.180486,1149.143247,1628.453072,10066.800811
1323.180805,1378.971896,1554.432478,9400.615463
1323.181124,1685.410096,1480.411884,9104.533087
1323.181443,2068.457845,518.144159,9252.574275
1323.181762,2068.457845,666.185348,8438.347739
1323.182080,1685.410096,666.185348,8216.285956
1323.182399,1149.143247,1184.329507,8438.347739
1323.182718,1072.533697,962.267725,8956.491898
1323.183037,536.266849,814.226536,9178.553681
1323.183356,-229.828649,518.144159,9474.636058
1323.183675,-536.266849,-0.000000,9622.677246
1323.183994,-766.095498,-0.000000,9622.677246
1323.184312,-1149.143247,-0.000000,9770.718434
1323.184631,-1149.143247,-0.000000,10140.821405
1323.184950,-1149.143247,296.082377,10066.800811
1323.185269,-1149.143247,148.041188,9992.780217
1323.185588,-153.219100,444.123565,9696.697840
1323.185907,229.828649,592.164754,9400.615463
1323.186226,612.876398,-0.000000,8956.491898
1323.186545,842.705048,-0.000000,8586.388927
1323.186863,1225.752797,-222.061783,8364.327145
1323.187182,1225.752797,-0.000000,8808.450710
1323.187501,1225.752797,222.061783,8660.409521
1323.187820,995.924147,370.102971,8808.450710
1323.188139,459.657299,444.123565,8882.471304
1323.188458,229.828649,-148.041188,9104.533087
1323.188777,-383.047749,-592.164754,9326.594869
1323.189096,-842.705048,-1110.308913,9474.636058
1323.189414,-919.314598,-1554.432478,10140.821405
1323.189733,-689.485948,-1036.288319,10436.903782
1323.190052,-459.657299,-740.205942,10288.862594
1323.190371,153.219100,-444.123565,10288.862594
1323.190690,766.095498,-0.000000,9770.718434
1323.191009,1225.752797,444.123565,9474.636058
1323.191328,1991.848295,370.102971,8512.368333
1323.191646,2298.286494,592.164754,8068.244768
1323.191965,2757.943793,592.164754,7994.224174
1323.192284,2834.553343,666.185348,8068.244768
1323.192603,2298.286494,888.247130,8290.306550
1323.192922,2374.896044,888.247130,8068.244768
1323.193241,1685.410096,1110.308913,8438.347739
1323.193560,1072.533697,962.267725,8734.430116
1323.193879,766.095498,518.144159,9030.512492
1323.194197,153.219100,-0.000000,9474.636058
1323.194516,0.000000,-148.041188,9992.780217
1323.194835,0.000000,-296.082377,9844.739029
1323.195154,153.219100,518.144159,9548.656652
1323.195473,689.485948,814.226536,9474.636058
1323.195792,842.705048,962.267725,9326.594869
1323.196111,1149.143247,666.185348,8956.491898
1323.196430,1378.971896,444.123565,8660.409521
1323.196748,1149.143247,592.164754,8586.388927
1323.197067,1455.581446,444.123565,8290.306550
1323.197386,1225.752797,518.144159,8364.327145
1323.197705,536.266849,518.144159,8438.347739
1323.198024,0.000000,296.082377,8586.388927
1323.198343,-229.828649,518.144159,9030.512492
1323.198662,-766.095498,-222.061783,9548.656652
1323.198980,-1149.143247,-222.061783,9474.636058
1323.199299,-1838.629195,-592.164754,10066.800811
1323.199618,-1532.190996,-666.185348,10362.883188
1323.199937,-1991.848295,-296.082377,10436.903782
1323.200256,-1762.019645,222.061783,10436.903782
1323.200575,-1149.143247,518.144159,10362.883188
1323.200894,-995.924147,370.102971,9992.780217
1323.201213,76.609550,592.164754,9548.656652
1323.201531,689.485948,740.205942,9326.594869
1323.201850,919.314598,444.123565,9178.553681
1323.202169,1685.410096,666.185348,8734.430116
1323.202488,1685.410096,518.144159,8734.430116
1323.202807,1762.019645,1184.329507,8660.409521
1323.203126,1378.971896,1036.288319,8808.450710
1323.203445,1072.533697,888.247130,8882.471304
1323.203764,766.095498,518.144159,9400.615463
1323.204082,383.047749,370.102971,9474.636058
1323.204401,612.876398,296.082377,9918.759623
1323.204720,306.438199,222.061783,9918.759623
1323.205039,919.314598,444.123565,10066.800811
1323.205358,1149.143247,592.164754,9770.718434
1323.205677,1685.410096,962.267725,9770.718434
1323.205996,1838.629195,1184.329507,9400.615463
1323.206314,2374.896044,888.247130,9030.512492
1323.206633,2451.505594,962.267725,8586.388927
1323.206952,2987.772442,1184.329507,8438.347739
1323.207271,2374.896044,1554.432478,8290.306550
1323.207590,1685.410096,962.267725,8364.327145
1323.207909,1532.190996,740.205942,8808.450710
1323.208228,536.266849,518.144159,9104.533087
1323.208547,-153.219100,-444.123565,9400.615463
1323.208865,-536.266849,-296.082377,9696.697840
1323.209184,-1225.752797,-814.226536,10066.800811
1323.209503,-1608.800546,-888.247130,10140.821405
1323.209822,-1685.410096,-740.205942,10214.842000
1323.210141,-1608.800546,-148.041188,10066.800811
1323.210460,-1378.971896,-0.000000,9770.718434
1323.210779,-995.924147,370.102971,9844.739029
1323.211097,-689.485948,222.061783,9474.636058
1323.211416,459.657299,148.041188,9252.574275
1323.211735,229.828649,518.144159,8734.430116
1323.212054,842.705048,370.102971,8438.347739
1323.212373,1072.533697,222.061783,8290.306550
1323.212692,1302.362347,444.123565,8364.327145
1323.213011,919.314598,592.164754,8364.327145
1323.213330,689.485948,518.144159,8660.409521
1323.213648,536.266849,518.144159,9104.533087
1323.213967,76.609550,222.061783,9178.553681
1323.214286,-229.828649,222.061783,9400.615463
1323.214605,-229.828649,-74.020594,9474.636058
1323.214924,306.438199,-74.020594,9622.677246
1323.215243,229.828649,-0.000000,9474.636058
1323.215562,689.485948,-0.000000,9474.636058
1323.215881,2068.457845,-0.000000,9178.553681
1323.216199,1915.238745,592.164754,8956.491898
1323.216518,2451.505594,518.144159,8586.388927
1323.216837,2374.896044,370.102971,8438.347739
1323.217156,2451.505594,370.102971,8290.306550
1323.217475,3064.381992,518.144159,8290.306550
1323.217794,2145.067394,888.247130,8660.409521
1323.218113,1225.752797,666.185348,8808.450710
1323.218431,919.314598,444.123565,8808.450710
1323.218750,459.657299,-148.041188,9326.594869
1323.219069,-153.219100,-888.247130,9474.636058
1323.219388,-459.657299,-814.226536,10066.800811
1323.219707,-459.657299,-666.185348,10066.800811
1323.220026,-536.266849,-370.102971,10214.842000
1323.220345,-1225.752797,-296.082377,10584.944971
1323.220664,-612.876398,-222.061783,10140.821405
1323.220982,-306.438199,-0.000000,9918.759623
1323.221301,383.047749,444.123565,9326.594869
1323.221620,689.485948,148.041188,9252.574275
1323.221939,1149.143247,-0.000000,8882.471304
1323.222258,842.705048,296.082377,8660.409521
1323.222577,919.314598,370.102971,8808.450710
1323.222896,612.876398,666.185348,8512.368333
1323.223215,689.485948,740.205942,8364.327145
1323.223533,306.438199,962.267725,9104.533087
1323.223852,0.000000,962.267725,9474.636058
1323.224171,-842.705048,148.041188,9548.656652
1323.224490,-766.095498,222.061783,9992.780217
1323.224809,-766.095498,296.082377,9992.780217
1323.225128,-459.657299,444.123565,10288.862594
1323.225447,-153.219100,518.144159,9844.739029
1323.225765,306.438199,814.226536,9474.636058
1323.226084,766.095498,1036.288319,9104.533087
1323.226403,1378.971896,1184.329507,8586.388927
1323.226722,1915.238745,1036.288319,8660.409521
1323.227041,1838.629195,1258.350101,8512.368333
1323.227360,1838.629195,1110.308913,8512.368333
1323.227679,1991.848295,740.205942,8660.409521
1323.227998,1302.362347,962.267725,8438.347739
1323.228316,1149.143247,370.102971,8660.409521
1323.228635,536.266849,296.082377,9030.512492
1323.228954,0.000000,148.041188,9622.677246
1323.229273,-459.657299,-74.020594,9696.697840
1323.229592,-689.485948,-592.164754,10140.821405
1323.229911,-536.266849,-148.041188,10362.883188
1323.230230,-995.924147,222.061783,9844.739029
1323.230548,-383.047749,592.164754,9696.697840
1323.230867,0.000000,888.247130,9770.718434
1323.231186,0.000000,1258.350101,9252.574275
1323.231505,842.705048,888.247130,9104.533087
1323.231824,1072.533697,888.247130,8808.450710
1323.232143,1225.752797,814.226536,8364.327145
1323.232462,919.314598,148.041188,8216.285956
1323.232781,1072.533697,444.123565,8364.327145
1323.233099,766.095498,444.123565,8734.430116
1323.233418,306.438199,740.205942,8734.430116
1323.233737,-153.219100,518.144159,9326.594869
1323.234056,-689.485948,148.041188,9548.656652
1323.234375,-689.485948,-0.000000,9992.780217
1323.234694,-995.924147,-222.061783,9992.780217
1323.235013,-1072.533697,-74.020594,9770.718434
1323.235332,-536.266849,148.041188,9844.739029
1323.235650,-229.828649,-0.000000,9770.718434
1323.235969,459.657299,962.267725,9474.636058
1323.236288,766.095498,740.205942,9326.594869
1323.236607,1608.800546,962.267725,8808.450710
1323.236926,1915.238745,592.164754,8512.368333
1323.237245,1762.019645,222.061783,8364.327145
1323.237564,1762.019645,370.102971,8290.306550
1323.237882,1532.190996,-0.000000,8586.388927
1323.238201,919.314598,222.061783,8882.471304
1323.238520,919.314598,370.102971,9252.574275
1323.238839,153.219100,-0.000000,9326.594869
1323.239158,0.000000,-444.123565,9474.636058
1323.239477,-383.047749,-592.164754,9622.677246
1323.239796,-612.876398,-592.164754,9844.739029
1323.240115,-842.705048,-740.205942,10066.800811
1323.240433,-536.266849,-222.061783,9992.780217
1323.240752,0.000000,222.061783,9770.718434
1323.241071,536.266849,370.102971,9622.677246
1323.241390,995.924147,296.082377,9400.615463
1323.241709,1455.581446,444.123565,8808.450710
1323.242028,1685.410096,222.061783,8586.388927
1323.242346,1685.410096,296.082377,8586.388927
1323.242665,1762.019645,444.123565,8364.327145
1323.242984,1838.629195,666.185348,8438.347739
1323.243303,1225.752797,814.226536,8734.430116
1323.243622,689.485948,740.205942,9178.553681
1323.243940,153.219100,740.205942,9252.574275
1323.244259,0.000000,296.082377,9770.718434
1323.244578,229.828649,-0.000000,9474.636058
1323.244897,-383.047749,-74.020594,9770.718434
1323.245215,-306.438199,-0.000000,9770.718434
1323.245534,229.828649,296.082377,9548.656652
1323.245853,612.876398,592.164754,9104.533087
1323.246172,842.705048,1258.350101,9178.553681
1323.246491,1455.581446,1332.370696,8660.409521
1323.246809,1378.971896,1110.308913,8734.430116
1323.247128,1532.190996,888.247130,8438.347739
1323.247447,1378.971896,888.247130,8438.347739
1323.247766,995.924147,740.205942,8364.327145
1323.248085,919.314598,740.205942,8512.368333
1323.248403,383.047749,518.144159,8660.409521
1323.248722,-306.438199,222.061783,9252.574275
1323.249041,-995.924147,-0.000000,9474.636058
1323.249360,-1685.410096,-296.082377,9992.780217
1323.249679,-1149.143247,-148.041188,9992.780217
1323.249997,-1532.190996,-222.061783,10140.821405
1323.250316,-1378.971896,-0.000000,10066.800811
1323.250635,-1072.533697,740.205942,9696.697840
1323.250954,-536.266849,962.267725,9474.636058
1323.251273,-229.828649,962.267725,9400.615463
1323.251591,536.266849,1110.308913,9178.553681
1323.251910,919.314598,962.267725,8956.491898
1323.252229,1378.971896,740.205942,8586.388927
1323.252548,1072.533697,740.205942,8808.450710
1323.252866,1225.752797,444.123565,8586.388927
1323.253185,1225.752797,740.205942,8734.430116
1323.253504,536.266849,518.144159,9104.533087
1323.253823,1149.143247,666.185348,9770.718434
1323.254142,76.609550,518.144159,9770.718434
1323.254460,229.828649,296.082377,9918.759623
1323.254779,-306.438199,148.041188,10214.842000
1323.255098,-229.828649,-0.000000,10140.821405
1323.255417,229.828649,-0.000000,9770.718434
1323.255736,689.485948,740.205942,9918.759623
1323.256054,1225.752797,1110.308913,9622.677246
1323.256373,1915.238745,888.247130,9400.615463
1323.256692,2451.505594,1110.308913,8882.471304
1323.257011,2528.115143,740.205942,8512.368333
1323.257330,2681.334243,666.185348,8290.306550
1323.257648,2298.286494,518.144159,8438.347739
1323.257967,1838.629195,370.102971,8512.368333
1323.258286,1225.752797,444.123565,8808.450710
1323.258605,536.266849,74.020594,9252.574275
1323.258924,153.219100,-0.000000,9622.677246
1323.259242,-689.485948,-444.123565,9474.636058
1323.259561,-995.924147,-444.123565,9696.697840
1323.259880,-1072.533697,-888.247130,10140.821405
1323.260199,-1532.190996,-592.164754,10066.800811
1323.260517,-1532.190996,-444.123565,10066.800811
1323.260836,-1225.752797,-0.000000,10066.800811
1323.261155,-459.657299,296.082377,9770.718434
1323.261474,-153.219100,592.164754,9252.574275
1323.261793,0.000000,370.102971,8808.450710
1323.262111,1072.533697,888.247130,8512.368333
1323.262430,1072.533697,1036.288319,8216.285956
1323.262749,1072.533697,296.082377,8216.285956
1323.263068,689.485948,666.185348,8142.265362
1323.263387,383.047749,814.226536,7994.224174
1323.263705,0.000000,814.226536,8438.347739
1323.264024,-383.047749,740.205942,9252.574275
1323.264343,-842.705048,444.123565,9474.636058
1323.264662,-1072.533697,-0.000000,9400.615463
1323.264981,-1378.971896,-444.123565,9918.759623
1323.265299,-842.705048,-518.144159,10362.883188
1323.265618,-383.047749,-0.000000,10362.883188
1323.265937,76.609550,444.123565,9622.677246
1323.266256,842.705048,740.205942,9474.636058
1323.266575,1225.752797,1110.308913,9104.533087
1323.266893,1991.848295,962.267725,8956.491898
1323.267212,2374.896044,518.144159,8512.368333
1323.267531,2451.505594,518.144159,8438.347739
1323.267850,2374.896044,592.164754,8364.327145
1323.268168,2451.505594,740.205942,8438.347739
1323.268487,2145.067394,592.164754,8882.471304
1323.268806,1838.629195,444.123565,8882.471304
1323.269125,919.314598,-0.000000,9178.553681
1323.269444,536.266849,-222.061783,9474.636058
1323.269762,0.000000,-666.185348,9844.739029
1323.270081,383.047749,-592.164754,10436.903782
1323.270400,-229.828649,-666.185348,10288.862594
1323.270719,-459.657299,-0.000000,10288.862594
1323.271038,-153.219100,518.144159,9992.780217
1323.271356,153.219100,444.123565,9918.759623
1323.271675,306.438199,592.164754,10214.842000
1323.271994,842.705048,592.164754,9548.656652
1323.272313,1532.190996,518.144159,8882.471304
1323.272632,1685.410096,296.082377,8956.491898
1323.272950,1915.238745,296.082377,8512.368333
1323.273269,1991.848295,814.226536,8512.368333
1323.273588,1225.752797,962.267725,8290.306550
1323.273907,995.924147,1036.288319,8882.471304
1323.274226,383.047749,814.226536,9030.512492
1323.274544,153.219100,-0.000000,9326.594869
1323.274863,-459.657299,-74.020594,9696.697840
1323.275182,-612.876398,-222.061783,9770.718434
1323.275501,-536.266849,-148.041188,9696.697840
1323.275819,-612.876398,444.123565,9474.636058
1323.276138,-229.828649,888.247130,9548.656652
1323.276457,0.000000,592.164754,9252.574275
1323.276776,153.219100,666.185348,9474.636058
1323.277095,842.705048,370.102971,8956.491898
1323.277413,919.314598,518.144159,8438.347739
1323.277732,995.924147,518.144159,8512.368333
1323.278051,1072.533697,814.226536,8586.388927
1323.278370,995.924147,888.247130,8438.347739
1323.278689,919.314598,444.123565,8512.368333
1323.279007,459.657299,296.082377,8956.491898
1323.279326,76.609550,-222.061783,9030.512492
1323.279645,-229.828649,-148.041188,9252.574275
1323.279964,-766.095498,-370.102971,9474.636058
1323.280283,-766.095498,-444.123565,9770.718434
1323.280601,-1149.143247,-148.041188,9696.697840
1323.280920,-842.705048,296.082377,9992.780217
1323.281239,-306.438199,740.205942,9918.759623
1323.281558,229.828649,962.267725,9548.656652
1323.281877,689.485948,814.226536,8882.471304
1323.282195,842.705048,666.185348,8956.491898
1323.282514,1302.362347,444.123565,8734.430116
1323.282833,1608.800546,518.144159,8364.327145
1323.283152,1685.410096,370.102971,8512.368333
1323.283470,1685.410096,962.267725,8586.388927
1323.283789,1225.752797,814.226536,9104.533087
1323.284108,1149.143247,666.185348,8956.491898
1323.284427,766.095498,814.226536,9252.574275
1323.284746,306.438199,74.020594,9474.636058
1323.285064,0.000000,222.061783,9696.697840
1323.285383,-76.609550,-0.000000,10288.862594
1323.285702,153.219100,370.102971,9844.739029
1323.286021,306.438199,296.082377,10362.883188
1323.286340,459.657299,370.102971,9992.780217
1323.286658,1072.533697,592.164754,9474.636058
1323.286977,1838.629195,592.164754,9030.512492
1323.287296,1685.410096,592.164754,8882.471304
1323.287615,2068.457845,814.226536,8882.471304
1323.287934,1685.410096,370.102971,8364.327145
1323.288252,2068.457845,888.247130,8586.388927
1323.288571,1302.362347,518.144159,8586.388927
1323.288890,842.705048,518.144159,8734.430116
1323.289209,383.047749,-0.000000,9252.574275
1323.289528,-153.219100,-518.144159,9770.718434
1323.289846,-919.314598,-1036.288319,9696.697840
1323.290165,-1225.752797,-1110.308913,10066.800811
1323.290484,-1302.362347,-962.267725,10362.883188
1323.290803,-1378.971896,-296.082377,10362.883188
1323.291121,-1072.533697,-148.041188,10214.842000
1323.291440,-689.485948,-0.000000,9844.739029
1323.291759,-153.219100,222.061783,9696.697840
1323.292078,229.828649,296.082377,9326.594869
1323.292397,842.705048,222.061783,9030.512492
1323.292715,1685.410096,296.082377,8734.430116
1323.293034,995.924147,296.082377,8586.388927
1323.293353,1149.143247,444.123565,8142.265362
1323.293672,1225.752797,962.267725,8216.285956
1323.293991,1225.752797,962.267725,8438.347739
1323.294309,766.095498,814.226536,8660.409521
1323.294628,536.266849,444.123565,8882.471304
1323.294947,153.219100,-148.041188,9252.574275
1323.295266,76.609550,-0.000000,9696.697840
1323.295585,0.000000,-0.000000,9770.718434
1323.295903,306.438199,-0.000000,9770.718434
1323.296222,306.438199,518.144159,9622.677246
1323.296541,842.705048,666.185348,9770.718434
1323.296860,1302.362347,814.226536,9474.636058
1323.297179,1608.800546,666.185348,9178.553681
1323.297497,1762.019645,-0.000000,9178.553681
1323.297816,2221.676944,518.144159,9178.553681
1323.298135,1762.019645,666.185348,8364.327145
1323.298454,1608.800546,518.144159,8586.388927
1323.298773,1072.533697,296.082377,8956.491898
1323.299091,689.485948,-0.000000,9474.636058
1323.299410,306.438199,-0.000000,9252.574275
1323.299729,-229.828649,-222.061783,9696.697840
1323.300048,-919.314598,-444.123565,9992.780217
1323.300366,-153.219100,-370.102971,9992.780217
1323.300685,-1302.362347,-592.164754,9918.759623
1323.301004,-1149.143247,-0.000000,9474.636058
1323.301323,-842.705048,370.102971,9326.594869
1323.301642,-689.485948,444.123565,9326.594869
1323.301960,0.000000,-74.020594,9252.574275
1323.302279,153.219100,740.205942,8808.450710
1323.302598,306.438199,666.185348,8512.368333
1323.302917,536.266849,666.185348,8364.327145
1323.303236,842.705048,888.247130,8438.347739
1323.303554,1225.752797,1406.391290,8068.244768
1323.303873,536.266849,1406.391290,8216.285956
1323.304192,459.657299,1406.391290,8290.306550
1323.304511,459.657299,1406.391290,8586.388927
1323.304830,153.219100,1258.350101,8956.491898
1323.305148,0.000000,740.205942,9104.533087
1323.305467,0.000000,592.164754,9474.636058
1323.305786,0.000000,592.164754,9474.636058
1323.306105,459.657299,1110.308913,9474.636058
1323.306424,689.485948,888.247130,9400.615463
1323.306742,1378.971896,1406.391290,9326.594869
1323.307061,2221.676944,1184.329507,8882.471304
1323.307380,2221.676944,888.247130,8808.450710
1323.307699,2374.896044,666.185348,8290.306550
1323.308017,2374.896044,296.082377,8586.388927
1323.308336,1838.629195,-148.041188,8808.450710
1323.308655,1532.190996,-74.020594,8956.491898
1323.308974,689.485948,-148.041188,9400.615463
1323.309293,383.047749,-296.082377,9696.697840
1323.309611,0.000000,-740.205942,9918.759623
1323.309930,-383.047749,-1036.288319,10436.903782
1323.310249,-689.485948,-1036.288319,10362.883188
1323.310568,-919.314598,-1184.329507,10732.986159
1323.310887,-995.924147,-962.267725,10732.986159
1323.311205,-1149.143247,-666.185348,10807.006753
1323.311524,-383.047749,-148.041188,10214.842000
1323.311843,-153.219100,-0.000000,9844.739029
1323.312162,536.266849,-0.000000,9474.636058
1323.312481,995.924147,-0.000000,8956.491898
1323.312799,612.876398,-296.082377,8438.347739
1323.313118,1072.533697,-0.000000,8660.409521
1323.313437,1149.143247,222.061783,8512.368333
1323.313756,689.485948,666.185348,8290.306550
1323.314075,842.705048,740.205942,8290.306550
1323.314393,153.219100,888.247130,8808.450710
1323.314712,-153.219100,666.185348,8882.471304
1323.315031,0.000000,-0.000000,9178.553681
1323.315350,-383.047749,-0.000000,9326.594869
1323.315668,-229.828649,-0.000000,9548.656652
1323.315987,153.219100,592.164754,9030.512492
1323.316306,383.047749,962.267725,9178.553681
1323.316625,842.705048,1110.308913,8956.491898
1323.316944,1378.971896,1110.308913,8512.368333
1323.317262,1608.800546,666.185348,8364.327145
1323.317581,1915.238745,666.185348,8216.285956
1323.317900,1915.238745,888.247130,8216.285956
1323.318219,1838.629195,740.205942,8290.306550
1323.318538,1685.410096,666.185348,8734.430116
1323.318856,1302.362347,962.267725,8808.450710
1323.319175,383.047749,666.185348,8734.430116
1323.319494,153.219100,592.164754,9178.553681
1323.319813,-306.438199,222.061783,9474.636058
1323.320132,-842.705048,-296.082377,9770.718434
1323.320450,-995.924147,-296.082377,9770.718434
1323.320769,-1225.752797,-148.041188,10066.800811
1323.321088,-995.924147,-0.000000,10066.800811
1323.321407,-612.876398,444.123565,9918.759623
1323.321726,-459.657299,666.185348,9548.656652
1323.322044,0.000000,444.123565,9622.677246
1323.322363,0.000000,888.247130,9548.656652
1323.322682,76.609550,370.102971,9252.574275
1323.323001,459.657299,296.082377,9030.512492
1323.323319,689.485948,518.144159,8882.471304
1323.323638,383.047749,814.226536,8734.430116
1323.323957,153.219100,814.226536,8882.471304
1323.324276,76.609550,888.247130,9252.574275
1323.324595,0.000000,1184.329507,9252.574275
1323.324913,-383.047749,1036.288319,9474.636058
1323.325232,-536.266849,740.205942,9474.636058
1323.325551,-536.266849,814.226536,9770.718434
1323.325870,-612.876398,666.185348,9474.636058
1323.326189,0.000000,888.247130,9622.677246
1323.326507,229.828649,1258.350101,9252.574275
1323.326826,995.924147,1332.370696,9400.615463
1323.327145,1455.581446,1184.329507,9178.553681
1323.327464,2145.067394,1110.308913,8882.471304
1323.327783,2145.067394,740.205942,8586.388927
1323.328101,2221.676944,740.205942,8586.388927
1323.328420,2145.067394,592.164754,8586.388927
1323.328739,1685.410096,518.144159,8734.430116
1323.329058,1532.190996,222.061783,8808.450710
1323.329377,842.705048,222.061783,9400.615463
1323.329695,689.485948,-0.000000,9696.697840
1323.330014,76.609550,-296.082377,9844.739029
1323.330333,0.000000,-518.144159,10288.862594
1323.330652,-383.047749,-1036.288319,10362.883188
1323.330970,-536.266849,-666.185348,10362.883188
1323.331289,-383.047749,-148.041188,10362.883188
1323.331608,-306.438199,-0.000000,10362.883188
1323.331927,919.314598,518.144159,9992.780217
1323.332246,995.924147,222.061783,9548.656652
1323.332564,995.924147,888.247130,9104.533087
1323.332883,1378.971896,148.041188,8882.471304
1323.333202,1378.971896,222.061783,8586.388927
1323.333521,1302.362347,148.041188,9030.512492
1323.333840,766.095498,444.123565,8882.471304
1323.334158,306.438199,666.185348,8882.471304
1323.334477,0.000000,592.164754,9252.574275
1323.334796,-229.828649,222.061783,9326.594869
1323.335115,-612.876398,296.082377,9400.615463
1323.335434,-995.924147,-0.000000,9400.615463
1323.335752,-1072.533697,-74.020594,9474.636058
1323.336071,-1225.752797,-148.041188,9474.636058
1323.336390,-612.876398,222.061783,9474.636058
1323.336709,-383.047749,666.185348,8956.491898
1323.337028,0.000000,1036.288319,8734.430116
1323.337346,383.047749,962.267725,8660.409521
1323.337665,919.314598,888.247130,8364.327145
1323.337984,1302.362347,444.123565,8660.409521
1323.338303,1915.238745,-0.000000,8142.265362
1323.338621,1532.190996,148.041188,8364.327145
1323.338940,1302.362347,222.061783,8290.306550
1323.339259,1225.752797,444.123565,8512.368333
1323.339578,919.314598,-0.000000,8808.450710
1323.339897,536.266849,-0.000000,9178.553681
1323.340215,612.876398,-148.041188,9400.615463
1323.340534,76.609550,-296.082377,9548.656652
1323.340853,0.000000,-740.205942,9622.677246
1323.341172,0.000000,-444.123565,9992.780217
1323.341491,0.000000,-444.123565,9992.780217
1323.341809,536.266849,370.102971,9548.656652
1323.342128,842.705048,518.144159,9474.636058
1323.342447,1225.752797,518.144159,9400.615463
1323.342766,1302.362347,592.164754,9252.574275
1323.343085,1455.581446,370.102971,8808.450710
1323.343403,1455.581446,222.061783,8512.368333
1323.343722,1532.190996,592.164754,8808.450710
1323.344041,1455.581446,592.164754,9104.533087
1323.344360,919.314598,814.226536,8882.471304
1323.344678,536.266849,962.267725,9326.594869
1323.344997,0.000000,740.205942,9326.594869
1323.345316,-229.828649,592.164754,9548.656652
1323.345635,-459.657299,-0.000000,9844.739029
1323.345954,-612.876398,-0.000000,10066.800811
1323.346272,-306.438199,148.041188,9918.759623
1323.346591,0.000000,814.226536,9770.718434
1323.346910,383.047749,962.267725,9696.697840
1323.347229,1072.533697,1184.329507,9400.615463
1323.347547,1378.971896,1036.288319,9178.553681
1323.347866,1455.581446,666.185348,8882.471304
1323.348185,1685.410096,592.164754,8660.409521
1323.348504,1915.238745,296.082377,8586.388927
1323.348823,1455.581446,518.144159,8660.409521
1323.349141,1072.533697,518.144159,8512.368333
1323.349460,689.485948,666.185348,8956.491898
1323.349779,383.047749,370.102971,9400.615463
1323.350098,0.000000,-0.000000,9770.718434
1323.350416,-536.266849,-296.082377,9770.718434
1323.350735,-919.314598,-370.102971,10066.800811
1323.351054,-842.705048,-296.082377,10214.842000
1323.351373,-919.314598,-74.020594,10362.883188
1323.351692,-459.657299,-0.000000,10362.883188
1323.352010,-383.047749,-0.000000,9992.780217
1323.352329,153.219100,370.102971,9326.594869
1323.352648,689.485948,222.061783,9326.594869
1323.352967,1455.581446,-74.020594,8808.450710
1323.353285,1149.143247,444.123565,8734.430116
1323.353604,1302.362347,666.185348,8586.388927
1323.353923,1378.971896,962.267725,8512.368333
1323.354242,1225.752797,740.205942,8660.409521
1323.354561,1072.533697,444.123565,8882.471304
1323.354879,536.266849,814.226536,9178.553681
1323.355198,153.219100,666.185348,9252.574275
1323.355517,0.000000,370.102971,9326.594869
1323.355836,0.000000,370.102971,9548.656652
1323.356154,-229.828649,-0.000000,9474.636058
1323.356473,-153.219100,740.205942,9474.636058
1323.356792,0.000000,1036.288319,9326.594869
1323.357111,459.657299,1036.288319,9104.533087
1323.357430,536.266849,1036.288319,9178.553681
1323.357748,1225.752797,592.164754,9178.553681
1323.358067,1225.752797,666.185348,8808.450710
1323.358386,1302.362347,592.164754,8586.388927
1323.358705,1378.971896,666.185348,8438.347739
1323.359023,1149.143247,592.164754,8734.430116
1323.359342,919.314598,444.123565,9030.512492
1323.359661,383.047749,370.102971,8882.471304
1323.359980,306.438199,296.082377,9104.533087
1323.360299,0.000000,-74.020594,9474.636058
1323.360617,-153.219100,-518.144159,9992.780217
1323.360936,-536.266849,-814.226536,9696.697840
1323.361255,-306.438199,-518.144159,9696.697840
1323.361574,-383.047749,-444.123565,9992.780217
1323.361892,-229.828649,-222.061783,10066.800811
1323.362211,-383.047749,-0.000000,10140.821405
1323.362530,459.657299,-0.000000,9548.656652
1323.362849,766.095498,-0.000000,9252.574275
1323.363168,995.924147,222.061783,9030.512492
1323.363486,1225.752797,296.082377,8808.450710
1323.363805,1608.800546,148.041188,8882.471304
1323.364124,1378.971896,666.185348,8438.347739
1323.364443,1149.143247,444.123565,8734.430116
1323.364761,1149.143247,814.226536,9104.533087
1323.365080,689.485948,-0.000000,9104.533087
1323.365399,536.266849,148.041188,9252.574275
1323.365718,459.657299,148.041188,9400.615463
1323.366037,229.828649,222.061783,9326.594869
1323.366355,536.266849,666.185348,9548.656652
1323.366674,612.876398,814.226536,9252.574275
1323.366993,919.314598,814.226536,9326.594869
1323.367312,766.095498,740.205942,8882.471304
1323.367630,1072.533697,888.247130,9104.533087
1323.367949,995.924147,666.185348,8734.430116
1323.368268,1302.362347,518.144159,8660.409521
1323.368587,1225.752797,222.061783,8882.471304
1323.368906,1302.362347,222.061783,8808.450710
1323.369224,1072.533697,666.185348,8808.450710
1323.369543,766.095498,592.164754,8956.491898
1323.369862,229.828649,518.144159,9326.594869
1323.370181,153.219100,518.144159,9178.553681
1323.370499,0.000000,444.123565,9474.636058
1323.370818,-229.828649,-74.020594,9474.636058
1323.371137,-76.609550,-0.000000,9992.780217
1323.371456,-536.266849,-148.041188,9770.718434
1323.371775,-306.438199,-0.000000,9622.677246
1323.372093,-306.438199,148.041188,9992.780217
1323.372412,0.000000,-0.000000,9770.718434
1323.372731,0.000000,370.102971,10066.800811
1323.373050,306.438199,296.082377,9548.656652
1323.373368,459.657299,74.020594,9400.615463
1323.373687,612.876398,296.082377,9474.636058
1323.374006,306.438199,-0.000000,9474.636058
1323.374325,383.047749,148.041188,9400.615463
1323.374644,153.219100,444.123565,9400.615463
1323.374962,0.000000,814.226536,9326.594869
1323.375281,0.000000,666.185348,9326.594869
1323.375600,0.000000,296.082377,9474.636058
1323.375919,0.000000,370.102971,9474.636058
1323.376237,229.828649,370.102971,9474.636058
1323.376556,306.438199,518.144159,9178.553681
1323.376875,612.876398,814.226536,9400.615463
1323.377194,1532.190996,888.247130,9326.594869
1323.377513,1225.752797,888.247130,9178.553681
1323.377831,1838.629195,1184.329507,8808.450710
1323.378150,1991.848295,740.205942,8660.409521
1323.378469,2374.896044,518.144159,8512.368333
1323.378788,1838.629195,296.082377,8586.388927
1323.379106,1532.190996,370.102971,8586.388927
1323.379425,1532.190996,370.102971,8660.409521
1323.379744,766.095498,592.164754,8882.471304
1323.380063,612.876398,444.123565,9474.636058
1323.380382,383.047749,-0.000000,9474.636058
1323.380700,-153.219100,-148.041188,9548.656652
1323.381019,-459.657299,-518.144159,9696.697840
1323.381338,-229.828649,-296.082377,9696.697840
1323.381657,-995.924147,-74.020594,9696.697840
1323.381976,-229.828649,370.102971,9548.656652
1323.382294,76.609550,888.247130,9326.594869
1323.382613,306.438199,814.226536,9326.594869
1323.382932,383.047749,740.205942,9252.574275
1323.383251,689.485948,444.123565,8808.450710
1323.383569,842.705048,-0.000000,8660.409521
1323.383888,612.876398,-0.000000,8660.409521
1323.384207,689.485948,-0.000000,8956.491898
1323.384526,306.438199,518.144159,8808.450710
1323.384845,383.047749,444.123565,8660.409521
1323.385163,153.219100,296.082377,9326.594869
1323.385482,0.000000,222.061783,9252.574275
1323.385801,-383.047749,-0.000000,9178.553681
1323.386120,-383.047749,-0.000000,9622.677246
1323.386438,-459.657299,-222.061783,9918.759623
1323.386757,0.000000,-0.000000,9474.636058
1323.387076,153.219100,518.144159,9622.677246
1323.387395,995.924147,1036.288319,9474.636058
1323.387714,1532.190996,888.247130,8808.450710
1323.388032,1991.848295,888.247130,8438.347739
1323.388351,2374.896044,518.144159,8142.265362
1323.388670,2298.286494,296.082377,8290.306550
1323.388989,1991.848295,222.061783,8512.368333
1323.389307,1532.190996,296.082377,8808.450710
1323.389626,1532.190996,444.123565,9104.533087
1323.389945,766.095498,74.020594,9400.615463
1323.390264,689.485948,-0.000000,9622.677246
1323.390583,76.609550,-296.082377,9844.739029
1323.390901,0.000000,-1184.329507,9918.759623
1323.391220,-306.438199,-592.164754,9992.780217
1323.391539,-306.438199,-740.205942,10362.883188
1323.391858,-459.657299,-444.123565,10066.800811
1323.392176,-153.219100,-74.020594,10140.821405
1323.392495,76.609550,666.185348,10288.862594
1323.392814,612.876398,666.185348,9622.677246
1323.393133,766.095498,592.164754,9252.574275
1323.393452,919.314598,444.123565,9474.636058
1323.393770,1225.752797,74.020594,8808.450710
1323.394089,1149.143247,592.164754,8586.388927
1323.394408,1302.362347,962.267725,8882.471304
1323.394727,1149.143247,1036.288319,8882.471304
1323.395045,612.876398,1184.329507,8808.450710
1323.395364,306.438199,814.226536,9104.533087
1323.395683,-383.047749,518.144159,9400.615463
1323.396002,-536.266849,518.144159,9400.615463
1323.396321,-536.266849,444.123565,9770.718434
1323.396639,-689.485948,444.123565,9770.718434
1323.396958,-306.438199,814.226536,9474.636058
1323.397277,-153.219100,888.247130,9326.594869
1323.397596,229.828649,888.247130,9178.553681
1323.397914,536.266849,1036.288319,8882.471304
1323.398233,1455.581446,444.123565,8438.347739
1323.398552,689.485948,592.164754,8290.306550
1323.398871,1302.362347,814.226536,8364.327145
1323.399190,1302.362347,740.205942,8142.265362
1323.399508,1149.143247,888.247130,8142.265362
1323.399827,689.485948,740.205942,8364.327145
1323.400146,0.000000,666.185348,8808.450710
1323.400465,-76.609550,296.082377,8882.471304
1323.400783,-995.924147,-370.102971,9548.656652
1323.401102,-919.314598,-814.226536,9844.739029
1323.401421,-919.314598,-666.185348,10214.842000
1323.401740,-689.485948,-74.020594,9844.739029
1323.402059,-459.657299,148.041188,9548.656652
1323.402377,0.000000,370.102971,9770.718434
1323.402696,0.000000,-0.000000,9474.636058
1323.403015,1072.533697,444.123565,9252.574275
1323.403334,1302.362347,666.185348,8956.491898
1323.403652,1608.800546,370.102971,9030.512492
1323.403971,1762.019645,-0.000000,8586.388927
1323.404290,1455.581446,222.061783,8512.368333
1323.404609,1378.971896,296.082377,8512.368333
1323.404928,1149.143247,444.123565,8882.471304
1323.405246,766.095498,370.102971,9030.512492
1323.405565,689.485948,518.144159,9178.553681
1323.405884,153.219100,444.123565,9474.636058
1323.406203,-459.657299,-74.020594,9696.697840
1323.406521,-383.047749,74.020594,10066.800811
1323.406840,-383.047749,444.123565,9844.739029
1323.407159,153.219100,518.144159,10066.800811
1323.407478,306.438199,1036.288319,9622.677246
1323.407797,842.705048,888.247130,9474.636058
1323.408115,1225.752797,962.267725,8956.491898
1323.408434,1532.190996,1036.288319,8660.409521
1323.408753,1685.410096,518.144159,8438.347739
1323.409072,1762.019645,740.205942,8364.327145
1323.409390,1149.143247,814.226536,8068.244768
1323.409709,995.924147,962.267725,8586.388927
1323.410028,612.876398,814.226536,8956.491898
1323.410347,0.000000,222.061783,9474.636058
1323.410666,-536.266849,222.061783,9474.636058
1323.410984,-995.924147,-148.041188,9770.718434
1323.411303,-1072.533697,-592.164754,9844.739029
1323.411622,-1225.752797,-814.226536,10214.842000
1323.411941,-1302.362347,-666.185348,10362.883188
1323.412259,-1072.533697,-444.123565,10288.862594
1323.412578,-536.266849,-0.000000,10066.800811
1323.412897,0.000000,222.061783,9622.677246
1323.413216,766.095498,370.102971,9252.574275
1323.413535,1225.752797,592.164754,9030.512492
1323.413853,1685.410096,444.123565,8956.491898
1323.414172,1608.800546,592.164754,8660.409521
1323.414491,1991.848295,592.164754,8364.327145
1323.414810,1455.581446,592.164754,8882.471304
1323.415128,1149.143247,666.185348,9104.533087
1323.415447,383.047749,296.082377,9178.553681
1323.415766,229.828649,296.082377,9474.636058
1323.416085,-306.438199,296.082377,9844.739029
1323.416404,-306.438199,148.041188,10066.800811
