#time,accel_x,accel_y,accel_z
1069.939084,536.266849,370.102971,9400.615463
1069.939403,383.047749,518.144159,9252.574275
1069.939722,536.266849,296.082377,9474.636058
1069.940041,306.438199,444.123565,9178.553681
1069.940360,306.438199,518.144159,9400.615463
1069.940679,229.828649,370.102971,9252.574275
1069.940998,383.047749,444.123565,9178.553681
1069.941317,612.876398,222.061783,9030.512492
1069.941636,383.047749,370.102971,9326.594869
1069.941955,383.047749,222.061783,9178.553681
1069.942274,383.047749,222.061783,9400.615463
1069.942593,536.266849,370.102971,9400.615463
1069.942912,383.047749,-0.000000,9474.636058
1069.943231,536.266849,444.123565,9178.553681
1069.943550,612.876398,444.123565,9474.636058
1069.943869,536.266849,592.164754,9400.615463
1069.944188,612.876398,222.061783,9400.615463
1069.944507,153.219100,222.061783,9178.553681
1069.944826,689.485948,592.164754,9178.553681
1069.945145,153.219100,222.061783,9400.615463
1069.945464,383.047749,518.144159,9400.615463
1069.945783,383.047749,370.102971,9252.574275
1069.946102,306.438199,222.061783,9474.636058
1069.946421,459.657299,444.123565,9252.574275
1069.946740,612.876398,370.102971,9326.594869
1069.947059,306.438199,444.123565,9400.615463
1069.947378,459.657299,518.144159,9474.636058
1069.947697,383.047749,148.041188,9548.656652
1069.948016,153.219100,518.144159,9326.594869
1069.948335,383.047749,370.102971,9474.636058
1069.948654,536.266849,444.123565,9326.594869
1069.948973,229.828649,222.061783,9326.594869
1069.949292,153.219100,370.102971,9252.574275
1069.949611,306.438199,296.082377,9252.574275
1069.949930,383.047749,444.123565,9326.594869
1069.950249,459.657299,444.123565,9178.553681
1069.950568,612.876398,370.102971,9252.574275
1069.950887,153.219100,148.041188,9252.574275
1069.951206,766.095498,444.123565,9252.574275
1069.951525,459.657299,592.164754,9326.594869
1069.951844,536.266849,222.061783,9326.594869
1069.952163,612.876398,222.061783,9104.533087
1069.952482,536.266849,518.144159,9252.574275
1069.952801,306.438199,518.144159,9252.574275
1069.953120,536.266849,370.102971,9326.594869
1069.953439,459.657299,592.164754,9252.574275
1069.953758,459.657299,814.226536,9770.718434
1069.954077,153.219100,148.041188,9178.553681
1069.954396,536.266849,518.144159,9178.553681
1069.954715,306.438199,222.061783,9326.594869
1069.955034,229.828649,444.123565,9252.574275
1069.955353,536.266849,296.082377,9252.574275
1069.955672,459.657299,444.123565,9252.574275
1069.955991,306.438199,370.102971,9326.594869
1069.956310,383.047749,444.123565,9400.615463
1069.956629,459.657299,222.061783,9178.553681
1069.956948,76.609550,370.102971,9104.533087
1069.957267,459.657299,592.164754,9326.594869
1069.957586,306.438199,222.061783,9178.553681
1069.957905,306.438199,222.061783,9252.574275
1069.958224,459.657299,444.123565,9400.615463
1069.958543,229.828649,444.123565,9178.553681
1069.958862,459.657299,592.164754,9326.594869
1069.959181,229.828649,222.061783,9326.594869
1069.959500,612.876398,444.123565,9474.636058
1069.959819,229.828649,592.164754,9400.615463
1069.960138,76.609550,-0.000000,8956.491898
1069.960457,229.828649,-74.020594,9104.533087
1069.960776,153.219100,-370.102971,8956.491898
1069.961095,689.485948,-518.144159,9178.553681
1069.961414,0.000000,-444.123565,8956.491898
1069.961733,-229.828649,-370.102971,8956.491898
1069.962052,0.000000,-518.144159,9104.533087
1069.962371,0.000000,-666.185348,8956.491898
1069.962690,-306.438199,-666.185348,8586.388927
1069.963009,-842.705048,-518.144159,8290.306550
1069.963328,-919.314598,-592.164754,8290.306550
1069.963647,-1225.752797,-1184.329507,8586.388927
1069.963966,-1532.190996,-888.247130,9030.512492
1069.964285,-1532.190996,-1406.391290,8882.471304
1069.964604,-1991.848295,-1480.411884,8956.491898
1069.964923,-2068.457845,-1406.391290,8882.471304
1069.965242,-1685.410096,-962.267725,8586.388927
1069.965561,-1685.410096,-814.226536,8290.306550
1069.965880,-1915.238745,-1184.329507,7550.100608
1069.966199,-2221.676944,-1110.308913,7994.224174
1069.966518,-2145.067394,-1554.432478,7846.182985
1069.966837,-1915.238745,-1850.514855,8068.244768
1069.967156,-1991.848295,-2072.576638,8364.327145
1069.967475,-2451.505594,-2220.617826,8956.491898
1069.967794,-2374.896044,-1998.556043,9178.553681
1069.968113,-2221.676944,-2146.597232,8956.491898
1069.968432,-2068.457845,-2072.576638,8956.491898
1069.968751,-2451.505594,-1702.473667,8438.347739
1069.969070,-2451.505594,-1776.494261,8142.265362
1069.969389,-2528.115143,-2368.659014,8438.347739
1069.969708,-2987.772442,-3256.906145,8956.491898
1069.970027,-2987.772442,-4071.132681,9918.759623
1069.970346,-3753.867940,-4367.215058,10066.800811
1069.970665,-3524.039291,-4663.297435,10881.027347
1069.970984,-3600.648841,-4441.235652,11325.150913
1069.971303,-3524.039291,-3552.988522,11325.150913
1069.971622,-2911.162892,-3108.864956,11103.089130
1069.971941,-2757.943793,-2516.700203,11103.089130
1069.972260,-2757.943793,-2516.700203,10881.027347
1069.972579,-2451.505594,-2516.700203,10436.903782
1069.972898,-2604.724693,-2886.803174,10584.944971
1069.973217,-2681.334243,-2886.803174,10214.842000
1069.973536,-2681.334243,-3330.926739,9992.780217
1069.973855,-3064.381992,-3849.070898,10362.883188
1069.974174,-3830.477490,-4441.235652,10658.965565
1069.974493,-4213.525239,-4737.318029,11029.068536
1069.974812,-4136.915689,-4441.235652,11769.274478
1069.975131,-4519.963438,-4145.153275,12065.356855
1069.975450,-4903.011187,-3923.091493,12065.356855
1069.975769,-4979.620737,-3552.988522,11991.336260
1069.976088,-4903.011187,-2886.803174,11695.253884
1069.976407,-4673.182538,-2516.700203,10362.883188
1069.976726,-4596.572988,-2738.761985,10140.821405
1069.977045,-3983.696590,-3182.885551,10955.047942
1069.977364,-2987.772442,-3330.926739,11177.109724
1069.977683,-2221.676944,-3256.906145,11251.130318
1069.978002,-766.095498,-2812.782580,10732.986159
1069.978321,229.828649,-1036.288319,9474.636058
1069.978640,1302.362347,444.123565,7476.080014
1069.978959,1455.581446,1258.350101,6217.729913
1069.979278,2145.067394,2072.576638,4959.379811
1069.979597,1991.848295,1332.370696,4885.359217
1069.979916,1685.410096,-0.000000,5107.421000
1069.980235,1072.533697,-1332.370696,7031.956449
1069.980554,153.219100,-1998.556043,7772.162391
1069.980873,-306.438199,-2072.576638,9030.512492
1069.981192,-459.657299,-1554.432478,9548.656652
1069.981511,0.000000,-518.144159,9474.636058
1069.981830,536.266849,962.267725,8586.388927
1069.982149,919.314598,1036.288319,8216.285956
1069.982468,919.314598,1924.535449,7402.059420
1069.982787,1685.410096,2220.617826,6365.771101
1069.983106,1302.362347,1998.556043,5625.565159
1069.983425,995.924147,962.267725,5773.606348
1069.983744,-153.219100,-296.082377,5699.585753
1069.984063,-766.095498,-1184.329507,6439.791695
1069.984382,-1685.410096,-2146.597232,8290.306550
1069.984701,-2604.724693,-2738.761985,9844.739029
1069.985020,-3217.601092,-2812.782580,11251.130318
1069.985339,-3983.696590,-2294.638420,11473.192101
1069.985658,-3600.648841,-888.247130,10955.047942
1069.985977,-4366.744339,-814.226536,10584.944971
1069.986296,-3830.477490,-888.247130,10881.027347
1069.986615,-3600.648841,-1258.350101,10140.821405
1069.986934,-3830.477490,-1628.453072,9696.697840
1069.987253,-3294.210641,-2220.617826,9474.636058
1069.987572,-3447.429741,-2516.700203,9696.697840
1069.987891,-3064.381992,-3404.947333,9918.759623
1069.988210,-2681.334243,-3552.988522,10140.821405
1069.988529,-2221.676944,-3256.906145,10658.965565
1069.988848,-2221.676944,-2368.659014,10362.883188
1069.989167,-2298.286494,-1554.432478,10362.883188
1069.989486,-2068.457845,-1332.370696,10732.986159
1069.989805,-2757.943793,-1776.494261,10881.027347
1069.990124,-3907.087040,-2368.659014,10288.862594
1069.990443,-3983.696590,-3108.864956,10436.903782
1069.990762,-4519.963438,-3849.070898,10732.986159
1069.991081,-4060.306139,-4885.359217,11991.336260
1069.991400,-2987.772442,-5847.626942,13545.768739
1069.991719,-2374.896044,-4959.379811,12731.542202
1069.992038,-1455.581446,-3552.988522,12287.418637
1069.992357,306.438199,-2294.638420,11621.233289
1069.992676,1915.238745,-444.123565,9622.677246
1069.992995,2834.553343,-0.000000,8364.327145
1069.993314,2911.162892,1258.350101,6809.894666
1069.993633,2604.724693,740.205942,5625.565159
1069.993952,2298.286494,-1184.329507,6291.750507
1069.994271,1991.848295,-2516.700203,8216.285956
1069.994590,689.485948,-3849.070898,9252.574275
1069.994909,-153.219100,-3997.112087,9548.656652
1069.995228,-1225.752797,-4145.153275,10510.924376
1069.995547,-1608.800546,-3997.112087,10955.047942
1069.995866,-2221.676944,-2294.638420,9844.739029
1069.996185,-2987.772442,-1480.411884,8882.471304
1069.996504,-3140.991542,-1406.391290,8660.409521
1069.996823,-3753.867940,-1998.556043,7772.162391
1069.997142,-3370.820191,-2220.617826,8068.244768
1069.997461,-3447.429741,-2516.700203,8068.244768
1069.997780,-3983.696590,-3256.906145,9030.512492
1069.998099,-3753.867940,-2664.741391,9622.677246
1069.998418,-2528.115143,-1036.288319,9104.533087
1069.998737,-1455.581446,-0.000000,8660.409521
1069.999056,-1225.752797,296.082377,8808.450710
1069.999375,-766.095498,1110.308913,7550.100608
1069.999694,-306.438199,1554.432478,6513.812290
1070.000013,-229.828649,1258.350101,5699.585753
1070.000332,-842.705048,-370.102971,5995.668130
1070.000651,-1915.238745,-2442.679609,5847.626942
1070.000970,-3140.991542,-3552.988522,6069.688724
1070.001289,-3983.696590,-4737.318029,8068.244768
1070.001608,-4749.792088,-5403.503377,9400.615463
1070.001927,-4826.401637,-5477.523971,10732.986159
1070.002246,-4903.011187,-4589.276840,11843.295072
1070.002565,-4826.401637,-3923.091493,13323.706956
1070.002884,-3294.210641,-2442.679609,12657.521608
1070.003203,-1838.629195,-592.164754,10807.006753
1070.003523,-612.876398,222.061783,10288.862594
1070.003842,383.047749,222.061783,9030.512492
1070.004161,766.095498,370.102971,7328.038826
1070.004480,1685.410096,-0.000000,6143.709319
1070.004799,1455.581446,-1702.473667,6217.729913
1070.005118,766.095498,-3330.926739,6291.750507
1070.005437,-383.047749,-4515.256246,8364.327145
1070.005756,-1225.752797,-5551.544565,9918.759623
1070.006075,-1915.238745,-7105.977043,11843.295072
1070.006394,-2068.457845,-5921.647536,14211.954086
1070.006713,-2145.067394,-4663.297435,16432.571912
1070.007032,-1225.752797,-3849.070898,15840.407159
1070.007351,0.000000,-1110.308913,14211.954086
1070.007670,2528.115143,1702.473667,13101.645173
1070.007989,4826.401637,3997.112087,9326.594869
1070.008308,6205.373534,5699.585753,4367.215058
1070.008627,6971.469032,5551.544565,2664.741391
1070.008946,6971.469032,4367.215058,1850.514855
1070.009265,6511.811733,3108.864956,222.061783
1070.009584,4826.401637,1332.370696,2442.679609
1070.009903,2451.505594,-814.226536,6217.729913
1070.010222,0.000000,-3034.844362,8956.491898
1070.010541,-2834.553343,-3849.070898,11917.315666
1070.010860,-4136.915689,-3256.906145,15766.386565
1070.011179,-4749.792088,-1258.350101,16802.674883
1070.011498,-3983.696590,1850.514855,16210.510130
1070.011818,-2374.896044,5181.441594,14952.160028
1070.012137,0.000000,8364.327145,12139.377449
1070.012456,1915.238745,10436.903782,6735.874072
1070.012775,3830.477490,10288.862594,4367.215058
1070.013094,5362.668486,8216.285956,1702.473667
1070.013413,5669.106685,5551.544565,-592.164754
1070.013732,4979.620737,2368.659014,0.000000
1070.014051,3983.696590,-1628.453072,2664.741391
1070.014370,1608.800546,-4219.173869,5995.668130
1070.014689,-689.485948,-4811.338623,10362.883188
1070.015008,-1838.629195,-4367.215058,14878.139434
1070.015327,-3907.087040,-2146.597232,15544.324782
1070.015646,-4596.572988,-0.000000,18283.086767
1070.015965,-4826.401637,2886.803174,18579.169144
1070.016284,-4366.744339,4737.318029,16506.592507
1070.016603,-2757.943793,5033.400406,13619.789333
1070.016922,-919.314598,4959.379811,11325.150913
1070.017241,842.705048,3404.947333,7550.100608
1070.017560,3140.991542,1628.453072,3627.009116
1070.017879,3830.477490,-1628.453072,3404.947333
1070.018198,4290.134789,-4515.256246,3256.906145
1070.018517,2911.162892,-5995.668130,4663.297435
1070.018836,1378.971896,-5255.462188,7846.182985
1070.019155,0.000000,-4737.318029,11547.212695
1070.019474,-1915.238745,-3997.112087,14359.995275
1070.019794,-3907.087040,-1406.391290,16728.654289
1070.020113,-4519.963438,74.020594,19319.375086
1070.020432,-5362.668486,1480.411884,17246.798449
1070.020751,-4060.306139,2072.576638,16432.571912
1070.021070,-2681.334243,2072.576638,13841.851115
1070.021389,-1378.971896,1258.350101,9326.594869
1070.021708,306.438199,-0.000000,4885.359217
1070.022027,2604.724693,-2960.823768,3478.967927
1070.022346,3677.258390,-4441.235652,2294.638420
1070.022665,4366.744339,-4737.318029,1850.514855
1070.022984,3447.429741,-4145.153275,3034.844362
1070.023303,2451.505594,-3256.906145,5847.626942
1070.023622,919.314598,-3256.906145,9770.718434
1070.023941,0.000000,-1628.453072,12657.521608
1070.024260,-1225.752797,592.164754,15100.201217
1070.024579,-2757.943793,2664.741391,15100.201217
1070.024898,-1685.410096,4293.194464,14434.015869
1070.025217,0.000000,4885.359217,12435.459826
1070.025536,1915.238745,4145.153275,8364.327145
1070.025855,3064.381992,3256.906145,4515.256246
1070.026174,4903.011187,444.123565,1776.494261
1070.026493,5362.668486,-2516.700203,1110.308913
1070.026812,5439.278036,-4515.256246,888.247130
1070.027131,3677.258390,-4737.318029,2886.803174
1070.027450,2145.067394,-4219.173869,4811.338623
1070.027769,1072.533697,-2590.720797,8290.306550
1070.028089,-536.266849,-74.020594,11473.192101
1070.028408,-459.657299,2368.659014,13619.789333
1070.028727,-1302.362347,6069.688724,13619.789333
1070.029046,-1149.143247,8216.285956,12731.542202
1070.029365,-229.828649,8290.306550,12065.356855
1070.029684,153.219100,6365.771101,8364.327145
1070.030003,1072.533697,4219.173869,6069.688724
1070.030322,2068.457845,1184.329507,4441.235652
1070.030641,2451.505594,-2368.659014,3552.988522
1070.030960,2451.505594,-3997.112087,3256.906145
1070.031279,1455.581446,-4663.297435,5477.523971
1070.031598,919.314598,-3997.112087,7624.121203
1070.031917,-229.828649,-888.247130,9104.533087
1070.032236,-1149.143247,1850.514855,11251.130318
1070.032555,-1685.410096,2516.700203,14582.057057
1070.032874,-2298.286494,5181.441594,14434.015869
1070.033193,-1991.848295,6809.894666,14508.036463
1070.033512,-1838.629195,6439.791695,12583.501014
1070.033831,-1302.362347,4737.318029,11621.233289
1070.034150,0.000000,3034.844362,9622.677246
1070.034469,995.924147,148.041188,8216.285956
1070.034788,1532.190996,-2220.617826,7031.956449
1070.035107,1915.238745,-3034.844362,6809.894666
1070.035426,2451.505594,-3552.988522,8512.368333
1070.035745,1685.410096,-3775.050304,10214.842000
1070.036064,383.047749,-1924.535449,11029.068536
1070.036384,0.000000,-0.000000,13249.686362
1070.036703,0.000000,1406.391290,14211.954086
1070.037022,-153.219100,3330.926739,13693.809927
1070.037341,76.609550,4959.379811,14434.015869
1070.037660,153.219100,4811.338623,12657.521608
1070.037979,689.485948,4293.194464,10066.800811
1070.038298,1302.362347,1924.535449,8660.409521
1070.038617,2298.286494,-148.041188,7624.121203
1070.038936,1838.629195,-1924.535449,6291.750507
1070.039255,1762.019645,-2368.659014,5773.606348
1070.039574,1455.581446,-2886.803174,7105.977043
1070.039893,689.485948,-3034.844362,9326.594869
1070.040212,-459.657299,-2220.617826,11399.171507
1070.040531,-1455.581446,-814.226536,12361.439231
1070.040850,-1455.581446,592.164754,14211.954086
1070.041169,-1302.362347,3404.947333,13619.789333
1070.041488,-459.657299,5551.544565,12435.459826
1070.041807,1455.581446,5773.606348,10436.903782
1070.042126,1915.238745,5625.565159,7476.080014
1070.042445,2604.724693,4589.276840,5847.626942
1070.042764,3217.601092,2072.576638,4145.153275
1070.043083,2911.162892,-444.123565,2590.720797
1070.043402,2604.724693,-2146.597232,3552.988522
1070.043721,1149.143247,-2738.761985,5181.441594
1070.044040,612.876398,-2812.782580,6291.750507
1070.044359,-459.657299,-2368.659014,9178.553681
1070.044679,-1762.019645,-518.144159,11843.295072
1070.044998,-1608.800546,370.102971,13027.624579
1070.045317,-1991.848295,2590.720797,12731.542202
1070.045636,-1149.143247,3256.906145,12879.583391
1070.045955,-536.266849,3552.988522,11177.109724
1070.046274,766.095498,3775.050304,8438.347739
1070.046593,3064.381992,2590.720797,6957.935855
1070.046912,3447.429741,1554.432478,4441.235652
1070.047231,4519.963438,-0.000000,2516.700203
1070.047550,4290.134789,-1184.329507,2960.823768
1070.047869,4060.306139,-1184.329507,3627.009116
1070.048188,2681.334243,-962.267725,4811.338623
1070.048507,1378.971896,-962.267725,8512.368333
1070.048826,-306.438199,-962.267725,11325.150913
1070.049145,-1072.533697,-74.020594,11991.336260
1070.049464,-2834.553343,1998.556043,12953.603985
1070.049783,-2374.896044,2442.679609,14434.015869
1070.050102,-1991.848295,2368.659014,12879.583391
1070.050421,-1225.752797,2368.659014,10807.006753
1070.050740,-153.219100,592.164754,11029.068536
1070.051059,229.828649,-740.205942,9178.553681
1070.051378,1685.410096,-1554.432478,7402.059420
1070.051697,2987.772442,-1036.288319,6587.832884
1070.052016,2834.553343,-296.082377,6291.750507
1070.052335,3217.601092,814.226536,5773.606348
1070.052655,3447.429741,2368.659014,7105.977043
1070.052974,2834.553343,2590.720797,9400.615463
1070.053293,1378.971896,2886.803174,10066.800811
1070.053612,0.000000,3034.844362,11399.171507
1070.053931,-306.438199,1332.370696,13915.871710
1070.054250,-2221.676944,518.144159,14211.954086
1070.054569,-2374.896044,-0.000000,13175.665768
1070.054888,-2068.457845,-444.123565,12805.562797
1070.055207,-1302.362347,-1110.308913,11769.274478
1070.055526,76.609550,-222.061783,9770.718434
1070.055845,1225.752797,-296.082377,8956.491898
1070.056164,1685.410096,296.082377,8438.347739
1070.056483,2068.457845,1184.329507,6883.915261
1070.056802,2145.067394,2516.700203,7179.997637
1070.057121,3600.648841,2368.659014,9252.574275
1070.057440,2145.067394,3182.885551,8216.285956
1070.057759,2374.896044,3997.112087,9326.594869
1070.058078,2221.676944,3552.988522,9696.697840
1070.058397,1608.800546,3627.009116,9918.759623
1070.058716,1225.752797,296.082377,10881.027347
1070.059035,-383.047749,-74.020594,10214.842000
1070.059354,-1149.143247,-2368.659014,11843.295072
1070.059673,-1302.362347,-2146.597232,9252.574275
1070.059992,-1378.971896,-2220.617826,9770.718434
1070.060311,-842.705048,-2146.597232,10288.862594
1070.060630,-919.314598,740.205942,7698.141797
1070.060950,-229.828649,1850.514855,7846.182985
1070.061269,1378.971896,1480.411884,9696.697840
1070.061588,536.266849,3849.070898,7846.182985
1070.061907,1608.800546,3923.091493,7772.162391
1070.062226,1991.848295,3182.885551,7772.162391
1070.062545,1608.800546,2960.823768,7550.100608
1070.062864,1915.238745,1776.494261,7476.080014
1070.063183,842.705048,296.082377,6957.935855
1070.063502,459.657299,-1258.350101,7328.038826
1070.063821,76.609550,-1332.370696,7846.182985
1070.064140,-1149.143247,-1924.535449,9326.594869
1070.064459,-1608.800546,-2368.659014,9770.718434
1070.064778,-2451.505594,-666.185348,9548.656652
1070.065097,-2451.505594,-592.164754,11325.150913
1070.065416,-1762.019645,-0.000000,11325.150913
1070.065735,-689.485948,1406.391290,10214.842000
1070.066054,0.000000,2368.659014,9474.636058
1070.066373,919.314598,1850.514855,8512.368333
1070.066692,1608.800546,518.144159,7402.059420
1070.067011,1915.238745,370.102971,7105.977043
1070.067330,3217.601092,-592.164754,6735.874072
1070.067649,1991.848295,-1850.514855,5847.626942
1070.067968,1608.800546,-1702.473667,6809.894666
1070.068287,1072.533697,-2368.659014,8142.265362
1070.068606,-383.047749,-1850.514855,10066.800811
1070.068925,-153.219100,-2294.638420,12657.521608
1070.069245,-1915.238745,-74.020594,11473.192101
1070.069564,-1149.143247,-296.082377,13101.645173
1070.069883,-1608.800546,1258.350101,10807.006753
1070.070202,229.828649,2220.617826,10955.047942
1070.070521,612.876398,-148.041188,9770.718434
1070.070840,1455.581446,1036.288319,7994.224174
1070.071159,1608.800546,-0.000000,6735.874072
1070.071478,2987.772442,-1554.432478,6365.771101
1070.071797,3064.381992,-1850.514855,7402.059420
1070.072116,1991.848295,-1924.535449,7328.038826
1070.072435,766.095498,-740.205942,8216.285956
1070.072754,536.266849,592.164754,9326.594869
1070.073073,0.000000,1554.432478,11103.089130
1070.073392,-689.485948,2516.700203,12065.356855
1070.073711,-1302.362347,2516.700203,12213.398043
1070.074030,-1149.143247,3182.885551,11843.295072
1070.074349,-689.485948,2368.659014,11547.212695
1070.074668,153.219100,1998.556043,10288.862594
1070.074987,536.266849,1702.473667,8290.306550
1070.075306,459.657299,222.061783,7328.038826
1070.075625,1685.410096,-1332.370696,7550.100608
1070.075944,1915.238745,-1628.453072,6957.935855
1070.076263,1915.238745,-1258.350101,8438.347739
1070.076582,2298.286494,-1924.535449,9474.636058
1070.076901,1072.533697,666.185348,9918.759623
1070.077221,1455.581446,2590.720797,11325.150913
1070.077540,1532.190996,4145.153275,10584.944971
1070.077859,1302.362347,4145.153275,10584.944971
1070.078178,1302.362347,3849.070898,10584.944971
1070.078497,842.705048,2886.803174,9770.718434
1070.078816,459.657299,1554.432478,9030.512492
1070.079135,766.095498,222.061783,8512.368333
1070.079454,1072.533697,-1776.494261,9030.512492
1070.079773,459.657299,-3034.844362,8142.265362
1070.080092,153.219100,-3775.050304,7994.224174
1070.080411,0.000000,-3627.009116,9770.718434
1070.080730,-306.438199,-2516.700203,11029.068536
1070.081049,-306.438199,-1110.308913,10807.006753
1070.081368,-995.924147,1554.432478,11177.109724
1070.081687,-1072.533697,3182.885551,12213.398043
1070.082006,-612.876398,3701.029710,11029.068536
1070.082325,76.609550,5477.523971,9252.574275
1070.082644,995.924147,4441.235652,8660.409521
1070.082963,612.876398,2368.659014,7624.121203
1070.083282,306.438199,-0.000000,6735.874072
1070.083601,689.485948,-2886.803174,7476.080014
1070.083920,459.657299,-5107.421000,8216.285956
1070.084239,-1072.533697,-5625.565159,8068.244768
1070.084558,-1225.752797,-5255.462188,9400.615463
1070.084877,-2221.676944,-3701.029710,10288.862594
1070.085196,-1838.629195,-1480.411884,11029.068536
1070.085516,-1915.238745,666.185348,11251.130318
1070.085835,-2451.505594,1258.350101,11769.274478
1070.086154,-1991.848295,2368.659014,10732.986159
1070.086473,-1608.800546,3627.009116,10066.800811
1070.086792,-229.828649,2442.679609,8882.471304
1070.087111,842.705048,1184.329507,6809.894666
1070.087430,1532.190996,-296.082377,6365.771101
1070.087749,1915.238745,-2516.700203,6217.729913
1070.088068,2374.896044,-4071.132681,6143.709319
1070.088387,1991.848295,-4737.318029,6217.729913
1070.088706,766.095498,-4367.215058,8068.244768
1070.089025,306.438199,-3775.050304,9622.677246
1070.089344,-459.657299,-2590.720797,10214.842000
1070.089663,-1532.190996,-1036.288319,11621.233289
1070.089982,-1455.581446,-0.000000,12731.542202
1070.090301,-1302.362347,1998.556043,11473.192101
1070.090620,0.000000,3404.947333,10214.842000
1070.090939,1149.143247,2960.823768,9104.533087
1070.091258,2145.067394,2516.700203,6661.853478
1070.091577,2834.553343,1184.329507,5477.523971
1070.091896,4060.306139,-740.205942,4959.379811
1070.092215,3753.867940,-2294.638420,4515.256246
1070.092534,3294.210641,-3330.926739,6069.688724
1070.092853,1532.190996,-3330.926739,7550.100608
1070.093172,919.314598,-2590.720797,9696.697840
1070.093491,-612.876398,-296.082377,9770.718434
1070.093811,-1225.752797,814.226536,11769.274478
1070.094130,-1915.238745,1184.329507,12731.542202
1070.094449,-2374.896044,2368.659014,11843.295072
1070.094768,-1915.238745,2516.700203,11991.336260
1070.095087,-689.485948,2516.700203,11177.109724
1070.095406,0.000000,1998.556043,8438.347739
1070.095725,1149.143247,814.226536,6513.812290
1070.096044,2374.896044,-1332.370696,5995.668130
1070.096363,2681.334243,-2294.638420,4737.318029
1070.096682,2987.772442,-2294.638420,5477.523971
1070.097001,2451.505594,-2072.576638,6809.894666
1070.097320,995.924147,-1628.453072,9030.512492
1070.097639,0.000000,-148.041188,10732.986159
1070.097958,-842.705048,888.247130,12361.439231
1070.098277,-1149.143247,2368.659014,13101.645173
1070.098596,-2145.067394,4589.276840,12509.480420
1070.098915,-1532.190996,4441.235652,12361.439231
1070.099234,-1225.752797,3330.926739,11843.295072
1070.099553,-153.219100,2072.576638,10362.883188
1070.099872,459.657299,666.185348,8660.409521
1070.100191,1149.143247,-1258.350101,7920.203579
1070.100510,1838.629195,-2442.679609,6883.915261
1070.100829,2068.457845,-1850.514855,6809.894666
1070.101148,2068.457845,-1998.556043,7698.141797
1070.101467,1915.238745,-296.082377,9400.615463
1070.101787,1455.581446,1258.350101,10807.006753
1070.102106,766.095498,2442.679609,12213.398043
1070.102425,-153.219100,3182.885551,12731.542202
1070.102743,-459.657299,3330.926739,12879.583391
1070.103062,-919.314598,3182.885551,12065.356855
1070.103381,-842.705048,2368.659014,11325.150913
1070.103700,-536.266849,1110.308913,9252.574275
1070.104019,0.000000,-666.185348,8808.450710
1070.104338,842.705048,-2738.761985,8216.285956
1070.104657,689.485948,-3923.091493,7550.100608
1070.104976,842.705048,-4145.153275,7920.203579
1070.105295,153.219100,-3256.906145,8734.430116
1070.105614,76.609550,-1554.432478,9474.636058
1070.105933,0.000000,666.185348,10584.944971
1070.106252,0.000000,2294.638420,11473.192101
1070.106571,-383.047749,3478.967927,11473.192101
1070.106890,-612.876398,4293.194464,11029.068536
1070.107209,153.219100,4515.256246,9918.759623
1070.107528,0.000000,3182.885551,8586.388927
1070.107847,-76.609550,2220.617826,6809.894666
1070.108166,0.000000,-518.144159,7031.956449
1070.108485,459.657299,-2812.782580,6883.915261
1070.108804,153.219100,-4293.194464,6291.750507
1070.109123,383.047749,-4663.297435,7698.141797
1070.109442,76.609550,-4515.256246,9104.533087
1070.109761,-689.485948,-2442.679609,9474.636058
1070.110080,-536.266849,-370.102971,10066.800811
1070.110399,-153.219100,1110.308913,10955.047942
1070.110718,0.000000,2886.803174,10584.944971
1070.111037,612.876398,4589.276840,9474.636058
1070.111356,1685.410096,5181.441594,8808.450710
1070.111675,2604.724693,4293.194464,7105.977043
1070.111994,2834.553343,2516.700203,5625.565159
1070.112313,3140.991542,-222.061783,5699.585753
1070.112632,2911.162892,-2442.679609,5403.503377
1070.112951,2451.505594,-3256.906145,5107.421000
1070.113270,2145.067394,-3627.009116,7328.038826
1070.113589,1378.971896,-3404.947333,9474.636058
1070.113908,459.657299,-1924.535449,10066.800811
1070.114227,-612.876398,-518.144159,11251.130318
1070.114546,-1072.533697,518.144159,12879.583391
1070.114865,-1072.533697,1924.535449,12139.377449
1070.115183,-459.657299,3552.988522,10732.986159
1070.115502,306.438199,3330.926739,10436.903782
1070.115821,536.266849,3108.864956,8734.430116
1070.116140,1608.800546,1850.514855,6809.894666
1070.116459,2145.067394,518.144159,6661.853478
1070.116778,2681.334243,-814.226536,5921.647536
1070.117097,2987.772442,-888.247130,5699.585753
1070.117416,2221.676944,-1776.494261,7846.182985
1070.117735,995.924147,-2220.617826,9918.759623
1070.118054,0.000000,-1332.370696,10584.944971
1070.118373,-1072.533697,296.082377,11917.315666
1070.118692,-1838.629195,1036.288319,13693.809927
1070.119011,-2221.676944,2738.761985,12213.398043
1070.119330,-1608.800546,3552.988522,11843.295072
1070.119649,-1455.581446,2738.761985,11547.212695
1070.119968,-1072.533697,1850.514855,10288.862594
1070.120287,0.000000,1480.411884,7920.203579
1070.120606,766.095498,-0.000000,8512.368333
1070.120925,1225.752797,-1110.308913,7179.997637
1070.121244,1991.848295,-1554.432478,7031.956449
1070.121563,1915.238745,-888.247130,8142.265362
1070.121882,2451.505594,592.164754,8956.491898
1070.122201,2068.457845,962.267725,9474.636058
1070.122520,1072.533697,1924.535449,11103.089130
1070.122839,459.657299,1998.556043,12657.521608
1070.123158,459.657299,2886.803174,12065.356855
1070.123477,-919.314598,2960.823768,11473.192101
1070.123796,-689.485948,2294.638420,11843.295072
1070.124115,-766.095498,1480.411884,10066.800811
1070.124434,-229.828649,-0.000000,8438.347739
1070.124753,0.000000,-1998.556043,8882.471304
1070.125072,459.657299,-1924.535449,7846.182985
1070.125391,1225.752797,-1850.514855,7328.038826
1070.125710,1225.752797,-962.267725,7624.121203
1070.126029,842.705048,444.123565,8956.491898
1070.126348,2068.457845,1332.370696,9400.615463
1070.126667,1072.533697,3108.864956,10362.883188
1070.126986,1072.533697,3627.009116,10436.903782
1070.127305,842.705048,4367.215058,9992.780217
1070.127623,536.266849,3997.112087,10066.800811
1070.127942,306.438199,2220.617826,9400.615463
1070.128261,459.657299,1776.494261,8142.265362
1070.128580,306.438199,-666.185348,7772.162391
1070.128899,306.438199,-2220.617826,7846.182985
1070.129218,536.266849,-2442.679609,6661.853478
1070.129537,689.485948,-2220.617826,7105.977043
1070.129856,689.485948,-1702.473667,8734.430116
1070.130175,229.828649,-814.226536,8586.388927
1070.130494,383.047749,1110.308913,9104.533087
1070.130813,0.000000,2220.617826,10584.944971
1070.131132,689.485948,3330.926739,10955.047942
1070.131451,689.485948,4293.194464,9696.697840
1070.131770,1072.533697,4071.132681,9548.656652
1070.132089,2068.457845,2738.761985,8808.450710
1070.132408,2298.286494,1480.411884,7179.997637
1070.132727,2068.457845,444.123565,6735.874072
1070.133046,1915.238745,-1554.432478,7105.977043
1070.133365,1455.581446,-2812.782580,6661.853478
1070.133684,919.314598,-2738.761985,7550.100608
1070.134003,229.828649,-2220.617826,9548.656652
1070.134322,-153.219100,-1332.370696,10140.821405
1070.134641,-383.047749,296.082377,10510.924376
1070.134960,-229.828649,1036.288319,12213.398043
1070.135279,0.000000,2516.700203,12287.418637
1070.135598,229.828649,3701.029710,10510.924376
1070.135917,1225.752797,3182.885551,10732.986159
1070.136236,2374.896044,2664.741391,8956.491898
1070.136555,2451.505594,1776.494261,7105.977043
1070.136874,2987.772442,-0.000000,7105.977043
1070.137193,2528.115143,-962.267725,6439.791695
1070.137512,2451.505594,-1406.391290,6217.729913
1070.137831,1991.848295,-1850.514855,7846.182985
1070.138150,1455.581446,-2516.700203,9992.780217
1070.138469,76.609550,-1258.350101,10658.965565
1070.138788,-995.924147,296.082377,11547.212695
1070.139107,-1072.533697,740.205942,13175.665768
1070.139426,-995.924147,2738.761985,12287.418637
1070.139745,-766.095498,3330.926739,11325.150913
1070.140063,0.000000,3404.947333,10807.006753
1070.140382,919.314598,3330.926739,8956.491898
1070.140701,1762.019645,2516.700203,6957.935855
1070.141020,2451.505594,1554.432478,6957.935855
1070.141339,2298.286494,-74.020594,6291.750507
1070.141658,1915.238745,-740.205942,5477.523971
1070.141977,842.705048,-1554.432478,7254.018232
1070.142296,689.485948,-962.267725,9696.697840
1070.142615,-612.876398,-148.041188,9622.677246
1070.142934,-1072.533697,1184.329507,11177.109724
1070.143253,-1762.019645,1850.514855,13471.748144
1070.143572,-2451.505594,2886.803174,11917.315666
1070.143891,-1915.238745,2960.823768,11621.233289
1070.144210,-2068.457845,2294.638420,11547.212695
1070.144529,-1225.752797,2368.659014,9474.636058
1070.144848,-153.219100,1776.494261,7772.162391
1070.145167,766.095498,-0.000000,7920.203579
1070.145486,1532.190996,-1702.473667,6809.894666
1070.145805,1532.190996,-1850.514855,6069.688724
1070.146124,1455.581446,-2072.576638,8068.244768
1070.146443,995.924147,-1184.329507,9178.553681
1070.146762,689.485948,592.164754,8808.450710
1070.147081,0.000000,1850.514855,10436.903782
1070.147400,0.000000,2072.576638,12361.439231
1070.147719,-612.876398,3182.885551,11325.150913
1070.148038,-536.266849,2812.782580,11029.068536
1070.148357,-306.438199,2516.700203,10732.986159
1070.148676,536.266849,1184.329507,9474.636058
1070.148995,383.047749,296.082377,8068.244768
1070.149314,766.095498,-1998.556043,8216.285956
1070.149633,1149.143247,-2886.803174,7105.977043
1070.149952,1685.410096,-2590.720797,6661.853478
1070.150271,2068.457845,-2442.679609,8142.265362
1070.150590,1685.410096,-1258.350101,9104.533087
1070.150909,1072.533697,814.226536,8956.491898
1070.151228,842.705048,2294.638420,10214.842000
1070.151547,1072.533697,3182.885551,10807.006753
1070.151866,459.657299,4071.132681,9992.780217
1070.152185,0.000000,3775.050304,9622.677246
1070.152504,153.219100,2368.659014,9992.780217
1070.152822,306.438199,666.185348,8290.306550
1070.153141,612.876398,-814.226536,8068.244768
1070.153460,383.047749,-2516.700203,8586.388927
1070.153779,229.828649,-3404.947333,6883.915261
1070.154098,0.000000,-3552.988522,7328.038826
1070.154417,383.047749,-2812.782580,9474.636058
1070.154736,0.000000,-1628.453072,9696.697840
1070.155055,-153.219100,222.061783,9178.553681
1070.155374,-383.047749,1850.514855,11695.253884
1070.155693,0.000000,2590.720797,12065.356855
1070.156012,153.219100,3775.050304,9548.656652
1070.156331,229.828649,3404.947333,9992.780217
1070.156650,536.266849,1998.556043,10140.821405
1070.156969,995.924147,1258.350101,7476.080014
1070.157288,1455.581446,-518.144159,6957.935855
1070.157607,1991.848295,-2220.617826,7698.141797
1070.157926,2221.676944,-2590.720797,6513.812290
1070.158245,1378.971896,-3404.947333,7031.956449
1070.158564,1072.533697,-3404.947333,9770.718434
1070.158883,0.000000,-1850.514855,10066.800811
1070.159202,0.000000,-0.000000,9992.780217
1070.159521,-229.828649,1184.329507,12065.356855
1070.159840,-229.828649,2368.659014,12065.356855
1070.160159,-459.657299,3552.988522,10214.842000
1070.160478,76.609550,3627.009116,10658.965565
1070.160797,919.314598,3552.988522,9474.636058
1070.161116,1378.971896,2812.782580,7031.956449
1070.161435,2451.505594,1480.411884,6661.853478
1070.161754,2451.505594,-666.185348,7031.956449
1070.162073,1915.238745,-1702.473667,6143.709319
1070.162392,1762.019645,-2368.659014,7105.977043
1070.162711,842.705048,-2442.679609,9622.677246
1070.163030,-536.266849,-1480.411884,9918.759623
1070.163349,-1378.971896,592.164754,10362.883188
1070.163668,-2145.067394,740.205942,12657.521608
1070.163987,-2681.334243,2146.597232,12583.501014
1070.164306,-2451.505594,2960.823768,11547.212695
1070.164625,-2145.067394,2664.741391,11843.295072
1070.164944,-1225.752797,2220.617826,10436.903782
1070.165262,0.000000,1924.535449,8068.244768
1070.165581,1302.362347,814.226536,7624.121203
1070.165900,2068.457845,-1110.308913,7402.059420
1070.166219,2298.286494,-1628.453072,6365.771101
1070.166538,2145.067394,-1850.514855,6883.915261
1070.166857,1685.410096,-2072.576638,8438.347739
1070.167176,1225.752797,-1628.453072,9474.636058
1070.167495,76.609550,-296.082377,10214.842000
1070.167814,-995.924147,-0.000000,12139.377449
1070.168133,-2068.457845,814.226536,12065.356855
1070.168452,-1915.238745,2442.679609,11769.274478
1070.168771,-1685.410096,1850.514855,11843.295072
1070.169090,-1608.800546,1036.288319,11029.068536
1070.169409,-1225.752797,518.144159,9178.553681
1070.169728,-612.876398,-814.226536,8734.430116
1070.170047,1072.533697,-2072.576638,7476.080014
1070.170366,1762.019645,-2960.823768,6957.935855
1070.170685,1991.848295,-2738.761985,7179.997637
1070.171004,1991.848295,-1924.535449,7402.059420
1070.171323,1608.800546,-296.082377,7698.141797
1070.171642,995.924147,962.267725,8808.450710
1070.171961,229.828649,2220.617826,10140.821405
1070.172280,-306.438199,3627.009116,9844.739029
1070.172599,-995.924147,3404.947333,9770.718434
1070.172918,-842.705048,2220.617826,10807.006753
1070.173237,-766.095498,2368.659014,9770.718434
1070.173556,0.000000,1258.350101,8216.285956
1070.173875,612.876398,-740.205942,7994.224174
1070.174194,766.095498,-2960.823768,7624.121203
1070.174513,1072.533697,-3330.926739,7031.956449
1070.174832,1149.143247,-3182.885551,8290.306550
1070.175151,1225.752797,-2146.597232,8956.491898
1070.175470,995.924147,-0.000000,8660.409521
1070.175789,1072.533697,592.164754,9696.697840
1070.176108,459.657299,1998.556043,10881.027347
1070.176427,0.000000,2886.803174,10214.842000
1070.176746,-383.047749,3256.906145,9622.677246
1070.177065,0.000000,2442.679609,10510.924376
1070.177384,536.266849,2146.597232,9104.533087
1070.177702,383.047749,-148.041188,8216.285956
1070.178021,1072.533697,-2368.659014,8660.409521
1070.178340,1608.800546,-3775.050304,8364.327145
1070.178659,1685.410096,-4589.276840,7402.059420
1070.178978,1915.238745,-4219.173869,9030.512492
1070.179297,995.924147,-3256.906145,9918.759623
1070.179616,919.314598,-1850.514855,9622.677246
1070.179935,383.047749,888.247130,10584.944971
1070.180254,229.828649,1776.494261,10955.047942
1070.180573,-76.609550,3256.906145,9770.718434
1070.180892,-612.876398,3552.988522,9918.759623
1070.181211,-153.219100,3034.844362,10362.883188
1070.181530,0.000000,2220.617826,8660.409521
1070.181849,229.828649,666.185348,8142.265362
1070.182168,229.828649,-1406.391290,9030.512492
1070.182487,383.047749,-2960.823768,8512.368333
1070.182806,995.924147,-3330.926739,7772.162391
1070.183125,766.095498,-2812.782580,9696.697840
1070.183444,842.705048,-1480.411884,10140.821405
1070.183763,383.047749,296.082377,9252.574275
1070.184082,153.219100,1406.391290,10288.862594
1070.184401,0.000000,1998.556043,11547.212695
1070.184720,-689.485948,3182.885551,9548.656652
1070.185039,-689.485948,3923.091493,9400.615463
1070.185358,-612.876398,3923.091493,9326.594869
1070.185677,-306.438199,2886.803174,7698.141797
1070.185996,76.609550,1110.308913,7402.059420
1070.186315,919.314598,-1258.350101,8734.430116
1070.186634,76.609550,-2516.700203,8660.409521
1070.186953,153.219100,-2886.803174,8068.244768
1070.187272,153.219100,-3552.988522,9992.780217
1070.187591,-229.828649,-2812.782580,10584.944971
1070.187910,-536.266849,-1110.308913,10436.903782
1070.188229,-536.266849,222.061783,11399.171507
1070.188548,-536.266849,1628.453072,11473.192101
1070.188867,0.000000,3404.947333,9622.677246
1070.189186,76.609550,3478.967927,9474.636058
1070.189505,1072.533697,3330.926739,9178.553681
1070.189824,1072.533697,2664.741391,6883.915261
1070.190142,1532.190996,1258.350101,6957.935855
1070.190461,2528.115143,-444.123565,7254.018232
1070.190780,2757.943793,-1998.556043,6735.874072
1070.191099,2451.505594,-2516.700203,7402.059420
1070.191418,2068.457845,-2590.720797,9178.553681
1070.191737,1608.800546,-1702.473667,9696.697840
1070.192056,995.924147,-74.020594,10140.821405
1070.192375,306.438199,888.247130,11547.212695
1070.192694,-689.485948,2368.659014,10955.047942
1070.193013,-306.438199,3701.029710,10214.842000
1070.193332,-229.828649,3552.988522,10288.862594
1070.193651,0.000000,3182.885551,9918.759623
1070.193970,919.314598,2146.597232,8438.347739
1070.194289,1302.362347,370.102971,8364.327145
1070.194608,1915.238745,-1480.411884,7920.203579
1070.194927,2451.505594,-1998.556043,6883.915261
1070.195246,2374.896044,-2442.679609,8512.368333
1070.195565,2528.115143,-1776.494261,8956.491898
1070.195884,1991.848295,-0.000000,8290.306550
1070.196203,1225.752797,740.205942,9326.594869
1070.196522,995.924147,1036.288319,11103.089130
1070.196841,-766.095498,1924.535449,10362.883188
1070.197160,-1915.238745,2146.597232,10214.842000
1070.197479,-2068.457845,1110.308913,11325.150913
1070.197798,-2221.676944,666.185348,10658.965565
1070.198117,-1532.190996,-0.000000,9474.636058
1070.198436,-383.047749,-1258.350101,10214.842000
1070.198755,153.219100,-1998.556043,9104.533087
1070.199074,1072.533697,-1998.556043,7402.059420
1070.199393,1762.019645,-2368.659014,8660.409521
1070.199712,1915.238745,-1628.453072,9548.656652
1070.200031,2528.115143,-148.041188,8364.327145
1070.200350,2145.067394,1776.494261,8660.409521
1070.200669,1302.362347,2220.617826,10288.862594
1070.200988,536.266849,2960.823768,9474.636058
1070.201307,229.828649,3627.009116,8438.347739
1070.201626,-153.219100,2664.741391,9252.574275
1070.201945,-842.705048,1480.411884,9252.574275
1070.202264,-842.705048,518.144159,8438.347739
1070.202582,-766.095498,-1406.391290,8956.491898
1070.202901,-459.657299,-2886.803174,9696.697840
1070.203220,-306.438199,-3108.864956,9326.594869
1070.203539,0.000000,-2960.823768,9992.780217
1070.203858,229.828649,-1776.494261,10288.862594
1070.204177,1072.533697,-370.102971,9992.780217
1070.204496,1915.238745,1702.473667,9992.780217
1070.204815,1762.019645,3552.988522,10288.862594
1070.205134,2068.457845,5107.421000,8068.244768
1070.205453,2145.067394,5107.421000,7105.977043
1070.205772,1685.410096,3775.050304,7550.100608
1070.206091,1532.190996,2368.659014,6883.915261
1070.206410,689.485948,1184.329507,5847.626942
1070.206729,383.047749,-1480.411884,8142.265362
1070.207047,-459.657299,-3330.926739,9030.512492
1070.207366,-995.924147,-4515.256246,9474.636058
1070.207685,-1915.238745,-4737.318029,11769.274478
1070.208004,-1991.848295,-3627.009116,12879.583391
1070.208323,-1838.629195,-1332.370696,11769.274478
1070.208642,-1455.581446,518.144159,11843.295072
1070.208961,-842.705048,2294.638420,12583.501014
1070.209280,-383.047749,3923.091493,10436.903782
1070.209599,1378.971896,5107.421000,8660.409521
1070.209917,2374.896044,5107.421000,7402.059420
1070.210236,2604.724693,4293.194464,5403.503377
1070.210555,3830.477490,2294.638420,4959.379811
1070.210874,3447.429741,222.061783,5625.565159
1070.211193,2757.943793,-1554.432478,5773.606348
1070.211512,1762.019645,-3034.844362,7328.038826
1070.211831,459.657299,-3182.885551,10288.862594
1070.212150,-229.828649,-3182.885551,12139.377449
1070.212469,-1072.533697,-1258.350101,11991.336260
1070.212787,-2221.676944,-222.061783,14285.974681
1070.213106,-2528.115143,1850.514855,13915.871710
1070.213425,-1991.848295,4515.256246,11695.253884
1070.213744,-536.266849,5107.421000,10732.986159
1070.214063,536.266849,5181.441594,9400.615463
1070.214382,1762.019645,4367.215058,6217.729913
1070.214701,2987.772442,2368.659014,5181.441594
1070.215020,3830.477490,-296.082377,5551.544565
1070.215339,4060.306139,-1628.453072,4885.359217
1070.215658,3677.258390,-2664.741391,6143.709319
1070.215976,2451.505594,-2442.679609,8660.409521
1070.216295,1532.190996,-1332.370696,9474.636058
1070.216614,536.266849,-0.000000,10584.944971
1070.216933,-383.047749,814.226536,13027.624579
1070.217252,-1378.971896,1850.514855,13323.706956
1070.217571,-2604.724693,2960.823768,10955.047942
1070.217890,-2451.505594,1924.535449,12213.398043
1070.218209,-1762.019645,1776.494261,11251.130318
1070.218528,-842.705048,1332.370696,8290.306550
1070.218846,842.705048,-444.123565,8068.244768
1070.219165,1608.800546,-1924.535449,8216.285956
1070.219484,2757.943793,-2664.741391,6365.771101
1070.219803,3677.258390,-2368.659014,6365.771101
1070.220122,3524.039291,-2220.617826,8734.430116
1070.220441,3064.381992,-444.123565,8364.327145
1070.220760,2221.676944,1184.329507,8956.491898
1070.221079,1838.629195,1332.370696,10881.027347
1070.221398,229.828649,3034.844362,10436.903782
1070.221717,-842.705048,4515.256246,9104.533087
1070.222035,-612.876398,3478.967927,9844.739029
1070.222354,-1149.143247,1702.473667,9622.677246
1070.222673,-1762.019645,-0.000000,8290.306550
1070.222992,-1455.581446,-1628.453072,9252.574275
1070.223311,-766.095498,-3256.906145,9326.594869
1070.223630,306.438199,-3108.864956,7920.203579
1070.223949,1532.190996,-2960.823768,8956.491898
1070.224268,1915.238745,-1258.350101,9622.677246
1070.224587,2374.896044,962.267725,8660.409521
1070.224905,2451.505594,3775.050304,8512.368333
1070.225224,2068.457845,4219.173869,9622.677246
1070.225543,1838.629195,5329.482782,8290.306550
1070.225862,383.047749,6069.688724,7698.141797
1070.226181,-612.876398,4737.318029,8068.244768
1070.226500,-612.876398,2886.803174,8068.244768
1070.226819,-995.924147,1110.308913,7328.038826
1070.227138,-1302.362347,-1850.514855,9030.512492
1070.227457,-1532.190996,-3997.112087,9622.677246
1070.227775,-1608.800546,-4885.359217,9844.739029
1070.228094,-1302.362347,-4885.359217,11251.130318
1070.228413,-1149.143247,-3256.906145,12583.501014
1070.228732,-919.314598,-888.247130,11547.212695
1070.229051,-229.828649,1628.453072,10807.006753
1070.229370,766.095498,3701.029710,11029.068536
1070.229689,1072.533697,5847.626942,8956.491898
1070.230008,1608.800546,5995.668130,7772.162391
1070.230327,1608.800546,5551.544565,7624.121203
1070.230646,1608.800546,4145.153275,6069.688724
1070.230964,1532.190996,1776.494261,5773.606348
1070.231283,1225.752797,-1332.370696,7994.224174
1070.231602,689.485948,-3478.967927,8512.368333
1070.231921,76.609550,-4441.235652,9030.512492
1070.232240,-536.266849,-4737.318029,11843.295072
1070.232559,-1225.752797,-4219.173869,13249.686362
1070.232878,-1762.019645,-1702.473667,12805.562797
1070.233197,-1378.971896,370.102971,13619.789333
1070.233516,-1225.752797,2294.638420,13619.789333
1070.233834,-536.266849,4663.297435,11251.130318
1070.234153,612.876398,6143.709319,9474.636058
1070.234472,1915.238745,5773.606348,8956.491898
1070.234791,2834.553343,4071.132681,6291.750507
1070.235110,3753.867940,2590.720797,4885.359217
1070.235429,4290.134789,-370.102971,5403.503377
1070.235748,4060.306139,-2368.659014,5255.462188
1070.236067,2757.943793,-3997.112087,6809.894666
1070.236386,1532.190996,-4663.297435,10140.821405
1070.236705,536.266849,-3552.988522,11251.130318
1070.237023,-689.485948,-1406.391290,11251.130318
1070.237342,-1685.410096,-222.061783,13323.706956
1070.237661,-2145.067394,1110.308913,14434.015869
1070.237980,-2604.724693,2960.823768,11769.274478
1070.238299,-1532.190996,3182.885551,11473.192101
1070.238618,-766.095498,4071.132681,10955.047942
1070.238937,689.485948,3627.009116,7402.059420
1070.239256,2298.286494,1702.473667,5477.523971
1070.239575,3600.648841,-296.082377,6143.709319
1070.239893,3830.477490,-1924.535449,4515.256246
1070.240212,3753.867940,-2368.659014,4293.194464
1070.240531,3140.991542,-2294.638420,7179.997637
1070.240850,1991.848295,-1332.370696,8586.388927
1070.241169,459.657299,-370.102971,8660.409521
1070.241488,-995.924147,148.041188,11399.171507
1070.241807,-2298.286494,888.247130,13027.624579
1070.242126,-3447.429741,2738.761985,11399.171507
1070.242445,-3294.210641,2886.803174,11843.295072
1070.242764,-2834.553343,2516.700203,11769.274478
1070.243082,-1608.800546,2590.720797,9178.553681
1070.243401,0.000000,592.164754,7846.182985
1070.243720,1608.800546,-1184.329507,7624.121203
1070.244039,3064.381992,-2368.659014,5847.626942
1070.244358,3600.648841,-2368.659014,5033.400406
1070.244677,3753.867940,-2072.576638,7031.956449
1070.244996,3830.477490,-1110.308913,7254.018232
1070.245315,2451.505594,444.123565,7550.100608
1070.245634,1455.581446,1702.473667,9696.697840
1070.245952,306.438199,2368.659014,10881.027347
1070.246271,-842.705048,4145.153275,9622.677246
1070.246590,-1762.019645,3330.926739,10881.027347
1070.246909,-2221.676944,2368.659014,11251.130318
1070.247228,-2528.115143,1110.308913,10436.903782
1070.247547,-1915.238745,-740.205942,9770.718434
1070.247866,-689.485948,-3034.844362,10436.903782
1070.248185,153.219100,-3997.112087,9474.636058
1070.248504,766.095498,-3849.070898,8956.491898
1070.248822,1762.019645,-2516.700203,9252.574275
1070.249141,2068.457845,-666.185348,8660.409521
1070.249460,2221.676944,1332.370696,8882.471304
1070.249779,2145.067394,2368.659014,10362.883188
1070.250098,1302.362347,4219.173869,9474.636058
1070.250417,229.828649,5181.441594,8734.430116
1070.250736,-689.485948,4145.153275,9992.780217
1070.251055,-1378.971896,2664.741391,10140.821405
1070.251374,-2145.067394,1110.308913,9030.512492
1070.251693,-2298.286494,-1258.350101,9770.718434
1070.252011,-2068.457845,-4145.153275,10732.986159
1070.252330,-1838.629195,-5255.462188,10288.862594
1070.252649,-1608.800546,-5773.606348,10881.027347
1070.252968,-1149.143247,-4515.256246,11917.315666
1070.253287,-383.047749,-2368.659014,10807.006753
1070.253606,459.657299,-0.000000,9992.780217
1070.253925,1685.410096,1850.514855,11103.089130
1070.254244,1378.971896,4737.318029,9104.533087
1070.254563,1915.238745,7105.977043,6143.709319
1070.254881,2374.896044,6587.832884,6809.894666
1070.255200,2221.676944,5551.544565,6513.812290
1070.255519,2374.896044,2886.803174,5477.523971
1070.255838,1532.190996,-0.000000,6513.812290
1070.256157,1532.190996,-2220.617826,8364.327145
1070.256476,1532.190996,-4589.276840,8882.471304
1070.256795,306.438199,-5033.400406,9918.759623
1070.257114,0.000000,-4737.318029,11843.295072
1070.257433,-383.047749,-2590.720797,11177.109724
1070.257752,-383.047749,-0.000000,11251.130318
1070.258070,229.828649,1184.329507,11843.295072
1070.258389,383.047749,3923.091493,10436.903782
1070.258708,995.924147,5625.565159,9030.512492
1070.259027,1915.238745,5921.647536,7772.162391
1070.259346,2451.505594,5255.462188,5995.668130
1070.259665,3294.210641,3108.864956,4811.338623
1070.259984,3447.429741,296.082377,5329.482782
1070.260303,2987.772442,-2368.659014,5477.523971
1070.260622,2604.724693,-3627.009116,6587.832884
1070.260940,1378.971896,-4145.153275,8586.388927
1070.261259,229.828649,-3923.091493,10658.965565
1070.261578,-1225.752797,-3034.844362,11325.150913
1070.261897,-2374.896044,-1924.535449,12805.562797
1070.262216,-2987.772442,-814.226536,13767.830521
1070.262535,-3447.429741,1776.494261,11843.295072
1070.262854,-2757.943793,2886.803174,11399.171507
1070.263173,-2298.286494,2368.659014,11473.192101
1070.263492,-1608.800546,2294.638420,9400.615463
1070.263810,306.438199,1258.350101,7254.018232
1070.264129,1225.752797,-518.144159,7698.141797
1070.264448,2451.505594,-1554.432478,7031.956449
1070.264767,2987.772442,-1998.556043,5847.626942
1070.265086,2604.724693,-2368.659014,7254.018232
1070.265405,2221.676944,-2294.638420,8438.347739
1070.265724,995.924147,-814.226536,8882.471304
1070.266043,383.047749,-74.020594,10584.944971
1070.266362,-536.266849,666.185348,11695.253884
1070.266681,-2374.896044,2590.720797,10362.883188
1070.266999,-2145.067394,2368.659014,10955.047942
1070.267318,-2451.505594,1924.535449,11769.274478
1070.267637,-1762.019645,1850.514855,10288.862594
1070.267956,-919.314598,444.123565,9326.594869
1070.268275,536.266849,-592.164754,9770.718434
1070.268594,1685.410096,-1702.473667,8216.285956
1070.268913,2604.724693,-1776.494261,6883.915261
1070.269232,3217.601092,-1332.370696,8290.306550
1070.269551,3217.601092,-1258.350101,8142.265362
1070.269869,2987.772442,148.041188,7698.141797
1070.270188,2681.334243,1406.391290,9474.636058
1070.270507,1532.190996,2294.638420,9400.615463
1070.270826,306.438199,3701.029710,8586.388927
1070.271145,-536.266849,3108.864956,9474.636058
1070.271464,-1149.143247,2442.679609,10140.821405
1070.271783,-1915.238745,1480.411884,8586.388927
1070.272102,-1608.800546,-814.226536,10288.862594
1070.272421,-1302.362347,-2516.700203,10807.006753
1070.272740,-1225.752797,-3552.988522,9474.636058
1070.273058,-689.485948,-3775.050304,8956.491898
1070.273377,-229.828649,-3256.906145,10658.965565
1070.273696,459.657299,-1554.432478,9252.574275
1070.274015,459.657299,962.267725,8290.306550
1070.274334,1149.143247,1850.514855,9696.697840
1070.274653,612.876398,2960.823768,9252.574275
1070.274972,536.266849,4885.359217,7328.038826
1070.275291,995.924147,4293.194464,8142.265362
1070.275610,229.828649,3775.050304,7698.141797
1070.275928,0.000000,1924.535449,7254.018232
1070.276247,-383.047749,-444.123565,8068.244768
1070.276566,-919.314598,-2146.597232,9104.533087
1070.276885,-766.095498,-3478.967927,9252.574275
1070.277204,-306.438199,-3478.967927,9918.759623
1070.277523,383.047749,-3256.906145,11325.150913
1070.277842,689.485948,-1850.514855,11399.171507
1070.278161,1532.190996,814.226536,10732.986159
1070.278480,2374.896044,2886.803174,10807.006753
1070.278798,3370.820191,4737.318029,9030.512492
1070.279117,3753.867940,6587.832884,7624.121203
1070.279436,3983.696590,5477.523971,7328.038826
1070.279755,4213.525239,4737.318029,6587.832884
1070.280074,3524.039291,3775.050304,4441.235652
1070.280393,3370.820191,1332.370696,6143.709319
1070.280712,2604.724693,-1850.514855,7476.080014
1070.281031,1225.752797,-3923.091493,9178.553681
1070.281350,612.876398,-5477.523971,12065.356855
1070.281669,153.219100,-4589.276840,13397.727550
1070.281987,-306.438199,-3552.988522,14211.954086
1070.282306,-536.266849,-1480.411884,13693.809927
1070.282625,-1149.143247,-148.041188,13545.768739
1070.282944,-919.314598,1628.453072,12583.501014
1070.283263,-229.828649,3552.988522,9844.739029
1070.283582,229.828649,4737.318029,7846.182985
1070.283901,1225.752797,3775.050304,7402.059420
1070.284220,1302.362347,3182.885551,5847.626942
1070.284539,1149.143247,1184.329507,5181.441594
1070.284857,1225.752797,-1776.494261,6735.874072
1070.285176,229.828649,-2886.803174,7550.100608
1070.285495,-536.266849,-3849.070898,9326.594869
1070.285814,-2068.457845,-3404.947333,11029.068536
1070.286133,-2834.553343,-1776.494261,12361.439231
1070.286452,-2451.505594,-296.082377,13175.665768
1070.286771,-3830.477490,666.185348,13545.768739
1070.287090,-4060.306139,2368.659014,12213.398043
1070.287409,-3753.867940,3923.091493,10881.027347
1070.287728,-2834.553343,4441.235652,9696.697840
1070.288046,-1378.971896,3923.091493,7846.182985
1070.288365,-229.828649,2516.700203,6365.771101
1070.288684,2068.457845,1258.350101,6957.935855
1070.289003,2681.334243,-1258.350101,6069.688724
1070.289322,3370.820191,-2886.803174,5625.565159
1070.289641,3907.087040,-2960.823768,7254.018232
1070.289960,3447.429741,-1850.514855,7920.203579
1070.290279,2604.724693,-370.102971,7772.162391
1070.290598,1838.629195,592.164754,10140.821405
1070.290916,536.266849,1850.514855,10955.047942
1070.291235,-306.438199,2738.761985,10436.903782
1070.291554,-1608.800546,3330.926739,9696.697840
1070.291873,-1762.019645,2590.720797,10584.944971
1070.292192,-1838.629195,2072.576638,9030.512492
1070.292511,-383.047749,518.144159,8882.471304
1070.292830,842.705048,-2146.597232,9770.718434
1070.293149,1685.410096,-3404.947333,9030.512492
1070.293468,3217.601092,-3552.988522,8882.471304
1070.293787,3983.696590,-2886.803174,8586.388927
1070.294105,3907.087040,-1924.535449,8734.430116
1070.294424,3753.867940,-370.102971,8586.388927
1070.294743,2604.724693,1628.453072,9400.615463
1070.295062,1838.629195,2960.823768,8808.450710
1070.295381,1225.752797,5033.400406,7179.997637
1070.295700,-383.047749,4885.359217,8216.285956
1070.296019,-1149.143247,3552.988522,8438.347739
1070.296338,-2221.676944,1406.391290,7698.141797
1070.296657,-2451.505594,-888.247130,9400.615463
1070.296975,-2451.505594,-3034.844362,10362.883188
1070.297294,-2451.505594,-3997.112087,10362.883188
1070.297613,-1302.362347,-3849.070898,11029.068536
1070.297932,-1072.533697,-3478.967927,12139.377449
1070.298251,0.000000,-1184.329507,11621.233289
1070.298570,689.485948,370.102971,10288.862594
1070.298889,1302.362347,4071.132681,10362.883188
1070.299208,2145.067394,5921.647536,8882.471304
1070.299527,2068.457845,7402.059420,6735.874072
1070.299845,2374.896044,6735.874072,6957.935855
1070.300164,2068.457845,5255.462188,6587.832884
1070.300483,1838.629195,3330.926739,6217.729913
1070.300802,1455.581446,-370.102971,7550.100608
1070.301121,1532.190996,-3404.947333,9030.512492
1070.301440,153.219100,-4811.338623,10066.800811
1070.301759,76.609550,-5329.482782,11325.150913
1070.302078,-229.828649,-5033.400406,13101.645173
1070.302397,0.000000,-3404.947333,12953.603985
1070.302716,229.828649,-962.267725,12361.439231
1070.303034,612.876398,814.226536,12287.418637
1070.303353,1225.752797,3182.885551,11029.068536
1070.303672,1302.362347,5477.523971,8586.388927
1070.303991,2221.676944,5773.606348,8216.285956
1070.304310,2911.162892,5921.647536,6661.853478
1070.304628,3140.991542,3923.091493,5107.421000
1070.304947,3370.820191,740.205942,5921.647536
1070.305266,3217.601092,-2072.576638,7624.121203
1070.305585,1838.629195,-3775.050304,7698.141797
1070.305904,1149.143247,-3849.070898,9252.574275
1070.306222,-383.047749,-4071.132681,11695.253884
1070.306541,-766.095498,-2960.823768,12287.418637
1070.306860,-1915.238745,-1258.350101,12139.377449
1070.307179,-2451.505594,518.144159,12583.501014
1070.307497,-2221.676944,2812.782580,11769.274478
1070.307816,-2068.457845,4885.359217,9252.574275
1070.308135,-1532.190996,4737.318029,8586.388927
1070.308454,-919.314598,5329.482782,6957.935855
1070.308773,229.828649,4737.318029,5181.441594
1070.309091,1608.800546,2294.638420,5181.441594
1070.309410,1991.848295,-370.102971,6143.709319
1070.309729,1762.019645,-2220.617826,6365.771101
1070.310048,1149.143247,-2960.823768,7328.038826
1070.310367,383.047749,-3108.864956,10140.821405
1070.310685,-459.657299,-2294.638420,10214.842000
1070.311004,-1149.143247,-592.164754,11547.212695
1070.311323,-1838.629195,1332.370696,12435.459826
1070.311642,-2374.896044,2072.576638,11621.233289
1070.311961,-2604.724693,3108.864956,11029.068536
1070.312279,-2068.457845,3997.112087,10584.944971
1070.312598,-1225.752797,3034.844362,8808.450710
1070.312917,229.828649,2146.597232,7105.977043
1070.313236,1225.752797,296.082377,7624.121203
1070.313554,2451.505594,-2294.638420,7031.956449
1070.313873,2987.772442,-3627.009116,6513.812290
1070.314192,3677.258390,-4441.235652,8808.450710
1070.314511,3064.381992,-3627.009116,9770.718434
1070.314830,2834.553343,-2220.617826,10066.800811
1070.315148,1838.629195,-1036.288319,11547.212695
1070.315467,919.314598,1406.391290,12139.377449
1070.315786,229.828649,2812.782580,10510.924376
1070.316105,-612.876398,4959.379811,9622.677246
1070.316424,0.000000,4145.153275,10658.965565
1070.316742,-459.657299,3256.906145,9030.512492
1070.317061,-306.438199,1110.308913,9104.533087
1070.317380,0.000000,-1110.308913,9696.697840
1070.317699,1072.533697,-2812.782580,8216.285956
1070.318018,1149.143247,-3701.029710,8438.347739
1070.318336,2145.067394,-3923.091493,9992.780217
1070.318655,2145.067394,-2368.659014,9918.759623
1070.318974,2145.067394,-444.123565,9326.594869
1070.319293,2068.457845,1406.391290,9622.677246
1070.319611,1225.752797,3034.844362,9918.759623
1070.319930,766.095498,4885.359217,8216.285956
1070.320249,-536.266849,6143.709319,7772.162391
1070.320568,-842.705048,5181.441594,7994.224174
1070.320887,-612.876398,3849.070898,7031.956449
1070.321205,-995.924147,1776.494261,7846.182985
1070.321524,-766.095498,-888.247130,8808.450710
1070.321843,-1149.143247,-3701.029710,9844.739029
1070.322162,-383.047749,-4959.379811,9770.718434
1070.322481,0.000000,-4293.194464,10955.047942
1070.322799,0.000000,-2738.761985,11103.089130
1070.323118,766.095498,-74.020594,9992.780217
1070.323437,919.314598,1258.350101,10362.883188
1070.323756,1608.800546,3182.885551,9326.594869
1070.324075,1532.190996,5403.503377,7698.141797
1070.324393,1302.362347,5995.668130,6291.750507
1070.324712,919.314598,5699.585753,6143.709319
1070.325031,842.705048,3108.864956,5995.668130
1070.325350,153.219100,814.226536,6957.935855
1070.325668,76.609550,-2294.638420,8734.430116
1070.325987,0.000000,-4959.379811,9622.677246
1070.326306,-306.438199,-5773.606348,11103.089130
1070.326625,76.609550,-5255.462188,12657.521608
1070.326944,153.219100,-3701.029710,11991.336260
1070.327262,-229.828649,-1850.514855,12139.377449
1070.327581,306.438199,296.082377,12731.542202
1070.327900,536.266849,3034.844362,11029.068536
1070.328219,919.314598,5477.523971,8586.388927
1070.328538,1532.190996,6291.750507,7772.162391
1070.328856,1685.410096,5551.544565,6883.915261
1070.329175,1685.410096,3701.029710,4959.379811
1070.329494,1225.752797,1332.370696,6143.709319
1070.329813,1072.533697,-1702.473667,7772.162391
1070.330132,995.924147,-3627.009116,7772.162391
1070.330450,153.219100,-4959.379811,9326.594869
1070.330769,-153.219100,-4959.379811,11843.295072
1070.331088,-995.924147,-4441.235652,12435.459826
1070.331407,-2145.067394,-2516.700203,12731.542202
1070.331725,-2604.724693,-740.205942,13101.645173
1070.332044,-2374.896044,2294.638420,11547.212695
1070.332363,-2528.115143,4737.318029,9548.656652
1070.332682,-1149.143247,5551.544565,9474.636058
1070.333001,-842.705048,5403.503377,7402.059420
1070.333319,383.047749,4885.359217,4885.359217
1070.333638,1302.362347,1628.453072,6217.729913
1070.333957,2604.724693,-1702.473667,6735.874072
1070.334276,1225.752797,-3256.906145,6513.812290
1070.334595,1302.362347,-3478.967927,7772.162391
1070.334913,612.876398,-3330.926739,9844.739029
1070.335232,306.438199,-2738.761985,10732.986159
1070.335551,0.000000,-1332.370696,11991.336260
1070.335870,-1149.143247,444.123565,12953.603985
1070.336189,-1532.190996,1924.535449,11621.233289
1070.336507,-2145.067394,3701.029710,10436.903782
1070.336826,-1225.752797,4219.173869,10510.924376
1070.337145,0.000000,4145.153275,9400.615463
1070.337464,766.095498,4071.132681,6809.894666
1070.337782,1762.019645,814.226536,7105.977043
1070.338101,2911.162892,-1702.473667,7105.977043
1070.338420,3064.381992,-2590.720797,6513.812290
1070.338739,3983.696590,-3627.009116,7624.121203
1070.339058,3064.381992,-3256.906145,9400.615463
1070.339376,2221.676944,-2368.659014,9474.636058
1070.339695,1149.143247,-1110.308913,10510.924376
1070.340014,919.314598,666.185348,11769.274478
1070.340333,-459.657299,1554.432478,10955.047942
1070.340652,-995.924147,3775.050304,10362.883188
1070.340970,-766.095498,4071.132681,10214.842000
1070.341289,-459.657299,3627.009116,9326.594869
1070.341608,229.828649,1258.350101,8956.491898
1070.341927,919.314598,-444.123565,9178.553681
1070.342245,1608.800546,-2146.597232,8512.368333
1070.342564,2681.334243,-2590.720797,7476.080014
1070.342883,3294.210641,-2442.679609,8216.285956
1070.343202,3677.258390,-2072.576638,8734.430116
1070.343521,3447.429741,-888.247130,8882.471304
1070.343839,2221.676944,148.041188,9474.636058
1070.344158,1225.752797,1480.411884,9770.718434
1070.344477,459.657299,3552.988522,8956.491898
1070.344796,-919.314598,4811.338623,8660.409521
1070.345115,-1378.971896,3552.988522,8956.491898
1070.345433,-2374.896044,2738.761985,8734.430116
1070.345752,-2145.067394,740.205942,9252.574275
1070.346071,-2374.896044,-1924.535449,9918.759623
1070.346390,-2145.067394,-3701.029710,10510.924376
1070.346709,-1762.019645,-4589.276840,10584.944971
1070.347027,-1378.971896,-4145.153275,11399.171507
1070.347346,0.000000,-3330.926739,11843.295072
1070.347665,612.876398,-1258.350101,10436.903782
1070.347984,995.924147,592.164754,10955.047942
1070.348302,1532.190996,3108.864956,9696.697840
1070.348621,1608.800546,5033.400406,7105.977043
1070.348940,1302.362347,5995.668130,5995.668130
1070.349259,766.095498,5847.626942,6291.750507
1070.349578,0.000000,4219.173869,4293.194464
1070.349896,-536.266849,1554.432478,5033.400406
1070.350215,-995.924147,-1702.473667,8364.327145
1070.350534,-1302.362347,-4367.215058,9400.615463
1070.350853,-1915.238745,-6291.750507,10658.965565
1070.351172,-2068.457845,-6587.832884,13471.748144
1070.351490,-1915.238745,-5551.544565,14804.118840
1070.351809,-1608.800546,-3330.926739,12879.583391
1070.352128,-459.657299,-814.226536,13249.686362
1070.352447,842.705048,2738.761985,11547.212695
1070.352766,2221.676944,5847.626942,8660.409521
1070.353084,3064.381992,7031.956449,5995.668130
1070.353403,4060.306139,7179.997637,5699.585753
1070.353722,4366.744339,6365.771101,3478.967927
1070.354041,4136.915689,3552.988522,3256.906145
1070.354359,4136.915689,-222.061783,5477.523971
1070.354678,2911.162892,-3330.926739,6661.853478
1070.354997,1838.629195,-5181.441594,9030.512492
1070.355316,536.266849,-5847.626942,12065.356855
1070.355635,-383.047749,-5033.400406,13545.768739
1070.355953,-1225.752797,-3330.926739,13767.830521
1070.356272,-1915.238745,-814.226536,14582.057057
1070.356591,-1991.848295,1258.350101,13323.706956
1070.356910,-1532.190996,4515.256246,10881.027347
1070.357229,-689.485948,5921.647536,9400.615463
1070.357547,612.876398,6217.729913,7846.182985
1070.357866,1455.581446,5329.482782,5699.585753
1070.358185,2911.162892,3182.885551,4663.297435
1070.358504,2987.772442,222.061783,5625.565159
1070.358823,3064.381992,-2442.679609,6143.709319
1070.359141,3064.381992,-3552.988522,7328.038826
1070.359460,2068.457845,-4515.256246,9770.718434
1070.359779,995.924147,-3552.988522,11251.130318
1070.360098,0.000000,-1998.556043,11843.295072
1070.360416,-1225.752797,-740.205942,13175.665768
1070.360735,-2298.286494,1332.370696,12657.521608
1070.361054,-3064.381992,3849.070898,11325.150913
1070.361373,-2987.772442,4737.318029,10362.883188
1070.361692,-2451.505594,4589.276840,9474.636058
1070.362010,-1532.190996,3478.967927,7994.224174
1070.362329,-229.828649,962.267725,7402.059420
1070.362648,1149.143247,-1184.329507,8142.265362
1070.362967,2298.286494,-2590.720797,7328.038826
1070.363286,3677.258390,-2812.782580,8364.327145
1070.363604,3600.648841,-2886.803174,9474.636058
1070.363923,3600.648841,-1628.453072,9770.718434
1070.364242,2911.162892,-148.041188,9548.656652
1070.364561,2068.457845,1110.308913,10881.027347
1070.364880,1149.143247,2664.741391,9844.739029
1070.365198,0.000000,4219.173869,9104.533087
1070.365517,-995.924147,4145.153275,8956.491898
1070.365836,-1378.971896,3552.988522,9030.512492
1070.366155,-1685.410096,2220.617826,8882.471304
1070.366473,-536.266849,-222.061783,9252.574275
1070.366792,-306.438199,-3182.885551,9548.656652
1070.367111,459.657299,-4589.276840,9474.636058
1070.367430,1302.362347,-4737.318029,10288.862594
1070.367749,1838.629195,-3997.112087,11029.068536
1070.368067,2145.067394,-2146.597232,10658.965565
1070.368386,2757.943793,148.041188,10140.821405
1070.368705,2451.505594,2072.576638,9696.697840
1070.369024,1685.410096,4071.132681,8586.388927
1070.369343,1302.362347,5921.647536,7179.997637
1070.369661,612.876398,5921.647536,7105.977043
1070.369980,-306.438199,4737.318029,5995.668130
1070.370299,-995.924147,1998.556043,7179.997637
1070.370618,-1455.581446,-666.185348,8956.491898
1070.370937,-2068.457845,-2886.803174,9326.594869
1070.371255,-1838.629195,-4885.359217,10658.965565
1070.371574,-1072.533697,-5403.503377,12805.562797
1070.371893,-383.047749,-4145.153275,12879.583391
1070.372212,153.219100,-2072.576638,11547.212695
1070.372530,536.266849,-148.041188,11695.253884
1070.372849,1149.143247,1702.473667,10658.965565
1070.373168,1608.800546,4737.318029,7698.141797
1070.373487,1762.019645,6735.874072,5847.626942
1070.373806,1838.629195,7031.956449,5699.585753
1070.374124,1608.800546,6143.709319,4071.132681
1070.374443,1225.752797,3478.967927,4219.173869
1070.374762,842.705048,-148.041188,6809.894666
1070.375081,-306.438199,-2294.638420,7920.203579
1070.375400,-766.095498,-4959.379811,9918.759623
1070.375718,-1149.143247,-6069.688724,12361.439231
1070.376037,-1225.752797,-5773.606348,13545.768739
1070.376356,-1149.143247,-4589.276840,13397.727550
1070.376675,-689.485948,-1924.535449,13397.727550
1070.376994,-153.219100,666.185348,11917.315666
1070.377312,383.047749,4071.132681,9178.553681
1070.377631,1608.800546,6513.812290,7105.977043
1070.377950,2604.724693,7179.997637,6365.771101
1070.378269,2834.553343,6957.935855,3997.112087
1070.378587,2911.162892,4589.276840,3404.947333
1070.378906,3294.210641,1036.288319,5847.626942
1070.379225,2528.115143,-2072.576638,6883.915261
1070.379544,2145.067394,-3552.988522,8734.430116
1070.379863,1532.190996,-4811.338623,11325.150913
1070.380181,689.485948,-4737.318029,13027.624579
1070.380500,0.000000,-3182.885551,13175.665768
1070.380819,-536.266849,-1258.350101,13841.851115
1070.381138,-689.485948,814.226536,13175.665768
1070.381457,-612.876398,3701.029710,10214.842000
1070.381775,-383.047749,5255.462188,8882.471304
1070.382094,0.000000,5773.606348,7772.162391
1070.382413,919.314598,5033.400406,6291.750507
1070.382732,2221.676944,3404.947333,5921.647536
1070.383051,2298.286494,814.226536,5995.668130
1070.383369,2298.286494,-1554.432478,6883.915261
1070.383688,2068.457845,-2886.803174,8216.285956
1070.384007,1455.581446,-3478.967927,9992.780217
1070.384326,612.876398,-3849.070898,11769.274478
1070.384644,153.219100,-2146.597232,12213.398043
1070.384963,-536.266849,-814.226536,13101.645173
1070.385282,-1455.581446,370.102971,12731.542202
1070.385601,-2374.896044,2294.638420,10658.965565
1070.385920,-2528.115143,3478.967927,10436.903782
1070.386238,-1915.238745,3923.091493,9030.512492
1070.386557,-1685.410096,3256.906145,7624.121203
1070.386876,-459.657299,2146.597232,7476.080014
1070.387195,689.485948,148.041188,7846.182985
1070.387514,1302.362347,-1406.391290,7550.100608
1070.387832,2451.505594,-3108.864956,8364.327145
1070.388151,1991.848295,-3330.926739,9918.759623
1070.388470,2068.457845,-2368.659014,9622.677246
1070.388789,1685.410096,-888.247130,9992.780217
1070.389108,919.314598,222.061783,10807.006753
1070.389426,536.266849,1554.432478,10510.924376
1070.389745,-306.438199,3775.050304,8882.471304
1070.390064,-1225.752797,4293.194464,8512.368333
1070.390383,-1685.410096,3256.906145,9104.533087
1070.390701,-1762.019645,2738.761985,8142.265362
1070.391020,-1302.362347,1258.350101,8660.409521
1070.391339,-383.047749,-1184.329507,9696.697840
1070.391658,0.000000,-3256.906145,9696.697840
1070.391977,689.485948,-4293.194464,9918.759623
1070.392295,2221.676944,-3552.988522,10807.006753
1070.392614,2374.896044,-2368.659014,10362.883188
1070.392933,2987.772442,-296.082377,9326.594869
1070.393252,2528.115143,1332.370696,8808.450710
1070.393571,2145.067394,3849.070898,7179.997637
1070.393889,2221.676944,5477.523971,5847.626942
1070.394208,766.095498,6143.709319,5773.606348
1070.394527,76.609550,4663.297435,5625.565159
1070.394846,-919.314598,2294.638420,6291.750507
1070.395165,-1685.410096,-370.102971,8512.368333
1070.395483,-2451.505594,-3404.947333,10288.862594
1070.395802,-2451.505594,-4959.379811,11473.192101
1070.396121,-2374.896044,-5255.462188,13249.686362
1070.396440,-1225.752797,-4293.194464,13915.871710
1070.396758,-612.876398,-2146.597232,12435.459826
1070.397077,612.876398,-0.000000,11843.295072
1070.397396,1072.533697,2294.638420,10584.944971
1070.397715,2145.067394,4811.338623,7328.038826
1070.398034,2374.896044,6809.894666,5551.544565
1070.398352,2834.553343,6809.894666,4811.338623
1070.398671,1915.238745,5181.441594,3923.091493
1070.398990,1915.238745,3108.864956,4441.235652
1070.399309,1149.143247,222.061783,6883.915261
1070.399628,76.609550,-2886.803174,8808.450710
1070.399946,-306.438199,-4959.379811,10732.986159
1070.400265,-842.705048,-6291.750507,13619.789333
1070.400584,-1378.971896,-5773.606348,15174.221811
1070.400903,-1838.629195,-4441.235652,14730.098246
1070.401222,-995.924147,-1998.556043,14211.954086
1070.401540,0.000000,592.164754,13101.645173
1070.401859,766.095498,4293.194464,9844.739029
1070.402178,2145.067394,6143.709319,7402.059420
1070.402497,3064.381992,7105.977043,5847.626942
1070.402815,3447.429741,6143.709319,4589.276840
1070.403134,3983.696590,3923.091493,4737.318029
1070.403453,3907.087040,1184.329507,5625.565159
1070.403772,3447.429741,-1110.308913,5995.668130
1070.404091,2298.286494,-3330.926739,8438.347739
1070.404409,1225.752797,-5033.400406,11769.274478
1070.404728,76.609550,-5107.421000,13101.645173
1070.405047,-995.924147,-3552.988522,13323.706956
1070.405366,-1991.848295,-2072.576638,13841.851115
1070.405685,-2374.896044,-74.020594,13471.748144
1070.406004,-2451.505594,2886.803174,10584.944971
1070.406323,-2221.676944,4515.256246,9474.636058
1070.406641,-1532.190996,5551.544565,8438.347739
1070.406960,-766.095498,5255.462188,6217.729913
1070.407279,766.095498,4071.132681,5181.441594
1070.407598,1455.581446,1998.556043,5921.647536
1070.407917,2298.286494,-740.205942,6735.874072
1070.408236,2145.067394,-2072.576638,6957.935855
1070.408555,1991.848295,-2664.741391,9104.533087
1070.408874,1378.971896,-3034.844362,10436.903782
1070.409193,689.485948,-2072.576638,10807.006753
1070.409511,-153.219100,-592.164754,11547.212695
1070.409830,-1762.019645,740.205942,12065.356855
1070.410149,-2451.505594,2960.823768,10362.883188
1070.410468,-2145.067394,4145.153275,9548.656652
1070.410787,-2757.943793,4145.153275,9104.533087
1070.411106,-2911.162892,3182.885551,7994.224174
1070.411425,-1915.238745,1110.308913,7994.224174
1070.411744,-689.485948,-962.267725,8660.409521
1070.412063,153.219100,-2812.782580,8364.327145
1070.412381,1225.752797,-3997.112087,8660.409521
1070.412700,1991.848295,-4071.132681,10807.006753
1070.413019,2757.943793,-3034.844362,10584.944971
1070.413338,3524.039291,-1036.288319,9992.780217
1070.413657,2834.553343,1184.329507,9992.780217
1070.413976,2145.067394,3182.885551,8956.491898
1070.414295,1149.143247,4589.276840,7179.997637
1070.414614,766.095498,4811.338623,7328.038826
1070.414933,0.000000,3034.844362,8068.244768
1070.415251,-842.705048,1554.432478,7105.977043
1070.415570,-919.314598,-296.082377,7772.162391
1070.415889,-766.095498,-2442.679609,9030.512492
1070.416208,-919.314598,-4811.338623,9326.594869
1070.416527,-612.876398,-5995.668130,10732.986159
1070.416846,0.000000,-5403.503377,12065.356855
1070.417165,1149.143247,-3923.091493,12139.377449
1070.417484,1225.752797,-1776.494261,11325.150913
1070.417803,1378.971896,962.267725,11399.171507
1070.418121,1685.410096,3552.988522,9622.677246
1070.418440,1915.238745,6809.894666,6587.832884
1070.418759,2068.457845,7624.121203,5551.544565
1070.419078,1762.019645,6661.853478,5255.462188
1070.419397,1608.800546,4737.318029,4959.379811
1070.419716,1072.533697,1554.432478,6661.853478
1070.420035,153.219100,-1480.411884,8216.285956
1070.420354,0.000000,-4293.194464,9474.636058
1070.420673,-1072.533697,-5847.626942,12065.356855
1070.420991,-1838.629195,-6291.750507,13841.851115
1070.421310,-1225.752797,-3775.050304,13397.727550
1070.421629,-536.266849,-1258.350101,13101.645173
1070.421948,76.609550,1110.308913,12583.501014
1070.422267,536.266849,3775.050304,10732.986159
1070.422586,1302.362347,6365.771101,7550.100608
1070.422905,1072.533697,6883.915261,6513.812290
1070.423224,1685.410096,5995.668130,5181.441594
1070.423543,1838.629195,4663.297435,4441.235652
1070.423861,2068.457845,2294.638420,5033.400406
1070.424180,1455.581446,-888.247130,7254.018232
1070.424499,995.924147,-4293.194464,9400.615463
1070.424818,536.266849,-6143.709319,11843.295072
1070.425137,0.000000,-6365.771101,13397.727550
1070.425456,-689.485948,-5033.400406,13915.871710
1070.425775,-1225.752797,-2220.617826,13841.851115
1070.426094,-1149.143247,666.185348,12213.398043
1070.426413,-383.047749,3330.926739,11177.109724
1070.426731,-306.438199,5699.585753,8808.450710
1070.427050,0.000000,6217.729913,7698.141797
1070.427369,229.828649,5921.647536,5551.544565
1070.427688,995.924147,4885.359217,4811.338623
1070.428007,1455.581446,1110.308913,5995.668130
1070.428326,919.314598,-1554.432478,7179.997637
1070.428645,612.876398,-3627.009116,8808.450710
1070.428964,766.095498,-4811.338623,10881.027347
1070.429283,766.095498,-4441.235652,12287.418637
1070.429601,689.485948,-2886.803174,11917.315666
1070.429920,229.828649,-1776.494261,12657.521608
1070.430239,-612.876398,-0.000000,12583.501014
1070.430558,-689.485948,2442.679609,10288.862594
1070.430877,-1149.143247,5181.441594,8364.327145
1070.431196,-536.266849,5551.544565,8142.265362
1070.431515,0.000000,4885.359217,6661.853478
1070.431834,383.047749,3404.947333,6069.688724
1070.432153,1378.971896,1258.350101,6439.791695
1070.432471,1685.410096,-1554.432478,6883.915261
1070.432790,1762.019645,-3923.091493,8068.244768
1070.433109,2068.457845,-5255.462188,10066.800811
1070.433428,1608.800546,-4959.379811,11695.253884
1070.433747,995.924147,-3478.967927,11473.192101
1070.434066,766.095498,-1850.514855,11843.295072
1070.434385,612.876398,518.144159,11917.315666
1070.434704,0.000000,2590.720797,9696.697840
1070.435023,-766.095498,4367.215058,8734.430116
1070.435342,-612.876398,4737.318029,8142.265362
1070.435660,-459.657299,4959.379811,5699.585753
1070.435979,842.705048,2368.659014,6587.832884
1070.436298,612.876398,-222.061783,6957.935855
1070.436617,689.485948,-2294.638420,7402.059420
1070.436936,1149.143247,-4071.132681,7476.080014
1070.437255,1532.190996,-4145.153275,9992.780217
1070.437574,1685.410096,-3478.967927,10881.027347
1070.437893,995.924147,-1554.432478,10288.862594
1070.438212,459.657299,-0.000000,11473.192101
1070.438530,0.000000,1554.432478,10881.027347
1070.438849,-766.095498,3775.050304,9326.594869
1070.439168,-1378.971896,5403.503377,8734.430116
1070.439487,-1302.362347,5403.503377,7920.203579
1070.439806,-1455.581446,4219.173869,7105.977043
1070.440125,-919.314598,2146.597232,7846.182985
1070.440444,76.609550,-592.164754,9104.533087
1070.440763,383.047749,-2368.659014,8586.388927
1070.441082,612.876398,-3997.112087,9548.656652
1070.441400,1608.800546,-4589.276840,11991.336260
1070.441719,2298.286494,-3478.967927,11547.212695
1070.442038,1838.629195,-2072.576638,10658.965565
1070.442357,2374.896044,-148.041188,11399.171507
1070.442676,2298.286494,2146.597232,10362.883188
1070.442995,1838.629195,5033.400406,7550.100608
1070.443314,1762.019645,6365.771101,7179.997637
1070.443633,1149.143247,5921.647536,7476.080014
1070.443952,689.485948,4515.256246,5995.668130
1070.444270,842.705048,1406.391290,7105.977043
1070.444589,383.047749,-2220.617826,9474.636058
1070.444908,306.438199,-5033.400406,10510.924376
1070.445227,0.000000,-6587.832884,11991.336260
1070.445546,153.219100,-6217.729913,13619.789333
1070.445865,612.876398,-5255.462188,13027.624579
1070.446184,459.657299,-2590.720797,12509.480420
1070.446503,536.266849,-0.000000,12731.542202
1070.446822,1302.362347,3330.926739,10066.800811
1070.447140,1149.143247,6809.894666,7105.977043
1070.447459,1532.190996,7476.080014,6513.812290
1070.447778,1302.362347,6735.874072,5773.606348
1070.448097,1302.362347,4515.256246,4515.256246
1070.448416,766.095498,1258.350101,5995.668130
1070.448735,229.828649,-1628.453072,8216.285956
1070.449054,153.219100,-3849.070898,9104.533087
1070.449373,0.000000,-5033.400406,11251.130318
1070.449692,-689.485948,-4811.338623,13323.706956
1070.450010,-306.438199,-3627.009116,13027.624579
1070.450329,-383.047749,-1258.350101,12583.501014
1070.450648,-229.828649,1110.308913,12509.480420
1070.450967,153.219100,3997.112087,10140.821405
1070.451286,-536.266849,5847.626942,7550.100608
1070.451605,766.095498,6809.894666,6883.915261
1070.451924,383.047749,6735.874072,5255.462188
1070.452243,919.314598,4737.318029,4367.215058
1070.452562,1455.581446,962.267725,5995.668130
1070.452880,766.095498,-1628.453072,6883.915261
1070.453199,766.095498,-3701.029710,7846.182985
1070.453518,229.828649,-5551.544565,9992.780217
1070.453837,0.000000,-5921.647536,12065.356855
1070.454156,-459.657299,-5107.421000,12435.459826
1070.454475,-995.924147,-3108.864956,12361.439231
1070.454794,-612.876398,-666.185348,13027.624579
1070.455113,-1225.752797,2072.576638,10214.842000
1070.455432,-689.485948,4885.359217,7698.141797
1070.455750,0.000000,5699.585753,7179.997637
1070.456069,76.609550,5477.523971,5255.462188
1070.456388,842.705048,4367.215058,4367.215058
1070.456707,1532.190996,1924.535449,5033.400406
1070.457026,2298.286494,-666.185348,6439.791695
1070.457345,1991.848295,-2960.823768,7476.080014
1070.457664,1532.190996,-4515.256246,9548.656652
1070.457983,1838.629195,-3849.070898,11843.295072
1070.458302,1149.143247,-3256.906145,11991.336260
1070.458620,383.047749,-1480.411884,12805.562797
1070.458939,383.047749,444.123565,12879.583391
1070.459258,0.000000,3182.885551,10732.986159
1070.459577,-459.657299,4885.359217,9252.574275
1070.459896,0.000000,5699.585753,7994.224174
1070.460215,229.828649,5625.565159,6735.874072
1070.460534,1072.533697,3923.091493,5921.647536
1070.460853,1608.800546,1184.329507,7179.997637
1070.461172,2068.457845,-1924.535449,8216.285956
1070.461490,2681.334243,-3627.009116,9104.533087
1070.461809,2528.115143,-4885.359217,11029.068536
1070.462128,2757.943793,-4515.256246,12065.356855
1070.462447,1991.848295,-2960.823768,11473.192101
1070.462766,1685.410096,-1480.411884,11843.295072
1070.463085,1455.581446,740.205942,11843.295072
1070.463404,536.266849,3034.844362,9474.636058
1070.463723,-229.828649,4589.276840,8660.409521
1070.464042,-612.876398,4959.379811,8586.388927
1070.464360,-919.314598,3849.070898,7550.100608
1070.464679,-995.924147,1998.556043,7254.018232
1070.464998,-612.876398,-0.000000,8512.368333
1070.465317,-153.219100,-1850.514855,8956.491898
1070.465636,459.657299,-3552.988522,9474.636058
1070.465955,1225.752797,-4589.276840,12065.356855
1070.466274,1225.752797,-3775.050304,12065.356855
1070.466593,1072.533697,-2368.659014,10955.047942
1070.466912,995.924147,-0.000000,11029.068536
1070.467230,1072.533697,2442.679609,10436.903782
1070.467549,459.657299,5033.400406,7772.162391
1070.467868,0.000000,7031.956449,6735.874072
1070.468187,-536.266849,6957.935855,7105.977043
1070.468506,-612.876398,5551.544565,6365.771101
1070.468825,-766.095498,2664.741391,7179.997637
1070.469144,-383.047749,-666.185348,9474.636058
1070.469463,-1455.581446,-3627.009116,10214.842000
1070.469782,-995.924147,-5255.462188,11325.150913
1070.470100,-383.047749,-5551.544565,12879.583391
1070.470419,0.000000,-4663.297435,12509.480420
1070.470738,766.095498,-1924.535449,11547.212695
1070.471057,1762.019645,740.205942,11473.192101
1070.471376,2221.676944,3404.947333,9474.636058
1070.471695,1915.238745,6365.771101,6809.894666
1070.472014,2145.067394,7105.977043,6365.771101
1070.472333,1608.800546,5847.626942,5403.503377
1070.472652,766.095498,3552.988522,4663.297435
1070.472970,0.000000,666.185348,6439.791695
1070.473289,0.000000,-2368.659014,8512.368333
1070.473608,-689.485948,-4737.318029,9104.533087
1070.473927,-1072.533697,-6291.750507,11251.130318
1070.474246,-536.266849,-6291.750507,13027.624579
1070.474565,-995.924147,-5107.421000,12731.542202
1070.474884,-1378.971896,-3330.926739,12879.583391
1070.475203,-536.266849,-1110.308913,13471.748144
1070.475522,-229.828649,2738.761985,10436.903782
1070.475840,306.438199,5551.544565,7254.018232
1070.476159,1378.971896,6661.853478,6587.832884
1070.476478,1302.362347,6957.935855,4293.194464
1070.476797,2145.067394,5847.626942,2960.823768
1070.477116,2604.724693,3330.926739,3997.112087
1070.477435,1915.238745,-370.102971,6069.688724
1070.477754,1455.581446,-2886.803174,7254.018232
1070.478073,306.438199,-4515.256246,10288.862594
1070.478392,76.609550,-5329.482782,12731.542202
1070.478710,-612.876398,-4293.194464,12731.542202
1070.479029,-919.314598,-2886.803174,13471.748144
1070.479348,-995.924147,-740.205942,13397.727550
1070.479667,-842.705048,2368.659014,10955.047942
1070.479986,-842.705048,4515.256246,9104.533087
1070.480305,-306.438199,5995.668130,8808.450710
1070.480624,229.828649,6439.791695,5921.647536
1070.480943,842.705048,5773.606348,4367.215058
1070.481262,2068.457845,2590.720797,6217.729913
1070.481581,2451.505594,-0.000000,7254.018232
1070.481899,2451.505594,-2072.576638,7550.100608
1070.482218,2451.505594,-3627.009116,9474.636058
1070.482537,2374.896044,-5329.482782,11621.233289
1070.482856,1302.362347,-4811.338623,12583.501014
1070.483175,383.047749,-3552.988522,13249.686362
1070.483494,-536.266849,-1702.473667,12657.521608
1070.483813,-919.314598,962.267725,11251.130318
1070.484132,-919.314598,2738.761985,9696.697840
1070.484451,-842.705048,4737.318029,9474.636058
1070.484769,-1532.190996,5033.400406,6661.853478
1070.485088,-536.266849,4071.132681,6217.729913
1070.485407,612.876398,1924.535449,7105.977043
1070.485726,1455.581446,-444.123565,7624.121203
1070.486045,2374.896044,-3404.947333,9326.594869
1070.486364,2221.676944,-3404.947333,10807.006753
1070.486683,2757.943793,-3034.844362,11399.171507
1070.487002,2528.115143,-1554.432478,9992.780217
1070.487321,2298.286494,-0.000000,11473.192101
1070.487639,1762.019645,1776.494261,11769.274478
1070.487958,459.657299,4589.276840,8364.327145
1070.488277,-383.047749,5477.523971,7920.203579
1070.488596,-612.876398,5477.523971,9104.533087
1070.488915,-1685.410096,5033.400406,6883.915261
1070.489234,-1608.800546,2442.679609,7031.956449
1070.489553,-1225.752797,-148.041188,8660.409521
1070.489872,-1302.362347,-2960.823768,9474.636058
1070.490191,-153.219100,-4737.318029,9918.759623
1070.490509,153.219100,-4589.276840,11843.295072
1070.490828,995.924147,-3627.009116,12361.439231
1070.491147,1378.971896,-1702.473667,10955.047942
1070.491466,1838.629195,-814.226536,11547.212695
1070.491785,1225.752797,1702.473667,10732.986159
1070.492104,842.705048,4959.379811,7624.121203
1070.492423,306.438199,6291.750507,6069.688724
1070.492742,0.000000,5699.585753,6365.771101
1070.493061,-612.876398,3923.091493,6587.832884
1070.493379,-842.705048,1406.391290,6883.915261
1070.493698,-1455.581446,-2220.617826,9474.636058
1070.494017,-1685.410096,-4737.318029,10066.800811
1070.494336,-1378.971896,-5773.606348,11325.150913
1070.494655,-1149.143247,-6587.832884,13249.686362
1070.494974,0.000000,-5921.647536,13323.706956
1070.495293,0.000000,-4219.173869,12731.542202
1070.495612,612.876398,-1406.391290,12065.356855
1070.495931,1455.581446,1924.535449,9474.636058
1070.496249,1685.410096,5699.585753,6365.771101
1070.496568,1915.238745,7476.080014,4589.276840
1070.496887,2068.457845,7328.038826,3997.112087
1070.497206,1532.190996,6143.709319,3034.844362
1070.497525,1378.971896,2886.803174,4071.132681
1070.497844,689.485948,-740.205942,7031.956449
1070.498163,0.000000,-3775.050304,8808.450710
1070.498482,-995.924147,-5551.544565,10881.027347
1070.498801,-612.876398,-5921.647536,13323.706956
1070.499119,0.000000,-5255.462188,14063.912898
1070.499438,-689.485948,-3478.967927,13101.645173
1070.499757,-229.828649,-962.267725,13027.624579
1070.500076,153.219100,2072.576638,10955.047942
1070.500395,842.705048,5847.626942,7550.100608
1070.500714,1532.190996,7550.100608,6217.729913
1070.501033,1915.238745,7920.203579,4737.318029
1070.501352,2374.896044,6957.935855,2960.823768
1070.501671,3140.991542,4071.132681,3997.112087
1070.501989,2604.724693,296.082377,6143.709319
1070.502308,2451.505594,-3404.947333,7402.059420
1070.502627,1762.019645,-5255.462188,9844.739029
1070.502946,995.924147,-6069.688724,12879.583391
1070.503265,0.000000,-5995.668130,13619.789333
1070.503584,-536.266849,-4293.194464,14211.954086
1070.503903,-536.266849,-1776.494261,14952.160028
1070.504222,-995.924147,962.267725,12509.480420
1070.504540,-1762.019645,3330.926739,9918.759623
1070.504859,-1302.362347,5107.421000,9400.615463
1070.505178,-842.705048,5995.668130,7846.182985
1070.505497,0.000000,5181.441594,5625.565159
1070.505816,1302.362347,3256.906145,5773.606348
1070.506135,2068.457845,666.185348,7031.956449
1070.506453,2604.724693,-1184.329507,6661.853478
1070.506772,2834.553343,-3478.967927,9178.553681
1070.507091,2604.724693,-4219.173869,10807.006753
1070.507410,1838.629195,-3108.864956,11177.109724
1070.507729,1532.190996,-2368.659014,12139.377449
1070.508048,153.219100,-962.267725,12805.562797
1070.508366,-995.924147,1628.453072,11251.130318
1070.508685,-2451.505594,3775.050304,9992.780217
1070.509004,-2374.896044,4959.379811,9770.718434
1070.509323,-2451.505594,5033.400406,8142.265362
1070.509642,-1762.019645,4663.297435,7476.080014
1070.509961,-766.095498,2072.576638,8290.306550
1070.510279,229.828649,-148.041188,8586.388927
1070.510598,1225.752797,-1850.514855,8438.347739
1070.510917,2757.943793,-3478.967927,9474.636058
1070.511236,3140.991542,-3701.029710,10881.027347
1070.511555,2528.115143,-3404.947333,10140.821405
1070.511874,2451.505594,-1850.514855,10732.986159
1070.512192,1608.800546,296.082377,10658.965565
1070.512511,1378.971896,2738.761985,9178.553681
1070.512830,76.609550,4367.215058,8068.244768
1070.513149,-766.095498,4367.215058,8142.265362
1070.513468,-1685.410096,3849.070898,7031.956449
1070.513787,-1685.410096,1554.432478,7031.956449
1070.514105,-1532.190996,-666.185348,8512.368333
1070.514424,-1225.752797,-2960.823768,8956.491898
1070.514743,-1225.752797,-4515.256246,9474.636058
1070.515062,-153.219100,-5403.503377,11695.253884
1070.515381,1149.143247,-4663.297435,12361.439231
1070.515700,1608.800546,-3034.844362,11547.212695
1070.516018,2451.505594,-1036.288319,11103.089130
1070.516337,2604.724693,1850.514855,10362.883188
1070.516656,2145.067394,4885.359217,6661.853478
1070.516975,1685.410096,6439.791695,5625.565159
1070.517294,1838.629195,7105.977043,4959.379811
1070.517613,995.924147,6217.729913,3923.091493
1070.517931,306.438199,3108.864956,4367.215058
1070.518250,-459.657299,-222.061783,7402.059420
1070.518569,-1225.752797,-2664.741391,8512.368333
1070.518888,-1991.848295,-4959.379811,10140.821405
1070.519207,-1915.238745,-6291.750507,13471.748144
1070.519526,-1532.190996,-5699.585753,14730.098246
1070.519844,-689.485948,-3701.029710,13693.809927
1070.520163,76.609550,-962.267725,13471.748144
1070.520482,1072.533697,1776.494261,12213.398043
1070.520801,1532.190996,5255.462188,7920.203579
1070.521120,2451.505594,7328.038826,5995.668130
1070.521439,2451.505594,6661.853478,5107.421000
1070.521757,2221.676944,6439.791695,3552.988522
1070.522076,2451.505594,3923.091493,4219.173869
1070.522395,2298.286494,444.123565,5551.544565
1070.522714,1532.190996,-3034.844362,8364.327145
1070.523033,459.657299,-5699.585753,10288.862594
1070.523352,-153.219100,-7179.997637,13693.809927
1070.523670,-766.095498,-6735.874072,14656.077652
1070.523989,-1225.752797,-5107.421000,14952.160028
1070.524308,-1072.533697,-2812.782580,15396.283594
1070.524627,-1302.362347,148.041188,13915.871710
1070.524946,-1149.143247,4441.235652,11103.089130
1070.525265,-153.219100,7031.956449,8364.327145
1070.525583,1762.019645,8216.285956,6439.791695
1070.525902,2298.286494,7105.977043,4589.276840
1070.526221,3217.601092,4663.297435,4589.276840
1070.526540,3140.991542,1184.329507,4959.379811
1070.526859,3217.601092,-1480.411884,6069.688724
1070.527178,3140.991542,-3997.112087,8142.265362
1070.527496,2298.286494,-5033.400406,11251.130318
1070.527815,919.314598,-4515.256246,12139.377449
1070.528134,536.266849,-3182.885551,12731.542202
1070.528453,-536.266849,-1406.391290,13323.706956
1070.528772,-1302.362347,1110.308913,12361.439231
1070.529091,-2528.115143,3404.947333,10288.862594
1070.529409,-2451.505594,5255.462188,9326.594869
1070.529728,-2374.896044,5329.482782,8438.347739
1070.530047,-1685.410096,4885.359217,6883.915261
1070.530366,-536.266849,3552.988522,6291.750507
1070.530685,919.314598,1480.411884,6735.874072
1070.531004,1302.362347,-1332.370696,7105.977043
1070.531322,1378.971896,-3627.009116,8660.409521
1070.531641,1915.238745,-4145.153275,10214.842000
1070.531960,1378.971896,-3923.091493,10584.944971
1070.532279,1378.971896,-2812.782580,11251.130318
1070.532598,919.314598,-1628.453072,12213.398043
1070.532917,0.000000,1036.288319,10288.862594
1070.533235,-766.095498,2516.700203,8512.368333
1070.533554,-1149.143247,3256.906145,7698.141797
1070.533873,-2221.676944,3849.070898,7254.018232
1070.534192,-1991.848295,2368.659014,6661.853478
1070.534511,-1685.410096,814.226536,7105.977043
1070.534830,-1225.752797,-1850.514855,8068.244768
1070.535148,-306.438199,-4219.173869,8734.430116
1070.535467,612.876398,-4811.338623,10362.883188
1070.535786,1608.800546,-4663.297435,11621.233289
1070.536105,2374.896044,-3404.947333,11029.068536
1070.536424,2757.943793,-1628.453072,10510.924376
1070.536743,2987.772442,962.267725,11177.109724
1070.537061,2374.896044,3404.947333,8660.409521
1070.537380,2374.896044,5403.503377,7105.977043
1070.537699,1685.410096,6957.935855,6291.750507
1070.538018,1532.190996,6217.729913,5181.441594
1070.538337,1072.533697,3997.112087,4367.215058
1070.538656,306.438199,592.164754,7031.956449
1070.538974,0.000000,-2146.597232,8142.265362
1070.539293,0.000000,-3775.050304,9400.615463
1070.539612,0.000000,-5181.441594,12139.377449
1070.539931,76.609550,-5181.441594,13545.768739
1070.540250,612.876398,-3256.906145,13027.624579
1070.540569,1225.752797,-814.226536,12361.439231
1070.540887,1838.629195,1776.494261,11917.315666
1070.541206,2145.067394,4515.256246,8808.450710
1070.541525,2221.676944,6735.874072,6957.935855
1070.541844,1608.800546,7179.997637,5847.626942
1070.542163,1072.533697,6735.874072,4737.318029
1070.542482,1225.752797,3997.112087,4737.318029
1070.542800,0.000000,1110.308913,6809.894666
1070.543119,-383.047749,-1406.391290,8142.265362
1070.543438,-689.485948,-3404.947333,9622.677246
1070.543757,-1225.752797,-5477.523971,13175.665768
1070.544076,-1378.971896,-5995.668130,15174.221811
1070.544395,-1608.800546,-4737.318029,14211.954086
1070.544713,-1532.190996,-2886.803174,14952.160028
1070.545032,-1302.362347,74.020594,13989.892304
1070.545351,-919.314598,3478.967927,10510.924376
1070.545670,0.000000,6069.688724,7920.203579
1070.545989,612.876398,7476.080014,6809.894666
1070.546308,1149.143247,7179.997637,4145.153275
1070.546626,1608.800546,4959.379811,3552.988522
1070.546945,1915.238745,1110.308913,5625.565159
1070.547264,1991.848295,-1554.432478,7328.038826
1070.547583,2068.457845,-3627.009116,9252.574275
1070.547902,1532.190996,-5477.523971,12139.377449
1070.548221,1149.143247,-5033.400406,14137.933492
1070.548539,1225.752797,-3775.050304,13767.830521
1070.548858,919.314598,-2072.576638,14359.995275
1070.549177,766.095498,370.102971,13471.748144
1070.549496,383.047749,3849.070898,10584.944971
1070.549815,536.266849,6365.771101,7994.224174
1070.550134,1072.533697,6883.915261,6735.874072
1070.550452,995.924147,6143.709319,4811.338623
1070.550771,1149.143247,4367.215058,4367.215058
1070.551090,1991.848295,1554.432478,4959.379811
1070.551409,2298.286494,-1776.494261,6143.709319
1070.551728,1608.800546,-4441.235652,8734.430116
1070.552047,1532.190996,-5921.647536,11695.253884
1070.552365,1225.752797,-5773.606348,12583.501014
1070.552684,383.047749,-4737.318029,12805.562797
1070.553003,-306.438199,-2516.700203,13915.871710
1070.553322,-612.876398,-592.164754,13323.706956
1070.553641,-1532.190996,3182.885551,9400.615463
1070.553960,-919.314598,5773.606348,8586.388927
1070.554278,-1149.143247,5995.668130,7105.977043
1070.554597,-1378.971896,5847.626942,4367.215058
1070.554916,-459.657299,2590.720797,5477.523971
1070.555235,-383.047749,-296.082377,7031.956449
1070.555554,0.000000,-2738.761985,7105.977043
1070.555873,383.047749,-4293.194464,8586.388927
1070.556191,1072.533697,-4885.359217,10732.986159
1070.556510,842.705048,-4811.338623,11399.171507
1070.556829,536.266849,-3108.864956,12139.377449
1070.557148,76.609550,-888.247130,12065.356855
1070.557467,-229.828649,1554.432478,11177.109724
1070.557786,-689.485948,3849.070898,8586.388927
1070.558104,-612.876398,5699.585753,8068.244768
1070.558423,-919.314598,6661.853478,6291.750507
1070.558742,-689.485948,5625.565159,4663.297435
1070.559061,153.219100,3182.885551,5107.421000
1070.559380,459.657299,814.226536,6365.771101
1070.559699,1378.971896,-2072.576638,7105.977043
1070.560017,1149.143247,-4441.235652,9548.656652
1070.560336,1302.362347,-5181.441594,11917.315666
1070.560655,1072.533697,-4885.359217,11843.295072
1070.560974,1455.581446,-3849.070898,12509.480420
1070.561293,1149.143247,-1554.432478,13249.686362
1070.561612,306.438199,1776.494261,10510.924376
1070.561930,383.047749,4737.318029,8068.244768
1070.562249,76.609550,5773.606348,7550.100608
1070.562568,76.609550,6217.729913,6291.750507
1070.562887,-306.438199,4441.235652,5033.400406
1070.563206,-689.485948,1480.411884,6587.832884
1070.563525,-153.219100,-1258.350101,8216.285956
1070.563843,229.828649,-3478.967927,8956.491898
1070.564162,536.266849,-4811.338623,11473.192101
1070.564481,1225.752797,-5699.585753,13841.851115
1070.564800,1455.581446,-4515.256246,13175.665768
1070.565119,1915.238745,-2590.720797,12509.480420
1070.565438,1685.410096,-592.164754,12953.603985
1070.565756,1225.752797,2738.761985,10288.862594
1070.566075,1072.533697,5477.523971,7698.141797
1070.566394,766.095498,7031.956449,7031.956449
1070.566713,536.266849,6291.750507,5995.668130
1070.567032,229.828649,4515.256246,5255.462188
1070.567351,459.657299,1702.473667,6439.791695
1070.567669,306.438199,-1406.391290,8290.306550
1070.567988,153.219100,-2960.823768,9104.533087
1070.568307,689.485948,-3997.112087,11399.171507
1070.568626,536.266849,-5181.441594,13323.706956
1070.568945,766.095498,-3627.009116,13397.727550
1070.569264,766.095498,-1702.473667,13397.727550
1070.569582,919.314598,962.267725,12953.603985
1070.569901,995.924147,4515.256246,10288.862594
1070.570220,612.876398,6957.935855,7105.977043
1070.570539,842.705048,8216.285956,6587.832884
1070.570858,536.266849,6883.915261,4959.379811
1070.571177,612.876398,3627.009116,4515.256246
1070.571495,536.266849,1184.329507,6587.832884
1070.571814,306.438199,-1628.453072,7476.080014
1070.572133,76.609550,-4293.194464,8512.368333
1070.572452,0.000000,-5773.606348,11769.274478
1070.572771,0.000000,-6291.750507,13545.768739
1070.573090,-383.047749,-4885.359217,13249.686362
1070.573408,-153.219100,-2738.761985,13989.892304
1070.573727,-689.485948,-0.000000,12953.603985
1070.574046,-612.876398,3034.844362,9992.780217
1070.574365,76.609550,4811.338623,7476.080014
1070.574684,-306.438199,6143.709319,7031.956449
1070.575003,0.000000,5699.585753,5181.441594
1070.575321,229.828649,4293.194464,4959.379811
1070.575640,459.657299,1628.453072,5847.626942
1070.575959,919.314598,-1480.411884,6957.935855
1070.576278,306.438199,-3701.029710,8438.347739
1070.576597,766.095498,-5107.421000,11473.192101
1070.576916,1455.581446,-5995.668130,11917.315666
1070.577234,0.000000,-5329.482782,11547.212695
1070.577553,229.828649,-4071.132681,13767.830521
1070.577872,-306.438199,-148.041188,11547.212695
1070.578191,-229.828649,3108.864956,8956.491898
1070.578510,76.609550,5329.482782,7402.059420
1070.578829,0.000000,7179.997637,6513.812290
1070.579147,459.657299,6291.750507,3552.988522
1070.579466,612.876398,4145.153275,3923.091493
1070.579785,919.314598,666.185348,6513.812290
1070.580104,459.657299,-1628.453072,6661.853478
1070.580423,153.219100,-3552.988522,8512.368333
1070.580742,1149.143247,-5107.421000,11251.130318
1070.581060,536.266849,-5403.503377,12731.542202
1070.581379,612.876398,-4367.215058,12879.583391
1070.581698,459.657299,-2072.576638,13323.706956
1070.582017,459.657299,592.164754,11991.336260
1070.582336,-383.047749,3775.050304,9918.759623
1070.582655,-229.828649,5699.585753,8438.347739
1070.582973,76.609550,6513.812290,7105.977043
1070.583292,0.000000,5551.544565,5255.462188
1070.583611,459.657299,2886.803174,5995.668130
1070.583930,1302.362347,814.226536,6661.853478
1070.584249,1225.752797,-1702.473667,7031.956449
1070.584568,1532.190996,-3775.050304,9548.656652
1070.584886,1532.190996,-4959.379811,11843.295072
1070.585205,1072.533697,-4885.359217,12287.418637
1070.585524,1378.971896,-3627.009116,12731.542202
1070.585843,1225.752797,-1036.288319,13693.809927
1070.586162,689.485948,1332.370696,11399.171507
1070.586481,842.705048,3627.009116,9474.636058
1070.586799,-383.047749,5551.544565,8808.450710
1070.587118,-766.095498,5847.626942,6587.832884
1070.587437,-689.485948,4441.235652,5921.647536
1070.587756,0.000000,2072.576638,6809.894666
1070.588075,0.000000,-222.061783,7402.059420
1070.588394,383.047749,-1258.350101,7550.100608
1070.588712,1225.752797,-3552.988522,9548.656652
1070.589031,1225.752797,-3775.050304,11547.212695
1070.589350,1532.190996,-3701.029710,11547.212695
1070.589669,1302.362347,-2442.679609,11991.336260
1070.589988,995.924147,222.061783,11843.295072
1070.590307,612.876398,2590.720797,9474.636058
1070.590625,459.657299,4885.359217,8660.409521
1070.590944,153.219100,6291.750507,8882.471304
1070.591263,-76.609550,6883.915261,5773.606348
1070.591582,-536.266849,4885.359217,5033.400406
1070.591901,0.000000,1998.556043,7476.080014
1070.592220,383.047749,-962.267725,8364.327145
1070.592538,459.657299,-2960.823768,8808.450710
1070.592857,612.876398,-4959.379811,11399.171507
1070.593176,459.657299,-5181.441594,13027.624579
1070.593495,919.314598,-3849.070898,12361.439231
1070.593814,1149.143247,-2072.576638,13101.645173
1070.594133,1532.190996,-0.000000,12287.418637
1070.594451,995.924147,2664.741391,10066.800811
1070.594770,766.095498,5181.441594,7698.141797
1070.595089,612.876398,5329.482782,7105.977043
1070.595408,153.219100,4441.235652,6069.688724
1070.595727,-383.047749,3182.885551,5773.606348
1070.596046,-536.266849,-148.041188,7550.100608
1070.596364,-612.876398,-2146.597232,7994.224174
1070.596683,-229.828649,-4589.276840,9400.615463
1070.597002,-612.876398,-6217.729913,12509.480420
1070.597321,0.000000,-5551.544565,14137.933492
1070.597640,0.000000,-4219.173869,12731.542202
1070.597959,76.609550,-2368.659014,12805.562797
1070.598277,229.828649,-148.041188,12731.542202
1070.598596,306.438199,3849.070898,8660.409521
1070.598915,995.924147,7179.997637,6143.709319
1070.599234,919.314598,7994.224174,5181.441594
1070.599553,459.657299,7031.956449,3701.029710
1070.599872,536.266849,4663.297435,3849.070898
1070.600190,-306.438199,1110.308913,5329.482782
1070.600509,-1149.143247,-1628.453072,7846.182985
1070.600828,-1532.190996,-3404.947333,9474.636058
1070.601147,-612.876398,-4737.318029,12583.501014
1070.601466,-612.876398,-5329.482782,14434.015869
1070.601785,-689.485948,-4441.235652,13915.871710
1070.602103,0.000000,-2886.803174,14508.036463
1070.602422,689.485948,740.205942,12435.459826
1070.602741,1149.143247,4589.276840,8956.491898
1070.603060,2221.676944,7105.977043,6291.750507
1070.603379,2451.505594,8364.327145,4737.318029
1070.603698,2834.553343,7105.977043,2442.679609
1070.604016,3064.381992,4811.338623,2738.761985
1070.604335,2911.162892,1184.329507,4737.318029
1070.604654,2298.286494,-1628.453072,6217.729913
1070.604973,1455.581446,-4367.215058,8512.368333
1070.605292,995.924147,-6291.750507,13027.624579
1070.605611,76.609550,-6735.874072,14508.036463
1070.605929,-383.047749,-6291.750507,14434.015869
1070.606248,-689.485948,-3775.050304,15618.345376
1070.606567,-919.314598,-666.185348,14211.954086
1070.606886,-1225.752797,1924.535449,11399.171507
1070.607205,-536.266849,4663.297435,9548.656652
1070.607523,0.000000,6069.688724,7402.059420
1070.607842,1225.752797,6217.729913,4885.359217
1070.608161,2451.505594,4515.256246,4071.132681
1070.608480,3600.648841,2072.576638,4737.318029
1070.608798,3524.039291,-148.041188,4589.276840
1070.609117,3294.210641,-2442.679609,7476.080014
1070.609436,2528.115143,-4145.153275,10436.903782
1070.609755,1608.800546,-3701.029710,11325.150913
1070.610073,689.485948,-3108.864956,12879.583391
1070.610392,459.657299,-2442.679609,14137.933492
1070.610711,-1072.533697,-666.185348,13175.665768
1070.611030,-2681.334243,2146.597232,11103.089130
1070.611349,-2757.943793,4219.173869,10214.842000
1070.611667,-2834.553343,4885.359217,8586.388927
1070.611986,-2221.676944,5033.400406,6291.750507
1070.612305,-919.314598,2442.679609,6661.853478
1070.612624,0.000000,592.164754,6883.915261
1070.612942,1225.752797,-814.226536,6291.750507
1070.613261,2298.286494,-2886.803174,7846.182985
1070.613580,2834.553343,-4145.153275,10140.821405
1070.613899,2834.553343,-3627.009116,10140.821405
1070.614217,2221.676944,-2516.700203,10584.944971
1070.614536,1685.410096,-222.061783,10955.047942
1070.614855,1225.752797,1776.494261,10584.944971
1070.615174,0.000000,4367.215058,8512.368333
1070.615492,-1225.752797,5033.400406,8290.306550
1070.615811,-1915.238745,4293.194464,8068.244768
1070.616130,-2911.162892,2368.659014,7328.038826
1070.616449,-2604.724693,-148.041188,8734.430116
1070.616768,-2681.334243,-2294.638420,9696.697840
1070.617086,-1762.019645,-3330.926739,9844.739029
1070.617405,-536.266849,-4219.173869,10881.027347
1070.617724,459.657299,-4071.132681,12435.459826
1070.618043,2374.896044,-3108.864956,11695.253884
1070.618361,3217.601092,-1554.432478,10807.006753
1070.618680,3447.429741,814.226536,10881.027347
1070.618999,3370.820191,3478.967927,8142.265362
1070.619318,3447.429741,6735.874072,5995.668130
1070.619636,2987.772442,7550.100608,5181.441594
1070.619955,1762.019645,6809.894666,4515.256246
1070.620274,612.876398,4367.215058,4811.338623
1070.620593,0.000000,1628.453072,6883.915261
1070.620912,-689.485948,-1924.535449,8586.388927
1070.621230,-1608.800546,-4145.153275,9992.780217
1070.621549,-1608.800546,-6365.771101,13323.706956
1070.621868,-1762.019645,-6735.874072,14952.160028
1070.622187,-766.095498,-5773.606348,14730.098246
1070.622505,-306.438199,-2886.803174,14063.912898
1070.622824,1072.533697,518.144159,13397.727550
1070.623143,1838.629195,4589.276840,9178.553681
1070.623462,2451.505594,7698.141797,5699.585753
1070.623780,3140.991542,8956.491898,4367.215058
1070.624099,3140.991542,8290.306550,2146.597232
1070.624418,2528.115143,5329.482782,1480.411884
1070.624737,1991.848295,1554.432478,4219.173869
1070.625055,919.314598,-1628.453072,6439.791695
1070.625374,459.657299,-4811.338623,8734.430116
1070.625693,-459.657299,-6513.812290,13027.624579
1070.626012,-1455.581446,-7328.038826,15174.221811
1070.626331,-1991.848295,-6809.894666,15248.242405
1070.626649,-2068.457845,-4737.318029,16580.613101
1070.626968,-2068.457845,-1702.473667,15248.242405
1070.627287,-1378.971896,2220.617826,11547.212695
1070.627606,-919.314598,5181.441594,8956.491898
1070.627924,842.705048,7179.997637,6735.874072
1070.628243,2221.676944,7920.203579,3256.906145
1070.628562,3370.820191,6439.791695,2294.638420
1070.628881,3753.867940,3404.947333,3775.050304
1070.629199,3217.601092,-74.020594,5033.400406
1070.629518,2604.724693,-2516.700203,7179.997637
1070.629837,1991.848295,-4441.235652,10881.027347
1070.630156,1072.533697,-5329.482782,14063.912898
1070.630475,612.876398,-5773.606348,14804.118840
1070.630793,-229.828649,-3182.885551,15100.201217
1070.631112,-689.485948,-1406.391290,14656.077652
1070.631431,-1378.971896,1924.535449,12435.459826
1070.631750,-1302.362347,4367.215058,10288.862594
1070.632068,-1072.533697,4959.379811,7402.059420
1070.632387,-842.705048,5773.606348,5255.462188
1070.632706,229.828649,4959.379811,4441.235652
1070.633025,1455.581446,2664.741391,4367.215058
1070.633343,2757.943793,592.164754,5255.462188
1070.633662,2681.334243,-1998.556043,7031.956449
1070.633981,2451.505594,-3404.947333,9548.656652
1070.634300,1838.629195,-4071.132681,11251.130318
1070.634618,919.314598,-4515.256246,13471.748144
1070.634937,229.828649,-2368.659014,14063.912898
1070.635256,-689.485948,-0.000000,12953.603985
1070.635575,-1378.971896,2516.700203,11103.089130
1070.635894,-1608.800546,4293.194464,9918.759623
1070.636212,-1762.019645,4737.318029,8512.368333
1070.636531,-1915.238745,4811.338623,5699.585753
1070.636850,-1302.362347,3182.885551,6143.709319
1070.637169,-383.047749,1110.308913,6587.832884
1070.637487,919.314598,-814.226536,6513.812290
1070.637806,1149.143247,-3108.864956,8142.265362
1070.638125,1838.629195,-4367.215058,10732.986159
1070.638444,1991.848295,-4515.256246,11177.109724
1070.638762,1762.019645,-3775.050304,11473.192101
1070.639081,1838.629195,-1776.494261,11991.336260
1070.639400,689.485948,1184.329507,11029.068536
1070.639719,-229.828649,3775.050304,8956.491898
1070.640038,-459.657299,5921.647536,7624.121203
1070.640356,-766.095498,5921.647536,7550.100608
1070.640675,-1072.533697,5033.400406,6143.709319
1070.640994,-995.924147,2220.617826,6513.812290
1070.641313,-842.705048,-296.082377,7698.141797
1070.641631,0.000000,-2220.617826,8290.306550
1070.641950,612.876398,-3775.050304,9770.718434
1070.642269,1302.362347,-4663.297435,11917.315666
1070.642588,1838.629195,-4367.215058,11547.212695
1070.642906,1915.238745,-2812.782580,11325.150913
1070.643225,2451.505594,-666.185348,11251.130318
1070.643544,1991.848295,2516.700203,9548.656652
1070.643863,1762.019645,5625.565159,6809.894666
1070.644181,919.314598,7254.018232,6365.771101
1070.644500,383.047749,6809.894666,5625.565159
1070.644819,-306.438199,4145.153275,5477.523971
1070.645138,-919.314598,1850.514855,7254.018232
1070.645457,-1302.362347,-1036.288319,9030.512492
1070.645775,-1149.143247,-3701.029710,10214.842000
1070.646094,-612.876398,-5551.544565,12657.521608
1070.646413,-689.485948,-7031.956449,15100.201217
1070.646732,76.609550,-5477.523971,14211.954086
1070.647050,842.705048,-2886.803174,13915.871710
1070.647369,1915.238745,-0.000000,12287.418637
1070.647688,2451.505594,3182.885551,9770.718434
1070.648007,2221.676944,6069.688724,6735.874072
1070.648325,2374.896044,7550.100608,5699.585753
1070.648644,2298.286494,7550.100608,3330.926739
1070.648963,1762.019645,5033.400406,3256.906145
1070.649282,919.314598,1702.473667,5699.585753
1070.649601,-459.657299,-814.226536,7476.080014
1070.649919,-459.657299,-3701.029710,9770.718434
1070.650238,-1072.533697,-5625.565159,12879.583391
1070.650557,-842.705048,-6291.750507,15248.242405
1070.650876,-995.924147,-5477.523971,14582.057057
1070.651194,-919.314598,-3701.029710,15174.221811
1070.651513,-306.438199,-666.185348,14137.933492
1070.651832,229.828649,3182.885551,10732.986159
1070.652151,995.924147,5773.606348,7994.224174
1070.652469,1915.238745,7402.059420,6291.750507
1070.652788,1991.848295,7994.224174,2590.720797
1070.653107,2298.286494,6365.771101,1332.370696
1070.653426,2298.286494,3108.864956,3404.947333
1070.653744,1608.800546,-222.061783,4811.338623
1070.654063,459.657299,-2664.741391,6439.791695
1070.654382,-383.047749,-5033.400406,10955.047942
1070.654701,-995.924147,-6365.771101,14508.036463
1070.655020,-1915.238745,-5625.565159,15100.201217
1070.655338,-1991.848295,-4367.215058,15766.386565
1070.655657,-1838.629195,-2220.617826,16062.468941
1070.655976,-2374.896044,1480.411884,12731.542202
1070.656295,-1838.629195,3256.906145,9844.739029
1070.656613,-689.485948,5477.523971,7698.141797
1070.656932,536.266849,6439.791695,4885.359217
1070.657251,1838.629195,5181.441594,2590.720797
1070.657570,3140.991542,2886.803174,3182.885551
1070.657888,3370.820191,444.123565,3627.009116
1070.658207,3370.820191,-1850.514855,5107.421000
1070.658526,2681.334243,-3849.070898,8364.327145
1070.658845,2374.896044,-5107.421000,11769.274478
1070.659164,766.095498,-5477.523971,13175.665768
1070.659482,0.000000,-4589.276840,15248.242405
1070.659801,-1302.362347,-2442.679609,15026.180623
1070.660120,-2451.505594,1110.308913,12139.377449
1070.660439,-2145.067394,3627.009116,10436.903782
1070.660757,-2145.067394,4737.318029,8808.450710
1070.661076,-1838.629195,4663.297435,6291.750507
1070.661395,-995.924147,3923.091493,4885.359217
1070.661714,842.705048,2590.720797,5255.462188
1070.662032,919.314598,-296.082377,5847.626942
1070.662351,2221.676944,-2220.617826,6957.935855
1070.662670,2451.505594,-3478.967927,9474.636058
1070.662989,2604.724693,-3775.050304,10066.800811
1070.663307,1608.800546,-3182.885551,11399.171507
1070.663626,1915.238745,-1480.411884,12213.398043
1070.663945,1072.533697,1776.494261,11695.253884
1070.664264,0.000000,3256.906145,10362.883188
1070.664583,-919.314598,4959.379811,9252.574275
1070.664901,-1685.410096,5403.503377,7772.162391
1070.665220,-2145.067394,4071.132681,6439.791695
1070.665539,-2374.896044,2220.617826,7624.121203
1070.665858,-2068.457845,-222.061783,8216.285956
1070.666176,-1608.800546,-2146.597232,8586.388927
1070.666495,-229.828649,-3478.967927,9770.718434
1070.666814,995.924147,-3849.070898,12213.398043
1070.667133,1915.238745,-3627.009116,12583.501014
1070.667451,2834.553343,-2590.720797,11843.295072
1070.667770,3064.381992,-1036.288319,11621.233289
1070.668089,2834.553343,2072.576638,10510.924376
1070.668408,2528.115143,4737.318029,8142.265362
1070.668727,2221.676944,6069.688724,6883.915261
1070.669045,1608.800546,6439.791695,6143.709319
1070.669364,1149.143247,4885.359217,5255.462188
1070.669683,229.828649,2146.597232,6587.832884
1070.670002,0.000000,-888.247130,8512.368333
1070.670320,-919.314598,-3330.926739,10066.800811
1070.670639,-383.047749,-5995.668130,11917.315666
1070.670958,-612.876398,-5699.585753,14211.954086
1070.671277,229.828649,-4145.153275,14804.118840
1070.671595,689.485948,-3627.009116,13841.851115
1070.671914,1838.629195,-1110.308913,13027.624579
1070.672233,2145.067394,2590.720797,10288.862594
1070.672552,2298.286494,5255.462188,7476.080014
1070.672870,2374.896044,7179.997637,5477.523971
1070.673189,2068.457845,7624.121203,4071.132681
1070.673508,1991.848295,6513.812290,2738.761985
1070.673827,1378.971896,3552.988522,4071.132681
1070.674146,459.657299,148.041188,6291.750507
1070.674464,-536.266849,-1924.535449,8068.244768
1070.674783,-995.924147,-4885.359217,11621.233289
1070.675102,-1149.143247,-5847.626942,14730.098246
1070.675421,-1608.800546,-6513.812290,15248.242405
1070.675739,-1915.238745,-5403.503377,14508.036463
1070.676058,-1685.410096,-3182.885551,14285.974681
1070.676377,-1608.800546,370.102971,11547.212695
1070.676696,-919.314598,4145.153275,8364.327145
1070.677014,153.219100,6735.874072,6439.791695
1070.677333,766.095498,7994.224174,3478.967927
1070.677652,1149.143247,6587.832884,2516.700203
1070.677971,1685.410096,4145.153275,3552.988522
1070.678290,1532.190996,962.267725,5181.441594
1070.678608,1072.533697,-1628.453072,7105.977043
1070.678927,229.828649,-4145.153275,10140.821405
1070.679246,0.000000,-5403.503377,13545.768739
1070.679565,229.828649,-6069.688724,14211.954086
1070.679883,-383.047749,-4959.379811,14285.974681
1070.680202,-689.485948,-2960.823768,14508.036463
1070.680521,-1225.752797,592.164754,11991.336260
1070.680840,-459.657299,3701.029710,9252.574275
1070.681158,76.609550,5921.647536,7550.100608
1070.681477,306.438199,6587.832884,4885.359217
1070.681796,995.924147,5921.647536,3182.885551
1070.682115,2298.286494,3330.926739,3627.009116
1070.682433,2528.115143,962.267725,4663.297435
1070.682752,2298.286494,-2146.597232,6291.750507
1070.683071,2068.457845,-3923.091493,9474.636058
1070.683390,1455.581446,-4959.379811,11843.295072
1070.683709,842.705048,-5181.441594,13693.809927
1070.684027,612.876398,-4515.256246,15544.324782
1070.684346,536.266849,-2072.576638,15766.386565
1070.684665,842.705048,1628.453072,12731.542202
1070.684984,612.876398,3997.112087,10881.027347
1070.685302,2145.067394,5921.647536,9622.677246
1070.685621,3370.820191,6143.709319,6661.853478
1070.685940,4213.525239,6217.729913,4663.297435
1070.686259,5745.716235,4515.256246,4811.338623
1070.686577,6511.811733,2738.761985,3849.070898
1070.686896,7737.564530,1258.350101,4737.318029
1070.687215,7737.564530,-370.102971,7105.977043
1070.687534,7201.297681,-1184.329507,8734.430116
1070.687853,6435.202183,-666.185348,9622.677246
1070.688171,5056.230287,444.123565,11103.089130
1070.688490,4136.915689,2220.617826,12213.398043
1070.688809,2451.505594,4441.235652,11177.109724
1070.689128,2145.067394,6513.812290,10362.883188
1070.689446,1072.533697,7698.141797,10066.800811
1070.689765,612.876398,8068.244768,8660.409521
1070.690084,1455.581446,7105.977043,7846.182985
1070.690403,1455.581446,6513.812290,5995.668130
1070.690721,2451.505594,4589.276840,7328.038826
1070.691040,3064.381992,2960.823768,7254.018232
1070.691359,3907.087040,888.247130,8808.450710
1070.691678,5132.839837,666.185348,10510.924376
1070.691996,5209.449386,2368.659014,10362.883188
1070.692315,4903.011187,4219.173869,9474.636058
1070.692634,4519.963438,5107.421000,7624.121203
1070.692953,2834.553343,6661.853478,7624.121203
1070.693272,2298.286494,6069.688724,9030.512492
1070.693590,383.047749,6291.750507,8364.327145
1070.693909,-612.876398,5847.626942,8734.430116
1070.694228,-1532.190996,4811.338623,10510.924376
1070.694547,-766.095498,4515.256246,11251.130318
1070.694865,76.609550,2812.782580,10214.842000
1070.695184,306.438199,1554.432478,11251.130318
1070.695503,536.266849,-148.041188,12361.439231
1070.695822,1915.238745,-814.226536,12657.521608
1070.696140,2374.896044,-1332.370696,12953.603985
1070.696459,3294.210641,-518.144159,12731.542202
1070.696778,3294.210641,666.185348,11843.295072
1070.697097,4060.306139,3108.864956,9992.780217
1070.697416,4213.525239,3701.029710,8734.430116
1070.697734,3983.696590,4219.173869,7624.121203
1070.698053,2757.943793,4219.173869,7254.018232
1070.698372,1762.019645,3034.844362,7328.038826
1070.698691,1455.581446,1332.370696,8364.327145
1070.699009,1149.143247,-1406.391290,10732.986159
1070.699328,1378.971896,-3330.926739,12213.398043
1070.699647,1762.019645,-3108.864956,12805.562797
1070.699966,2374.896044,-1998.556043,12287.418637
1070.700284,3294.210641,-814.226536,11843.295072
1070.700603,3983.696590,-74.020594,11473.192101
1070.700922,3753.867940,2294.638420,8956.491898
1070.701241,3370.820191,4071.132681,6217.729913
1070.701559,3370.820191,4885.359217,4959.379811
1070.701878,3983.696590,5033.400406,4737.318029
1070.702197,2757.943793,3478.967927,5921.647536
1070.702516,2374.896044,1850.514855,7624.121203
1070.702835,1838.629195,370.102971,9252.574275
1070.703153,1991.848295,-444.123565,10288.862594
1070.703472,1608.800546,-0.000000,10732.986159
1070.703791,2298.286494,370.102971,10436.903782
1070.704110,2604.724693,2368.659014,8586.388927
1070.704428,2987.772442,3404.947333,6809.894666
1070.704747,3064.381992,3108.864956,5995.668130
1070.705066,3370.820191,2294.638420,5921.647536
1070.705385,3064.381992,1406.391290,6217.729913
1070.705703,2834.553343,962.267725,6809.894666
1070.706022,2757.943793,888.247130,7550.100608
1070.706341,2681.334243,1258.350101,8438.347739
1070.706660,2834.553343,3182.885551,8068.244768
1070.706979,3217.601092,4441.235652,7846.182985
1070.707297,3217.601092,5033.400406,8068.244768
1070.707616,3064.381992,4737.318029,7698.141797
1070.707935,2681.334243,4515.256246,7328.038826
1070.708254,2834.553343,3330.926739,7624.121203
1070.708572,2451.505594,1628.453072,8660.409521
1070.708891,1685.410096,-0.000000,9696.697840
1070.709210,1762.019645,-222.061783,10362.883188
1070.709529,2221.676944,1110.308913,10584.944971
1070.709847,2298.286494,3034.844362,10066.800811
1070.710166,2374.896044,5181.441594,9326.594869
1070.710485,2451.505594,6587.832884,7994.224174
1070.710804,2374.896044,6735.874072,7105.977043
1070.711122,2298.286494,4959.379811,7994.224174
1070.711441,1991.848295,3256.906145,9548.656652
1070.711760,1838.629195,1776.494261,10436.903782
1070.712079,1685.410096,296.082377,11399.171507
1070.712398,1685.410096,222.061783,12213.398043
1070.712716,2374.896044,1258.350101,12435.459826
1070.713035,2451.505594,2886.803174,11325.150913
1070.713354,2681.334243,4441.235652,10955.047942
1070.713673,3140.991542,5625.565159,10288.862594
1070.713991,3370.820191,6217.729913,9844.739029
1070.714310,3830.477490,5255.462188,9326.594869
1070.714629,3600.648841,4145.153275,9030.512492
1070.714948,3064.381992,2072.576638,9548.656652
1070.715266,2451.505594,-148.041188,10510.924376
1070.715585,1838.629195,-888.247130,10584.944971
1070.715904,1455.581446,-222.061783,10658.965565
1070.716223,1302.362347,962.267725,11399.171507
1070.716541,689.485948,1776.494261,11843.295072
1070.716860,919.314598,2368.659014,11547.212695
1070.717179,842.705048,3478.967927,10881.027347
1070.717498,1149.143247,4441.235652,10658.965565
1070.717817,1915.238745,4811.338623,9844.739029
1070.718135,2221.676944,4293.194464,9252.574275
1070.718454,2221.676944,3552.988522,9326.594869
1070.718773,2987.772442,1850.514855,9178.553681
1070.719092,3140.991542,1184.329507,8956.491898
1070.719410,3370.820191,1258.350101,8808.450710
1070.719729,3983.696590,2738.761985,8142.265362
1070.720048,4213.525239,3701.029710,7698.141797
1070.720367,4213.525239,4145.153275,8290.306550
1070.720685,4060.306139,4071.132681,8808.450710
1070.721004,3830.477490,4071.132681,8438.347739
1070.721323,3294.210641,3775.050304,8364.327145
1070.721642,2911.162892,2960.823768,8586.388927
1070.721960,2374.896044,2812.782580,8660.409521
1070.722279,2145.067394,2442.679609,8364.327145
1070.722598,2068.457845,2368.659014,8216.285956
1070.722917,2068.457845,2294.638420,8660.409521
1070.723236,2451.505594,2442.679609,8364.327145
1070.723554,2528.115143,2664.741391,7994.224174
1070.723873,3140.991542,3478.967927,7920.203579
1070.724192,3064.381992,3552.988522,7994.224174
1070.724511,3217.601092,3182.885551,8068.244768
1070.724829,2834.553343,2368.659014,8290.306550
1070.725148,2604.724693,1998.556043,8142.265362
1070.725467,1838.629195,1554.432478,8956.491898
1070.725786,1685.410096,1110.308913,8734.430116
1070.726104,1149.143247,1110.308913,8808.450710
1070.726423,842.705048,1184.329507,8808.450710
1070.726742,459.657299,1110.308913,9326.594869
1070.727061,229.828649,1184.329507,9548.656652
1070.727380,229.828649,1258.350101,9400.615463
1070.727698,766.095498,1036.288319,9252.574275
1070.728017,919.314598,814.226536,9474.636058
1070.728336,919.314598,148.041188,9696.697840
1070.728655,1532.190996,-518.144159,9770.718434
