#time,accel_x,accel_y,accel_z
1152.173685,459.657299,-0.000000,9178.553681
1152.174004,306.438199,370.102971,9178.553681
1152.174322,306.438199,222.061783,9474.636058
1152.174641,536.266849,370.102971,9252.574275
1152.174960,536.266849,-0.000000,9474.636058
1152.175279,383.047749,222.061783,9326.594869
1152.175597,383.047749,370.102971,9326.594869
1152.175916,612.876398,-0.000000,9400.615463
1152.176235,536.266849,370.102971,9178.553681
1152.176553,536.266849,444.123565,9326.594869
1152.176872,459.657299,518.144159,9252.574275
1152.177191,766.095498,-74.020594,9400.615463
1152.177510,459.657299,222.061783,9326.594869
1152.177828,766.095498,592.164754,9178.553681
1152.178147,383.047749,370.102971,9178.553681
1152.178466,536.266849,444.123565,9400.615463
1152.178784,766.095498,222.061783,9178.553681
1152.179103,459.657299,370.102971,9400.615463
1152.179422,612.876398,444.123565,9400.615463
1152.179741,459.657299,666.185348,9326.594869
1152.180059,383.047749,518.144159,9400.615463
1152.180378,229.828649,370.102971,9104.533087
1152.180697,689.485948,740.205942,9252.574275
1152.181015,383.047749,222.061783,9252.574275
1152.181334,229.828649,592.164754,9400.615463
1152.181653,153.219100,370.102971,9474.636058
1152.181972,536.266849,222.061783,9178.553681
1152.182290,536.266849,444.123565,9400.615463
1152.182609,306.438199,370.102971,9326.594869
1152.182928,306.438199,222.061783,9326.594869
1152.183246,459.657299,518.144159,9474.636058
1152.183565,383.047749,222.061783,9252.574275
1152.183884,383.047749,-0.000000,9252.574275
1152.184203,306.438199,-0.000000,9252.574275
1152.184521,536.266849,-0.000000,9326.594869
1152.184840,459.657299,296.082377,9178.553681
1152.185159,459.657299,444.123565,9474.636058
1152.185478,689.485948,296.082377,9252.574275
1152.185796,459.657299,370.102971,9104.533087
1152.186115,1455.581446,296.082377,9178.553681
1152.186434,459.657299,370.102971,9252.574275
1152.186752,459.657299,296.082377,9326.594869
1152.187071,459.657299,222.061783,9252.574275
1152.187390,229.828649,444.123565,9400.615463
1152.187709,766.095498,444.123565,9326.594869
1152.188027,766.095498,666.185348,9030.512492
1152.188346,76.609550,444.123565,9400.615463
1152.188665,383.047749,444.123565,9252.574275
1152.188983,612.876398,444.123565,9104.533087
1152.189302,76.609550,-0.000000,9326.594869
1152.189621,459.657299,592.164754,9326.594869
1152.189940,689.485948,370.102971,9400.615463
1152.190258,383.047749,592.164754,9400.615463
1152.190577,536.266849,518.144159,9400.615463
1152.190896,383.047749,222.061783,9252.574275
1152.191214,612.876398,296.082377,9178.553681
1152.191533,383.047749,296.082377,9178.553681
1152.191852,229.828649,370.102971,9326.594869
1152.192171,153.219100,222.061783,9178.553681
1152.192489,536.266849,222.061783,9326.594869
1152.192808,459.657299,370.102971,9326.594869
1152.193127,383.047749,148.041188,9400.615463
1152.193445,536.266849,222.061783,9178.553681
1152.193764,153.219100,296.082377,9104.533087
1152.194083,306.438199,222.061783,9178.553681
1152.194402,153.219100,-0.000000,9400.615463
1152.194720,383.047749,296.082377,9104.533087
1152.195039,383.047749,148.041188,9178.553681
1152.195358,842.705048,-0.000000,9178.553681
1152.195677,383.047749,-0.000000,9104.533087
1152.195995,0.000000,-74.020594,9104.533087
1152.196314,0.000000,-222.061783,8956.491898
1152.196633,0.000000,-296.082377,9030.512492
1152.196951,-612.876398,-222.061783,8956.491898
1152.197270,0.000000,-74.020594,9104.533087
1152.197589,-689.485948,-444.123565,9252.574275
1152.197908,-766.095498,-296.082377,8956.491898
1152.198226,-995.924147,-740.205942,9030.512492
1152.198545,-1378.971896,-888.247130,9030.512492
1152.198864,-1532.190996,-888.247130,8734.430116
1152.199182,-1532.190996,-1184.329507,8734.430116
1152.199501,-1685.410096,-1184.329507,9400.615463
1152.199820,-1915.238745,-1628.453072,8956.491898
1152.200139,-1225.752797,-814.226536,9030.512492
1152.200457,-1378.971896,-666.185348,8586.388927
1152.200776,-1302.362347,-814.226536,8216.285956
1152.201095,-1378.971896,-888.247130,7624.121203
1152.201413,-1302.362347,-1628.453072,7698.141797
1152.201732,-1455.581446,-1776.494261,7624.121203
1152.202051,-1762.019645,-1924.535449,8068.244768
1152.202370,-1685.410096,-2294.638420,8364.327145
1152.202688,-1762.019645,-2368.659014,8586.388927
1152.203007,-2068.457845,-2368.659014,8956.491898
1152.203326,-1915.238745,-1998.556043,8956.491898
1152.203645,-2145.067394,-1850.514855,8660.409521
1152.203963,-2451.505594,-1998.556043,8586.388927
1152.204282,-2374.896044,-2146.597232,8512.368333
1152.204601,-2757.943793,-2442.679609,8290.306550
1152.204919,-2834.553343,-3034.844362,8734.430116
1152.205238,-3370.820191,-4145.153275,9474.636058
1152.205557,-3524.039291,-4441.235652,10436.903782
1152.205876,-3524.039291,-4441.235652,10881.027347
1152.206194,-4136.915689,-4071.132681,11103.089130
1152.206513,-4060.306139,-3849.070898,11251.130318
1152.206832,-3600.648841,-3404.947333,11251.130318
1152.207150,-3447.429741,-2886.803174,11029.068536
1152.207469,-2681.334243,-2442.679609,11177.109724
1152.207788,-2604.724693,-2516.700203,10881.027347
1152.208107,-2374.896044,-2738.761985,10658.965565
1152.208425,-2451.505594,-3108.864956,10362.883188
1152.208744,-2987.772442,-4071.132681,10214.842000
1152.209063,-2911.162892,-3997.112087,10288.862594
1152.209381,-3217.601092,-3775.050304,10436.903782
1152.209700,-3294.210641,-4071.132681,10288.862594
1152.210019,-3370.820191,-4293.194464,10881.027347
1152.210338,-4519.963438,-4367.215058,11399.171507
1152.210656,-4366.744339,-3775.050304,11325.150913
1152.210975,-4749.792088,-3256.906145,11547.212695
1152.211294,-4826.401637,-3256.906145,11177.109724
1152.211612,-4443.353888,-3256.906145,11029.068536
1152.211931,-4903.011187,-3256.906145,11029.068536
1152.212250,-4519.963438,-3627.009116,10955.047942
1152.212569,-3830.477490,-3404.947333,11103.089130
1152.212887,-2528.115143,-2960.823768,11103.089130
1152.213206,-1455.581446,-2368.659014,10955.047942
1152.213525,-306.438199,-740.205942,9548.656652
1152.213844,76.609550,444.123565,7846.182985
1152.214162,1149.143247,1554.432478,6439.791695
1152.214481,1532.190996,1924.535449,4885.359217
1152.214800,1455.581446,1110.308913,4737.318029
1152.215118,1302.362347,222.061783,5033.400406
1152.215437,766.095498,-1332.370696,6587.832884
1152.215756,306.438199,-2220.617826,7994.224174
1152.216075,0.000000,-2590.720797,8882.471304
1152.216393,-306.438199,-1924.535449,9770.718434
1152.216712,-536.266849,-814.226536,9474.636058
1152.217031,153.219100,888.247130,8808.450710
1152.217349,536.266849,1924.535449,8364.327145
1152.217668,919.314598,2220.617826,7550.100608
1152.217987,1302.362347,1850.514855,6957.935855
1152.218306,1378.971896,1332.370696,6365.771101
1152.218624,1149.143247,592.164754,5773.606348
1152.218943,459.657299,-74.020594,5699.585753
1152.219262,0.000000,-1184.329507,5995.668130
1152.219580,-306.438199,-1850.514855,7550.100608
1152.219899,-766.095498,-2146.597232,8734.430116
1152.220218,-1838.629195,-2442.679609,10436.903782
1152.220537,-2374.896044,-2146.597232,11473.192101
1152.220855,-2681.334243,-1702.473667,11251.130318
1152.221174,-3217.601092,-444.123565,10658.965565
1152.221493,-2987.772442,-666.185348,11029.068536
1152.221811,-3524.039291,-962.267725,10214.842000
1152.222130,-2911.162892,-2146.597232,9696.697840
1152.222449,-3600.648841,-2368.659014,8808.450710
1152.222768,-3830.477490,-2590.720797,9400.615463
1152.223086,-3907.087040,-3627.009116,9326.594869
1152.223405,-4060.306139,-4145.153275,9992.780217
1152.223724,-3217.601092,-4589.276840,11769.274478
1152.224043,-3524.039291,-3182.885551,11843.295072
1152.224361,-3294.210641,-1702.473667,11325.150913
1152.224680,-3064.381992,-740.205942,11251.130318
1152.224999,-3447.429741,-1184.329507,11547.212695
1152.225317,-3830.477490,-1998.556043,10362.883188
1152.225636,-4136.915689,-2072.576638,10214.842000
1152.225955,-4443.353888,-2590.720797,9770.718434
1152.226274,-3677.258390,-3701.029710,10732.986159
1152.226592,-3294.210641,-4737.318029,11769.274478
1152.226911,-2834.553343,-5551.544565,12879.583391
1152.227230,-2221.676944,-4515.256246,12657.521608
1152.227548,-1225.752797,-3108.864956,12065.356855
1152.227867,229.828649,-1554.432478,10807.006753
1152.228186,2145.067394,-518.144159,9696.697840
1152.228505,1915.238745,1036.288319,7624.121203
1152.228823,2374.896044,814.226536,6143.709319
1152.229142,1991.848295,-592.164754,6661.853478
1152.229461,2068.457845,-2664.741391,8512.368333
1152.229779,919.314598,-3923.091493,9622.677246
1152.230098,612.876398,-3997.112087,10066.800811
1152.230417,383.047749,-4145.153275,10436.903782
1152.230736,-76.609550,-3775.050304,10510.924376
1152.231054,-766.095498,-2590.720797,9622.677246
1152.231373,-1149.143247,-1184.329507,8734.430116
1152.231692,-1532.190996,-296.082377,7624.121203
1152.232010,-1915.238745,-740.205942,7179.997637
1152.232329,-2604.724693,-1332.370696,7254.018232
1152.232648,-2911.162892,-2886.803174,8142.265362
1152.232967,-3907.087040,-3256.906145,8438.347739
1152.233285,-4213.525239,-3478.967927,9918.759623
1152.233604,-3753.867940,-2368.659014,9844.739029
1152.233923,-2451.505594,-666.185348,9400.615463
1152.234242,-1915.238745,148.041188,8586.388927
1152.234560,-995.924147,444.123565,9104.533087
1152.234879,-842.705048,1184.329507,6809.894666
1152.235198,-459.657299,1036.288319,6439.791695
1152.235516,-766.095498,444.123565,5625.565159
1152.235835,-995.924147,-1258.350101,5551.544565
1152.236154,-2068.457845,-2738.761985,4737.318029
1152.236473,-2987.772442,-3404.947333,6587.832884
1152.236791,-3830.477490,-4663.297435,8512.368333
1152.237110,-4136.915689,-4885.359217,9474.636058
1152.237429,-4519.963438,-4293.194464,10584.944971
1152.237748,-4826.401637,-3404.947333,12361.439231
1152.238066,-4136.915689,-2812.782580,12953.603985
1152.238385,-3140.991542,-1850.514855,12065.356855
1152.238704,-1608.800546,-962.267725,10732.986159
1152.239023,-1072.533697,-444.123565,9918.759623
1152.239342,-1225.752797,-888.247130,8660.409521
1152.239661,-306.438199,-1184.329507,6957.935855
1152.239979,-229.828649,-2294.638420,7476.080014
1152.240298,-536.266849,-2738.761985,6735.874072
1152.240617,-995.924147,-3849.070898,6513.812290
1152.240936,-1915.238745,-5033.400406,8142.265362
1152.241255,-3600.648841,-6513.812290,10288.862594
1152.241573,-4366.744339,-7402.059420,12361.439231
1152.241892,-4903.011187,-7031.956449,14582.057057
1152.242211,-4596.572988,-5255.462188,15248.242405
1152.242530,-4136.915689,-4367.215058,14582.057057
1152.242849,-3447.429741,-2146.597232,14730.098246
1152.243167,-766.095498,-1110.308913,13989.892304
1152.243486,459.657299,1628.453072,9696.697840
1152.243805,1991.848295,2590.720797,7179.997637
1152.244124,3600.648841,3701.029710,5477.523971
1152.244443,3830.477490,2516.700203,3330.926739
1152.244761,3140.991542,1036.288319,1776.494261
1152.245080,1991.848295,-1332.370696,4145.153275
1152.245399,0.000000,-2886.803174,5033.400406
1152.245718,-1915.238745,-5551.544565,7476.080014
1152.246037,-4290.134789,-5625.565159,11399.171507
1152.246355,-6128.763984,-5625.565159,13693.809927
1152.246674,-6971.469032,-3923.091493,14952.160028
1152.246993,-6511.811733,-1924.535449,16210.510130
1152.247312,-5822.325785,-296.082377,16358.551318
1152.247631,-3677.258390,1850.514855,13915.871710
1152.247949,-1685.410096,4293.194464,10584.944971
1152.248268,842.705048,4885.359217,7402.059420
1152.248587,2374.896044,4441.235652,3923.091493
1152.248906,4060.306139,2368.659014,1776.494261
1152.249225,4596.572988,-1258.350101,666.185348
1152.249543,3294.210641,-3034.844362,1036.288319
1152.249862,1608.800546,-4219.173869,3182.885551
1152.250181,-536.266849,-5847.626942,5181.441594
1152.250500,-3524.039291,-5477.523971,8438.347739
1152.250819,-5439.278036,-5625.565159,12583.501014
1152.251137,-8120.612279,-4885.359217,15618.345376
1152.251456,-8656.879127,-3552.988522,18357.107362
1152.251775,-7967.393179,-2220.617826,19245.354492
1152.252094,-5745.716235,444.123565,19023.292709
1152.252413,-3294.210641,666.185348,16506.592507
1152.252731,76.609550,1332.370696,12805.562797
1152.253050,3294.210641,814.226536,8364.327145
1152.253369,5975.544884,666.185348,3330.926739
1152.253688,8350.440928,-222.061783,-518.144159
1152.254007,8503.660028,-222.061783,-1776.494261
1152.254325,6665.030833,-518.144159,-2590.720797
1152.254644,3830.477490,-2146.597232,74.020594
1152.254963,-766.095498,-3256.906145,4589.276840
1152.255282,-4596.572988,-5625.565159,9844.739029
1152.255601,-8273.831378,-6735.874072,16654.633695
1152.255919,-10801.946522,-7476.080014,20873.807564
1152.256238,-12870.404366,-6957.935855,23168.445985
1152.256557,-11108.384721,-5255.462188,24574.837274
1152.256876,-9116.536426,-1776.494261,22132.157666
1152.257195,-4673.182538,-888.247130,14804.118840
1152.257513,-1685.410096,1850.514855,8734.430116
1152.257832,2681.334243,2960.823768,3627.009116
1152.258151,4749.792088,1776.494261,-1184.329507
1152.258470,6205.373534,1554.432478,-4441.235652
1152.258789,6588.421283,74.020594,-1998.556043
1152.259107,4903.011187,-1924.535449,-148.041188
1152.259426,3140.991542,-4071.132681,3034.844362
1152.259745,0.000000,-3849.070898,8956.491898
1152.260064,-1762.019645,-4219.173869,14952.160028
1152.260383,-3140.991542,-3108.864956,17172.777854
1152.260702,-3524.039291,-592.164754,17542.880825
1152.261020,-3524.039291,-222.061783,19985.560434
1152.261339,-995.924147,2442.679609,16728.654289
1152.261658,995.924147,1850.514855,12583.501014
1152.261977,3830.477490,3330.926739,9252.574275
1152.262296,5056.230287,3108.864956,3256.906145
1152.262614,8427.050478,2886.803174,74.020594
1152.262933,9039.926876,3627.009116,-2368.659014
1152.263252,9806.022374,1850.514855,-962.267725
1152.263571,8580.269578,814.226536,-296.082377
1152.263890,6435.202183,1554.432478,1850.514855
1152.264208,4749.792088,-0.000000,6957.935855
1152.264527,2298.286494,814.226536,12361.439231
1152.264846,229.828649,740.205942,16210.510130
1152.265165,-306.438199,3108.864956,16654.633695
1152.265484,-995.924147,4071.132681,16876.695478
1152.265802,-842.705048,4737.318029,15692.365970
1152.266121,306.438199,4515.256246,13249.686362
1152.266440,1378.971896,5107.421000,7254.018232
1152.266759,1838.629195,3478.967927,2886.803174
1152.267078,2834.553343,2368.659014,296.082377
1152.267396,2757.943793,148.041188,0.000000
1152.267715,1915.238745,-1480.411884,1702.473667
1152.268034,1149.143247,-1628.453072,4293.194464
1152.268353,-995.924147,-1850.514855,7550.100608
1152.268672,-3677.258390,-1702.473667,11473.192101
1152.268990,-5056.230287,-592.164754,16654.633695
1152.269309,-6205.373534,370.102971,19541.436869
1152.269628,-5975.544884,2812.782580,20651.745782
1152.269947,-6358.592633,4071.132681,19245.354492
1152.270266,-4979.620737,6365.771101,16210.510130
1152.270584,-2298.286494,4885.359217,13175.665768
1152.270903,76.609550,5107.421000,8290.306550
1152.271222,1072.533697,2220.617826,4663.297435
1152.271541,2068.457845,1184.329507,666.185348
1152.271860,2298.286494,-592.164754,1110.308913
1152.272178,2068.457845,-3701.029710,3404.947333
1152.272497,306.438199,-4959.379811,4367.215058
1152.272816,-1762.019645,-5181.441594,8068.244768
1152.273135,-3447.429741,-5329.482782,14508.036463
1152.273454,-5132.839837,-4145.153275,19985.560434
1152.273772,-5515.887586,-2516.700203,21984.116477
1152.274091,-5056.230287,518.144159,22946.384202
1152.274410,-3753.867940,4515.256246,20651.745782
1152.274729,-229.828649,5921.647536,16728.654289
1152.275048,2987.772442,6291.750507,11103.089130
1152.275366,6128.763984,5329.482782,4071.132681
1152.275685,7660.954980,2812.782580,-1850.514855
1152.276004,8197.221829,740.205942,-3923.091493
1152.276323,7354.516781,-4071.132681,-2812.782580
1152.276642,5286.058936,-7105.977043,296.082377
1152.276960,2221.676944,-7550.100608,4219.173869
1152.277279,0.000000,-7105.977043,9030.512492
1152.277598,-1455.581446,-5921.647536,15100.201217
1152.277917,-3370.820191,-3775.050304,20651.745782
1152.278236,-4673.182538,-1258.350101,21688.034101
1152.278554,-2987.772442,666.185348,22872.363608
1152.278873,-1455.581446,7476.080014,17172.777854
1152.279192,1838.629195,5699.585753,11991.336260
1152.279511,5975.544884,5699.585753,5107.421000
1152.279830,8810.098227,5773.606348,-518.144159
1152.280148,12180.918418,2368.659014,-4367.215058
1152.280467,11031.775171,888.247130,-8882.471304
1152.280786,10265.679673,-2072.576638,-6809.894666
1152.281105,6971.469032,-4219.173869,-3034.844362
1152.281424,3217.601092,-3478.967927,-370.102971
1152.281743,-1225.752797,-4441.235652,5329.482782
1152.282061,-4979.620737,-6513.812290,14211.954086
1152.282380,-7124.688131,-5625.565159,20577.725188
1152.282699,-7354.516781,-3923.091493,22872.363608
1152.283018,-7431.126331,-0.000000,23908.651927
1152.283337,-5669.106685,4663.297435,21095.869347
1152.283655,-1991.848295,5699.585753,17172.777854
1152.283974,1149.143247,11473.192101,7254.018232
1152.284293,4213.525239,5477.523971,222.061783
1152.284612,7660.954980,10140.821405,-5847.626942
1152.284931,8427.050478,7179.997637,-10288.862594
1152.285249,8273.831378,-148.041188,-9326.594869
1152.285568,3907.087040,-4145.153275,-4219.173869
1152.285887,689.485948,-7105.977043,3034.844362
1152.286206,-4290.134789,-9770.718434,5033.400406
1152.286525,-7201.297681,-7624.121203,14730.098246
1152.286843,-9882.631924,-8142.265362,23686.590144
1152.287162,-11721.261119,-2590.720797,25389.063811
1152.287481,-10342.289223,2664.741391,26647.413912
1152.287800,-9269.755526,5847.626942,26943.496289
1152.288119,-3370.820191,11695.253884,22576.281231
1152.288437,-153.219100,10066.800811,14656.077652
1152.288756,4596.572988,12213.398043,6661.853478
1152.289075,7354.516781,7402.059420,-740.205942
1152.289394,9959.241474,5329.482782,-5921.647536
1152.289713,9729.412825,-0.000000,-8068.244768
1152.290031,7660.954980,-4145.153275,-1850.514855
1152.290350,5286.058936,-5625.565159,-592.164754
1152.290669,919.314598,-4293.194464,3552.988522
1152.290988,-2451.505594,-6069.688724,14063.912898
1152.291307,-6435.202183,-7846.182985,24130.713709
1152.291625,-8580.269578,-5033.400406,29090.093521
1152.291944,-9806.022374,-1850.514855,30792.567187
1152.292263,-8656.879127,5255.462188,30052.361245
1152.292582,-3294.210641,9400.615463,26573.393318
1152.292901,4979.620737,13249.686362,19837.519246
1152.293219,9193.145976,12139.377449,7105.977043
1152.293538,13483.280765,11843.295072,-1258.350101
1152.293857,13636.499864,7920.203579,-12065.356855
1152.294176,15551.738609,592.164754,-11251.130318
1152.294495,12947.013916,-5551.544565,-6069.688724
1152.294813,7354.516781,-9770.718434,-592.164754
1152.295132,3064.381992,-9030.512492,3478.967927
1152.295451,-1532.190996,-7105.977043,12287.418637
1152.295770,-4903.011187,-5995.668130,22132.157666
1152.296089,-6741.640382,-3256.906145,27683.702231
1152.296407,-8197.221829,2442.679609,26573.393318
1152.296726,-9729.412825,4959.379811,25759.166782
1152.297045,-6281.983084,8142.265362,22132.157666
1152.297364,0.000000,9252.574275,14211.954086
1152.297683,6052.154434,9844.739029,6735.874072
1152.298001,8886.707777,7031.956449,-1406.391290
1152.298320,10342.289223,5551.544565,-8438.347739
1152.298639,11568.042020,-296.082377,-12435.459826
1152.298958,10418.898773,-4663.297435,-9770.718434
1152.299277,4903.011187,-6957.935855,-4885.359217
1152.299595,459.657299,-7846.182985,74.020594
1152.299914,-5592.497135,-7105.977043,5699.585753
1152.300233,-8350.440928,-8438.347739,18283.086767
1152.300552,-10725.336972,-5847.626942,25537.104999
1152.300871,-11951.089769,-518.144159,25315.043216
1152.301189,-11874.480219,2146.597232,23020.404796
1152.301508,-9193.145976,6809.894666,20947.828159
1152.301827,-4903.011187,8290.306550,17246.798449
1152.302146,0.000000,13249.686362,7698.141797
1152.302465,4136.915689,3330.926739,1554.432478
1152.302784,7354.516781,4515.256246,-6217.729913
1152.303102,8580.269578,814.226536,-9770.718434
1152.303421,9882.631924,-2368.659014,-10584.944971
1152.303740,6665.030833,-5847.626942,-7254.018232
1152.304059,2451.505594,-6513.812290,-740.205942
1152.304378,-1532.190996,-9400.615463,4811.338623
1152.304696,-5745.716235,-8734.430116,15396.283594
1152.305015,-7737.564530,-7846.182985,24426.796086
1152.305334,-10878.556072,-3552.988522,26721.434506
1152.305653,-8350.440928,4293.194464,27313.599260
1152.305972,-8273.831378,5921.647536,23464.528361
1152.306290,-2528.115143,10066.800811,20059.581028
1152.306609,4673.182538,11325.150913,11029.068536
1152.306928,8580.269578,5329.482782,888.247130
1152.307247,10342.289223,1332.370696,-4293.194464
1152.307566,11721.261119,-814.226536,-8734.430116
1152.307884,10801.946522,-5773.606348,-7328.038826
1152.308203,8273.831378,-8364.327145,-2294.638420
1152.308522,5975.544884,-7550.100608,962.267725
1152.308841,1685.410096,-5255.462188,5699.585753
1152.309160,-2374.896044,-7254.018232,16876.695478
1152.309478,-5439.278036,-6069.688724,26573.393318
1152.309797,-7354.516781,-444.123565,29682.258274
1152.310116,-7048.078582,5255.462188,29164.114115
1152.310435,-4519.963438,10436.903782,26203.290347
1152.310754,-995.924147,15840.407159,19245.354492
1152.311072,5822.325785,10362.883188,8438.347739
1152.311391,10725.336972,7624.121203,1036.288319
1152.311710,12257.527968,9474.636058,-8956.491898
1152.312029,13713.109414,1850.514855,-13175.665768
1152.312348,11184.994271,-888.247130,-10807.006753
1152.312666,6818.249932,-5625.565159,-2442.679609
1152.312985,2221.676944,-8068.244768,2294.638420
1152.313304,-1915.238745,-7550.100608,6661.853478
1152.313623,-6741.640382,-7328.038826,18727.210333
1152.313942,-8350.440928,-6513.812290,28497.928767
1152.314260,-11797.870669,-666.185348,28719.990550
1152.314579,-11108.384721,6587.832884,27609.681637
1152.314898,-9039.926876,11177.109724,28423.908173
1152.315217,-3677.258390,19467.416275,17320.819043
1152.315536,1149.143247,15174.221811,8734.430116
1152.315854,5209.449386,11177.109724,518.144159
1152.316173,8273.831378,7476.080014,-7846.182985
1152.316492,9729.412825,1628.453072,-12657.521608
1152.316811,7277.907231,-5773.606348,-9326.594869
1152.317130,3370.820191,-9770.718434,-1924.535449
1152.317448,-536.266849,-10214.842000,962.267725
1152.317767,-3524.039291,-7994.224174,3404.947333
1152.318086,-9193.145976,-9844.739029,14656.077652
1152.318405,-9193.145976,-8734.430116,24722.878463
1152.318724,-12257.527968,-1924.535449,28201.846390
1152.319042,-11568.042020,1110.308913,29978.340651
1152.319361,-10342.289223,9474.636058,28201.846390
1152.319680,-4290.134789,13101.645173,23538.548956
1152.319999,1838.629195,12953.603985,10584.944971
1152.320318,10572.117872,8734.430116,1036.288319
1152.320636,11414.822920,11177.109724,-10214.842000
1152.320955,12257.527968,1184.329507,-13989.892304
1152.321274,10035.851024,-5921.647536,-11399.171507
1152.321593,8197.221829,-12139.377449,-4219.173869
1152.321912,2451.505594,-11325.150913,-222.061783
1152.322230,612.876398,-11103.089130,4885.359217
1152.322549,-7660.954980,-10881.027347,11251.130318
1152.322868,-7354.516781,-13027.624579,28423.908173
1152.323187,-11951.089769,-7550.100608,28868.031738
1152.323506,-11108.384721,444.123565,31014.628970
1152.323825,-9422.974625,5551.544565,27683.702231
1152.324143,-2834.553343,11991.336260,28571.949361
1152.324462,4903.011187,17320.819043,8142.265362
1152.324781,9806.022374,10955.047942,370.102971
1152.325100,16011.395908,7402.059420,-5773.606348
1152.325419,17620.196454,1628.453072,-14211.954086
1152.325737,17543.586904,-1850.514855,-16062.468941
1152.326056,13176.842566,-10584.944971,-11103.089130
1152.326375,6128.763984,-12731.542202,-4071.132681
1152.326694,0.000000,-11991.336260,-814.226536
1152.327013,-4826.401637,-14211.954086,6513.812290
1152.327331,-8886.707777,-18209.066173,22576.281231
1152.327650,-13253.452115,-10732.986159,29830.299463
1152.327969,-12947.013916,-4515.256246,32495.040854
1152.328288,-13866.328514,4959.379811,30570.505405
1152.328607,-6818.249932,13841.851115,30052.361245
1152.328925,-2068.457845,10436.903782,18949.272115
1152.329244,6665.030833,15100.201217,8956.491898
1152.329563,13023.623466,13323.706956,-4219.173869
1152.329882,14785.643111,10140.821405,-15396.283594
1152.330201,14709.033562,5255.462188,-18283.086767
1152.330519,13023.623466,-4145.153275,-11251.130318
1152.330838,4903.011187,-10881.027347,-7402.059420
1152.331157,-1532.190996,-9696.697840,-1480.411884
1152.331476,-7124.688131,-12509.480420,5403.503377
1152.331795,-10572.117872,-11843.295072,17616.901420
1152.332113,-12870.404366,-9104.533087,28497.928767
1152.332432,-14862.252661,-4737.318029,33679.370361
1152.332751,-16164.615008,2738.761985,31310.711347
1152.333070,-12027.699319,13915.871710,24722.878463
1152.333389,-4903.011187,16580.613101,25907.207970
1152.333707,995.924147,13545.768739,13323.706956
1152.334026,10265.679673,17912.983796,-4219.173869
1152.334345,12487.356617,13175.665768,-9104.533087
1152.334664,13483.280765,5773.606348,-13767.830521
1152.334983,13100.233016,-1258.350101,-13767.830521
1152.335301,10418.898773,-8586.388927,-8734.430116
1152.335620,1455.581446,-7402.059420,-4071.132681
1152.335939,842.705048,-13249.686362,3775.050304
1152.336258,-6971.469032,-11473.192101,13915.871710
1152.336577,-7967.393179,-10288.862594,26425.352129
1152.336895,-13559.890315,-5847.626942,32050.917289
1152.337214,-12947.013916,2072.576638,32495.040854
1152.337533,-12257.527968,10066.800811,30348.443622
1152.337852,-4979.620737,12139.377449,29312.155303
1152.338171,-306.438199,17024.736666,11621.233289
1152.338489,8427.050478,13915.871710,4367.215058
1152.338808,14249.376263,13397.727550,-5329.482782
1152.339127,15781.567259,4811.338623,-15840.407159
1152.339446,16547.662757,-222.061783,-14137.933492
1152.339765,13176.842566,-10807.006753,-6217.729913
1152.340084,6052.154434,-13545.768739,-4367.215058
1152.340403,1838.629195,-11177.109724,-444.123565
1152.340722,-1302.362347,-15026.180623,12509.480420
1152.341041,-7431.126331,-13693.809927,27609.681637
1152.341360,-9422.974625,-12065.356855,32939.164419
1152.341679,-14325.985813,666.185348,33087.205607
1152.341998,-10801.946522,13619.789333,31828.855506
1152.342317,-6435.202183,12065.356855,28942.052332
1152.342636,0.000000,11769.274478,17098.757260
1152.342955,7967.393179,20651.745782,8660.409521
1152.343274,14555.814462,6439.791695,-4441.235652
1152.343593,14325.985813,4293.194464,-14508.036463
1152.343912,15015.471761,-2886.803174,-10807.006753
1152.344231,12334.137518,-11991.336260,-7772.162391
1152.344550,7201.297681,-13619.789333,-4737.318029
1152.344869,2757.943793,-11177.109724,-5477.523971
1152.345188,-4290.134789,-9548.656652,4219.173869
1152.345507,-7354.516781,-12435.459826,21169.889941
1152.345826,-12257.527968,-11399.171507,30348.443622
1152.346145,-15781.567259,-2812.782580,32272.979071
1152.346464,-15934.786358,7772.162391,30570.505405
1152.346783,-12180.918418,11325.150913,27239.578666
1152.347101,-4443.353888,14137.933492,20503.704593
1152.347420,1685.410096,10436.903782,11843.295072
1152.347739,8733.488677,12731.542202,-3997.112087
1152.348058,10878.556072,7402.059420,-16580.613101
1152.348377,12180.918418,1702.473667,-15174.221811
1152.348696,11797.870669,-4885.359217,-11473.192101
1152.349015,7507.735880,-12361.439231,-8734.430116
1152.349334,-1149.143247,-12139.377449,-7698.141797
1152.349653,-4136.915689,-7920.203579,-888.247130
1152.349972,-8273.831378,-16358.551318,14656.077652
1152.350291,-11951.089769,-12287.418637,24796.899057
1152.350610,-14632.424012,-7846.182985,31680.814318
1152.350929,-17160.539155,3552.988522,30200.402434
1152.351248,-11338.213370,12879.583391,26351.331535
1152.351567,-4826.401637,13471.748144,26721.434506
1152.351886,4979.620737,17542.880825,10955.047942
1152.352205,9806.022374,15470.304188,3108.864956
1152.352524,14709.033562,9104.533087,-6809.894666
1152.352843,16394.443657,4441.235652,-16062.468941
1152.353162,16241.224558,-1776.494261,-12805.562797
1152.353481,12947.013916,-8808.450710,-6513.812290
1152.353800,8273.831378,-10881.027347,-6217.729913
1152.354119,3064.381992,-7624.121203,-4589.276840
1152.354438,-2374.896044,-13027.624579,10658.965565
1152.354757,-7354.516781,-10140.821405,24648.857869
1152.355076,-10418.898773,-10436.903782,31532.773129
1152.355395,-14709.033562,-3034.844362,35825.967593
1152.355714,-12487.356617,6291.750507,33161.226202
1152.356033,-6818.249932,8512.368333,31458.752535
1152.356352,766.095498,15988.448347,16210.510130
1152.356671,9652.803275,15322.262999,9474.636058
1152.356990,14096.157163,15840.407159,-3997.112087
1152.357309,16777.491406,8586.388927,-13323.706956
1152.357628,17466.977354,3701.029710,-11251.130318
1152.357946,15245.300410,-7994.224174,-7031.956449
1152.358265,9882.631924,-7624.121203,-5181.441594
1152.358584,4290.134789,-9844.739029,-5107.421000
1152.358903,-2681.334243,-8734.430116,3997.112087
1152.359222,-6588.421283,-15840.407159,21614.013506
1152.359541,-11261.603821,-13027.624579,29016.072926
1152.359860,-15321.909960,-8660.409521,35307.823433
1152.360179,-18462.901502,5403.503377,32495.040854
1152.360498,-12947.013916,10510.924376,34271.535115
1152.360817,-4673.182538,18579.169144,24352.775492
1152.361136,2604.724693,16432.571912,15840.407159
1152.361455,6588.421283,14434.015869,4219.173869
1152.361774,12257.527968,12953.603985,-8586.388927
1152.362093,13789.718964,7476.080014,-15618.345376
1152.362412,15245.300410,-888.247130,-11547.212695
1152.362731,9959.241474,-8882.471304,-5255.462188
1152.363050,2834.553343,-10066.800811,-6957.935855
1152.363369,-1302.362347,-9622.677246,-3701.029710
1152.363688,-7048.078582,-11917.315666,9548.656652
1152.364007,-10189.070123,-13989.892304,23686.590144
1152.364326,-16241.224558,-6809.894666,30126.381839
1152.364645,-17696.806004,-2960.823768,33753.390955
1152.364964,-18386.291952,5625.565159,31902.876100
1152.365283,-10955.165621,10732.986159,30348.443622
1152.365602,-3064.381992,10510.924376,17912.983796
1152.365921,3907.087040,16432.571912,4811.338623
1152.366240,9959.241474,13027.624579,-4737.318029
1152.366559,14402.595362,12065.356855,-15396.283594
1152.366878,17926.634653,592.164754,-12065.356855
1152.367197,14479.204912,-2664.741391,-10881.027347
1152.367516,10189.070123,-10362.883188,-8068.244768
1152.367835,3983.696590,-7105.977043,-8512.368333
1152.368154,306.438199,-11547.212695,814.226536
1152.368473,-5592.497135,-13693.809927,14285.974681
1152.368791,-8427.050478,-13545.768739,25685.146187
1152.369110,-12870.404366,-8660.409521,31162.670158
1152.369429,-14862.252661,666.185348,30866.587781
1152.369748,-11108.384721,6587.832884,29016.072926
1152.370067,-2451.505594,9918.759623,27239.578666
1152.370386,5822.325785,14285.974681,13397.727550
1152.370705,12487.356617,16210.510130,1702.473667
1152.371024,15934.786358,11621.233289,-8512.368333
1152.371343,19688.654299,5921.647536,-12805.562797
1152.371662,20607.968896,370.102971,-13471.748144
1152.371981,15398.519510,-5773.606348,-10584.944971
1152.372300,9039.926876,-9844.739029,-10436.903782
1152.372619,2681.334243,-10955.047942,-5995.668130
1152.372938,-2451.505594,-11843.295072,9030.512492
1152.373257,-8197.221829,-17172.777854,22576.281231
1152.373576,-11951.089769,-11473.192101,30496.484810
1152.373895,-15934.786358,-4737.318029,31162.670158
1152.374214,-16394.443657,4219.173869,31902.876100
1152.374533,-12793.794817,9104.533087,32569.061448
1152.374852,-3600.648841,15470.304188,23686.590144
1152.375171,3140.991542,14137.933492,5847.626942
1152.375490,9806.022374,18505.148550,-592.164754
1152.375809,12410.747068,11103.089130,-9326.594869
1152.376128,15551.738609,2886.803174,-14063.912898
1152.376447,15704.957709,-1702.473667,-11177.109724
1152.376766,8350.440928,-9474.636058,-10140.821405
1152.377085,2374.896044,-11473.192101,-7179.997637
1152.377404,-1991.848295,-11103.089130,1776.494261
1152.377723,-7890.783629,-16284.530724,14730.098246
1152.378042,-14096.157163,-12435.459826,26351.331535
1152.378361,-15168.690860,-5551.544565,33161.226202
1152.378680,-19612.044749,2368.659014,31680.814318
1152.378999,-15551.738609,8808.450710,31976.896694
1152.379317,-11414.822920,11399.171507,30200.402434
1152.379636,-1915.238745,15988.448347,17616.901420
1152.379955,3217.601092,17764.942608,4959.379811
1152.380274,9039.926876,13545.768739,-4219.173869
1152.380593,14402.595362,10510.924376,-9474.636058
1152.380912,18386.291952,4515.256246,-11769.274478
1152.381231,14172.766713,-2368.659014,-11029.068536
1152.381550,7584.345430,-11843.295072,-8586.388927
1152.381869,3983.696590,-6587.832884,-6439.791695
1152.382188,-459.657299,-10288.862594,5107.421000
1152.382507,-5209.449386,-13841.851115,22280.198854
1152.382826,-9039.926876,-11843.295072,29090.093521
1152.383145,-13866.328514,-1110.308913,32791.123231
1152.383464,-15704.957709,2220.617826,31458.752535
1152.383783,-9193.145976,11177.109724,31976.896694
1152.384102,-3524.039291,13841.851115,26425.352129
1152.384421,4749.792088,17320.819043,14434.015869
1152.384740,10342.289223,18653.189738,3034.844362
1152.385059,14785.643111,12953.603985,-11769.274478
1152.385378,17390.367805,2442.679609,-10732.986159
1152.385697,18692.730151,-2590.720797,-8882.471304
1152.386016,15015.471761,-7920.203579,-8808.450710
1152.386335,7890.783629,-10584.944971,-10066.800811
1152.386654,3907.087040,-9770.718434,-1998.556043
1152.386973,-2068.457845,-13915.871710,12287.418637
1152.387292,-2911.162892,-12509.480420,27165.558071
1152.387611,-11568.042020,-6291.750507,30126.381839
1152.387930,-14019.547613,222.061783,32495.040854
1152.388249,-14785.643111,8882.471304,29090.093521
1152.388568,-6128.763984,12879.583391,26055.249158
1152.388887,1532.190996,13323.706956,15174.221811
1152.389206,4136.915689,17246.798449,2146.597232
1152.389525,11338.213370,9992.780217,-4145.153275
1152.389844,14402.595362,7476.080014,-13915.871710
1152.390162,17007.320056,1036.288319,-10510.924376
1152.390481,13023.623466,-7698.141797,-6809.894666
1152.390800,6281.983084,-8882.471304,-11251.130318
1152.391119,919.314598,-8068.244768,-10732.986159
1152.391438,-2987.772442,-13767.830521,3849.070898
1152.391757,-8963.317327,-15396.283594,21095.869347
1152.392076,-14249.376263,-14656.077652,25537.104999
1152.392395,-14938.862211,-5995.668130,31384.731941
1152.392714,-23059.474490,888.247130,34641.638086
1152.393033,-17390.367805,7254.018232,33309.267390
1152.393352,-9652.803275,9992.780217,26721.434506
1152.393671,-153.219100,19689.478057,9104.533087
1152.393990,5822.325785,18949.272115,2072.576638
1152.394309,13406.671215,16432.571912,-6291.750507
1152.394628,17160.539155,7920.203579,-12805.562797
1152.394947,16088.005458,-1850.514855,-12879.583391
1152.395266,11491.432470,-7105.977043,-9474.636058
1152.395585,5745.716235,-11547.212695,-10510.924376
1152.395904,612.876398,-11917.315666,-5181.441594
1152.396223,-3064.381992,-13841.851115,8808.450710
1152.396542,-7737.564530,-15026.180623,25389.063811
1152.396861,-10418.898773,-14285.974681,30126.381839
1152.397180,-18999.168350,-2442.679609,36788.235317
1152.397499,-17007.320056,2812.782580,32495.040854
1152.397818,-11491.432470,10362.883188,35529.885216
1152.398137,-995.924147,16728.654289,25241.022622
1152.398456,4749.792088,11399.171507,5773.606348
1152.398775,12410.747068,21243.910535,4811.338623
1152.399094,15704.957709,11177.109724,-9992.780217
1152.399413,19841.873398,4737.318029,-14285.974681
1152.399732,19458.825649,-4589.276840,-12657.521608
1152.400051,12793.794817,-8364.327145,-7254.018232
1152.400370,7507.735880,-12805.562797,-10362.883188
1152.400689,3907.087040,-10510.924376,-5329.482782
1152.401007,-2221.676944,-15174.221811,11769.274478
1152.401326,-6665.030833,-15840.407159,28423.908173
1152.401645,-15015.471761,-10066.800811,29608.237680
1152.401964,-16930.710506,-5699.585753,37232.358883
1152.402283,-17696.806004,4071.132681,35825.967593
1152.402602,-9499.584175,8512.368333,32272.979071
1152.402921,766.095498,21317.931130,19245.354492
1152.403240,8503.660028,19541.436869,6143.709319
1152.403559,14555.814462,18431.127956,-4515.256246
1152.403878,17850.025103,13175.665768,-8290.306550
1152.404197,18386.291952,-0.000000,-8956.491898
1152.404516,16011.395908,-3775.050304,-11695.253884
1152.404835,9116.536426,-5625.565159,-11325.150913
1152.405154,5132.839837,-8660.409521,-8438.347739
1152.405473,-1838.629195,-15396.283594,-222.061783
1152.405792,-6435.202183,-11103.089130,13175.665768
1152.406111,-9959.241474,-15766.386565,25981.228564
1152.406430,-17773.415554,-6883.915261,32198.958477
1152.406749,-21757.112143,-740.205942,36862.255912
1152.407068,-17543.586904,8068.244768,35381.844028
1152.407387,-10265.679673,16136.489536,28053.805202
1152.407706,0.000000,12805.562797,16728.654289
1152.408025,5209.449386,23168.445985,4959.379811
1152.408344,12563.966167,16506.592507,-8586.388927
1152.408663,14402.595362,7994.224174,-16580.613101
1152.408982,16624.272307,2146.597232,-13693.809927
1152.409301,11951.089769,-6587.832884,-6661.853478
1152.409620,4136.915689,-11621.233289,-11029.068536
1152.409939,612.876398,-9474.636058,-6513.812290
1152.410258,-4519.963438,-16210.510130,6661.853478
1152.410577,-7737.564530,-12287.418637,18875.251521
1152.410896,-12947.013916,-12657.521608,29534.217086
1152.411215,-18156.463303,-4367.215058,32791.123231
1152.411534,-20454.749797,2960.823768,35529.885216
1152.411852,-14402.595362,5625.565159,33975.452738
1152.412171,-4060.306139,12879.583391,25463.084405
1152.412490,3907.087040,15248.242405,12953.603985
1152.412809,10035.851024,17764.942608,-2812.782580
1152.413128,15321.909960,15322.262999,-8660.409521
1152.413447,19458.825649,5033.400406,-13323.706956
1152.413766,19305.606550,-3997.112087,-9548.656652
1152.414085,13942.938064,-5847.626942,-10732.986159
1152.414404,8197.221829,-9030.512492,-12213.398043
1152.414723,5286.058936,-11029.068536,-1332.370696
1152.415042,-2068.457845,-16136.489536,10584.944971
1152.415361,-5515.887586,-18653.189738,24352.775492
1152.415680,-13483.280765,-14137.933492,32717.102636
1152.415999,-16777.491406,-7698.141797,33161.226202
1152.416318,-16471.053207,4811.338623,32569.061448
1152.416637,-7354.516781,9622.677246,30792.567187
1152.416956,2374.896044,15692.365970,25759.166782
1152.417275,9039.926876,20725.766376,5107.421000
1152.417594,11031.775171,13767.830521,-5181.441594
1152.417913,17237.148705,13989.892304,-13027.624579
1152.418232,19152.387450,1554.432478,-14359.995275
1152.418551,16930.710506,-6069.688724,-9548.656652
1152.418870,11644.651570,-14285.974681,-9770.718434
1152.419189,7124.688131,-11991.336260,-5329.482782
1152.419508,-1378.971896,-14582.057057,666.185348
1152.419827,-3294.210641,-15100.201217,17394.839637
1152.420146,-11414.822920,-18061.024985,28201.846390
1152.420465,-13713.109414,-5847.626942,32421.020260
1152.420784,-18539.511052,1702.473667,29978.340651
1152.421103,-15475.129060,12879.583391,31606.793723
1152.421422,-11797.870669,10955.047942,32346.999665
1152.421741,1225.752797,15026.180623,22650.301825
1152.422060,4290.134789,17838.963202,1702.473667
1152.422379,9882.631924,18135.045579,-6661.853478
1152.422697,13023.623466,8956.491898,-11843.295072
1152.423016,16394.443657,-1628.453072,-9696.697840
1152.423335,13866.328514,-6217.729913,-10955.047942
1152.423654,6052.154434,-12435.459826,-11473.192101
1152.423973,1302.362347,-9844.739029,-5329.482782
1152.424292,-5975.544884,-17912.983796,2664.741391
1152.424611,-9729.412825,-15100.201217,18135.045579
1152.424930,-14325.985813,-13693.809927,34049.473332
1152.425249,-19458.825649,-6365.771101,37602.461854
1152.425568,-21986.940793,3478.967927,32124.937883
1152.425887,-18309.682402,14508.036463,28719.990550
1152.426206,-7277.907231,16950.716072,23686.590144
1152.426525,0.000000,17542.880825,14878.139434
1152.426844,7354.516781,20059.581028,3627.009116
1152.427163,11797.870669,14878.139434,-7254.018232
1152.427482,18769.339701,5995.668130,-9992.780217
1152.427801,19995.092498,-4071.132681,-8512.368333
1152.428120,14862.252661,-9030.512492,-8882.471304
1152.428439,8197.221829,-13175.665768,-12065.356855
1152.428758,4979.620737,-9178.553681,-4885.359217
1152.429077,2145.067394,-10881.027347,4663.297435
1152.429396,-3600.648841,-15396.283594,24722.878463
1152.429715,-9959.241474,-11769.274478,31310.711347
1152.430034,-14785.643111,-3701.029710,32198.958477
1152.430353,-17620.196454,2664.741391,37380.400071
1152.430672,-7584.345430,6365.771101,33457.308578
1152.430991,-612.876398,14137.933492,20873.807564
1152.431310,7124.688131,21836.075289,9918.759623
1152.431629,13100.233016,14434.015869,1258.350101
1152.431948,17620.196454,15174.221811,-12139.377449
1152.432267,22140.159892,2220.617826,-11399.171507
1152.432586,19918.482948,-7624.121203,-7105.977043
1152.432905,13406.671215,-7624.121203,-10288.862594
1152.433224,6588.421283,-10288.862594,-10881.027347
1152.433542,0.000000,-14656.077652,962.267725
1152.433861,-4519.963438,-14211.954086,14434.015869
1152.434180,-10495.508323,-18949.272115,30496.484810
1152.434499,-13866.328514,-10140.821405,33975.452738
1152.434818,-18845.949251,740.205942,31014.628970
1152.435137,-18616.120601,7402.059420,34715.658680
1152.435456,-9422.974625,16654.633695,30422.464216
1152.435775,-1608.800546,16654.633695,11769.274478
1152.436094,3600.648841,19023.292709,9844.739029
1152.436413,7201.297681,10510.924376,74.020594
1152.436732,11874.480219,9252.574275,-11473.192101
1152.437051,17313.758255,2220.617826,-12509.480420
1152.437370,15628.348159,-2960.823768,-8660.409521
1152.437689,7737.564530,-11843.295072,-10436.903782
1152.438008,2834.553343,-10288.862594,-11695.253884
1152.438327,-1991.848295,-12065.356855,-2368.659014
1152.438646,-7048.078582,-13915.871710,14137.933492
1152.438965,-12410.747068,-12435.459826,27831.743419
1152.439284,-18156.463303,-6291.750507,30644.525999
1152.439602,-20224.921147,592.164754,34345.555709
1152.439921,-19612.044749,8364.327145,31902.876100
1152.440240,-8810.098227,10510.924376,29904.320057
1152.440559,-383.047749,14434.015869,16802.674883
1152.440878,6358.592633,15470.304188,5921.647536
1152.441197,10189.070123,16876.695478,-5921.647536
1152.441516,16624.272307,9696.697840,-10066.800811
1152.441835,19458.825649,1850.514855,-10955.047942
1152.442154,16700.881856,-7476.080014,-7920.203579
1152.442473,9346.365076,-8956.491898,-13989.892304
1152.442791,4366.744339,-8364.327145,-8956.491898
1152.443110,0.000000,-13101.645173,2960.823768
1152.443429,-4519.963438,-14804.118840,21243.910535
1152.443748,-8886.707777,-12805.562797,29756.278868
1152.444067,-17160.539155,-4885.359217,32569.061448
1152.444386,-17007.320056,1332.370696,36196.070564
1152.444705,-13100.233016,5773.606348,35233.802839
1152.445024,-1302.362347,9104.533087,27239.578666
1152.445343,7507.735880,16876.695478,11103.089130
1152.445662,8273.831378,17690.922014,1258.350101
1152.445980,14172.766713,12139.377449,-8068.244768
1152.446299,19688.654299,7994.224174,-10881.027347
1152.446618,20071.702048,1258.350101,-8882.471304
1152.446937,17313.758255,-6735.874072,-9178.553681
1152.447256,10725.336972,-5329.482782,-13915.871710
1152.447575,3524.039291,-9104.533087,-7328.038826
1152.447894,612.876398,-7698.141797,5995.668130
1152.448213,-6894.859482,-19023.292709,23464.528361
1152.448532,-14632.424012,-17246.798449,34049.473332
1152.448851,-18539.511052,-7772.162391,34271.535115
1152.449169,-16930.710506,2590.720797,35529.885216
1152.449488,-10725.336972,9474.636058,29756.278868
1152.449807,-4749.792088,17394.839637,20429.683999
1152.450126,4290.134789,8216.285956,12065.356855
1152.450445,7431.126331,25833.187376,-3775.050304
1152.450764,13023.623466,17838.963202,-11769.274478
1152.451083,15168.690860,7550.100608,-14434.015869
1152.451402,17160.539155,-2220.617826,-7994.224174
1152.451721,11261.603821,-5551.544565,-10584.944971
1152.452040,2604.724693,-11917.315666,-12435.459826
1152.452358,-1072.533697,-12065.356855,0.000000
1152.452677,-4596.572988,-17912.983796,14063.912898
1152.452996,-9882.631924,-16580.613101,26869.475695
1152.453315,-14325.985813,-12361.439231,34049.473332
1152.453634,-18922.558801,-1036.288319,32124.937883
1152.453953,-18539.511052,6217.729913,31606.793723
1152.454272,-13406.671215,11991.336260,27905.764013
1152.454591,-2528.115143,15692.365970,19911.539840
1152.454910,2068.457845,20133.601622,6735.874072
1152.455229,5439.278036,15322.262999,-3034.844362
1152.455547,10801.946522,14137.933492,-8882.471304
1152.455866,17313.758255,2960.823768,-12361.439231
1152.456185,13330.061665,-3552.988522,-11695.253884
1152.456504,9729.412825,-10955.047942,-8142.265362
1152.456823,3140.991542,-11029.068536,-8882.471304
1152.457142,1762.019645,-11473.192101,-1850.514855
1152.457461,-3983.696590,-14656.077652,10214.842000
1152.457780,-5822.325785,-14359.995275,31384.731941
1152.458099,-12947.013916,-10436.903782,31532.773129
1152.458418,-17850.025103,1480.411884,30496.484810
1152.458736,-13942.938064,5699.585753,29830.299463
1152.459055,-8886.707777,9548.656652,25611.125593
1152.459374,1302.362347,10881.027347,15322.262999
1152.459693,7048.078582,21169.889941,6143.709319
1152.460012,12410.747068,18801.230927,-9030.512492
1152.460331,18156.463303,12139.377449,-11917.315666
1152.460650,21220.845295,3330.926739,-8364.327145
1152.460969,18922.558801,-6957.935855,-4737.318029
1152.461288,12257.527968,-9474.636058,-8216.285956
1152.461607,8044.002729,-9104.533087,-6439.791695
1152.461925,2221.676944,-10362.883188,1924.535449
1152.462244,-2911.162892,-15544.324782,18727.210333
1152.462563,-7660.954980,-15248.242405,29756.278868
1152.462882,-12487.356617,-8660.409521,31014.628970
1152.463201,-15398.519510,1480.411884,29238.134709
1152.463520,-13483.280765,12065.356855,27387.619854
1152.463839,-7277.907231,10140.821405,25981.228564
1152.464158,2298.286494,17320.819043,15026.180623
1152.464477,7507.735880,19837.519246,5551.544565
1152.464796,10801.946522,14508.036463,-8142.265362
1152.465114,13713.109414,10658.965565,-11917.315666
1152.465433,17313.758255,222.061783,-10140.821405
1152.465752,11644.651570,-6661.853478,-8290.306550
1152.466071,7660.954980,-14063.912898,-7476.080014
1152.466390,1302.362347,-12139.377449,-4737.318029
1152.466709,-2987.772442,-14211.954086,5181.441594
1152.467028,-8733.488677,-16432.571912,21984.116477
1152.467347,-14709.033562,-12657.521608,31014.628970
1152.467666,-16317.834107,-4145.153275,34197.514520
1152.467985,-18845.949251,7105.977043,31088.649564
1152.468303,-14785.643111,13027.624579,23464.528361
1152.468622,-7124.688131,12583.501014,23686.590144
1152.468941,-689.485948,21614.013506,12805.562797
1152.469260,4749.792088,18135.045579,1924.535449
1152.469579,8580.269578,15618.345376,-8068.244768
1152.469898,12410.747068,5995.668130,-9474.636058
1152.470217,15858.176809,-3330.926739,-8808.450710
1152.470536,12257.527968,-7328.038826,-8364.327145
1152.470855,7201.297681,-11103.089130,-4737.318029
1152.471174,2834.553343,-9474.636058,-3256.906145
1152.471492,-2681.334243,-10288.862594,5033.400406
1152.471811,-4826.401637,-15988.448347,24574.837274
1152.472130,-11108.384721,-9474.636058,32939.164419
1152.472449,-16088.005458,-444.123565,36788.235317
1152.472768,-15475.129060,5107.421000,26351.331535
1152.473087,-10112.460574,15322.262999,25463.084405
1152.473406,-536.266849,14656.077652,25537.104999
1152.473725,4060.306139,15618.345376,9104.533087
1152.474044,10572.117872,16062.468941,370.102971
1152.474363,15092.081311,8290.306550,-7550.100608
1152.474681,15321.909960,2516.700203,-17024.736666
1152.475000,17007.320056,-7254.018232,-5477.523971
1152.475319,12640.575717,-12065.356855,-2812.782580
1152.475638,7814.174080,-10584.944971,-5403.503377
1152.475957,2757.943793,-10955.047942,-4811.338623
1152.476276,-1608.800546,-10436.903782,13619.789333
1152.476595,-4596.572988,-11473.192101,28423.908173
1152.476914,-12257.527968,-7772.162391,29904.320057
1152.477233,-15245.300410,-1258.350101,31014.628970
1152.477552,-16547.662757,10658.965565,30866.587781
1152.477870,-9346.365076,12065.356855,22724.322419
1152.478189,383.047749,12287.418637,18653.189738
1152.478508,5975.544884,16284.530724,9030.512492
1152.478827,9959.241474,9844.739029,-666.185348
1152.479146,14019.547613,12139.377449,-12509.480420
1152.479465,18386.291952,3404.947333,-10807.006753
1152.479784,16317.834107,-5921.647536,-6143.709319
1152.480103,10495.508323,-8068.244768,-8660.409521
1152.480422,5362.668486,-6809.894666,-7920.203579
1152.480741,536.266849,-9030.512492,-2220.617826
1152.481059,-4136.915689,-12287.418637,12879.583391
1152.481378,-9269.755526,-13249.686362,24870.919651
1152.481697,-15092.081311,-7698.141797,32865.143825
1152.482016,-19152.387450,-666.185348,33161.226202
1152.482335,-18309.682402,6735.874072,30052.361245
1152.482654,-10725.336972,11917.315666,26869.475695
1152.482973,-1532.190996,11103.089130,17912.983796
1152.483292,1302.362347,17616.901420,3997.112087
1152.483611,7201.297681,13027.624579,-3182.885551
1152.483930,12717.185267,10510.924376,-10881.027347
1152.484248,15934.786358,1554.432478,-11177.109724
1152.484567,13713.109414,-5107.421000,-7624.121203
1152.484886,6894.859482,-11473.192101,-8734.430116
1152.485205,2298.286494,-10658.965565,-6809.894666
1152.485524,-3064.381992,-9252.574275,296.082377
1152.485843,-5056.230287,-13397.727550,17468.860231
1152.486162,-10418.898773,-11695.253884,28497.928767
1152.486481,-16088.005458,-7550.100608,31458.752535
1152.486800,-18616.120601,666.185348,32717.102636
1152.487119,-16088.005458,8142.265362,27831.743419
1152.487437,-7201.297681,10881.027347,25315.043216
1152.487756,-536.266849,12879.583391,19393.395680
1152.488075,5975.544884,14285.974681,8808.450710
1152.488394,10878.556072,15618.345376,-3478.967927
1152.488713,17543.586904,11695.253884,-14063.912898
1152.489032,15628.348159,-1184.329507,-10436.903782
1152.489351,16930.710506,-2886.803174,-8660.409521
1152.489670,11491.432470,-7920.203579,-8290.306550
1152.489989,6511.811733,-5403.503377,-7402.059420
1152.490308,1072.533697,-7994.224174,222.061783
1152.490626,-612.876398,-12879.583391,19763.498651
1152.490945,-7890.783629,-14211.954086,31236.690752
1152.491264,-13942.938064,-6439.791695,31384.731941
1152.491583,-16317.834107,-3404.947333,32198.958477
1152.491902,-13483.280765,4885.359217,29682.258274
1152.492221,-6511.811733,5551.544565,25685.146187
1152.492540,766.095498,13693.809927,13619.789333
1152.492859,3907.087040,11177.109724,2294.638420
1152.493178,12334.137518,13545.768739,-5181.441594
1152.493497,15858.176809,9918.759623,-11621.233289
1152.493815,16854.100956,-740.205942,-8512.368333
1152.494134,14709.033562,-5773.606348,-6809.894666
1152.494453,9652.803275,-6735.874072,-7031.956449
1152.494772,4366.744339,-8956.491898,-4367.215058
1152.495091,1072.533697,-6439.791695,4145.153275
1152.495410,-5515.887586,-12139.377449,18283.086767
1152.495729,-10801.946522,-15692.365970,25611.125593
1152.496048,-15092.081311,-7698.141797,29830.299463
1152.496367,-17696.806004,296.082377,30200.402434
1152.496686,-14096.157163,7550.100608,27387.619854
1152.497004,-9269.755526,10732.986159,21539.992912
1152.497323,1225.752797,14434.015869,16580.613101
1152.497642,4519.963438,17987.004391,6439.791695
1152.497961,9422.974625,14434.015869,-7698.141797
1152.498280,13636.499864,10362.883188,-9770.718434
1152.498599,14709.033562,1924.535449,-11399.171507
1152.498918,11874.480219,-5773.606348,-10066.800811
1152.499237,5745.716235,-9474.636058,-7254.018232
1152.499556,459.657299,-8438.347739,-3034.844362
1152.499875,-2757.943793,-12731.542202,7402.059420
1152.500193,-9652.803275,-10436.903782,19763.498651
1152.500512,-9039.926876,-12657.521608,35529.885216
1152.500831,-16394.443657,-2220.617826,30200.402434
1152.501150,-16471.053207,7105.977043,27609.681637
1152.501469,-12027.699319,9622.677246,26055.249158
1152.501788,-5286.058936,12583.501014,21169.889941
1152.502107,-1302.362347,12139.377449,12287.418637
1152.502426,7277.907231,4293.194464,2072.576638
1152.502745,12793.794817,13841.851115,-7105.977043
1152.503064,15245.300410,5625.565159,-12509.480420
1152.503382,15168.690860,-4293.194464,-9770.718434
1152.503701,13023.623466,-8290.306550,-7328.038826
1152.504020,8044.002729,-10214.842000,-3256.906145
1152.504339,3600.648841,-8364.327145,-4589.276840
1152.504658,0.000000,-7105.977043,6513.812290
1152.504977,-3217.601092,-11843.295072,23760.610738
1152.505296,-8427.050478,-9622.677246,32421.020260
1152.505615,-12640.575717,-5107.421000,32272.979071
1152.505934,-14249.376263,2146.597232,32050.917289
1152.506253,-9269.755526,7476.080014,24870.919651
1152.506571,-3294.210641,12139.377449,18357.107362
1152.506890,5515.887586,5847.626942,13767.830521
1152.507209,10342.289223,15322.262999,2886.803174
1152.507528,12717.185267,11843.295072,-8660.409521
1152.507847,15475.129060,5255.462188,-10658.965565
1152.508166,13713.109414,-1036.288319,-6291.750507
1152.508485,13100.233016,-7994.224174,-1554.432478
1152.508804,6741.640382,-11029.068536,-4071.132681
1152.509123,2681.334243,-6291.750507,1110.308913
1152.509442,-2068.457845,-12731.542202,13027.624579
1152.509760,-6281.983084,-10436.903782,24574.837274
1152.510079,-11491.432470,-7994.224174,29608.237680
1152.510398,-14785.643111,962.267725,28275.866984
1152.510717,-14019.547613,7105.977043,25092.981434
1152.511036,-9882.631924,14952.160028,19837.519246
1152.511355,-2987.772442,9400.615463,15766.386565
1152.511674,995.924147,9252.574275,12361.439231
1152.511993,6741.640382,8734.430116,1998.556043
1152.512312,9193.145976,5477.523971,-6513.812290
1152.512631,13253.452115,1628.453072,-7624.121203
1152.512949,11874.480219,-3997.112087,-6735.874072
1152.513268,10265.679673,-6883.915261,-5403.503377
1152.513587,4903.011187,-8734.430116,-5477.523971
1152.513906,-153.219100,-7031.956449,2294.638420
1152.514225,-5592.497135,-7698.141797,11843.295072
1152.514544,-9422.974625,-5847.626942,24352.775492
1152.514863,-13330.061665,-5551.544565,29830.299463
1152.515182,-17007.320056,2442.679609,27091.537477
1152.515501,-14249.376263,5847.626942,24796.899057
1152.515820,-9576.193725,11251.130318,17690.922014
1152.516138,-1915.238745,7624.121203,15396.283594
1152.516457,3907.087040,10140.821405,7772.162391
1152.516776,7201.297681,8142.265362,-814.226536
1152.517095,10418.898773,4737.318029,-4663.297435
1152.517414,12947.013916,962.267725,-6587.832884
1152.517733,13100.233016,-3701.029710,-4441.235652
1152.518052,10265.679673,-9918.759623,-4367.215058
1152.518371,5822.325785,-4367.215058,-2368.659014
1152.518690,2145.067394,-3404.947333,4811.338623
1152.519009,229.828649,-4219.173869,13397.727550
1152.519327,-5132.839837,-6439.791695,22280.198854
1152.519646,-9806.022374,-2960.823768,26795.455100
1152.519965,-11951.089769,3478.967927,26573.393318
1152.520284,-10495.508323,5181.441594,24352.775492
1152.520603,-3830.477490,7031.956449,19689.478057
1152.520922,919.314598,7994.224174,14730.098246
1152.521241,7201.297681,7698.141797,7402.059420
1152.521560,8656.879127,7846.182985,4293.194464
1152.521879,12947.013916,5773.606348,-2516.700203
1152.522198,14402.595362,-0.000000,-6883.915261
1152.522516,14172.766713,-2812.782580,-5699.585753
1152.522835,9499.584175,-4663.297435,-4737.318029
1152.523154,5745.716235,-3627.009116,-2590.720797
1152.523473,459.657299,-6661.853478,3775.050304
1152.523792,-3600.648841,-9252.574275,17838.963202
1152.524111,-10112.460574,-8142.265362,25241.022622
1152.524430,-12793.794817,-4959.379811,29904.320057
1152.524749,-13713.109414,1258.350101,27535.661042
1152.525068,-10878.556072,6735.874072,25463.084405
1152.525387,-6818.249932,8808.450710,22502.260637
1152.525705,-1302.362347,4959.379811,13767.830521
1152.526024,5898.935335,10658.965565,5625.565159
1152.526343,9116.536426,7179.997637,-1924.535449
1152.526662,9729.412825,3182.885551,-8512.368333
1152.526981,12487.356617,1110.308913,-8290.306550
1152.527300,10725.336972,-5477.523971,-3849.070898
1152.527619,5209.449386,-7846.182985,-2146.597232
1152.527938,1762.019645,-4885.359217,592.164754
1152.528257,-4290.134789,-7476.080014,9474.636058
1152.528576,-6052.154434,-7920.203579,18209.066173
1152.528894,-11491.432470,-6143.709319,24130.713709
1152.529213,-15858.176809,-3923.091493,29682.258274
1152.529532,-14325.985813,-740.205942,29756.278868
1152.529851,-12640.575717,5995.668130,21465.972318
1152.530170,-5898.935335,8808.450710,17616.901420
1152.530489,612.876398,9696.697840,12213.398043
1152.530808,5898.935335,10881.027347,3182.885551
1152.531127,11951.089769,6661.853478,-1036.288319
1152.531446,12563.966167,4219.173869,-6883.915261
1152.531765,14555.814462,-1036.288319,-7550.100608
1152.532083,13100.233016,-2886.803174,-8512.368333
1152.532402,8350.440928,-5255.462188,-4589.276840
1152.532721,4060.306139,-7772.162391,1110.308913
1152.533040,-1532.190996,-6513.812290,6809.894666
1152.533359,-4290.134789,-5181.441594,19245.354492
1152.533678,-9576.193725,-5773.606348,23982.672521
1152.533997,-11491.432470,-2812.782580,27609.681637
1152.534316,-11797.870669,-1036.288319,26647.413912
1152.534635,-8733.488677,4737.318029,24352.775492
1152.534954,-1991.848295,5107.421000,21095.869347
1152.535272,4749.792088,10362.883188,10732.986159
1152.535591,8733.488677,4515.256246,3997.112087
1152.535910,11721.261119,7254.018232,-1702.473667
1152.536229,15858.176809,7179.997637,-8512.368333
1152.536548,16241.224558,3182.885551,-11621.233289
1152.536867,14019.547613,-592.164754,-7179.997637
1152.537186,9959.241474,-4737.318029,-3330.926739
1152.537505,4903.011187,-4367.215058,-2072.576638
1152.537824,-995.924147,-4737.318029,6809.894666
1152.538143,-6511.811733,-7624.121203,19245.354492
1152.538461,-10801.946522,-9696.697840,27609.681637
1152.538780,-12870.404366,-7254.018232,31014.628970
1152.539099,-14019.547613,-74.020594,30718.546593
1152.539418,-9499.584175,6069.688724,22724.322419
1152.539737,-4903.011187,8364.327145,18061.024985
1152.540056,3830.477490,9696.697840,11325.150913
1152.540375,7124.688131,9326.594869,3775.050304
1152.540694,8044.002729,9474.636058,-4219.173869
1152.541013,10878.556072,3182.885551,-9474.636058
1152.541332,13483.280765,4663.297435,-9918.759623
1152.541650,11261.603821,-4367.215058,-7994.224174
1152.541969,4443.353888,-4811.338623,-2886.803174
1152.542288,0.000000,-7624.121203,1998.556043
1152.542607,-3140.991542,-8068.244768,14508.036463
1152.542926,-8810.098227,-10658.965565,21688.034101
1152.543245,-13789.718964,-5995.668130,28497.928767
1152.543564,-13866.328514,-1332.370696,30570.505405
1152.543883,-14172.766713,7550.100608,25315.043216
1152.544202,-11108.384721,4515.256246,22946.384202
1152.544521,-6511.811733,4441.235652,18727.210333
1152.544840,2604.724693,13545.768739,11621.233289
1152.545159,6128.763984,6661.853478,1406.391290
1152.545477,9729.412825,7328.038826,-1628.453072
1152.545796,11491.432470,5477.523971,-7920.203579
1152.546115,12487.356617,-2368.659014,-7179.997637
1152.546434,9652.803275,-4515.256246,-4737.318029
1152.546753,7201.297681,-5625.565159,2516.700203
1152.547072,3064.381992,-4441.235652,2590.720797
1152.547391,0.000000,-1258.350101,8364.327145
1152.547710,-5132.839837,-5477.523971,22206.178260
1152.548029,-9269.755526,-5551.544565,28201.846390
1152.548348,-11568.042020,-3478.967927,28201.846390
1152.548667,-12180.918418,2590.720797,22872.363608
1152.548986,-8810.098227,4145.153275,20651.745782
1152.549304,-2528.115143,5033.400406,16358.551318
1152.549623,4290.134789,8290.306550,9622.677246
1152.549942,8427.050478,8364.327145,962.267725
1152.550261,10725.336972,5403.503377,-4145.153275
1152.550580,12717.185267,1406.391290,-6439.791695
1152.550899,13253.452115,-1332.370696,-4885.359217
1152.551218,11797.870669,-3775.050304,-3923.091493
1152.551537,7124.688131,-3997.112087,-962.267725
1152.551856,3370.820191,-5329.482782,5995.668130
1152.552175,-536.266849,-5107.421000,13323.706956
1152.552494,-6358.592633,-3701.029710,20873.807564
1152.552813,-10189.070123,-4737.318029,25611.125593
1152.553131,-11184.994271,-1406.391290,26869.475695
1152.553450,-9806.022374,4367.215058,21243.910535
1152.553769,-5822.325785,7846.182985,17024.736666
1152.554088,-1762.019645,8512.368333,13397.727550
1152.554407,3370.820191,8512.368333,6957.935855
1152.554726,7660.954980,4959.379811,2516.700203
1152.555045,9499.584175,1924.535449,-3182.885551
1152.555364,10418.898773,1924.535449,-5995.668130
1152.555683,10878.556072,-2368.659014,-7254.018232
1152.556002,7354.516781,-5181.441594,-3775.050304
1152.556321,3907.087040,-8660.409521,3108.864956
1152.556640,-842.705048,-6217.729913,7402.059420
1152.556958,-5362.668486,-3627.009116,14285.974681
1152.557277,-8350.440928,-4589.276840,21688.034101
1152.557596,-10725.336972,-2590.720797,26277.310941
1152.557915,-12870.404366,3034.844362,24426.796086
1152.558234,-10342.289223,5551.544565,19689.478057
1152.558553,-8044.002729,10214.842000,13989.892304
1152.558872,-2757.943793,8142.265362,8438.347739
1152.559191,2374.896044,3923.091493,4441.235652
1152.559510,5439.278036,2812.782580,2220.617826
1152.559829,7584.345430,-1480.411884,-814.226536
1152.560148,7201.297681,-1258.350101,-3627.009116
1152.560467,7354.516781,-3256.906145,-592.164754
1152.560785,7277.907231,-6809.894666,2516.700203
1152.561104,4290.134789,-3701.029710,2960.823768
1152.561423,842.705048,-1258.350101,9400.615463
1152.561742,-3524.039291,-2516.700203,15470.304188
1152.562061,-6588.421283,-518.144159,19245.354492
1152.562380,-9116.536426,-0.000000,23834.631332
1152.562699,-9806.022374,4515.256246,23242.466579
1152.563018,-7277.907231,4515.256246,19245.354492
1152.563337,-4673.182538,6069.688724,12805.562797
1152.563656,1378.971896,6291.750507,9252.574275
1152.563975,6665.030833,5625.565159,4367.215058
1152.564294,9652.803275,2072.576638,962.267725
1152.564612,10342.289223,-1184.329507,-1628.453072
1152.564931,9729.412825,-2812.782580,-1036.288319
1152.565250,9729.412825,-4293.194464,1036.288319
1152.565569,7431.126331,-4737.318029,2960.823768
1152.565888,4749.792088,-4959.379811,7994.224174
1152.566207,76.609550,-3404.947333,13027.624579
1152.566526,-2681.334243,-740.205942,18209.066173
1152.566845,-4519.963438,1554.432478,21391.951724
1152.567164,-6741.640382,2146.597232,23760.610738
1152.567483,-5745.716235,7031.956449,18801.230927
1152.567802,-2911.162892,7698.141797,12953.603985
1152.568121,-536.266849,8808.450710,6735.874072
1152.568439,3983.696590,4441.235652,3997.112087
1152.568758,5669.106685,-666.185348,814.226536
1152.569077,7277.907231,-4515.256246,296.082377
1152.569396,6665.030833,-5625.565159,2072.576638
1152.569715,5822.325785,-6883.915261,2590.720797
1152.570034,4443.353888,-5033.400406,2072.576638
1152.570353,1685.410096,-3330.926739,4959.379811
1152.570672,-1455.581446,-3627.009116,12435.459826
1152.570991,-4596.572988,-370.102971,14804.118840
1152.571310,-7124.688131,3256.906145,16358.551318
1152.571629,-7814.174080,3997.112087,18357.107362
1152.571948,-8120.612279,5329.482782,18949.272115
1152.572266,-5286.058936,7105.977043,15618.345376
1152.572585,-2757.943793,7550.100608,8512.368333
1152.572904,-229.828649,5921.647536,2960.823768
1152.573223,2221.676944,2886.803174,-444.123565
1152.573542,4979.620737,666.185348,-1480.411884
1152.573861,5362.668486,-2220.617826,-814.226536
1152.574180,4903.011187,-5921.647536,2960.823768
1152.574499,2145.067394,-7031.956449,5477.523971
1152.574818,766.095498,-7254.018232,7772.162391
1152.575137,-1225.752797,-6217.729913,12435.459826
1152.575456,-3907.087040,-3330.926739,16506.592507
1152.575775,-4979.620737,-74.020594,18801.230927
1152.576093,-6281.983084,3182.885551,19023.292709
1152.576412,-5515.887586,6883.915261,18801.230927
1152.576731,-3600.648841,7994.224174,15026.180623
1152.577050,-229.828649,9844.739029,10066.800811
1152.577369,3677.258390,7031.956449,4515.256246
1152.577688,6281.983084,2738.761985,296.082377
1152.578007,7431.126331,-74.020594,-1554.432478
1152.578326,7584.345430,-4737.318029,814.226536
1152.578645,7584.345430,-7772.162391,4367.215058
1152.578964,5515.887586,-9178.553681,6883.915261
1152.579283,2604.724693,-8438.347739,9104.533087
1152.579602,1149.143247,-5625.565159,12657.521608
1152.579920,-2451.505594,-3404.947333,15914.427753
1152.580239,-4443.353888,-444.123565,17616.901420
1152.580558,-5439.278036,148.041188,21095.869347
1152.580877,-5439.278036,6143.709319,20577.725188
1152.581196,-3677.258390,7328.038826,16580.613101
1152.581515,-1762.019645,9400.615463,12065.356855
1152.581834,2681.334243,8364.327145,6883.915261
1152.582153,5745.716235,6217.729913,0.000000
1152.582472,7660.954980,3997.112087,-4515.256246
1152.582791,7354.516781,-74.020594,-5255.462188
1152.583110,6894.859482,-4885.359217,-1702.473667
1152.583429,4826.401637,-8512.368333,3182.885551
1152.583747,1378.971896,-9474.636058,8882.471304
1152.584066,-2374.896044,-8808.450710,13471.748144
1152.584385,-5362.668486,-5625.565159,16950.716072
1152.584704,-7354.516781,-2516.700203,19911.539840
1152.585023,-7354.516781,1554.432478,21169.889941
1152.585342,-7124.688131,5477.523971,20873.807564
1152.585661,-5132.839837,12509.480420,16210.510130
1152.585980,-2834.553343,13397.727550,9696.697840
1152.586299,306.438199,10214.842000,5329.482782
1152.586618,3907.087040,9104.533087,0.000000
1152.586937,6588.421283,3330.926739,-3478.967927
1152.587256,7890.783629,-814.226536,-5699.585753
1152.587574,7660.954980,-6069.688724,-1554.432478
1152.587893,5898.935335,-10288.862594,1036.288319
1152.588212,1991.848295,-9548.656652,4737.318029
1152.588531,-1378.971896,-10807.006753,13693.809927
1152.588850,-4673.182538,-9474.636058,19393.395680
1152.589169,-7354.516781,-5699.585753,21688.034101
1152.589488,-8197.221829,370.102971,22354.219448
1152.589807,-7660.954980,7179.997637,22132.157666
1152.590126,-6128.763984,7994.224174,17468.860231
1152.590445,-1915.238745,12287.418637,15026.180623
1152.590764,2221.676944,12583.501014,8882.471304
1152.591083,5592.497135,8216.285956,1332.370696
1152.591401,8810.098227,7550.100608,-4293.194464
1152.591720,9116.536426,2812.782580,-6809.894666
1152.592039,9806.022374,-3034.844362,-4811.338623
1152.592358,7584.345430,-9474.636058,0.000000
1152.592677,3600.648841,-11103.089130,4367.215058
1152.592996,689.485948,-9622.677246,11251.130318
1152.593315,-2451.505594,-8808.450710,17468.860231
1152.593634,-5592.497135,-7105.977043,23760.610738
1152.593953,-7737.564530,-2220.617826,26943.496289
1152.594272,-9346.365076,4663.297435,23094.425390
1152.594591,-6665.030833,8290.306550,21762.054695
1152.594910,-1991.848295,15988.448347,14730.098246
1152.595228,1762.019645,14582.057057,8956.491898
1152.595547,5745.716235,12657.521608,2294.638420
1152.595866,9882.631924,10362.883188,-4663.297435
1152.596185,12180.918418,4737.318029,-8438.347739
1152.596504,12180.918418,-4071.132681,-5625.565159
1152.596823,9422.974625,-10436.903782,-1184.329507
1152.597142,6741.640382,-11991.336260,1776.494261
1152.597461,2298.286494,-11991.336260,5551.544565
1152.597780,-1915.238745,-12879.583391,12509.480420
1152.598099,-6511.811733,-12065.356855,21317.931130
1152.598418,-10189.070123,-6587.832884,26943.496289
1152.598737,-11721.261119,-1702.473667,28571.949361
1152.599055,-11031.775171,7179.997637,23834.631332
1152.599374,-7124.688131,12065.356855,19245.354492
1152.599693,-1991.848295,15100.201217,10955.047942
1152.600012,3447.429741,16136.489536,4071.132681
1152.600331,8044.002729,10807.006753,-3775.050304
1152.600650,11184.994271,5477.523971,-9696.697840
1152.600969,12180.918418,-2072.576638,-9474.636058
1152.601288,10801.946522,-7550.100608,-7105.977043
1152.601607,6894.859482,-12879.583391,-962.267725
1152.601926,2681.334243,-12287.418637,0.000000
1152.602245,-3830.477490,-12435.459826,7031.956449
1152.602564,-7967.393179,-14804.118840,18579.169144
1152.602882,-11261.603821,-9992.780217,28127.825796
1152.603201,-15628.348159,-5255.462188,31236.690752
1152.603520,-15015.471761,3404.947333,29682.258274
1152.603839,-11951.089769,11843.295072,23686.590144
1152.604158,-4136.915689,17912.983796,15026.180623
1152.604477,919.314598,17098.757260,9400.615463
1152.604796,6052.154434,17912.983796,2812.782580
1152.605115,11414.822920,10066.800811,-6587.832884
1152.605434,13559.890315,7254.018232,-14211.954086
1152.605753,14555.814462,-1554.432478,-8438.347739
1152.606072,11108.384721,-11843.295072,-2590.720797
1152.606391,6741.640382,-13619.789333,-1332.370696
1152.606709,1685.410096,-14804.118840,2664.741391
1152.607028,-2911.162892,-14434.015869,13323.706956
1152.607347,-6971.469032,-12657.521608,22576.281231
1152.607666,-9806.022374,-6587.832884,29090.093521
1152.607985,-12640.575717,-1850.514855,30866.587781
1152.608304,-12563.966167,9844.739029,27905.764013
1152.608623,-7660.954980,15174.221811,20873.807564
1152.608942,-153.219100,16210.510130,18061.024985
1152.609261,7048.078582,21169.889941,9474.636058
1152.609580,10035.851024,15692.365970,-3552.988522
1152.609899,14096.157163,11843.295072,-11917.315666
1152.610217,16624.272307,3923.091493,-12879.583391
1152.610536,15551.738609,-7920.203579,-6957.935855
1152.610855,8886.707777,-15766.386565,-4367.215058
1152.611174,5362.668486,-11991.336260,666.185348
1152.611493,-919.314598,-12065.356855,5773.606348
1152.611812,-4366.744339,-14730.098246,19171.333898
1152.612131,-9039.926876,-14211.954086,30274.423028
1152.612450,-14096.157163,-6143.709319,31902.876100
1152.612769,-15475.129060,2368.659014,28794.011144
1152.613088,-11338.213370,11991.336260,24648.857869
1152.613407,-4903.011187,17172.777854,18875.251521
1152.613726,842.705048,15248.242405,12509.480420
1152.614044,7354.516781,18061.024985,1554.432478
1152.614363,11568.042020,15544.324782,-10066.800811
1152.614682,13559.890315,8586.388927,-15692.365970
1152.615001,14709.033562,-5181.441594,-9844.739029
1152.615320,12563.966167,-12361.439231,-4515.256246
1152.615639,7354.516781,-12287.418637,-3182.885551
1152.615958,3217.601092,-10140.821405,0.000000
1152.616277,-536.266849,-14137.933492,9252.574275
1152.616596,-6205.373534,-15470.304188,23168.445985
1152.616915,-13023.623466,-12879.583391,31828.855506
1152.617234,-15628.348159,-4219.173869,31828.855506
1152.617553,-15781.567259,9474.636058,27757.722825
1152.617871,-9882.631924,16580.613101,22798.343014
1152.618190,-2451.505594,18653.189738,19911.539840
1152.618509,3677.258390,26351.331535,6809.894666
1152.618828,8273.831378,17987.004391,-3775.050304
1152.619147,11951.089769,13989.892304,-13915.871710
1152.619466,13789.718964,3256.906145,-15988.448347
1152.619785,13100.233016,-7550.100608,-8364.327145
1152.620104,7277.907231,-15618.345376,-3849.070898
1152.620423,1915.238745,-14878.139434,1776.494261
1152.620742,-1991.848295,-15840.407159,4885.359217
1152.621061,-4519.963438,-16062.468941,16876.695478
1152.621380,-7124.688131,-17690.922014,29238.134709
1152.621698,-14096.157163,-7772.162391,35899.988187
1152.622017,-15245.300410,518.144159,31828.855506
1152.622336,-13253.452115,15322.262999,21614.013506
1152.622655,-5975.544884,16802.674883,18579.169144
1152.622974,1455.581446,18357.107362,14878.139434
1152.623293,7048.078582,16580.613101,4071.132681
1152.623612,11797.870669,19837.519246,-9844.739029
1152.623931,16011.395908,11695.253884,-17838.963202
1152.624250,16164.615008,-1850.514855,-12435.459826
1152.624569,13942.938064,-12287.418637,-4441.235652
1152.624888,6741.640382,-16506.592507,-2516.700203
1152.625207,1915.238745,-13619.789333,-518.144159
1152.625525,-1915.238745,-13545.768739,8364.327145
1152.625844,-4136.915689,-16802.674883,28794.011144
1152.626163,-11031.775171,-17468.860231,36640.194129
1152.626482,-15092.081311,-10362.883188,36714.214723
1152.626801,-16394.443657,4737.318029,27905.764013
1152.627120,-9729.412825,13545.768739,25167.002028
1152.627439,229.828649,20133.601622,23686.590144
1152.627758,5362.668486,20429.683999,12139.377449
1152.628077,11491.432470,25537.104999,-1480.411884
1152.628396,17620.196454,20651.745782,-16654.633695
1152.628715,19152.387450,8808.450710,-20429.683999
1152.629034,17926.634653,-7179.997637,-11991.336260
1152.629352,11644.651570,-19541.436869,-2738.761985
1152.629671,4060.306139,-19985.560434,-2368.659014
1152.629990,-1149.143247,-16950.716072,444.123565
1152.630309,-5669.106685,-17690.922014,12657.521608
1152.630628,-10801.946522,-17246.798449,34123.493926
1152.630947,-13406.671215,-16062.468941,39452.976709
1152.631266,-17543.586904,-4737.318029,33531.329173
1152.631585,-16088.005458,9770.718434,28127.825796
1152.631904,-11951.089769,16432.571912,21614.013506
1152.632223,-4596.572988,21169.889941,17764.942608
1152.632542,3294.210641,21910.095883,7105.977043
1152.632861,12410.747068,22872.363608,-6587.832884
1152.633179,17083.929605,19097.313304,-20577.725188
1152.633498,17007.320056,7105.977043,-21169.889941
1152.633817,15781.567259,-7328.038826,-12139.377449
1152.634136,9576.193725,-15174.221811,-7402.059420
1152.634455,1378.971896,-15470.304188,-6735.874072
1152.634774,-3753.867940,-14878.139434,3552.988522
1152.635093,-8503.660028,-21910.095883,18283.086767
1152.635412,-12947.013916,-22354.219448,36418.132346
1152.635731,-16471.053207,-15100.201217,41155.450375
1152.636050,-17850.025103,-814.226536,31828.855506
1152.636369,-17083.929605,11843.295072,25018.960840
1152.636688,-9652.803275,19837.519246,22650.301825
1152.637006,-1608.800546,20133.601622,18283.086767
1152.637325,6665.030833,26795.455100,2886.803174
1152.637644,14402.595362,24796.899057,-8068.244768
1152.637963,16854.100956,18949.272115,-18949.272115
1152.638282,19382.216099,2664.741391,-18949.272115
1152.638601,16164.615008,-11029.068536,-7105.977043
1152.638920,8963.317327,-16136.489536,-1184.329507
1152.639239,1685.410096,-18209.066173,-1036.288319
1152.639558,-536.266849,-18061.024985,7994.224174
1152.639876,-4443.353888,-24870.919651,25833.187376
1152.640195,-7277.907231,-19541.436869,37454.420665
1152.640514,-14862.252661,-7328.038826,33901.432144
1152.640833,-12640.575717,2442.679609,33457.308578
1152.641152,-12180.918418,16062.468941,23464.528361
1152.641471,-4290.134789,15544.324782,24278.754898
1152.641790,6358.592633,20207.622217,11177.109724
1152.642108,11721.261119,27831.743419,-6587.832884
1152.642427,18003.244203,21984.116477,-16728.654289
1152.642746,18845.949251,12435.459826,-23834.631332
1152.643065,19382.216099,-3034.844362,-11769.274478
1152.643384,13253.452115,-13989.892304,-6957.935855
1152.643703,6052.154434,-16432.571912,-5551.544565
1152.644022,-919.314598,-17320.819043,0.000000
1152.644340,-5745.716235,-22280.198854,16506.592507
1152.644659,-9806.022374,-26721.434506,31902.876100
1152.644978,-12870.404366,-19023.292709,40859.367998
1152.645297,-16241.224558,-3997.112087,34715.658680
1152.645616,-16854.100956,10881.027347,29016.072926
1152.645935,-11721.261119,16876.695478,23094.425390
1152.646254,-4213.525239,24056.693115,21391.951724
1152.646572,1991.848295,25537.104999,7698.141797
1152.646891,8350.440928,26499.372724,-7105.977043
1152.647210,13789.718964,23834.631332,-19467.416275
1152.647529,15321.909960,7994.224174,-21317.931130
1152.647848,14709.033562,-7772.162391,-12065.356855
1152.648167,6511.811733,-15100.201217,-5181.441594
1152.648486,1532.190996,-16580.613101,-3923.091493
1152.648804,-2145.067394,-23390.507767,5773.606348
1152.649123,-8656.879127,-23612.569550,15248.242405
1152.649442,-8350.440928,-25018.960840,34863.699868
1152.649761,-14402.595362,-13101.645173,37010.297100
1152.650080,-15704.957709,-370.102971,29608.237680
1152.650399,-13636.499864,9400.615463,22576.281231
1152.650718,-9882.631924,19245.354492,24574.837274
1152.651036,-1455.581446,21095.869347,18431.127956
1152.651355,3064.381992,27461.640448,0.000000
1152.651674,12334.137518,24574.837274,-8660.409521
1152.651993,16088.005458,22132.157666,-20281.642811
1152.652312,16930.710506,3923.091493,-22650.301825
1152.652631,15092.081311,-12583.501014,-8660.409521
1152.652950,8503.660028,-19097.313304,-2146.597232
1152.653268,459.657299,-17468.860231,-4663.297435
1152.653587,-3064.381992,-21243.910535,9696.697840
1152.653906,-7431.126331,-27387.619854,26055.249158
1152.654225,-7967.393179,-26795.455100,40415.244433
1152.654544,-13789.718964,-10510.924376,33457.308578
1152.654863,-13253.452115,2590.720797,28497.928767
1152.655182,-10342.289223,15544.324782,23686.590144
1152.655500,-2911.162892,25389.063811,23390.507767
1152.655819,4213.525239,26425.352129,13397.727550
1152.656138,9652.803275,24796.899057,3404.947333
1152.656457,16930.710506,26869.475695,-13323.706956
1152.656776,18999.168350,14730.098246,-24870.919651
1152.657095,18079.853753,-1406.391290,-15840.407159
1152.657413,14019.547613,-14730.098246,-4219.173869
1152.657732,6052.154434,-16950.716072,-4885.359217
1152.658051,536.266849,-17690.922014,-1702.473667
1152.658370,-6435.202183,-21836.075289,12731.542202
1152.658689,-7507.735880,-28942.052332,29090.093521
1152.659008,-9729.412825,-18949.272115,39304.935520
1152.659327,-14479.204912,-9400.615463,35974.008781
1152.659645,-15015.471761,3627.009116,30644.525999
1152.659964,-12257.527968,17987.004391,24574.837274
1152.660283,-4060.306139,26203.290347,25463.084405
1152.660602,2068.457845,19541.436869,10732.986159
1152.660921,10725.336972,29978.340651,-3849.070898
1152.661240,18156.463303,26351.331535,-16802.674883
1152.661559,15245.300410,15544.324782,-26647.413912
1152.661877,15934.786358,-4589.276840,-15766.386565
1152.662196,9882.631924,-13915.871710,-3404.947333
1152.662515,2374.896044,-22872.363608,-3997.112087
1152.662834,-3524.039291,-20577.725188,1998.556043
1152.663153,-8886.707777,-30496.484810,16210.510130
1152.663472,-12640.575717,-24278.754898,34863.699868
1152.663791,-13176.842566,-17690.922014,42709.882853
1152.664109,-17466.977354,-1480.411884,35529.885216
1152.664428,-15628.348159,11177.109724,27313.599260
1152.664747,-10878.556072,19541.436869,26055.249158
1152.665066,-4903.011187,25167.002028,21539.992912
1152.665385,1762.019645,28571.949361,7105.977043
1152.665704,10265.679673,30126.381839,-6365.771101
1152.666023,16777.491406,23908.651927,-19541.436869
1152.666341,19228.997000,10214.842000,-21243.910535
1152.666660,17850.025103,-9844.739029,-10732.986159
1152.666979,12257.527968,-17246.798449,-1776.494261
1152.667298,2604.724693,-20059.581028,-5847.626942
1152.667617,383.047749,-19689.478057,3108.864956
1152.667936,-6665.030833,-20947.828159,16580.613101
1152.668255,-6358.592633,-24796.899057,37824.523636
1152.668573,-15321.909960,-12879.583391,39304.935520
1152.668892,-14709.033562,-2368.659014,34197.514520
1152.669211,-14938.862211,11325.150913,24648.857869
1152.669530,-9576.193725,18875.251521,24574.837274
1152.669849,-1302.362347,16062.468941,20799.786970
1152.670168,4060.306139,32495.040854,5255.462188
1152.670487,12410.747068,21984.116477,-8660.409521
1152.670805,17160.539155,20947.828159,-20133.601622
1152.671124,19458.825649,8734.430116,-19615.457463
1152.671443,19305.606550,-9326.594869,-6587.832884
1152.671762,10342.289223,-15766.386565,-4367.215058
1152.672081,3217.601092,-14582.057057,-5847.626942
1152.672400,-1991.848295,-19467.416275,3997.112087
1152.672719,-7124.688131,-23020.404796,20059.581028
1152.673037,-8810.098227,-22576.281231,40267.203245
1152.673356,-15551.738609,-17024.736666,35974.008781
1152.673675,-15704.957709,-740.205942,31976.896694
1152.673994,-13866.328514,12361.439231,24870.919651
1152.674313,-7048.078582,20281.642811,24278.754898
1152.674632,3370.820191,21169.889941,12657.521608
1152.674951,5515.887586,28794.011144,-5329.482782
1152.675269,15245.300410,23760.610738,-10140.821405
1152.675588,15475.129060,14285.974681,-24870.919651
1152.675907,18845.949251,2960.823768,-20207.622217
1152.676226,15704.957709,-11103.089130,-7772.162391
1152.676545,7354.516781,-15470.304188,-5255.462188
1152.676864,-459.657299,-18209.066173,-7031.956449
1152.677182,-3140.991542,-20947.828159,7476.080014
1152.677501,-12334.137518,-30126.381839,26499.372724
1152.677820,-11721.261119,-24574.837274,40637.306216
1152.678139,-16471.053207,-10658.965565,34937.720462
1152.678458,-17007.320056,2664.741391,31162.670158
1152.678777,-13023.623466,13175.665768,26055.249158
1152.679096,-7967.393179,25315.043216,25611.125593
1152.679414,229.828649,24278.754898,12361.439231
1152.679733,5898.935335,30940.608376,-6217.729913
1152.680052,14019.547613,23686.590144,-13175.665768
1152.680371,14402.595362,14137.933492,-24352.775492
1152.680690,18309.682402,-2368.659014,-16506.592507
1152.681009,13176.842566,-13323.706956,-6439.791695
1152.681328,3830.477490,-18949.272115,-2960.823768
1152.681646,-459.657299,-21539.992912,222.061783
1152.681965,-4596.572988,-23612.569550,13175.665768
1152.682284,-7584.345430,-24722.878463,30496.484810
1152.682603,-8044.002729,-17616.901420,41969.676911
1152.682922,-14709.033562,-3775.050304,30718.546593
1152.683241,-12410.747068,9696.697840,31384.731941
1152.683560,-11414.822920,16136.489536,25241.022622
1152.683878,-1608.800546,12879.583391,18949.272115
1152.684197,3064.381992,26203.290347,6143.709319
1152.684516,12640.575717,28719.990550,-7105.977043
1152.684835,17007.320056,21836.075289,-17690.922014
1152.685154,17466.977354,13323.706956,-23760.610738
1152.685473,17466.977354,-5699.585753,-8660.409521
1152.685792,10955.165621,-17764.942608,-2442.679609
1152.686110,2757.943793,-17912.983796,-4071.132681
1152.686429,-766.095498,-18135.045579,4219.173869
1152.686748,-7201.297681,-24796.899057,18135.045579
1152.687067,-6435.202183,-24648.857869,37158.338288
1152.687386,-10265.679673,-18357.107362,42043.697506
1152.687705,-13406.671215,-3330.926739,31828.855506
1152.688024,-12793.794817,9474.636058,23686.590144
1152.688342,-7890.783629,22132.157666,25167.002028
1152.688661,0.000000,21465.972318,20059.581028
1152.688980,6818.249932,30718.546593,1776.494261
1152.689299,12257.527968,28868.031738,-8512.368333
1152.689618,16471.053207,20947.828159,-17838.963202
1152.689937,19612.044749,6809.894666,-21095.869347
1152.690256,15704.957709,-9918.759623,-9474.636058
1152.690574,9193.145976,-18653.189738,-444.123565
1152.690893,76.609550,-16580.613101,-6143.709319
1152.691212,-3983.696590,-20873.807564,9030.512492
1152.691531,-6358.592633,-31236.690752,23168.445985
1152.691850,-10035.851024,-25759.166782,36270.091158
1152.692169,-13023.623466,-13027.624579,37972.564825
1152.692488,-17160.539155,-814.226536,29756.278868
1152.692806,-12334.137518,12139.377449,21836.075289
1152.693125,-9806.022374,24352.775492,23612.569550
1152.693444,-1149.143247,22650.301825,16506.592507
1152.693763,3447.429741,24574.837274,-1406.391290
1152.694082,11338.213370,31310.711347,-12287.418637
1152.694401,15015.471761,17468.860231,-21984.116477
1152.694720,15015.471761,3108.864956,-17616.901420
1152.695038,11797.870669,-11991.336260,-5699.585753
1152.695357,3677.258390,-19985.560434,-3330.926739
1152.695676,-2221.676944,-17838.963202,-5329.482782
1152.695995,-6435.202183,-25315.043216,11621.233289
1152.696314,-9576.193725,-30052.361245,29534.217086
1152.696633,-11414.822920,-24130.713709,37972.564825
1152.696952,-16471.053207,-8438.347739,31976.896694
1152.697270,-12717.185267,4515.256246,28942.052332
1152.697589,-13789.718964,19911.539840,22872.363608
1152.697908,-3064.381992,21391.951724,19689.478057
1152.698227,3983.696590,23020.404796,10584.944971
1152.698546,8580.269578,25833.187376,296.082377
1152.698865,14785.643111,24056.693115,-15322.262999
1152.699183,17620.196454,16062.468941,-25092.981434
1152.699502,20607.968896,-666.185348,-13767.830521
1152.699821,14862.252661,-14434.015869,-3182.885551
1152.700140,5822.325785,-19837.519246,-7920.203579
1152.700459,1455.581446,-16506.592507,-3997.112087
1152.700778,-612.876398,-22502.260637,13249.686362
1152.701097,-7737.564530,-25241.022622,27461.640448
1152.701415,-9806.022374,-22946.384202,43302.047607
1152.701734,-16241.224558,-7105.977043,36936.276506
1152.702053,-13176.842566,5181.441594,29312.155303
1152.702372,-9499.584175,17542.880825,22872.363608
1152.702691,-4519.963438,20873.807564,23686.590144
1152.703010,6281.983084,20577.725188,9030.512492
1152.703329,11491.432470,37158.338288,-11917.315666
1152.703647,19152.387450,25241.022622,-16580.613101
1152.703966,18462.901502,8586.388927,-19911.539840
1152.704285,19228.997000,-9326.594869,-10807.006753
1152.704604,12180.918418,-17098.757260,-1776.494261
1152.704923,5439.278036,-20429.683999,-3182.885551
1152.705242,-1915.238745,-17987.004391,1332.370696
1152.705561,-5209.449386,-21465.972318,14359.995275
1152.705879,-9269.755526,-28497.928767,36862.255912
1152.706198,-12104.308868,-17542.880825,41599.573940
1152.706517,-16471.053207,-2738.761985,30940.608376
1152.706836,-12793.794817,10584.944971,29386.175897
1152.707155,-12180.918418,18949.272115,21984.116477
1152.707474,-4290.134789,22650.301825,20207.622217
1152.707793,2528.115143,21021.848753,4145.153275
1152.708111,9346.365076,33087.205607,-9770.718434
1152.708430,16164.615008,22058.137072,-15692.365970
1152.708749,16011.395908,9844.739029,-21243.910535
1152.709068,15628.348159,-7624.121203,-6365.771101
1152.709387,8580.269578,-15692.365970,-2072.576638
1152.709706,-1685.410096,-17098.757260,-4737.318029
1152.710025,-3983.696590,-17987.004391,2664.741391
1152.710343,-10725.336972,-23908.651927,23390.507767
1152.710662,-10189.070123,-25389.063811,38416.688390
1152.710981,-17620.196454,-14285.974681,40267.203245
1152.711300,-16624.272307,-2368.659014,36196.070564
1152.711619,-15092.081311,17616.901420,24574.837274
1152.711938,-7277.907231,23316.487173,18135.045579
1152.712257,612.876398,23686.590144,15248.242405
1152.712575,4749.792088,26869.475695,2960.823768
1152.712894,11721.261119,26573.393318,-7328.038826
1152.713213,17237.148705,16950.716072,-20873.807564
1152.713532,18769.339701,2516.700203,-18357.107362
1152.713851,17007.320056,-13175.665768,-4811.338623
1152.714170,8120.612279,-19467.416275,-2664.741391
1152.714489,3907.087040,-16210.510130,-4737.318029
1152.714807,-1072.533697,-20133.601622,7105.977043
1152.715126,-4826.401637,-21243.910535,25315.043216
1152.715445,-6894.859482,-23686.590144,37972.564825
1152.715764,-11951.089769,-10214.842000,38786.791361
1152.716083,-14555.814462,2442.679609,30274.423028
1152.716402,-9576.193725,14285.974681,26129.269753
1152.716721,-4366.744339,19615.457463,21095.869347
1152.717039,6128.763984,21095.869347,12879.583391
1152.717358,7814.174080,29238.134709,-5033.400406
1152.717677,16241.224558,18431.127956,-15544.324782
1152.717996,18616.120601,15322.262999,-24204.734303
1152.718315,20071.702048,-148.041188,-17394.839637
1152.718634,15245.300410,-13767.830521,-5625.565159
1152.718952,6741.640382,-19245.354492,-4885.359217
1152.719271,766.095498,-15914.427753,-5921.647536
1152.719590,-5132.839837,-23908.651927,12287.418637
1152.719909,-9729.412825,-28942.052332,33161.226202
1152.720228,-11108.384721,-23612.569550,43005.965230
1152.720547,-15858.176809,-6883.915261,35529.885216
1152.720866,-16088.005458,6513.812290,29312.155303
1152.721184,-12257.527968,14211.954086,22650.301825
1152.721503,-5132.839837,19171.333898,19319.375086
1152.721822,1685.410096,26203.290347,7698.141797
1152.722141,9346.365076,27683.702231,-9844.739029
1152.722460,10725.336972,28201.846390,-15988.448347
1152.722779,15858.176809,10732.986159,-20355.663405
1152.723098,12257.527968,-7105.977043,-14359.995275
1152.723416,9269.755526,-13027.624579,-4219.173869
1152.723735,-612.876398,-19985.560434,-5551.544565
1152.724054,-3140.991542,-15988.448347,-296.082377
1152.724373,-9576.193725,-19097.313304,16580.613101
1152.724692,-8580.269578,-24796.899057,34049.473332
1152.725011,-15168.690860,-21465.972318,41229.470969
1152.725330,-17620.196454,1110.308913,32791.123231
1152.725648,-13942.938064,4515.256246,27387.619854
1152.725967,-10189.070123,17912.983796,20799.786970
1152.726286,-2604.724693,16654.633695,15692.365970
1152.726605,2298.286494,26425.352129,3923.091493
1152.726924,10572.117872,29904.320057,-11621.233289
1152.727243,14402.595362,22206.178260,-17616.901420
1152.727562,18539.511052,7105.977043,-19763.498651
1152.727880,17390.367805,-10140.821405,-7031.956449
1152.728199,11414.822920,-20281.642811,222.061783
1152.728518,4979.620737,-19171.333898,-3182.885551
1152.728837,1608.800546,-19541.436869,8586.388927
1152.729156,-1455.581446,-20133.601622,27683.702231
1152.729475,-689.485948,-21095.869347,43524.109390
1152.729794,-2987.772442,-6291.750507,39008.853143
1152.730112,-3064.381992,10066.800811,31532.773129
1152.730431,-919.314598,25537.104999,17394.839637
1152.730750,2068.457845,26055.249158,12953.603985
1152.731069,8656.879127,27683.702231,11103.089130
1152.731388,14096.157163,26647.413912,-6069.688724
1152.731707,15704.957709,30348.443622,-17098.757260
1152.732026,19152.387450,10066.800811,-22650.301825
1152.732344,16930.710506,-3923.091493,-15100.201217
1152.732663,11261.603821,-15322.262999,-1702.473667
1152.732982,6818.249932,-17987.004391,3849.070898
1152.733301,689.485948,-17838.963202,6365.771101
1152.733620,-3370.820191,-19319.375086,21243.910535
1152.733939,-3677.258390,-15396.283594,39304.935520
1152.734258,-4826.401637,-5033.400406,41747.615129
1152.734576,-2834.553343,9030.512492,31902.876100
1152.734895,-2451.505594,25092.981434,21243.910535
1152.735214,-2834.553343,23538.548956,12583.501014
1152.735533,2145.067394,30422.464216,0.000000
1152.735852,5745.716235,27387.619854,-8142.265362
1152.736171,8963.317327,26129.269753,-17838.963202
1152.736490,8273.831378,14285.974681,-21169.889941
1152.736808,8350.440928,2368.659014,-19023.292709
1152.737127,5822.325785,-17246.798449,148.041188
1152.737446,-2068.457845,-25833.187376,5181.441594
1152.737765,-4979.620737,-29312.155303,9548.656652
1152.738084,-6511.811733,-24574.837274,27609.681637
1152.738403,-7048.078582,-20651.745782,40193.182651
1152.738721,-6435.202183,-9326.594869,41821.635723
1152.739040,-6894.859482,8734.430116,35455.864622
1152.739359,-1302.362347,24204.734303,23094.425390
1152.739678,2604.724693,34049.473332,9918.759623
1152.739997,4060.306139,35085.761651,-592.164754
1152.740316,6128.763984,29904.320057,-7698.141797
1152.740635,8350.440928,24722.878463,-12953.603985
1152.740953,9422.974625,9326.594869,-16358.551318
1152.741272,4979.620737,-8364.327145,-15396.283594
1152.741591,4673.182538,-21836.075289,1776.494261
1152.741910,0.000000,-33161.226202,15026.180623
1152.742228,-1915.238745,-31976.896694,18727.210333
1152.742547,459.657299,-23908.651927,31976.896694
1152.742866,383.047749,-16950.716072,34345.555709
1152.743185,-1149.143247,-814.226536,32272.979071
1152.743503,-2451.505594,10140.821405,34493.596897
1152.743822,1685.410096,18949.272115,23982.672521
1152.744141,2604.724693,37602.461854,-1406.391290
1152.744460,5669.106685,35529.885216,-10214.842000
1152.744778,4519.963438,25092.981434,-13471.748144
1152.745097,6588.421283,11251.130318,-16284.530724
1152.745416,5439.278036,-2220.617826,-11177.109724
1152.745735,7431.126331,-19911.539840,3775.050304
1152.746053,1991.848295,-26055.249158,5403.503377
1152.746372,-536.266849,-30348.443622,13545.768739
1152.746691,2528.115143,-30792.567187,29682.258274
1152.747010,3677.258390,-16802.674883,32717.102636
1152.747328,4749.792088,-5181.441594,26869.475695
1152.747647,4443.353888,11547.212695,17764.942608
1152.747966,3983.696590,18283.086767,20503.704593
1152.748285,766.095498,27313.599260,11621.233289
1152.748603,1302.362347,29238.134709,-6143.709319
1152.748922,4749.792088,30052.361245,-13101.645173
1152.749241,3600.648841,12287.418637,-14730.098246
1152.749560,2604.724693,-2590.720797,-10807.006753
1152.749878,5056.230287,-10881.027347,444.123565
1152.750197,3753.867940,-17912.983796,9844.739029
1152.750516,2834.553343,-19171.333898,15914.427753
1152.750835,4366.744339,-20947.828159,24722.878463
1152.751153,5132.839837,-13545.768739,28423.908173
1152.751472,9806.022374,2590.720797,19245.354492
1152.751791,5898.935335,16876.695478,5403.503377
1152.752110,3370.820191,17616.901420,5995.668130
1152.752429,3064.381992,20207.622217,8290.306550
1152.752747,-1302.362347,20725.766376,-4515.256246
1152.753066,-1302.362347,17838.963202,-5847.626942
1152.753385,-4519.963438,8438.347739,3108.864956
1152.753704,-2528.115143,-5773.606348,5847.626942
1152.754022,-1225.752797,-5625.565159,9252.574275
1152.754341,1378.971896,-4959.379811,14878.139434
1152.754660,2221.676944,-1258.350101,16432.571912
1152.754979,3140.991542,-962.267725,16580.613101
1152.755297,6741.640382,888.247130,17024.736666
1152.755616,7814.174080,2146.597232,11251.130318
1152.755935,2604.724693,7550.100608,7698.141797
1152.756254,1991.848295,6883.915261,7179.997637
1152.756572,-1149.143247,3923.091493,7179.997637
1152.756891,-2374.896044,6735.874072,6513.812290
1152.757210,-3753.867940,6513.812290,8586.388927
1152.757529,-3217.601092,5551.544565,9104.533087
1152.757847,-1608.800546,4367.215058,9474.636058
1152.758166,1762.019645,5477.523971,10510.924376
1152.758485,2681.334243,5033.400406,10066.800811
1152.758804,5592.497135,2812.782580,14508.036463
1152.759122,5286.058936,-814.226536,15988.448347
1152.759441,4749.792088,-5181.441594,15322.262999
1152.759760,5362.668486,-7031.956449,13323.706956
1152.760079,6128.763984,-3997.112087,9844.739029
1152.760397,5132.839837,1036.288319,6735.874072
1152.760716,4673.182538,7476.080014,3775.050304
1152.761035,2757.943793,9844.739029,4663.297435
1152.761354,689.485948,9104.533087,7105.977043
1152.761672,689.485948,7846.182985,12731.542202
1152.761991,76.609550,7179.997637,13175.665768
1152.762310,1532.190996,5329.482782,11473.192101
1152.762629,2374.896044,370.102971,11177.109724
1152.762947,3983.696590,-3775.050304,15100.201217
1152.763266,5439.278036,-4737.318029,15174.221811
1152.763585,5056.230287,-3552.988522,12287.418637
1152.763904,4903.011187,-1628.453072,8438.347739
1152.764222,6052.154434,2146.597232,7328.038826
1152.764541,6281.983084,6809.894666,5329.482782
1152.764860,5515.887586,9696.697840,1924.535449
1152.765179,4443.353888,10510.924376,2960.823768
1152.765497,2834.553343,7105.977043,6143.709319
1152.765816,1762.019645,4589.276840,9178.553681
1152.766135,0.000000,2738.761985,10510.924376
1152.766454,229.828649,148.041188,12287.418637
1152.766772,0.000000,-1554.432478,10955.047942
1152.767091,612.876398,-2442.679609,10955.047942
1152.767410,766.095498,-1776.494261,11177.109724
1152.767729,1991.848295,1332.370696,10732.986159
1152.768047,2528.115143,3997.112087,8660.409521
1152.768366,2987.772442,5181.441594,6587.832884
1152.768685,4290.134789,6661.853478,5255.462188
1152.769004,4519.963438,5847.626942,4441.235652
1152.769322,4290.134789,4219.173869,2886.803174
1152.769641,4060.306139,2368.659014,4219.173869
1152.769960,2528.115143,1628.453072,5847.626942
1152.770279,995.924147,370.102971,7476.080014
1152.770597,76.609550,-74.020594,10584.944971
1152.770916,-1455.581446,-888.247130,12879.583391
1152.771235,-1532.190996,370.102971,12953.603985
1152.771554,-766.095498,2886.803174,12139.377449
1152.771872,689.485948,3849.070898,12879.583391
1152.772191,2451.505594,4589.276840,11843.295072
1152.772510,4213.525239,4589.276840,9770.718434
1152.772829,5592.497135,3034.844362,7254.018232
1152.773147,6511.811733,888.247130,7105.977043
1152.773466,7354.516781,-222.061783,6809.894666
1152.773785,7584.345430,-74.020594,4811.338623
1152.774104,6818.249932,888.247130,4885.359217
1152.774423,4749.792088,1776.494261,6365.771101
1152.774741,2681.334243,2812.782580,8216.285956
1152.775060,306.438199,3108.864956,9696.697840
1152.775379,-1302.362347,3404.947333,11547.212695
1152.775698,-2528.115143,2960.823768,12435.459826
1152.776016,-2451.505594,1258.350101,14211.954086
1152.776335,-1991.848295,-518.144159,15914.427753
1152.776654,-766.095498,-888.247130,15618.345376
1152.776973,919.314598,-962.267725,14063.912898
1152.777291,2298.286494,74.020594,11991.336260
1152.777610,4443.353888,1702.473667,9326.594869
1152.777929,5822.325785,3923.091493,6291.750507
1152.778248,7048.078582,5033.400406,4589.276840
1152.778566,7124.688131,6661.853478,3701.029710
1152.778885,6435.202183,6661.853478,4219.173869
1152.779204,4749.792088,5921.647536,5329.482782
1152.779523,2911.162892,4811.338623,6587.832884
1152.779841,1072.533697,3108.864956,9474.636058
1152.780160,-536.266849,1776.494261,11399.171507
1152.780479,-1225.752797,666.185348,12583.501014
1152.780798,-1378.971896,-222.061783,14878.139434
1152.781116,-1685.410096,222.061783,14952.160028
1152.781435,-153.219100,1110.308913,14434.015869
1152.781754,1302.362347,2294.638420,13101.645173
1152.782073,2911.162892,4589.276840,9992.780217
1152.782391,4903.011187,5995.668130,6661.853478
1152.782710,5975.544884,6291.750507,4219.173869
1152.783029,7048.078582,6513.812290,2960.823768
1152.783348,6818.249932,6735.874072,2220.617826
1152.783666,5745.716235,5181.441594,3256.906145
1152.783985,3983.696590,3256.906145,5773.606348
1152.784304,1838.629195,2294.638420,7624.121203
1152.784623,306.438199,1406.391290,9992.780217
1152.784941,-1302.362347,370.102971,12879.583391
1152.785260,-2068.457845,-148.041188,14582.057057
1152.785579,-1685.410096,-74.020594,14508.036463
1152.785898,-1532.190996,666.185348,13989.892304
1152.786216,-689.485948,444.123565,12657.521608
1152.786535,76.609550,1184.329507,10362.883188
1152.786854,536.266849,2664.741391,7254.018232
1152.787173,2451.505594,3404.947333,6587.832884
1152.787491,2528.115143,3701.029710,4959.379811
1152.787810,4673.182538,2368.659014,5995.668130
1152.788129,3830.477490,1036.288319,7105.977043
1152.788448,3907.087040,1850.514855,8660.409521
1152.788766,3677.258390,1258.350101,8808.450710
1152.789085,2834.553343,1776.494261,9696.697840
1152.789404,2681.334243,-444.123565,11991.336260
1152.789723,2221.676944,-74.020594,11547.212695
1152.790041,1685.410096,-0.000000,11103.089130
1152.790360,1072.533697,-1184.329507,11843.295072
1152.790679,612.876398,-444.123565,10955.047942
1152.790998,-689.485948,-0.000000,9474.636058
1152.791316,-229.828649,148.041188,9030.512492
1152.791635,-229.828649,888.247130,8216.285956
1152.791954,1378.971896,814.226536,8734.430116
1152.792273,1762.019645,1628.453072,7772.162391
1152.792591,2987.772442,2368.659014,8142.265362
1152.792910,3983.696590,1776.494261,8586.388927
1152.793229,3753.867940,2146.597232,8216.285956
1152.793548,3217.601092,148.041188,9548.656652
1152.793866,2911.162892,962.267725,10140.821405
1152.794185,2604.724693,1480.411884,10140.821405
1152.794504,2298.286494,1554.432478,10288.862594
1152.794823,1762.019645,2146.597232,9770.718434
1152.795141,2221.676944,2368.659014,9622.677246
1152.795460,1838.629195,2072.576638,8586.388927
1152.795779,2528.115143,1554.432478,9400.615463
1152.796098,3600.648841,1628.453072,9326.594869
1152.796417,4213.525239,2146.597232,8734.430116
1152.796735,5515.887586,2294.638420,9474.636058
1152.797054,5745.716235,2960.823768,9844.739029
1152.797373,6052.154434,3775.050304,8882.471304
1152.797692,6281.983084,3552.988522,8438.347739
1152.798010,4903.011187,3256.906145,8660.409521
1152.798329,4213.525239,3330.926739,8660.409521
1152.798648,3370.820191,2886.803174,8068.244768
1152.798967,2298.286494,2294.638420,8512.368333
1152.799285,1378.971896,740.205942,9548.656652
1152.799604,459.657299,518.144159,9844.739029
1152.799923,-459.657299,-370.102971,11251.130318
1152.800242,-1302.362347,444.123565,12065.356855
1152.800560,-1762.019645,1184.329507,12361.439231
1152.800879,-1915.238745,3775.050304,11843.295072
1152.801198,-1608.800546,4589.276840,11473.192101
1152.801517,-1072.533697,5773.606348,10658.965565
1152.801835,-153.219100,6661.853478,8734.430116
1152.802154,689.485948,5921.647536,8512.368333
1152.802473,1915.238745,4663.297435,7624.121203
1152.802792,3370.820191,3627.009116,7105.977043
1152.803110,4213.525239,2072.576638,7846.182985
1152.803429,4903.011187,1554.432478,8660.409521
1152.803748,5209.449386,1924.535449,8956.491898
1152.804067,6128.763984,3627.009116,7920.203579
1152.804385,6665.030833,5403.503377,7994.224174
1152.804704,6665.030833,6809.894666,7328.038826
1152.805023,6205.373534,7550.100608,6217.729913
1152.805342,6665.030833,7698.141797,5699.585753
1152.805660,5975.544884,6883.915261,5773.606348
1152.805979,6588.421283,5403.503377,5921.647536
1152.806298,6588.421283,3701.029710,6365.771101
1152.806617,6818.249932,2442.679609,7476.080014
1152.806935,7201.297681,2516.700203,7550.100608
1152.807254,7431.126331,3701.029710,6735.874072
1152.807573,7737.564530,4663.297435,6513.812290
1152.807892,7814.174080,5625.565159,6809.894666
1152.808210,6741.640382,5773.606348,7254.018232
1152.808529,5592.497135,5255.462188,7624.121203
1152.808848,4596.572988,4367.215058,8882.471304
1152.809167,3600.648841,3849.070898,9178.553681
1152.809485,2834.553343,3108.864956,9400.615463
1152.809804,2298.286494,3478.967927,9326.594869
1152.810123,1608.800546,3552.988522,9104.533087
1152.810442,1225.752797,3478.967927,8734.430116
1152.810760,1302.362347,2812.782580,9030.512492
1152.811079,383.047749,1702.473667,9770.718434
1152.811398,0.000000,1702.473667,9918.759623
1152.811717,-459.657299,592.164754,10288.862594
1152.812035,-995.924147,-814.226536,11251.130318
1152.812354,-1072.533697,-1850.514855,11843.295072
1152.812673,-1378.971896,-2146.597232,12953.603985
1152.812992,-1608.800546,-2368.659014,13101.645173
1152.813310,-1685.410096,-1924.535449,13027.624579
1152.813629,-1762.019645,-0.000000,12213.398043
1152.813948,-1685.410096,1628.453072,11177.109724
1152.814267,-1302.362347,2368.659014,10362.883188
1152.814585,-919.314598,2590.720797,9104.533087
1152.814904,-995.924147,1628.453072,8586.388927
1152.815223,-689.485948,148.041188,9252.574275
1152.815542,306.438199,-2220.617826,10510.924376
1152.815860,76.609550,-3552.988522,11843.295072
1152.816179,383.047749,-4959.379811,13027.624579
1152.816498,766.095498,-5033.400406,13841.851115
1152.816817,1915.238745,-2664.741391,13175.665768
1152.817135,3064.381992,444.123565,11325.150913
1152.817454,3753.867940,3404.947333,9696.697840
1152.817773,4749.792088,6143.709319,7402.059420
1152.818092,4826.401637,7698.141797,5107.421000
1152.818411,4749.792088,6883.915261,4145.153275
1152.818729,4443.353888,4441.235652,4663.297435
1152.819048,4136.915689,2294.638420,5033.400406
1152.819367,4213.525239,-0.000000,7105.977043
1152.819686,3830.477490,-1850.514855,9252.574275
1152.820004,4136.915689,-2368.659014,11029.068536
1152.820323,4673.182538,-1332.370696,12139.377449
1152.820642,4979.620737,1998.556043,11473.192101
1152.820961,5132.839837,4737.318029,9474.636058
1152.821279,5209.449386,7105.977043,7179.997637
1152.821598,4749.792088,8216.285956,4441.235652
1152.821917,4749.792088,7179.997637,4293.194464
1152.822236,3217.601092,5477.523971,3330.926739
1152.822554,2757.943793,2812.782580,4515.256246
1152.822873,1532.190996,518.144159,6513.812290
1152.823192,1455.581446,-518.144159,9474.636058
1152.823511,1608.800546,-444.123565,10140.821405
1152.823829,1455.581446,1406.391290,10362.883188
1152.824148,1225.752797,3330.926739,11103.089130
1152.824467,1608.800546,5329.482782,9992.780217
1152.824786,1762.019645,6661.853478,8290.306550
1152.825104,1072.533697,5699.585753,8068.244768
1152.825423,1608.800546,3997.112087,8068.244768
1152.825742,995.924147,2368.659014,7550.100608
1152.826061,1532.190996,296.082377,8808.450710
1152.826379,995.924147,666.185348,9400.615463
1152.826698,1685.410096,1924.535449,10066.800811
1152.827017,2604.724693,3997.112087,9844.739029
1152.827336,3524.039291,6587.832884,9252.574275
1152.827654,4903.011187,7105.977043,8734.430116
1152.827973,5132.839837,7254.018232,9622.677246
1152.828292,5056.230287,7031.956449,10214.842000
1152.828611,5439.278036,5847.626942,9326.594869
1152.828929,4979.620737,4071.132681,9030.512492
1152.829248,3447.429741,1406.391290,9622.677246
1152.829567,2911.162892,-888.247130,10288.862594
1152.829886,2298.286494,-1554.432478,9474.636058
1152.830204,1225.752797,-1998.556043,12435.459826
1152.830523,995.924147,-1036.288319,15544.324782
1152.830842,76.609550,2146.597232,13693.809927
1152.831161,1072.533697,3923.091493,13693.809927
1152.831479,1608.800546,5255.462188,13989.892304
1152.831798,2221.676944,5403.503377,12213.398043
1152.832117,3294.210641,4441.235652,9548.656652
1152.832436,4060.306139,3701.029710,9474.636058
1152.832754,4826.401637,2220.617826,8216.285956
1152.833073,4366.744339,1258.350101,7179.997637
1152.833392,4213.525239,370.102971,6587.832884
1152.833711,3370.820191,666.185348,6069.688724
1152.834029,2987.772442,888.247130,6957.935855
1152.834348,1225.752797,-296.082377,8586.388927
1152.834667,612.876398,370.102971,10658.965565
1152.834986,-919.314598,444.123565,13027.624579
1152.835304,-1762.019645,1850.514855,13767.830521
1152.835623,-1762.019645,2368.659014,14582.057057
1152.835942,-2145.067394,1702.473667,14508.036463
1152.836261,-383.047749,3108.864956,12139.377449
1152.836579,995.924147,3701.029710,8882.471304
1152.836898,3217.601092,5995.668130,6587.832884
1152.837217,4596.572988,7920.203579,3775.050304
1152.837536,5592.497135,7105.977043,1258.350101
1152.837854,6435.202183,5921.647536,1184.329507
1152.838173,6281.983084,4219.173869,1406.391290
1152.838492,5362.668486,1258.350101,2812.782580
1152.838811,4903.011187,-1628.453072,6365.771101
1152.839129,2911.162892,-2738.761985,10584.944971
1152.839448,1608.800546,-3108.864956,13915.871710
1152.839767,459.657299,-3330.926739,17024.736666
1152.840086,-459.657299,-518.144159,16802.674883
1152.840404,919.314598,3701.029710,13767.830521
1152.840723,2145.067394,6513.812290,11547.212695
1152.841042,4290.134789,8586.388927,9104.533087
1152.841361,6741.640382,9548.656652,5773.606348
1152.841679,7814.174080,10362.883188,1036.288319
1152.841998,9422.974625,7402.059420,0.000000
1152.842317,9116.536426,2590.720797,148.041188
1152.842635,8273.831378,-1110.308913,518.144159
1152.842954,6894.859482,-4811.338623,4737.318029
1152.843273,4596.572988,-5995.668130,8364.327145
1152.843591,1915.238745,-5773.606348,12287.418637
1152.843910,-229.828649,-3552.988522,17246.798449
1152.844229,-2528.115143,-0.000000,19319.375086
1152.844548,-3217.601092,2886.803174,18505.148550
1152.844866,-3677.258390,5699.585753,16802.674883
1152.845185,-2451.505594,8068.244768,14434.015869
1152.845504,-306.438199,8956.491898,9326.594869
1152.845822,1838.629195,9252.574275,7179.997637
1152.846141,4443.353888,8068.244768,5033.400406
1152.846460,6665.030833,5477.523971,1258.350101
1152.846779,7967.393179,2738.761985,-740.205942
1152.847097,7814.174080,-592.164754,296.082377
1152.847416,6435.202183,-2072.576638,1776.494261
1152.847735,4519.963438,-2664.741391,6143.709319
1152.848053,1838.629195,-2294.638420,11029.068536
1152.848372,-1915.238745,-1702.473667,15914.427753
1152.848691,-4826.401637,-962.267725,20133.601622
1152.849010,-7048.078582,-148.041188,21762.054695
1152.849328,-6588.421283,2368.659014,20503.704593
1152.849647,-5439.278036,4367.215058,17838.963202
1152.849966,-2374.896044,6291.750507,14952.160028
1152.850284,306.438199,8808.450710,11103.089130
1152.850603,4519.963438,9474.636058,6587.832884
1152.850922,7890.783629,9178.553681,2368.659014
1152.851241,10725.336972,7920.203579,-1554.432478
1152.851559,12104.308868,4145.153275,-3627.009116
1152.851878,12027.699319,148.041188,-2886.803174
1152.852197,9193.145976,-3775.050304,518.144159
1152.852515,5745.716235,-4737.318029,8290.306550
1152.852834,1915.238745,-3997.112087,14730.098246
1152.853153,-1838.629195,-2516.700203,18505.148550
1152.853472,-5286.058936,-666.185348,21095.869347
1152.853790,-7124.688131,2590.720797,21910.095883
1152.854109,-7124.688131,4515.256246,17912.983796
1152.854428,-5592.497135,6513.812290,15692.365970
1152.854746,-3064.381992,8068.244768,13471.748144
1152.855065,-1532.190996,8068.244768,7476.080014
1152.855384,3677.258390,6365.771101,4959.379811
1152.855703,5822.325785,3923.091493,0.000000
1152.856021,7507.735880,-814.226536,-1850.514855
1152.856340,7507.735880,-5551.544565,-2368.659014
1152.856659,6052.154434,-4959.379811,962.267725
1152.856977,3907.087040,-5403.503377,4811.338623
1152.857296,1302.362347,-2886.803174,9474.636058
1152.857615,-2298.286494,-1480.411884,15322.262999
1152.857934,-5286.058936,-814.226536,18579.169144
1152.858252,-7354.516781,-444.123565,20651.745782
1152.858571,-7354.516781,1332.370696,19171.333898
1152.858890,-8273.831378,1776.494261,16876.695478
1152.859208,-5898.935335,5551.544565,13545.768739
1152.859527,-3600.648841,4219.173869,10288.862594
1152.859846,-459.657299,2146.597232,5551.544565
1152.860165,2834.553343,-0.000000,370.102971
1152.860483,4749.792088,-1258.350101,-1332.370696
1152.860802,6358.592633,-4071.132681,-2590.720797
1152.861121,5515.887586,-6513.812290,-962.267725
1152.861439,2451.505594,-9030.512492,5477.523971
1152.861758,766.095498,-9400.615463,13027.624579
1152.862077,-2374.896044,-7402.059420,17098.757260
1152.862396,-4060.306139,-4441.235652,19541.436869
1152.862714,-4749.792088,-296.082377,21169.889941
1152.863033,-4519.963438,2294.638420,18135.045579
1152.863352,-3753.867940,5625.565159,14878.139434
1152.863670,-1608.800546,6883.915261,11547.212695
1152.863989,536.266849,8290.306550,5625.565159
1152.864308,4979.620737,6809.894666,1628.453072
1152.864626,7354.516781,4885.359217,-4145.153275
1152.864945,8580.269578,740.205942,-5995.668130
1152.865264,8350.440928,-4737.318029,-3775.050304
1152.865583,8120.612279,-9104.533087,1628.453072
1152.865901,4673.182538,-13175.665768,6069.688724
1152.866220,459.657299,-11103.089130,11917.315666
1152.866539,-2604.724693,-8512.368333,18579.169144
1152.866857,-5056.230287,-4367.215058,21688.034101
1152.867176,-6128.763984,888.247130,20651.745782
1152.867495,-5975.544884,5329.482782,21317.931130
1152.867814,-4060.306139,8364.327145,16580.613101
1152.868132,-1302.362347,11177.109724,11769.274478
1152.868451,2068.457845,12583.501014,7698.141797
1152.868770,2987.772442,10658.965565,-740.205942
1152.869088,7660.954980,7624.121203,-3923.091493
1152.869407,8810.098227,2812.782580,-6661.853478
1152.869726,8886.707777,-3997.112087,-4737.318029
1152.870045,6818.249932,-11251.130318,0.000000
1152.870363,3907.087040,-12435.459826,4515.256246
1152.870682,229.828649,-10510.924376,11473.192101
1152.871001,-2757.943793,-7994.224174,21021.848753
1152.871319,-6894.859482,-4959.379811,23168.445985
1152.871638,-8120.612279,296.082377,25092.981434
1152.871957,-8197.221829,6957.935855,21465.972318
1152.872276,-6511.811733,9252.574275,19393.395680
1152.872594,-4060.306139,13989.892304,13545.768739
1152.872913,-229.828649,17172.777854,8734.430116
1152.873232,4136.915689,15766.386565,3775.050304
1152.873550,7201.297681,11029.068536,-3775.050304
1152.873869,8503.660028,4071.132681,-5107.421000
1152.874188,9039.926876,-2368.659014,-6069.688724
1152.874507,8197.221829,-8438.347739,-4071.132681
1152.874825,6052.154434,-10584.944971,4663.297435
1152.875144,2298.286494,-9696.697840,8808.450710
1152.875463,-2221.676944,-6883.915261,16358.551318
1152.875781,-6435.202183,-6735.874072,23760.610738
1152.876100,-9269.755526,444.123565,26647.413912
1152.876419,-10035.851024,3108.864956,26055.249158
1152.876738,-9576.193725,9474.636058,20577.725188
1152.877056,-6281.983084,8438.347739,22428.240043
1152.877375,-1532.190996,15322.262999,13619.789333
1152.877694,536.266849,15396.283594,6365.771101
1152.878012,6971.469032,12953.603985,1554.432478
1152.878331,8810.098227,10140.821405,-7105.977043
1152.878650,10725.336972,1110.308913,-9104.533087
1152.878969,11568.042020,-6143.709319,-7179.997637
1152.879287,9576.193725,-14211.954086,1554.432478
1152.879606,5439.278036,-17987.004391,8290.306550
1152.879925,612.876398,-16506.592507,16506.592507
1152.880243,-2834.553343,-13249.686362,23908.651927
1152.880562,-6128.763984,-8734.430116,27831.743419
1152.880881,-8044.002729,-0.000000,26129.269753
1152.881200,-8580.269578,5847.626942,21243.910535
1152.881518,-8503.660028,9474.636058,19097.313304
1152.881837,-4903.011187,15840.407159,16358.551318
1152.882156,-919.314598,13101.645173,10140.821405
1152.882474,3447.429741,13027.624579,1258.350101
1152.882793,7660.954980,10436.903782,-4515.256246
1152.883112,10265.679673,3182.885551,-10955.047942
1152.883431,10495.508323,-7476.080014,-11769.274478
1152.883749,9806.022374,-17616.901420,-2146.597232
1152.884068,4519.963438,-21910.095883,2960.823768
1152.884387,0.000000,-17838.963202,8660.409521
1152.884705,-5439.278036,-14137.933492,16950.716072
1152.885024,-7660.954980,-10955.047942,25833.187376
1152.885343,-10418.898773,-3627.009116,27387.619854
1152.885661,-10648.727422,3108.864956,25685.146187
1152.885980,-10648.727422,7920.203579,19171.333898
1152.886299,-7048.078582,13101.645173,11917.315666
1152.886618,-1608.800546,17542.880825,11103.089130
1152.886936,2451.505594,18135.045579,5107.421000
1152.887255,5132.839837,15766.386565,-9474.636058
1152.887574,11261.603821,8660.409521,-13249.686362
1152.887892,11031.775171,-2960.823768,-15174.221811
1152.888211,9882.631924,-16358.551318,-9178.553681
1152.888530,5439.278036,-25463.084405,0.000000
1152.888849,1149.143247,-20725.766376,5699.585753
1152.889167,-3753.867940,-18949.272115,15470.304188
1152.889486,-7048.078582,-11769.274478,26277.310941
1152.889805,-11491.432470,-9326.594869,33679.370361
1152.890123,-11644.651570,2072.576638,26425.352129
1152.890442,-9959.241474,13101.645173,19689.478057
1152.890761,-4519.963438,12583.501014,16950.716072
1152.891080,-153.219100,21095.869347,12065.356855
1152.891398,1608.800546,16950.716072,5921.647536
1152.891717,5515.887586,14656.077652,-3256.906145
1152.892036,9882.631924,9696.697840,-11621.233289
1152.892354,12487.356617,2738.761985,-18135.045579
1152.892673,13866.328514,-10584.944971,-12435.459826
1152.892992,8503.660028,-16728.654289,-2960.823768
1152.893311,4903.011187,-19171.333898,1776.494261
1152.893629,-1378.971896,-15174.221811,10732.986159
1152.893948,-5822.325785,-16284.530724,26499.372724
1152.894267,-11184.994271,-16284.530724,34715.658680
1152.894585,-13483.280765,-3552.988522,34567.617491
1152.894904,-12793.794817,7476.080014,28719.990550
1152.895223,-6894.859482,14730.098246,20725.766376
1152.895542,-842.705048,16358.551318,20799.786970
1152.895860,1991.848295,23908.651927,14508.036463
1152.896179,5898.935335,21391.951724,3330.926739
1152.896498,10418.898773,20503.704593,-4959.379811
1152.896816,13789.718964,15100.201217,-15100.201217
1152.897135,13330.061665,1258.350101,-17024.736666
1152.897454,12870.404366,-11547.212695,-9104.533087
1152.897773,8197.221829,-22428.240043,1332.370696
1152.898091,2451.505594,-21910.095883,6439.791695
1152.898410,-2681.334243,-16580.613101,16580.613101
1152.898729,-7354.516781,-17690.922014,31162.670158
1152.899047,-12334.137518,-11547.212695,35603.905810
1152.899366,-15245.300410,-1998.556043,33679.370361
1152.899685,-12640.575717,9030.512492,27757.722825
1152.900004,-9269.755526,17987.004391,20725.766376
1152.900322,-2145.067394,18875.251521,18061.024985
1152.900641,2068.457845,24648.857869,15692.365970
1152.900960,8120.612279,22724.322419,-1776.494261
1152.901278,10801.946522,25833.187376,-16654.633695
1152.901597,16088.005458,7476.080014,-16876.695478
1152.901916,14862.252661,-5847.626942,-15692.365970
1152.902235,11338.213370,-23908.651927,-2516.700203
1152.902553,2681.334243,-27313.599260,2590.720797
1152.902872,-2298.286494,-19467.416275,6661.853478
1152.903191,-4903.011187,-16876.695478,21169.889941
1152.903509,-7354.516781,-13841.851115,38564.729578
1152.903828,-12180.918418,-6809.894666,35899.988187
1152.904147,-14172.766713,4589.276840,25537.104999
1152.904466,-10955.165621,12583.501014,20503.704593
1152.904784,-5209.449386,15988.448347,17542.880825
1152.905103,-2451.505594,19319.375086,11843.295072
1152.905422,2681.334243,24204.734303,5255.462188
1152.905740,9422.974625,19097.313304,-8068.244768
1152.906059,14402.595362,18579.169144,-22428.240043
1152.906378,13866.328514,-1036.288319,-22428.240043
1152.906696,13023.623466,-18949.272115,-7328.038826
1152.907015,5362.668486,-24130.713709,-3256.906145
1152.907334,995.924147,-25611.125593,3330.926739
1152.907653,-3907.087040,-21021.848753,14211.954086
1152.907971,-7431.126331,-23020.404796,30866.587781
1152.908290,-11951.089769,-15470.304188,39897.100274
1152.908609,-12870.404366,-1924.535449,31976.896694
1152.908927,-12640.575717,7550.100608,20577.725188
1152.909246,-6128.763984,15618.345376,18209.066173
1152.909565,-2221.676944,21021.848753,19319.375086
1152.909884,383.047749,13915.871710,11917.315666
1152.910202,7048.078582,22502.260637,-296.082377
1152.910521,12027.699319,24056.693115,-17764.942608
1152.910840,14249.376263,9252.574275,-23686.590144
1152.911158,12563.966167,-9104.533087,-17468.860231
1152.911477,12180.918418,-24426.796086,-5181.441594
1152.911796,3294.210641,-30200.402434,-592.164754
1152.912115,-2145.067394,-23020.404796,7994.224174
1152.912433,-5898.935335,-28571.949361,23020.404796
1152.912752,-8197.221829,-19615.457463,34419.576303
1152.913071,-10801.946522,-7920.203579,40341.223839
1152.913389,-9346.365076,7031.956449,25907.207970
1152.913708,-10418.898773,13841.851115,15174.221811
1152.914027,-2221.676944,16580.613101,24278.754898
1152.914346,766.095498,18949.272115,21688.034101
1152.914664,4213.525239,29312.155303,5477.523971
1152.914983,12563.966167,29238.134709,-14508.036463
1152.915302,15475.129060,22428.240043,-23612.569550
1152.915620,16317.834107,6217.729913,-21169.889941
1152.915939,13406.671215,-13915.871710,-13397.727550
1152.916258,6971.469032,-23908.651927,-6439.791695
1152.916577,1302.362347,-29608.237680,3849.070898
1152.916895,-3830.477490,-23242.466579,18653.189738
1152.917214,-7737.564530,-23094.425390,30866.587781
1152.917533,-10572.117872,-17394.839637,39601.017897
1152.917851,-13253.452115,-1924.535449,34049.473332
1152.918170,-11951.089769,9326.594869,24204.734303
1152.918489,-9422.974625,18431.127956,18801.230927
1152.918808,-5209.449386,17838.963202,22650.301825
1152.919126,383.047749,25833.187376,21836.075289
1152.919445,5898.935335,28942.052332,6143.709319
1152.919764,9959.241474,32198.958477,-16728.654289
1152.920082,14019.547613,22946.384202,-25241.022622
1152.920401,14402.595362,962.267725,-19689.478057
1152.920720,12793.794817,-16654.633695,-9474.636058
1152.921039,4596.572988,-25907.207970,-2442.679609
1152.921357,-3140.991542,-22428.240043,9770.718434
1152.921676,-5745.716235,-24796.899057,20207.622217
1152.921995,-9652.803275,-22280.198854,31828.855506
1152.922313,-9959.241474,-13323.706956,44634.418303
1152.922632,-12563.966167,1406.391290,29312.155303
1152.922951,-10801.946522,14285.974681,20429.683999
1152.923270,-9422.974625,18061.024985,22798.343014
1152.923588,459.657299,20725.766376,29534.217086
1152.923907,1838.629195,27609.681637,14878.139434
1152.924226,8963.317327,28645.969955,-3701.029710
1152.924544,11414.822920,29460.196492,-20059.581028
1152.924863,18386.291952,13989.892304,-28571.949361
1152.925182,14709.033562,-4071.132681,-22206.178260
1152.925501,16930.710506,-20947.828159,-1258.350101
1152.925819,5056.230287,-23686.590144,-444.123565
1152.926138,-2145.067394,-29312.155303,9918.759623
1152.926457,-6818.249932,-28942.052332,24722.878463
1152.926775,-9729.412825,-21243.910535,38934.832549
1152.927094,-10725.336972,-11325.150913,39304.935520
1152.927413,-10572.117872,6069.688724,22798.343014
1152.927732,-10265.679673,12361.439231,17320.819043
1152.928050,-5209.449386,13323.706956,18357.107362
1152.928369,-2068.457845,18727.210333,25907.207970
1152.928688,1915.238745,20059.581028,9918.759623
1152.929006,6741.640382,31088.649564,-12805.562797
1152.929325,14325.985813,21688.034101,-24426.796086
1152.929644,14709.033562,8068.244768,-23094.425390
1152.929962,15398.519510,-15618.345376,-11103.089130
1152.930281,8810.098227,-22428.240043,-6365.771101
1152.930600,995.924147,-23834.631332,-1332.370696
1152.930919,-1072.533697,-28571.949361,13693.809927
1152.931237,-7124.688131,-26647.413912,27091.537477
1152.931556,-7660.954980,-22872.363608,42635.862259
1152.931875,-11031.775171,-5847.626942,33457.308578
1152.932193,-10418.898773,10362.883188,16728.654289
1152.932512,-7431.126331,14434.015869,21391.951724
1152.932831,-3294.210641,19393.395680,16580.613101
1152.933150,-689.485948,20355.663405,16580.613101
1152.933468,4366.744339,25833.187376,-1332.370696
1152.933787,10955.165621,27535.661042,-13397.727550
1152.934106,14325.985813,14952.160028,-22724.322419
1152.934424,10955.165621,666.185348,-24352.775492
1152.934743,13942.938064,-18949.272115,-6883.915261
1152.935062,3447.429741,-24278.754898,-6291.750507
1152.935381,-2681.334243,-27387.619854,5773.606348
1152.935699,-6205.373534,-29386.175897,21317.931130
1152.936018,-11261.603821,-23168.445985,36788.235317
1152.936337,-12410.747068,-16802.674883,41821.635723
1152.936655,-14785.643111,2220.617826,31310.711347
1152.936974,-9652.803275,11621.233289,23982.672521
