#time,accel_x,accel_y,accel_z
1249.931271,3677.258390,2368.659014,13175.665768
1249.931589,2451.505594,962.267725,13841.851115
1249.931908,1149.143247,-370.102971,15174.221811
1249.932227,153.219100,-666.185348,14730.098246
1249.932545,-229.828649,370.102971,13545.768739
1249.932864,-612.876398,370.102971,13027.624579
1249.933183,-1685.410096,-296.082377,12213.398043
1249.933502,-919.314598,-148.041188,11325.150913
1249.933820,-1378.971896,-74.020594,10732.986159
1249.934139,-1532.190996,-222.061783,10362.883188
1249.934458,-2911.162892,-1480.411884,10732.986159
1249.934776,-3907.087040,-2294.638420,11325.150913
1249.935095,-4596.572988,-2146.597232,11177.109724
1249.935414,-5975.544884,-2072.576638,10732.986159
1249.935732,-5515.887586,-1184.329507,10362.883188
1249.936051,-5439.278036,222.061783,9844.739029
1249.936370,-4673.182538,370.102971,9030.512492
1249.936688,-3907.087040,-370.102971,8142.265362
1249.937007,-3677.258390,-0.000000,7476.080014
1249.937326,-3140.991542,-888.247130,6735.874072
1249.937644,-2374.896044,-2368.659014,7105.977043
1249.937963,-1685.410096,-1554.432478,6365.771101
1249.938282,-766.095498,-1850.514855,5551.544565
1249.938601,76.609550,-444.123565,4219.173869
1249.938919,1225.752797,592.164754,3997.112087
1249.939238,1991.848295,1702.473667,3701.029710
1249.939557,2757.943793,1850.514855,3552.988522
1249.939875,3140.991542,1554.432478,3849.070898
1249.940194,2528.115143,814.226536,4663.297435
1249.940513,2681.334243,-0.000000,5403.503377
1249.940831,2145.067394,-0.000000,6217.729913
1249.941150,1378.971896,-1036.288319,6365.771101
1249.941469,1608.800546,-1480.411884,7105.977043
1249.941787,1072.533697,-888.247130,7105.977043
1249.942106,1455.581446,-592.164754,7254.018232
1249.942425,1532.190996,-962.267725,7476.080014
1249.942743,612.876398,-888.247130,8512.368333
1249.943062,0.000000,-1036.288319,8660.409521
1249.943381,-995.924147,-1110.308913,8956.491898
1249.943700,-1378.971896,-1332.370696,9696.697840
1249.944018,-1991.848295,-962.267725,10140.821405
1249.944337,-2068.457845,-74.020594,9622.677246
1249.944656,-1915.238745,888.247130,9696.697840
1249.944974,-1915.238745,888.247130,10288.862594
1249.945293,-1991.848295,740.205942,10732.986159
1249.945612,-2221.676944,1332.370696,10807.006753
1249.945930,-2221.676944,1406.391290,11029.068536
1249.946249,-2374.896044,1702.473667,11325.150913
1249.946568,-1915.238745,2368.659014,11473.192101
1249.946886,-842.705048,2590.720797,11769.274478
1249.947205,-1225.752797,1850.514855,11399.171507
1249.947524,-1302.362347,2812.782580,11251.130318
1249.947842,-1149.143247,2886.803174,11103.089130
1249.948161,-1378.971896,2368.659014,10955.047942
1249.948480,-842.705048,2590.720797,10807.006753
1249.948799,-766.095498,3404.947333,11251.130318
1249.949117,-229.828649,3478.967927,10807.006753
1249.949436,0.000000,3108.864956,10436.903782
1249.949755,153.219100,3552.988522,10807.006753
1249.950073,76.609550,3552.988522,11251.130318
1249.950392,536.266849,3404.947333,11029.068536
1249.950711,1072.533697,3849.070898,10584.944971
1249.951029,1302.362347,3701.029710,10658.965565
1249.951348,2374.896044,3108.864956,10510.924376
1249.951667,1991.848295,2812.782580,10510.924376
1249.951985,2757.943793,2738.761985,10214.842000
1249.952304,2757.943793,2664.741391,9844.739029
1249.952623,3140.991542,2664.741391,9474.636058
1249.952941,3524.039291,2664.741391,9474.636058
1249.953260,3294.210641,2368.659014,9178.553681
1249.953579,2757.943793,1924.535449,9104.533087
1249.953898,2451.505594,1554.432478,9178.553681
1249.954216,2374.896044,1036.288319,9178.553681
1249.954535,1762.019645,740.205942,9326.594869
1249.954854,1072.533697,592.164754,9104.533087
1249.955172,306.438199,444.123565,9104.533087
1249.955491,229.828649,296.082377,9104.533087
1249.955810,-459.657299,-0.000000,9104.533087
1249.956128,-842.705048,370.102971,8734.430116
1249.956447,-1225.752797,370.102971,8956.491898
1249.956766,-1225.752797,444.123565,8142.265362
1249.957084,-1455.581446,740.205942,8364.327145
1249.957403,-1685.410096,740.205942,8216.285956
1249.957722,-1762.019645,814.226536,7846.182985
1249.958041,-1762.019645,592.164754,7698.141797
1249.958359,-1991.848295,740.205942,7846.182985
1249.958678,-2068.457845,666.185348,7550.100608
1249.958997,-2145.067394,444.123565,7698.141797
1249.959315,-2221.676944,-0.000000,7550.100608
1249.959634,-2298.286494,-74.020594,7846.182985
1249.959953,-2298.286494,-370.102971,7698.141797
1249.960271,-1838.629195,-74.020594,8364.327145
1249.960590,-1762.019645,-888.247130,8512.368333
1249.960909,-1378.971896,-962.267725,8438.347739
1249.961227,-995.924147,-666.185348,8808.450710
1249.961546,-459.657299,-740.205942,8808.450710
1249.961865,76.609550,-1036.288319,8882.471304
1249.962183,766.095498,-1184.329507,9030.512492
1249.962502,919.314598,-962.267725,8956.491898
1249.962821,1455.581446,-1036.288319,9030.512492
1249.963140,1762.019645,-888.247130,8882.471304
1249.963458,1991.848295,-1406.391290,9474.636058
1249.963777,1915.238745,-962.267725,9252.574275
1249.964096,1915.238745,-814.226536,9474.636058
1249.964414,1685.410096,-1036.288319,9696.697840
1249.964733,1302.362347,-1036.288319,9696.697840
1249.965052,1455.581446,-1110.308913,9918.759623
1249.965370,1225.752797,-740.205942,9992.780217
1249.965689,919.314598,-740.205942,9918.759623
1249.966008,689.485948,-222.061783,9918.759623
1249.966326,842.705048,-74.020594,9992.780217
1249.966645,689.485948,444.123565,9992.780217
1249.966964,689.485948,666.185348,9696.697840
1249.967282,689.485948,1110.308913,9622.677246
1249.967601,459.657299,2072.576638,9474.636058
1249.967920,842.705048,2072.576638,9474.636058
1249.968239,766.095498,1998.556043,9326.594869
1249.968557,689.485948,2146.597232,9104.533087
1249.968876,459.657299,2368.659014,8956.491898
1249.969195,306.438199,2072.576638,9178.553681
1249.969513,306.438199,1998.556043,8882.471304
1249.969832,76.609550,2294.638420,8956.491898
1249.970151,0.000000,2294.638420,9104.533087
1249.970469,-229.828649,2368.659014,9252.574275
1249.970788,-459.657299,2368.659014,9474.636058
1249.971107,-459.657299,2368.659014,9326.594869
1249.971425,-383.047749,2368.659014,9474.636058
1249.971744,-612.876398,2368.659014,9548.656652
1249.972063,-612.876398,2368.659014,9548.656652
1249.972381,153.219100,1998.556043,9548.656652
1249.972700,-76.609550,1998.556043,9474.636058
1249.973019,-306.438199,1480.411884,9474.636058
1249.973338,0.000000,1554.432478,9474.636058
1249.973656,0.000000,1258.350101,9548.656652
1249.973975,-229.828649,1184.329507,10066.800811
1249.974294,-229.828649,1036.288319,9844.739029
1249.974612,-153.219100,962.267725,9844.739029
1249.974931,-383.047749,1036.288319,9918.759623
1249.975250,-306.438199,888.247130,10214.842000
1249.975568,-383.047749,1110.308913,10140.821405
1249.975887,-383.047749,666.185348,9918.759623
1249.976206,76.609550,814.226536,10066.800811
1249.976524,0.000000,740.205942,9918.759623
1249.976843,229.828649,518.144159,10436.903782
1249.977162,766.095498,888.247130,9770.718434
1249.977480,919.314598,962.267725,9400.615463
1249.977799,1072.533697,1406.391290,9104.533087
1249.978118,1455.581446,1406.391290,8882.471304
1249.978436,1762.019645,1406.391290,8660.409521
1249.978755,1608.800546,1480.411884,8512.368333
1249.979074,1608.800546,1554.432478,8364.327145
1249.979392,1532.190996,1332.370696,8364.327145
1249.979711,1532.190996,1036.288319,8438.347739
1249.980030,1149.143247,888.247130,8216.285956
1249.980348,919.314598,518.144159,8660.409521
1249.980667,842.705048,370.102971,8734.430116
1249.980986,612.876398,-0.000000,8808.450710
1249.981304,153.219100,-74.020594,9104.533087
1249.981623,306.438199,-74.020594,9178.553681
1249.981942,0.000000,-296.082377,9400.615463
1249.982260,153.219100,-222.061783,9178.553681
1249.982579,153.219100,-444.123565,9030.512492
1249.982898,229.828649,-518.144159,9326.594869
1249.983216,153.219100,-888.247130,9178.553681
1249.983535,76.609550,-962.267725,9030.512492
1249.983854,383.047749,-1110.308913,8808.450710
1249.984172,459.657299,-1628.453072,8956.491898
1249.984491,306.438199,-1924.535449,8956.491898
1249.984810,459.657299,-1406.391290,8956.491898
1249.985128,459.657299,-1850.514855,9178.553681
1249.985447,306.438199,-1924.535449,9030.512492
1249.985766,306.438199,-1702.473667,9178.553681
1249.986084,383.047749,-1702.473667,9030.512492
1249.986403,76.609550,-1480.411884,9178.553681
1249.986722,306.438199,-1406.391290,9252.574275
1249.987040,612.876398,-1702.473667,9104.533087
1249.987359,1072.533697,-1406.391290,9400.615463
1249.987678,612.876398,-1184.329507,8956.491898
1249.987996,842.705048,-962.267725,9178.553681
1249.988315,842.705048,-666.185348,8882.471304
1249.988634,1378.971896,-444.123565,8734.430116
1249.988952,995.924147,-148.041188,8734.430116
1249.989271,1149.143247,-0.000000,8734.430116
1249.989590,995.924147,296.082377,8734.430116
1249.989908,995.924147,296.082377,8438.347739
1249.990227,766.095498,148.041188,8734.430116
1249.990546,842.705048,444.123565,8512.368333
1249.990864,766.095498,518.144159,8734.430116
1249.991183,612.876398,592.164754,8882.471304
1249.991502,689.485948,666.185348,8882.471304
1249.991820,459.657299,814.226536,9548.656652
1249.992139,842.705048,888.247130,9030.512492
1249.992458,153.219100,666.185348,9104.533087
1249.992776,612.876398,1036.288319,9252.574275
1249.993095,383.047749,888.247130,9400.615463
1249.993414,536.266849,962.267725,9548.656652
1249.993732,459.657299,888.247130,9548.656652
1249.994051,229.828649,962.267725,9548.656652
1249.994370,229.828649,1036.288319,9770.718434
1249.994688,153.219100,814.226536,9696.697840
1249.995007,76.609550,740.205942,9844.739029
1249.995326,0.000000,962.267725,9918.759623
1249.995644,76.609550,888.247130,9844.739029
1249.995963,0.000000,1036.288319,10288.862594
1249.996282,-306.438199,962.267725,10436.903782
1249.996600,-229.828649,1332.370696,10362.883188
1249.996919,-306.438199,1332.370696,10362.883188
1249.997238,-153.219100,1258.350101,10140.821405
1249.997556,-919.314598,1406.391290,9992.780217
1249.997875,0.000000,1628.453072,10140.821405
1249.998194,-229.828649,1776.494261,10066.800811
1249.998512,153.219100,1702.473667,9770.718434
1249.998831,0.000000,1702.473667,9918.759623
1249.999150,153.219100,1850.514855,9696.697840
1249.999468,383.047749,1554.432478,9844.739029
1249.999787,229.828649,1776.494261,9622.677246
1250.000106,689.485948,1554.432478,9770.718434
1250.000424,612.876398,1480.411884,9696.697840
1250.000743,536.266849,1258.350101,9474.636058
1250.001062,919.314598,1258.350101,9622.677246
1250.001380,1072.533697,1184.329507,9326.594869
1250.001699,1149.143247,740.205942,9400.615463
1250.002018,995.924147,888.247130,9104.533087
1250.002336,1302.362347,444.123565,9178.553681
1250.002655,1225.752797,370.102971,8956.491898
1250.002974,1302.362347,148.041188,9030.512492
1250.003292,1378.971896,-0.000000,9030.512492
1250.003611,1302.362347,-518.144159,8882.471304
1250.003930,919.314598,-592.164754,8956.491898
1250.004248,1149.143247,-888.247130,9104.533087
1250.004567,459.657299,-1258.350101,9030.512492
1250.004886,766.095498,-1332.370696,8956.491898
1250.005204,383.047749,-1628.453072,8956.491898
1250.005523,766.095498,-1850.514855,8808.450710
1250.005842,306.438199,-1924.535449,8734.430116
1250.006160,306.438199,-2146.597232,8882.471304
1250.006479,383.047749,-2294.638420,8882.471304
1250.006798,306.438199,-2220.617826,8808.450710
1250.007116,76.609550,-2516.700203,9030.512492
1250.007435,306.438199,-2294.638420,8882.471304
1250.007754,76.609550,-1998.556043,8734.430116
1250.008072,306.438199,-1998.556043,8512.368333
1250.008391,536.266849,-1998.556043,8660.409521
1250.008710,459.657299,-1776.494261,8438.347739
1250.009028,536.266849,-1406.391290,8290.306550
1250.009347,919.314598,-1406.391290,8142.265362
1250.009666,459.657299,-1184.329507,8142.265362
1250.009984,536.266849,-1036.288319,8142.265362
1250.010303,383.047749,-888.247130,7994.224174
1250.010622,306.438199,-888.247130,8216.285956
1250.010940,689.485948,-592.164754,8216.285956
1250.011259,766.095498,-296.082377,8290.306550
1250.011578,995.924147,-296.082377,8512.368333
1250.011896,995.924147,-0.000000,8512.368333
1250.012215,919.314598,-0.000000,8586.388927
1250.012534,1072.533697,370.102971,8660.409521
1250.012852,1378.971896,-74.020594,8290.306550
1250.013171,1302.362347,222.061783,8808.450710
1250.013490,1072.533697,370.102971,8956.491898
1250.013808,1225.752797,740.205942,9178.553681
1250.014127,1072.533697,740.205942,9252.574275
1250.014446,1149.143247,518.144159,9770.718434
1250.014764,919.314598,962.267725,9474.636058
1250.015083,995.924147,962.267725,9622.677246
1250.015402,612.876398,962.267725,9696.697840
1250.015720,919.314598,962.267725,10140.821405
1250.016039,612.876398,1036.288319,10288.862594
1250.016358,766.095498,1184.329507,10362.883188
1250.016676,1072.533697,1332.370696,10214.842000
1250.016995,612.876398,1184.329507,10214.842000
1250.017314,766.095498,1110.308913,10214.842000
1250.017632,766.095498,1406.391290,10140.821405
1250.017951,689.485948,1776.494261,10140.821405
1250.018270,689.485948,1628.453072,10066.800811
1250.018588,383.047749,1554.432478,10140.821405
1250.018907,536.266849,1776.494261,10214.842000
1250.019226,383.047749,1628.453072,10288.862594
1250.019544,229.828649,1406.391290,9992.780217
1250.019863,383.047749,1702.473667,10214.842000
1250.020182,306.438199,1258.350101,9918.759623
1250.020500,383.047749,1332.370696,9918.759623
1250.020819,-306.438199,1332.370696,10066.800811
1250.021138,-229.828649,1258.350101,9844.739029
1250.021456,0.000000,1332.370696,9696.697840
1250.021775,0.000000,1628.453072,9696.697840
1250.022094,0.000000,1258.350101,9696.697840
1250.022413,0.000000,1110.308913,9474.636058
1250.022731,229.828649,962.267725,9326.594869
1250.023050,229.828649,814.226536,9252.574275
1250.023369,459.657299,740.205942,9178.553681
1250.023687,689.485948,518.144159,9030.512492
1250.024006,306.438199,444.123565,9252.574275
1250.024325,536.266849,-0.000000,9030.512492
1250.024643,766.095498,-0.000000,9104.533087
1250.024962,1149.143247,-0.000000,8882.471304
1250.025281,919.314598,-148.041188,8808.450710
1250.025599,919.314598,-0.000000,9178.553681
1250.025918,1072.533697,-296.082377,8808.450710
1250.026237,1072.533697,-518.144159,8734.430116
1250.026555,1072.533697,-296.082377,8808.450710
1250.026874,919.314598,-740.205942,8808.450710
1250.027193,1378.971896,-592.164754,8660.409521
1250.027511,842.705048,-740.205942,8660.409521
1250.027830,919.314598,-962.267725,8586.388927
1250.028149,842.705048,-740.205942,8512.368333
1250.028467,842.705048,-814.226536,8660.409521
1250.028786,536.266849,-518.144159,8586.388927
1250.029105,689.485948,-740.205942,8586.388927
1250.029423,459.657299,-740.205942,8956.491898
1250.029742,689.485948,-814.226536,8734.430116
1250.030061,229.828649,-666.185348,8586.388927
1250.030379,0.000000,-666.185348,8734.430116
1250.030698,229.828649,-296.082377,8586.388927
1250.031017,0.000000,-444.123565,8808.450710
1250.031335,76.609550,-222.061783,8956.491898
1250.031654,0.000000,-296.082377,8882.471304
1250.031973,153.219100,-296.082377,8882.471304
1250.032291,153.219100,-0.000000,8956.491898
1250.032610,306.438199,-148.041188,8734.430116
1250.032929,536.266849,-148.041188,9104.533087
1250.033247,536.266849,-0.000000,9178.553681
1250.033566,612.876398,-0.000000,9178.553681
1250.033885,612.876398,296.082377,9104.533087
1250.034203,306.438199,444.123565,9326.594869
1250.034522,689.485948,444.123565,9178.553681
1250.034841,842.705048,592.164754,9104.533087
1250.035159,1072.533697,518.144159,9252.574275
1250.035478,766.095498,444.123565,9622.677246
1250.035797,766.095498,518.144159,9770.718434
1250.036115,383.047749,592.164754,9474.636058
1250.036434,689.485948,814.226536,10066.800811
1250.036753,612.876398,740.205942,9844.739029
1250.037071,459.657299,962.267725,9844.739029
1250.037390,383.047749,1110.308913,9770.718434
1250.037709,383.047749,1184.329507,9622.677246
1250.038027,612.876398,1258.350101,9548.656652
1250.038346,459.657299,1480.411884,9696.697840
1250.038665,689.485948,1258.350101,9992.780217
1250.038983,536.266849,1110.308913,9548.656652
1250.039302,229.828649,1628.453072,9696.697840
1250.039621,153.219100,1628.453072,9696.697840
1250.039939,229.828649,1628.453072,9696.697840
1250.040258,76.609550,1850.514855,9622.677246
1250.040577,229.828649,1998.556043,9474.636058
1250.040895,229.828649,1924.535449,9474.636058
1250.041214,229.828649,1924.535449,9474.636058
1250.041533,229.828649,1850.514855,9400.615463
1250.041851,153.219100,1776.494261,9548.656652
1250.042170,-306.438199,2072.576638,9622.677246
1250.042489,153.219100,2072.576638,9252.574275
1250.042807,0.000000,1850.514855,9326.594869
1250.043126,0.000000,1850.514855,9178.553681
1250.043445,153.219100,1850.514855,9104.533087
1250.043763,0.000000,1554.432478,9178.553681
1250.044082,-153.219100,1702.473667,9326.594869
1250.044401,0.000000,1258.350101,9326.594869
1250.044719,0.000000,962.267725,9400.615463
1250.045038,0.000000,1110.308913,9400.615463
1250.045357,-229.828649,888.247130,9474.636058
1250.045675,76.609550,814.226536,9326.594869
1250.045994,306.438199,666.185348,9622.677246
1250.046313,0.000000,296.082377,9178.553681
1250.046631,0.000000,518.144159,9474.636058
1250.046950,306.438199,148.041188,9252.574275
1250.047269,383.047749,-0.000000,9326.594869
1250.047587,459.657299,-74.020594,9326.594869
1250.047906,536.266849,-74.020594,9326.594869
1250.048225,689.485948,-0.000000,9326.594869
1250.048543,689.485948,-74.020594,9400.615463
1250.048862,995.924147,-148.041188,9326.594869
1250.049181,919.314598,-222.061783,9252.574275
1250.049499,1225.752797,-148.041188,9030.512492
1250.049818,1149.143247,-0.000000,9178.553681
1250.050137,1225.752797,-0.000000,9104.533087
1250.050455,1455.581446,-222.061783,9104.533087
1250.050774,842.705048,-444.123565,8882.471304
1250.051093,995.924147,-296.082377,9030.512492
1250.051411,919.314598,-518.144159,9104.533087
1250.051730,1072.533697,-444.123565,8882.471304
1250.052049,919.314598,-296.082377,8882.471304
1250.052367,536.266849,-518.144159,8882.471304
1250.052686,536.266849,-518.144159,8808.450710
1250.053005,612.876398,-74.020594,8734.430116
1250.053323,459.657299,-74.020594,8734.430116
1250.053642,0.000000,-74.020594,9178.553681
1250.053961,229.828649,-0.000000,8734.430116
1250.054279,229.828649,-0.000000,8808.450710
1250.054598,229.828649,-0.000000,8882.471304
1250.054917,153.219100,-0.000000,9104.533087
1250.055235,459.657299,-0.000000,9030.512492
1250.055554,153.219100,-0.000000,9178.553681
1250.055873,459.657299,-0.000000,8882.471304
1250.056191,229.828649,296.082377,8956.491898
1250.056510,383.047749,518.144159,8882.471304
1250.056829,689.485948,-0.000000,8956.491898
1250.057147,612.876398,296.082377,8586.388927
1250.057466,612.876398,370.102971,8660.409521
1250.057785,306.438199,518.144159,8956.491898
1250.058103,0.000000,148.041188,9104.533087
1250.058422,0.000000,370.102971,9696.697840
1250.058741,0.000000,296.082377,9400.615463
1250.059059,229.828649,592.164754,9030.512492
1250.059378,0.000000,740.205942,9548.656652
1250.059697,76.609550,888.247130,9548.656652
1250.060015,153.219100,888.247130,9474.636058
1250.060334,76.609550,1184.329507,9474.636058
1250.060653,229.828649,1258.350101,9474.636058
1250.060971,229.828649,1702.473667,9400.615463
1250.061290,0.000000,1702.473667,9178.553681
1250.061609,76.609550,1776.494261,9326.594869
1250.061927,0.000000,1628.453072,9474.636058
1250.062246,153.219100,1702.473667,9326.594869
1250.062565,459.657299,1850.514855,9474.636058
1250.062883,306.438199,1480.411884,9178.553681
1250.063202,153.219100,1702.473667,9474.636058
1250.063521,229.828649,1628.453072,9844.739029
1250.063839,153.219100,1702.473667,9696.697840
1250.064158,459.657299,1628.453072,9622.677246
1250.064477,612.876398,1258.350101,9622.677246
1250.064795,383.047749,1406.391290,9548.656652
1250.065114,459.657299,1480.411884,9474.636058
1250.065433,306.438199,1332.370696,9622.677246
1250.065751,383.047749,1184.329507,9622.677246
1250.066070,459.657299,1110.308913,9474.636058
1250.066389,153.219100,740.205942,9622.677246
1250.066707,306.438199,962.267725,9844.739029
1250.067026,0.000000,740.205942,9770.718434
1250.067345,-306.438199,370.102971,10066.800811
1250.067663,0.000000,148.041188,9770.718434
1250.067982,-153.219100,296.082377,9622.677246
1250.068301,-153.219100,-0.000000,9918.759623
1250.068619,0.000000,-0.000000,9696.697840
1250.068938,-536.266849,-148.041188,9474.636058
1250.069257,-306.438199,-0.000000,9474.636058
1250.069575,-306.438199,-148.041188,9474.636058
1250.069894,0.000000,-222.061783,9474.636058
1250.070213,0.000000,-222.061783,9400.615463
1250.070531,153.219100,-296.082377,9474.636058
1250.070850,229.828649,-296.082377,9474.636058
1250.071169,153.219100,-444.123565,9326.594869
1250.071487,306.438199,-0.000000,9252.574275
1250.071806,536.266849,-222.061783,9252.574275
1250.072125,306.438199,-148.041188,9104.533087
1250.072443,689.485948,-370.102971,8882.471304
1250.072762,689.485948,-148.041188,8808.450710
1250.073081,689.485948,-0.000000,8586.388927
1250.073399,842.705048,-0.000000,8586.388927
1250.073718,842.705048,-0.000000,8586.388927
1250.074037,459.657299,-222.061783,8364.327145
1250.074355,919.314598,-74.020594,8290.306550
1250.074674,536.266849,-222.061783,8660.409521
1250.074993,689.485948,-148.041188,8660.409521
1250.075311,842.705048,-222.061783,8586.388927
1250.075630,766.095498,-0.000000,8512.368333
1250.075947,612.876398,-74.020594,8586.388927
1250.076265,766.095498,-0.000000,8290.306550
1250.076584,689.485948,-148.041188,8364.327145
1250.076903,689.485948,-0.000000,8438.347739
1250.077222,536.266849,-0.000000,8882.471304
1250.077540,766.095498,-296.082377,8808.450710
1250.077859,612.876398,-370.102971,8586.388927
1250.078178,383.047749,-296.082377,8956.491898
1250.078496,689.485948,-74.020594,9030.512492
1250.078815,229.828649,-0.000000,9030.512492
1250.079134,306.438199,-222.061783,9030.512492
1250.079452,689.485948,-0.000000,9326.594869
1250.079771,536.266849,-74.020594,9326.594869
1250.080090,689.485948,-0.000000,9178.553681
1250.080409,612.876398,148.041188,9252.574275
1250.080727,1072.533697,222.061783,9178.553681
1250.081046,995.924147,-148.041188,9474.636058
1250.081365,689.485948,370.102971,9178.553681
1250.081683,766.095498,444.123565,9400.615463
1250.082002,689.485948,518.144159,9326.594869
1250.082321,919.314598,518.144159,9474.636058
1250.082639,1072.533697,444.123565,9696.697840
1250.082958,612.876398,518.144159,9400.615463
1250.083277,842.705048,666.185348,9622.677246
1250.083596,689.485948,592.164754,9548.656652
1250.083914,689.485948,370.102971,9992.780217
1250.084233,842.705048,518.144159,9918.759623
1250.084552,459.657299,888.247130,9992.780217
1250.084870,536.266849,814.226536,9770.718434
1250.085189,383.047749,888.247130,9844.739029
1250.085508,689.485948,888.247130,9770.718434
1250.085826,612.876398,740.205942,9770.718434
1250.086145,689.485948,888.247130,9696.697840
1250.086464,689.485948,962.267725,9622.677246
1250.086783,612.876398,888.247130,9770.718434
1250.087101,842.705048,1036.288319,9622.677246
1250.087420,919.314598,370.102971,9622.677246
1250.087739,689.485948,740.205942,9622.677246
1250.088057,536.266849,740.205942,9474.636058
1250.088376,612.876398,888.247130,9474.636058
1250.088695,766.095498,666.185348,9474.636058
1250.089013,536.266849,444.123565,9326.594869
1250.089332,689.485948,370.102971,9252.574275
1250.089651,229.828649,592.164754,9252.574275
1250.089970,459.657299,370.102971,9400.615463
1250.090288,306.438199,-0.000000,9696.697840
1250.090607,229.828649,-0.000000,9474.636058
1250.090926,0.000000,148.041188,9400.615463
1250.091244,229.828649,222.061783,9326.594869
1250.091563,76.609550,296.082377,9326.594869
1250.091882,0.000000,222.061783,9178.553681
1250.092200,0.000000,222.061783,8956.491898
1250.092519,76.609550,-0.000000,8882.471304
1250.092838,153.219100,-0.000000,9030.512492
1250.093157,-153.219100,-222.061783,8734.430116
1250.093475,383.047749,-148.041188,8734.430116
1250.093794,153.219100,-296.082377,9030.512492
1250.094113,0.000000,-74.020594,8882.471304
1250.094431,306.438199,-296.082377,8956.491898
1250.094750,229.828649,-370.102971,8956.491898
1250.095069,229.828649,-888.247130,9104.533087
1250.095387,536.266849,-444.123565,8882.471304
1250.095706,689.485948,-444.123565,8808.450710
1250.096025,995.924147,-296.082377,8734.430116
1250.096344,766.095498,-444.123565,8512.368333
1250.096662,1225.752797,-814.226536,8660.409521
1250.096981,995.924147,-666.185348,8512.368333
1250.097300,1149.143247,-444.123565,8586.388927
1250.097618,1225.752797,-592.164754,8808.450710
1250.097937,1149.143247,-666.185348,8808.450710
1250.098256,1072.533697,-888.247130,8882.471304
1250.098575,1149.143247,-740.205942,9030.512492
1250.098893,995.924147,-740.205942,9178.553681
1250.099212,766.095498,-518.144159,9178.553681
1250.099531,766.095498,-888.247130,9104.533087
1250.099849,842.705048,-592.164754,9030.512492
1250.100168,1149.143247,-444.123565,9030.512492
1250.100487,459.657299,-518.144159,9400.615463
1250.100805,766.095498,-370.102971,9104.533087
1250.101124,766.095498,-74.020594,9104.533087
1250.101443,459.657299,-148.041188,9178.553681
1250.101762,689.485948,-0.000000,9326.594869
1250.102080,459.657299,-0.000000,9104.533087
1250.102399,383.047749,148.041188,9178.553681
1250.102718,842.705048,370.102971,9474.636058
1250.103036,536.266849,518.144159,9474.636058
1250.103355,536.266849,370.102971,9252.574275
1250.103674,536.266849,814.226536,9326.594869
1250.103992,306.438199,814.226536,9400.615463
1250.104311,306.438199,888.247130,9844.739029
1250.104630,306.438199,888.247130,9474.636058
1250.104949,229.828649,1184.329507,9474.636058
1250.105267,153.219100,1184.329507,9400.615463
1250.105586,0.000000,1036.288319,9400.615463
1250.105905,229.828649,1332.370696,9474.636058
1250.106223,153.219100,1184.329507,9622.677246
1250.106542,76.609550,1184.329507,9548.656652
1250.106861,76.609550,1184.329507,9548.656652
1250.107179,766.095498,1332.370696,9622.677246
1250.107498,0.000000,1184.329507,9696.697840
1250.107817,153.219100,1332.370696,9622.677246
1250.108136,153.219100,1258.350101,9548.656652
1250.108454,153.219100,1110.308913,9548.656652
1250.108773,76.609550,888.247130,9844.739029
1250.109092,612.876398,1184.329507,9696.697840
1250.109410,229.828649,592.164754,9696.697840
1250.109729,536.266849,814.226536,9696.697840
1250.110048,612.876398,666.185348,9844.739029
1250.110366,842.705048,518.144159,9844.739029
1250.110685,612.876398,666.185348,9622.677246
1250.111004,842.705048,518.144159,9622.677246
1250.111323,1149.143247,666.185348,9622.677246
1250.111641,1532.190996,444.123565,9548.656652
1250.111960,1302.362347,296.082377,9474.636058
1250.112279,1608.800546,666.185348,9326.594869
1250.112597,1378.971896,74.020594,9252.574275
1250.112916,1378.971896,-0.000000,8956.491898
1250.113235,1072.533697,-0.000000,9400.615463
1250.113553,1149.143247,148.041188,9474.636058
1250.113872,919.314598,-0.000000,9178.553681
1250.114191,842.705048,-74.020594,9252.574275
1250.114510,842.705048,-74.020594,9030.512492
1250.114828,689.485948,-370.102971,9104.533087
1250.115147,842.705048,-370.102971,9030.512492
1250.115466,612.876398,-296.082377,9326.594869
1250.115784,536.266849,-370.102971,9030.512492
1250.116103,919.314598,-74.020594,9030.512492
1250.116422,612.876398,-370.102971,8882.471304
1250.116740,536.266849,-370.102971,8734.430116
1250.117059,689.485948,-296.082377,8734.430116
1250.117378,612.876398,-444.123565,8660.409521
1250.117697,536.266849,-370.102971,8956.491898
1250.118015,536.266849,-370.102971,8734.430116
1250.118334,689.485948,-592.164754,8808.450710
1250.118653,459.657299,-518.144159,8808.450710
1250.118971,536.266849,-444.123565,8808.450710
1250.119290,536.266849,-296.082377,8882.471304
1250.119609,383.047749,-296.082377,8734.430116
1250.119928,459.657299,-296.082377,8734.430116
1250.120246,536.266849,-296.082377,8660.409521
1250.120565,459.657299,-222.061783,8734.430116
1250.120884,612.876398,-370.102971,8512.368333
1250.121202,689.485948,-222.061783,8660.409521
1250.121521,689.485948,-74.020594,8734.430116
1250.121840,536.266849,-0.000000,8734.430116
1250.122158,842.705048,-0.000000,8956.491898
1250.122477,689.485948,296.082377,8734.430116
1250.122796,383.047749,296.082377,8882.471304
1250.123115,459.657299,370.102971,8882.471304
1250.123433,306.438199,592.164754,9030.512492
1250.123752,689.485948,518.144159,9030.512492
1250.124071,76.609550,814.226536,9030.512492
1250.124389,153.219100,814.226536,9104.533087
1250.124708,0.000000,1036.288319,9178.553681
1250.125027,76.609550,1110.308913,9326.594869
1250.125345,0.000000,740.205942,9474.636058
1250.125664,229.828649,1628.453072,9400.615463
1250.125983,76.609550,1110.308913,9400.615463
1250.126302,153.219100,1406.391290,9474.636058
1250.126620,153.219100,1480.411884,9548.656652
1250.126939,229.828649,1480.411884,9622.677246
1250.127258,459.657299,1480.411884,9622.677246
1250.127576,536.266849,1258.350101,9474.636058
1250.127895,153.219100,1554.432478,9474.636058
1250.128214,383.047749,1406.391290,9474.636058
1250.128532,383.047749,1332.370696,9696.697840
1250.128851,383.047749,1628.453072,9622.677246
1250.129170,153.219100,1110.308913,9696.697840
1250.129489,229.828649,1184.329507,9918.759623
1250.129807,0.000000,1110.308913,10140.821405
1250.130126,76.609550,1184.329507,10066.800811
1250.130445,0.000000,962.267725,9992.780217
1250.130763,0.000000,888.247130,9992.780217
1250.131082,0.000000,962.267725,9992.780217
1250.131401,0.000000,518.144159,10140.821405
1250.131719,229.828649,962.267725,9770.718434
1250.132038,76.609550,888.247130,9918.759623
1250.132357,-153.219100,888.247130,9770.718434
1250.132676,0.000000,888.247130,9844.739029
1250.132994,0.000000,370.102971,9622.677246
1250.133313,-229.828649,888.247130,9844.739029
1250.133632,0.000000,888.247130,9548.656652
1250.133950,0.000000,740.205942,9696.697840
1250.134269,0.000000,740.205942,9696.697840
1250.134588,383.047749,666.185348,9400.615463
1250.134906,76.609550,370.102971,9252.574275
1250.135225,76.609550,592.164754,9400.615463
1250.135544,306.438199,666.185348,9252.574275
1250.135863,383.047749,444.123565,9474.636058
1250.136181,383.047749,444.123565,9326.594869
1250.136500,383.047749,518.144159,9104.533087
1250.136819,459.657299,518.144159,9030.512492
1250.137137,383.047749,296.082377,8808.450710
1250.137456,612.876398,370.102971,8882.471304
1250.137775,689.485948,296.082377,8660.409521
1250.138093,459.657299,296.082377,9030.512492
1250.138412,383.047749,-0.000000,8734.430116
1250.138731,459.657299,74.020594,8734.430116
1250.139050,383.047749,148.041188,8586.388927
1250.139368,383.047749,222.061783,8660.409521
1250.139687,383.047749,148.041188,8660.409521
1250.140006,383.047749,222.061783,8882.471304
1250.140324,306.438199,-148.041188,8586.388927
1250.140643,306.438199,-0.000000,8734.430116
1250.140962,229.828649,-74.020594,8808.450710
1250.141281,536.266849,-0.000000,8734.430116
1250.141599,536.266849,-74.020594,8882.471304
1250.141918,383.047749,-148.041188,9104.533087
1250.142237,612.876398,-0.000000,8956.491898
1250.142555,766.095498,-0.000000,9030.512492
1250.142874,766.095498,-0.000000,9178.553681
1250.143193,1455.581446,-296.082377,8734.430116
1250.143511,919.314598,-0.000000,8808.450710
1250.143830,689.485948,222.061783,9104.533087
1250.144149,995.924147,-0.000000,9104.533087
1250.144468,766.095498,148.041188,8882.471304
1250.144786,689.485948,-148.041188,9030.512492
1250.145105,842.705048,370.102971,9326.594869
1250.145424,459.657299,222.061783,9400.615463
1250.145742,536.266849,222.061783,9252.574275
1250.146061,383.047749,222.061783,9326.594869
1250.146380,459.657299,222.061783,9770.718434
1250.146698,229.828649,370.102971,9474.636058
1250.147017,229.828649,666.185348,9474.636058
1250.147336,229.828649,666.185348,9622.677246
1250.147655,383.047749,740.205942,9474.636058
1250.147973,536.266849,814.226536,9548.656652
1250.148292,306.438199,814.226536,9474.636058
1250.148611,153.219100,592.164754,9770.718434
1250.148929,383.047749,740.205942,9548.656652
1250.149248,306.438199,888.247130,9474.636058
1250.149567,153.219100,888.247130,9844.739029
1250.149885,306.438199,1036.288319,9548.656652
1250.150204,229.828649,962.267725,9622.677246
1250.150523,229.828649,962.267725,9548.656652
1250.150842,306.438199,962.267725,9548.656652
1250.151160,229.828649,962.267725,9548.656652
1250.151479,536.266849,1184.329507,9474.636058
1250.151798,76.609550,1036.288319,9474.636058
1250.152116,153.219100,888.247130,9474.636058
1250.152435,612.876398,962.267725,9474.636058
1250.152754,76.609550,962.267725,9474.636058
1250.153072,0.000000,1036.288319,9400.615463
1250.153391,229.828649,1036.288319,9474.636058
1250.153710,0.000000,962.267725,9474.636058
1250.154029,229.828649,962.267725,9326.594869
1250.154347,306.438199,814.226536,9252.574275
1250.154666,0.000000,962.267725,9474.636058
1250.154985,0.000000,888.247130,9326.594869
1250.155303,153.219100,888.247130,9252.574275
1250.155622,229.828649,666.185348,9474.636058
1250.155941,0.000000,814.226536,9252.574275
1250.156259,0.000000,740.205942,9252.574275
1250.156578,0.000000,592.164754,9252.574275
1250.156897,0.000000,444.123565,9326.594869
1250.157216,229.828649,370.102971,9326.594869
1250.157534,459.657299,222.061783,8956.491898
1250.157853,229.828649,-0.000000,9252.574275
1250.158172,229.828649,222.061783,8882.471304
1250.158490,536.266849,222.061783,9178.553681
1250.158809,842.705048,-0.000000,9104.533087
1250.159128,689.485948,-0.000000,8808.450710
1250.159446,1072.533697,148.041188,8882.471304
1250.159765,919.314598,-0.000000,8882.471304
1250.160084,766.095498,-0.000000,8808.450710
1250.160403,1072.533697,-148.041188,8956.491898
1250.160721,612.876398,-370.102971,8882.471304
1250.161040,842.705048,-222.061783,8808.450710
1250.161359,919.314598,-222.061783,8956.491898
1250.161677,689.485948,-370.102971,9104.533087
1250.161996,612.876398,-666.185348,9474.636058
1250.162315,383.047749,-444.123565,9252.574275
1250.162634,306.438199,-370.102971,9326.594869
1250.162952,229.828649,-370.102971,9400.615463
1250.163271,306.438199,-74.020594,9178.553681
1250.163590,76.609550,-740.205942,9326.594869
1250.163908,0.000000,-370.102971,9178.553681
1250.164227,612.876398,-296.082377,9030.512492
1250.164546,306.438199,-148.041188,9178.553681
1250.164864,919.314598,-148.041188,9178.553681
1250.165183,153.219100,-74.020594,9104.533087
1250.165502,229.828649,-0.000000,9104.533087
1250.165821,306.438199,-0.000000,9104.533087
1250.166139,306.438199,-0.000000,9178.553681
1250.166458,536.266849,222.061783,9178.553681
1250.166777,153.219100,222.061783,9104.533087
1250.167095,459.657299,222.061783,9326.594869
1250.167414,536.266849,518.144159,9104.533087
1250.167733,306.438199,370.102971,9178.553681
1250.168051,459.657299,518.144159,9178.553681
1250.168370,536.266849,518.144159,9326.594869
1250.168689,383.047749,592.164754,9252.574275
1250.169008,536.266849,592.164754,8956.491898
1250.169326,459.657299,518.144159,9178.553681
1250.169645,766.095498,666.185348,8956.491898
1250.169964,612.876398,666.185348,9326.594869
1250.170282,153.219100,666.185348,9400.615463
1250.170601,383.047749,740.205942,9252.574275
1250.170920,612.876398,814.226536,9252.574275
1250.171238,459.657299,888.247130,9474.636058
1250.171557,536.266849,888.247130,9326.594869
1250.171876,536.266849,1110.308913,9252.574275
1250.172195,536.266849,1036.288319,9326.594869
1250.172513,919.314598,814.226536,9474.636058
1250.172832,229.828649,444.123565,9400.615463
1250.173151,536.266849,666.185348,9548.656652
1250.173469,536.266849,666.185348,9474.636058
1250.173788,459.657299,592.164754,9622.677246
1250.174107,383.047749,222.061783,9548.656652
1250.174425,995.924147,444.123565,9474.636058
1250.174744,919.314598,592.164754,9622.677246
1250.175063,1072.533697,444.123565,9474.636058
1250.175382,842.705048,592.164754,9474.636058
1250.175700,1225.752797,444.123565,9622.677246
1250.176019,536.266849,444.123565,9474.636058
1250.176338,766.095498,370.102971,9400.615463
1250.176656,689.485948,296.082377,9622.677246
1250.176975,536.266849,-0.000000,9548.656652
1250.177294,536.266849,148.041188,9474.636058
1250.177612,766.095498,-0.000000,9474.636058
1250.177931,689.485948,-0.000000,9474.636058
1250.178250,689.485948,-0.000000,9474.636058
1250.178569,689.485948,-0.000000,9474.636058
1250.178887,306.438199,-74.020594,9400.615463
1250.179206,612.876398,-0.000000,9326.594869
1250.179525,306.438199,-148.041188,9548.656652
1250.179844,459.657299,-148.041188,9400.615463
1250.180162,229.828649,-444.123565,9474.636058
1250.180481,383.047749,-148.041188,9474.636058
1250.180800,459.657299,-148.041188,9326.594869
1250.181119,536.266849,-296.082377,9252.574275
1250.181437,766.095498,-296.082377,9252.574275
1250.181756,842.705048,-444.123565,8956.491898
1250.182075,612.876398,-296.082377,8956.491898
1250.182394,919.314598,-74.020594,9030.512492
1250.182712,612.876398,-444.123565,9030.512492
1250.183031,766.095498,-296.082377,8734.430116
1250.183350,766.095498,-518.144159,8734.430116
1250.183669,842.705048,-148.041188,8808.450710
1250.183987,536.266849,-222.061783,8586.388927
1250.184306,459.657299,-148.041188,8734.430116
1250.184625,459.657299,-296.082377,9252.574275
1250.184944,383.047749,-222.061783,8882.471304
1250.185263,229.828649,-0.000000,9030.512492
1250.185581,383.047749,-148.041188,8808.450710
1250.185900,383.047749,-0.000000,9104.533087
1250.186219,766.095498,-74.020594,9252.574275
1250.186538,76.609550,296.082377,9030.512492
1250.186856,306.438199,-0.000000,8734.430116
1250.187175,306.438199,296.082377,8882.471304
1250.187494,76.609550,296.082377,8734.430116
1250.187813,459.657299,222.061783,9178.553681
1250.188131,459.657299,444.123565,8660.409521
1250.188450,536.266849,370.102971,9104.533087
1250.188769,459.657299,444.123565,9030.512492
1250.189088,536.266849,296.082377,9030.512492
1250.189406,612.876398,222.061783,9030.512492
1250.189725,766.095498,444.123565,9252.574275
1250.190044,919.314598,518.144159,9252.574275
1250.190363,689.485948,518.144159,9178.553681
1250.190681,842.705048,370.102971,9326.594869
1250.191000,1072.533697,740.205942,9252.574275
1250.191319,842.705048,592.164754,9252.574275
1250.191638,919.314598,740.205942,9326.594869
1250.191956,919.314598,518.144159,9326.594869
1250.192275,689.485948,814.226536,9400.615463
1250.192594,612.876398,592.164754,9622.677246
1250.192913,536.266849,518.144159,9400.615463
1250.193231,612.876398,444.123565,9474.636058
1250.193550,383.047749,740.205942,9770.718434
1250.193869,459.657299,444.123565,9844.739029
1250.194188,459.657299,444.123565,9696.697840
1250.194506,536.266849,518.144159,9844.739029
1250.194825,76.609550,666.185348,9696.697840
1250.195144,383.047749,740.205942,9696.697840
1250.195463,153.219100,370.102971,9474.636058
1250.195781,0.000000,592.164754,9918.759623
1250.196100,306.438199,740.205942,9622.677246
1250.196419,153.219100,592.164754,9844.739029
1250.196738,229.828649,592.164754,9696.697840
1250.197056,229.828649,666.185348,9622.677246
1250.197375,76.609550,592.164754,9474.636058
1250.197694,229.828649,666.185348,9622.677246
1250.198013,306.438199,888.247130,9622.677246
1250.198331,306.438199,814.226536,9474.636058
1250.198650,76.609550,740.205942,9400.615463
1250.198969,306.438199,740.205942,9400.615463
1250.199288,536.266849,666.185348,9326.594869
1250.199606,612.876398,666.185348,9104.533087
1250.199925,383.047749,1036.288319,9474.636058
1250.200244,536.266849,666.185348,9252.574275
1250.200563,459.657299,740.205942,9326.594869
1250.200881,383.047749,444.123565,9030.512492
1250.201200,153.219100,518.144159,9104.533087
1250.201519,383.047749,518.144159,8956.491898
1250.201838,229.828649,370.102971,9104.533087
1250.202156,612.876398,592.164754,8882.471304
1250.202475,536.266849,592.164754,9030.512492
1250.202794,76.609550,444.123565,9030.512492
1250.203113,383.047749,296.082377,8956.491898
1250.203431,306.438199,370.102971,8956.491898
1250.203750,459.657299,444.123565,8882.471304
1250.204069,459.657299,370.102971,8956.491898
1250.204388,306.438199,296.082377,9178.553681
1250.204706,689.485948,-0.000000,8882.471304
1250.205025,459.657299,296.082377,8734.430116
1250.205344,842.705048,222.061783,8956.491898
1250.205663,842.705048,148.041188,8882.471304
1250.205981,612.876398,-74.020594,9178.553681
1250.206300,689.485948,-0.000000,8808.450710
1250.206619,995.924147,-0.000000,8734.430116
1250.206938,995.924147,-0.000000,8882.471304
1250.207256,1072.533697,-0.000000,8882.471304
1250.207575,766.095498,-0.000000,8882.471304
1250.207894,689.485948,-74.020594,8882.471304
1250.208213,842.705048,-74.020594,9030.512492
1250.208531,383.047749,-0.000000,9252.574275
1250.208850,459.657299,-74.020594,9252.574275
1250.209169,306.438199,-74.020594,9400.615463
1250.209488,383.047749,-0.000000,9326.594869
1250.209806,306.438199,-0.000000,9326.594869
1250.210125,383.047749,-0.000000,9252.574275
1250.210444,306.438199,222.061783,9400.615463
1250.210763,536.266849,222.061783,9400.615463
1250.211081,306.438199,-0.000000,9252.574275
1250.211400,383.047749,296.082377,9252.574275
1250.211719,229.828649,-74.020594,9030.512492
1250.212038,383.047749,222.061783,9326.594869
1250.212356,383.047749,370.102971,9474.636058
1250.212675,536.266849,222.061783,9326.594869
1250.212994,383.047749,370.102971,9400.615463
1250.213313,306.438199,370.102971,9400.615463
1250.213631,383.047749,592.164754,9326.594869
1250.213950,383.047749,518.144159,9400.615463
1250.214269,306.438199,740.205942,9400.615463
1250.214588,612.876398,814.226536,9104.533087
1250.214906,689.485948,888.247130,9104.533087
1250.215225,536.266849,888.247130,9178.553681
1250.215544,383.047749,962.267725,9326.594869
1250.215863,306.438199,962.267725,9400.615463
1250.216181,0.000000,740.205942,9400.615463
1250.216500,229.828649,888.247130,9474.636058
1250.216819,76.609550,1184.329507,9474.636058
1250.217138,153.219100,1036.288319,9178.553681
1250.217456,383.047749,1258.350101,9400.615463
1250.217775,76.609550,1110.308913,9104.533087
1250.218094,229.828649,1184.329507,9252.574275
1250.218413,383.047749,1332.370696,9178.553681
1250.218731,153.219100,1184.329507,9400.615463
1250.219050,459.657299,1110.308913,9400.615463
1250.219369,689.485948,962.267725,9252.574275
1250.219688,383.047749,1110.308913,9400.615463
1250.220006,536.266849,888.247130,9326.594869
1250.220325,612.876398,740.205942,9326.594869
1250.220644,612.876398,962.267725,9474.636058
1250.220963,919.314598,666.185348,9474.636058
1250.221281,689.485948,814.226536,9474.636058
1250.221600,842.705048,666.185348,9252.574275
1250.221919,689.485948,740.205942,9400.615463
1250.222238,766.095498,592.164754,9252.574275
1250.222556,842.705048,962.267725,9400.615463
1250.222875,842.705048,740.205942,9400.615463
1250.223194,612.876398,666.185348,9252.574275
1250.223513,536.266849,370.102971,9252.574275
1250.223831,612.876398,-0.000000,9474.636058
1250.224150,842.705048,74.020594,9474.636058
1250.224469,383.047749,222.061783,9474.636058
1250.224788,459.657299,74.020594,9400.615463
1250.225106,76.609550,148.041188,9548.656652
1250.225425,76.609550,-0.000000,9548.656652
1250.225744,229.828649,-0.000000,9400.615463
1250.226063,0.000000,-0.000000,9474.636058
1250.226381,229.828649,148.041188,9474.636058
1250.226700,229.828649,222.061783,9400.615463
1250.227019,153.219100,-0.000000,9400.615463
1250.227338,153.219100,-0.000000,9400.615463
1250.227656,76.609550,222.061783,9400.615463
1250.227975,0.000000,148.041188,9326.594869
1250.228294,76.609550,148.041188,9030.512492
1250.228613,612.876398,-296.082377,8882.471304
1250.228931,229.828649,-0.000000,8956.491898
1250.229250,153.219100,148.041188,8808.450710
1250.229569,76.609550,222.061783,9104.533087
1250.229888,0.000000,-0.000000,8956.491898
1250.230206,76.609550,370.102971,8808.450710
1250.230525,229.828649,296.082377,9104.533087
1250.230844,0.000000,148.041188,9104.533087
1250.231163,153.219100,222.061783,9030.512492
1250.231481,1302.362347,148.041188,8882.471304
1250.231800,306.438199,222.061783,8882.471304
1250.232119,306.438199,444.123565,9030.512492
1250.232438,459.657299,296.082377,8956.491898
1250.232756,383.047749,444.123565,9030.512492
1250.233075,536.266849,444.123565,9252.574275
1250.233394,76.609550,592.164754,9178.553681
1250.233713,536.266849,592.164754,9104.533087
1250.234031,536.266849,518.144159,9104.533087
1250.234350,536.266849,518.144159,9104.533087
1250.234669,612.876398,222.061783,9104.533087
1250.234988,383.047749,444.123565,9030.512492
1250.235306,383.047749,592.164754,9252.574275
1250.235625,536.266849,518.144159,9178.553681
1250.235944,842.705048,592.164754,9400.615463
1250.236263,153.219100,888.247130,9400.615463
1250.236581,689.485948,666.185348,9326.594869
1250.236900,459.657299,666.185348,9400.615463
1250.237219,766.095498,666.185348,9400.615463
1250.237538,766.095498,740.205942,9400.615463
1250.237856,766.095498,814.226536,9178.553681
1250.238175,919.314598,666.185348,9252.574275
1250.238494,766.095498,518.144159,9474.636058
1250.238813,689.485948,592.164754,9178.553681
1250.239131,459.657299,666.185348,9474.636058
1250.239450,612.876398,592.164754,9474.636058
1250.239769,383.047749,148.041188,9696.697840
1250.240088,459.657299,296.082377,9770.718434
1250.240406,383.047749,-0.000000,9770.718434
1250.240725,229.828649,370.102971,9474.636058
1250.241044,306.438199,444.123565,9622.677246
1250.241363,0.000000,370.102971,9474.636058
1250.241681,76.609550,444.123565,9548.656652
1250.242000,76.609550,444.123565,9326.594869
1250.242319,0.000000,296.082377,9548.656652
1250.242638,153.219100,370.102971,9474.636058
1250.242956,229.828649,222.061783,9400.615463
1250.243275,76.609550,296.082377,9474.636058
1250.243594,689.485948,-0.000000,9326.594869
1250.243913,459.657299,444.123565,9178.553681
1250.244231,459.657299,592.164754,9400.615463
1250.244550,306.438199,296.082377,9178.553681
1250.244869,383.047749,444.123565,9252.574275
1250.245188,229.828649,148.041188,9104.533087
1250.245506,459.657299,296.082377,9030.512492
1250.245825,612.876398,222.061783,8882.471304
1250.246144,383.047749,592.164754,8882.471304
1250.246463,536.266849,518.144159,9104.533087
1250.246781,306.438199,666.185348,9400.615463
1250.247100,383.047749,444.123565,9178.553681
1250.247419,612.876398,444.123565,9104.533087
1250.247738,459.657299,444.123565,9178.553681
1250.248056,229.828649,444.123565,9104.533087
1250.248375,306.438199,518.144159,9252.574275
1250.248694,536.266849,296.082377,8956.491898
1250.249013,306.438199,444.123565,8956.491898
1250.249331,306.438199,518.144159,9104.533087
1250.249650,229.828649,-0.000000,8956.491898
1250.249969,0.000000,222.061783,9030.512492
1250.250288,536.266849,444.123565,8956.491898
1250.250606,383.047749,370.102971,9030.512492
1250.250925,229.828649,148.041188,9178.553681
1250.251244,766.095498,-0.000000,9030.512492
1250.251563,459.657299,296.082377,9252.574275
1250.251882,689.485948,222.061783,9400.615463
1250.252200,1072.533697,148.041188,9178.553681
1250.252519,995.924147,222.061783,9178.553681
1250.252838,1762.019645,-0.000000,9252.574275
1250.253157,995.924147,222.061783,9326.594869
1250.253475,1378.971896,-0.000000,8808.450710
1250.253794,1302.362347,444.123565,9252.574275
1250.254113,1302.362347,222.061783,9252.574275
1250.254432,995.924147,-0.000000,9474.636058
1250.254750,689.485948,-0.000000,9326.594869
1250.255069,842.705048,-0.000000,9326.594869
1250.255388,459.657299,-0.000000,9474.636058
1250.255707,766.095498,-370.102971,9474.636058
1250.256025,229.828649,-296.082377,9326.594869
1250.256344,306.438199,-0.000000,9474.636058
1250.256663,306.438199,222.061783,9696.697840
1250.256982,76.609550,-74.020594,9548.656652
1250.257300,229.828649,148.041188,9474.636058
1250.257619,0.000000,148.041188,9474.636058
1250.257938,229.828649,148.041188,9400.615463
1250.258257,0.000000,148.041188,9474.636058
1250.258575,153.219100,148.041188,9400.615463
1250.258894,306.438199,296.082377,9474.636058
1250.259213,306.438199,370.102971,9252.574275
1250.259532,229.828649,444.123565,9474.636058
1250.259850,153.219100,370.102971,9400.615463
1250.260169,306.438199,370.102971,9178.553681
1250.260488,459.657299,444.123565,9474.636058
1250.260807,306.438199,296.082377,9178.553681
1250.261125,459.657299,518.144159,9178.553681
1250.261444,383.047749,666.185348,9178.553681
1250.261763,459.657299,740.205942,9178.553681
1250.262082,306.438199,296.082377,8734.430116
1250.262400,766.095498,740.205942,9030.512492
1250.262719,536.266849,592.164754,9104.533087
1250.263038,383.047749,740.205942,9030.512492
1250.263357,459.657299,444.123565,9104.533087
1250.263675,459.657299,518.144159,9030.512492
1250.263994,306.438199,518.144159,9178.553681
1250.264313,306.438199,592.164754,9252.574275
1250.264632,459.657299,518.144159,9252.574275
1250.264950,229.828649,592.164754,9104.533087
1250.265269,229.828649,592.164754,9178.553681
1250.265588,229.828649,888.247130,9474.636058
1250.265907,229.828649,592.164754,9178.553681
1250.266225,229.828649,518.144159,9104.533087
1250.266544,306.438199,370.102971,9326.594869
1250.266863,383.047749,666.185348,9474.636058
1250.267182,459.657299,370.102971,9252.574275
1250.267500,383.047749,444.123565,9474.636058
1250.267819,689.485948,222.061783,9326.594869
1250.268138,689.485948,-0.000000,9474.636058
1250.268457,689.485948,-0.000000,9252.574275
1250.268775,766.095498,370.102971,9326.594869
1250.269094,766.095498,370.102971,9400.615463
1250.269413,919.314598,296.082377,9252.574275
1250.269732,766.095498,296.082377,9178.553681
1250.270050,689.485948,222.061783,9326.594869
1250.270369,995.924147,-0.000000,9178.553681
1250.270688,995.924147,296.082377,9326.594869
1250.271007,766.095498,-74.020594,9474.636058
1250.271325,1225.752797,-0.000000,9326.594869
1250.271644,459.657299,-0.000000,9548.656652
1250.271963,766.095498,-74.020594,9178.553681
1250.272282,536.266849,-444.123565,9400.615463
1250.272600,766.095498,-74.020594,9474.636058
1250.272919,536.266849,-0.000000,9252.574275
1250.273238,689.485948,-0.000000,9178.553681
1250.273557,612.876398,-74.020594,9252.574275
1250.273875,383.047749,-0.000000,9104.533087
1250.274194,689.485948,-74.020594,9400.615463
1250.274513,306.438199,-0.000000,9178.553681
1250.274832,383.047749,74.020594,9030.512492
1250.275150,612.876398,-0.000000,9104.533087
1250.275469,536.266849,-0.000000,9030.512492
1250.275788,383.047749,-148.041188,8882.471304
1250.276107,689.485948,-0.000000,8956.491898
1250.276425,459.657299,-74.020594,9104.533087
1250.276744,459.657299,-0.000000,9104.533087
1250.277063,536.266849,222.061783,9104.533087
1250.277382,612.876398,148.041188,8956.491898
1250.277700,383.047749,222.061783,8956.491898
1250.278019,383.047749,444.123565,8956.491898
1250.278338,459.657299,222.061783,8956.491898
1250.278657,306.438199,148.041188,8734.430116
1250.278975,459.657299,518.144159,9104.533087
1250.279294,383.047749,370.102971,8956.491898
1250.279613,306.438199,444.123565,9104.533087
1250.279932,612.876398,296.082377,9400.615463
1250.280250,229.828649,518.144159,9178.553681
1250.280569,229.828649,740.205942,8956.491898
1250.280888,229.828649,592.164754,9104.533087
1250.281207,229.828649,666.185348,9030.512492
1250.281526,76.609550,592.164754,8956.491898
1250.281845,153.219100,592.164754,9104.533087
1250.282163,383.047749,518.144159,9030.512492
1250.282482,153.219100,740.205942,9326.594869
1250.282801,459.657299,814.226536,9326.594869
1250.283120,459.657299,592.164754,9548.656652
1250.283439,689.485948,666.185348,9474.636058
1250.283757,919.314598,666.185348,9400.615463
1250.284076,995.924147,444.123565,9252.574275
1250.284395,995.924147,740.205942,9400.615463
1250.284714,919.314598,370.102971,9474.636058
1250.285033,842.705048,592.164754,9474.636058
1250.285351,1225.752797,740.205942,9252.574275
1250.285670,995.924147,592.164754,9400.615463
1250.285989,766.095498,518.144159,9474.636058
1250.286308,1225.752797,148.041188,9400.615463
1250.286627,842.705048,444.123565,9622.677246
1250.286945,306.438199,370.102971,9696.697840
1250.287264,689.485948,370.102971,9548.656652
1250.287583,612.876398,296.082377,9326.594869
1250.287902,689.485948,148.041188,9622.677246
1250.288221,689.485948,296.082377,9696.697840
1250.288540,383.047749,222.061783,9696.697840
1250.288858,612.876398,370.102971,9474.636058
1250.289177,842.705048,296.082377,9474.636058
1250.289496,383.047749,-0.000000,9400.615463
1250.289815,229.828649,296.082377,9474.636058
1250.290134,536.266849,-0.000000,9252.574275
1250.290452,229.828649,148.041188,9474.636058
1250.290771,229.828649,148.041188,9400.615463
1250.291090,229.828649,296.082377,9474.636058
1250.291409,0.000000,148.041188,9178.553681
1250.291728,306.438199,296.082377,9252.574275
1250.292046,76.609550,370.102971,9400.615463
1250.292365,306.438199,222.061783,9400.615463
1250.292684,459.657299,296.082377,9104.533087
1250.293003,229.828649,148.041188,9030.512492
1250.293322,153.219100,296.082377,8882.471304
1250.293641,612.876398,518.144159,8956.491898
1250.293959,0.000000,222.061783,8956.491898
1250.294278,153.219100,296.082377,8956.491898
1250.294597,229.828649,444.123565,8882.471304
1250.294916,153.219100,296.082377,8956.491898
1250.295235,612.876398,222.061783,8956.491898
1250.295553,0.000000,444.123565,9252.574275
1250.295872,76.609550,296.082377,9104.533087
1250.296191,0.000000,370.102971,9030.512492
1250.296510,0.000000,370.102971,8956.491898
1250.296829,153.219100,370.102971,8956.491898
1250.297147,-76.609550,444.123565,8956.491898
1250.297466,0.000000,296.082377,9326.594869
1250.297785,306.438199,518.144159,9030.512492
1250.298104,459.657299,518.144159,8956.491898
1250.298423,306.438199,444.123565,9400.615463
1250.298741,459.657299,518.144159,9252.574275
1250.299060,459.657299,222.061783,9326.594869
1250.299379,612.876398,518.144159,9178.553681
1250.299698,995.924147,296.082377,9326.594869
1250.300017,536.266849,518.144159,9326.594869
1250.300336,766.095498,740.205942,9178.553681
1250.300654,1072.533697,444.123565,9252.574275
1250.300973,766.095498,296.082377,9104.533087
1250.301292,766.095498,-0.000000,9104.533087
1250.301611,766.095498,370.102971,9252.574275
1250.301930,766.095498,370.102971,9400.615463
1250.302248,612.876398,370.102971,9400.615463
1250.302567,536.266849,370.102971,9326.594869
1250.302886,536.266849,222.061783,9474.636058
1250.303205,459.657299,444.123565,9474.636058
1250.303524,306.438199,148.041188,9474.636058
1250.303842,306.438199,370.102971,9474.636058
1250.304161,306.438199,296.082377,9474.636058
1250.304480,229.828649,518.144159,9474.636058
1250.304799,76.609550,740.205942,9474.636058
1250.305118,383.047749,222.061783,9400.615463
1250.305436,153.219100,592.164754,9400.615463
1250.305755,229.828649,592.164754,9548.656652
1250.306074,229.828649,518.144159,9474.636058
1250.306393,229.828649,444.123565,9400.615463
1250.306712,383.047749,296.082377,9548.656652
1250.307031,229.828649,518.144159,9474.636058
1250.307349,153.219100,518.144159,9548.656652
1250.307668,153.219100,370.102971,9252.574275
1250.307987,536.266849,592.164754,9326.594869
1250.308306,766.095498,592.164754,9326.594869
1250.308625,919.314598,666.185348,9104.533087
1250.308943,536.266849,518.144159,9474.636058
1250.309262,536.266849,370.102971,9252.574275
1250.309581,459.657299,444.123565,9252.574275
1250.309900,536.266849,370.102971,9178.553681
1250.310219,766.095498,592.164754,9326.594869
1250.310537,383.047749,296.082377,9474.636058
1250.310856,459.657299,666.185348,9178.553681
1250.311175,459.657299,518.144159,9474.636058
1250.311494,383.047749,444.123565,9252.574275
1250.311813,306.438199,296.082377,9178.553681
1250.312132,229.828649,592.164754,9252.574275
1250.312450,459.657299,592.164754,8956.491898
1250.312769,76.609550,666.185348,9178.553681
1250.313088,76.609550,444.123565,8734.430116
1250.313407,76.609550,370.102971,9030.512492
1250.313726,229.828649,592.164754,8882.471304
1250.314044,153.219100,592.164754,8956.491898
1250.314363,153.219100,518.144159,9252.574275
1250.314682,306.438199,444.123565,9104.533087
1250.315001,459.657299,222.061783,9252.574275
1250.315320,459.657299,444.123565,9252.574275
1250.315638,459.657299,518.144159,9252.574275
1250.315957,689.485948,296.082377,9030.512492
1250.316276,919.314598,296.082377,9030.512492
1250.316595,995.924147,518.144159,8882.471304
1250.316914,842.705048,518.144159,9178.553681
1250.317232,995.924147,296.082377,8956.491898
1250.317551,1072.533697,370.102971,8956.491898
1250.317870,1225.752797,-0.000000,8882.471304
1250.318189,689.485948,148.041188,8882.471304
1250.318508,689.485948,222.061783,9252.574275
1250.318827,459.657299,296.082377,9252.574275
1250.319145,306.438199,-0.000000,9326.594869
1250.319464,536.266849,-0.000000,9622.677246
1250.319783,0.000000,-0.000000,9548.656652
1250.320102,229.828649,-0.000000,9326.594869
1250.320421,76.609550,-0.000000,9326.594869
1250.320739,153.219100,-0.000000,9474.636058
1250.321058,0.000000,222.061783,9326.594869
1250.321377,0.000000,444.123565,9326.594869
1250.321696,0.000000,148.041188,9326.594869
1250.322015,0.000000,296.082377,9400.615463
1250.322333,0.000000,444.123565,9474.636058
1250.322652,0.000000,222.061783,9400.615463
1250.322971,0.000000,148.041188,9474.636058
1250.323290,0.000000,222.061783,9178.553681
1250.323609,76.609550,222.061783,9252.574275
1250.323927,229.828649,444.123565,9548.656652
1250.324246,229.828649,444.123565,9400.615463
1250.324565,0.000000,444.123565,9326.594869
1250.324884,306.438199,888.247130,9474.636058
1250.325203,153.219100,666.185348,9326.594869
1250.325522,459.657299,518.144159,9326.594869
1250.325840,536.266849,592.164754,9252.574275
1250.326159,689.485948,666.185348,9030.512492
1250.326478,306.438199,370.102971,9400.615463
1250.326797,306.438199,666.185348,9252.574275
1250.327116,766.095498,592.164754,9252.574275
1250.327434,383.047749,666.185348,9178.553681
1250.327753,383.047749,888.247130,9104.533087
1250.328072,536.266849,666.185348,9104.533087
1250.328391,459.657299,666.185348,9178.553681
1250.328710,0.000000,740.205942,9252.574275
1250.329028,536.266849,518.144159,9400.615463
1250.329347,229.828649,444.123565,9326.594869
1250.329666,383.047749,592.164754,9326.594869
1250.329985,153.219100,518.144159,9474.636058
1250.330304,306.438199,370.102971,9474.636058
1250.330622,689.485948,518.144159,9400.615463
1250.330941,689.485948,444.123565,9400.615463
1250.331260,689.485948,370.102971,9474.636058
1250.331579,612.876398,370.102971,9622.677246
1250.331898,1225.752797,740.205942,9252.574275
1250.332217,766.095498,370.102971,9474.636058
1250.332535,919.314598,592.164754,9030.512492
1250.332854,842.705048,222.061783,9178.553681
1250.333173,459.657299,518.144159,9326.594869
1250.333492,612.876398,222.061783,9252.574275
1250.333811,612.876398,296.082377,9252.574275
1250.334129,306.438199,222.061783,9326.594869
1250.334448,459.657299,222.061783,9400.615463
1250.334767,0.000000,-0.000000,9474.636058
1250.335086,76.609550,-0.000000,9400.615463
1250.335405,76.609550,-0.000000,9326.594869
1250.335723,76.609550,222.061783,9474.636058
1250.336042,229.828649,222.061783,9548.656652
1250.336361,76.609550,296.082377,9326.594869
1250.336680,76.609550,148.041188,9178.553681
1250.336999,76.609550,222.061783,9104.533087
1250.337318,229.828649,-0.000000,9178.553681
1250.337636,536.266849,370.102971,9030.512492
1250.337955,306.438199,370.102971,9030.512492
1250.338274,459.657299,296.082377,8956.491898
1250.338593,459.657299,296.082377,9030.512492
1250.338912,459.657299,296.082377,8956.491898
1250.339230,383.047749,444.123565,8882.471304
1250.339549,383.047749,148.041188,8882.471304
1250.339868,612.876398,222.061783,8882.471304
1250.340187,459.657299,148.041188,8956.491898
1250.340506,766.095498,-0.000000,9252.574275
1250.340824,536.266849,296.082377,9030.512492
1250.341143,536.266849,444.123565,8956.491898
1250.341462,536.266849,296.082377,9178.553681
1250.341781,536.266849,222.061783,9104.533087
1250.342100,612.876398,518.144159,9474.636058
1250.342418,383.047749,370.102971,8956.491898
1250.342737,536.266849,592.164754,9252.574275
1250.343056,383.047749,592.164754,9326.594869
1250.343375,766.095498,222.061783,9252.574275
1250.343694,689.485948,-74.020594,9030.512492
1250.344013,459.657299,370.102971,9178.553681
1250.344331,229.828649,518.144159,9326.594869
1250.344650,383.047749,444.123565,9178.553681
1250.344969,229.828649,148.041188,9326.594869
1250.345288,459.657299,148.041188,9844.739029
1250.345607,459.657299,74.020594,9400.615463
1250.345925,842.705048,518.144159,9400.615463
1250.346244,766.095498,296.082377,9474.636058
1250.346563,766.095498,222.061783,9548.656652
1250.346882,919.314598,-0.000000,9474.636058
1250.347201,842.705048,296.082377,9474.636058
1250.347519,842.705048,222.061783,9400.615463
1250.347838,1225.752797,370.102971,9474.636058
1250.348157,919.314598,444.123565,9400.615463
1250.348476,1302.362347,296.082377,9252.574275
1250.348795,689.485948,148.041188,9474.636058
1250.349113,842.705048,-0.000000,9400.615463
1250.349432,842.705048,296.082377,9474.636058
1250.349751,842.705048,-0.000000,9770.718434
1250.350070,612.876398,-0.000000,9474.636058
1250.350389,689.485948,-0.000000,9548.656652
1250.350708,383.047749,-0.000000,9474.636058
1250.351026,229.828649,-0.000000,9474.636058
1250.351345,229.828649,-0.000000,9474.636058
1250.351664,76.609550,-148.041188,9326.594869
1250.351983,459.657299,-0.000000,9252.574275
1250.352302,76.609550,-0.000000,9178.553681
1250.352620,0.000000,296.082377,9326.594869
1250.352939,76.609550,222.061783,9178.553681
1250.353258,459.657299,148.041188,9252.574275
1250.353577,76.609550,370.102971,9178.553681
1250.353896,153.219100,296.082377,9104.533087
1250.354214,612.876398,296.082377,9400.615463
1250.354533,229.828649,296.082377,9104.533087
1250.354852,459.657299,370.102971,8882.471304
1250.355171,459.657299,296.082377,9104.533087
1250.355490,536.266849,370.102971,9030.512492
1250.355809,459.657299,222.061783,8808.450710
1250.356127,306.438199,444.123565,8956.491898
1250.356446,459.657299,444.123565,8734.430116
1250.356765,383.047749,518.144159,8808.450710
1250.357084,536.266849,592.164754,8956.491898
1250.357403,995.924147,222.061783,8956.491898
1250.357721,306.438199,666.185348,9030.512492
1250.358040,766.095498,666.185348,8734.430116
1250.358359,689.485948,444.123565,9104.533087
1250.358678,689.485948,444.123565,8956.491898
1250.358997,306.438199,370.102971,9104.533087
1250.359315,383.047749,592.164754,9178.553681
1250.359634,383.047749,444.123565,9252.574275
1250.359953,306.438199,444.123565,9030.512492
1250.360272,229.828649,296.082377,9178.553681
1250.360591,459.657299,148.041188,9104.533087
1250.360909,612.876398,370.102971,9178.553681
1250.361228,459.657299,296.082377,9474.636058
1250.361547,459.657299,-0.000000,9474.636058
1250.361866,612.876398,370.102971,9474.636058
1250.362185,766.095498,370.102971,9548.656652
1250.362504,842.705048,370.102971,9252.574275
1250.362822,842.705048,370.102971,9474.636058
1250.363141,842.705048,370.102971,9622.677246
1250.363460,1072.533697,518.144159,9474.636058
1250.363779,1072.533697,444.123565,9474.636058
1250.364098,842.705048,222.061783,9400.615463
1250.364416,1072.533697,-74.020594,9474.636058
1250.364735,1225.752797,-0.000000,9548.656652
1250.365054,766.095498,-0.000000,9474.636058
1250.365373,842.705048,296.082377,9548.656652
1250.365692,383.047749,222.061783,9696.697840
1250.366010,306.438199,-0.000000,9548.656652
1250.366329,536.266849,-0.000000,9622.677246
1250.366648,459.657299,-0.000000,9474.636058
1250.366967,306.438199,-0.000000,9548.656652
1250.367286,0.000000,148.041188,9474.636058
1250.367604,153.219100,296.082377,9400.615463
1250.367923,229.828649,-0.000000,9548.656652
1250.368242,383.047749,444.123565,9326.594869
1250.368561,153.219100,222.061783,9400.615463
1250.368880,229.828649,370.102971,9400.615463
1250.369199,229.828649,296.082377,9252.574275
1250.369517,306.438199,296.082377,9326.594869
1250.369836,459.657299,666.185348,9252.574275
1250.370155,306.438199,370.102971,9252.574275
1250.370474,383.047749,444.123565,9326.594869
1250.370793,459.657299,370.102971,9178.553681
1250.371111,383.047749,222.061783,8956.491898
1250.371430,383.047749,666.185348,8956.491898
1250.371749,229.828649,370.102971,8956.491898
1250.372068,383.047749,666.185348,9030.512492
1250.372387,0.000000,444.123565,9030.512492
1250.372705,536.266849,518.144159,8882.471304
1250.373024,383.047749,592.164754,9030.512492
1250.373343,459.657299,666.185348,8956.491898
1250.373662,919.314598,592.164754,9104.533087
1250.373981,229.828649,518.144159,9474.636058
1250.374299,229.828649,370.102971,9104.533087
1250.374618,459.657299,962.267725,9104.533087
1250.374937,229.828649,666.185348,9104.533087
1250.375256,153.219100,666.185348,9178.553681
1250.375575,229.828649,666.185348,9030.512492
1250.375894,153.219100,740.205942,9030.512492
1250.376212,459.657299,518.144159,9030.512492
1250.376531,229.828649,740.205942,9178.553681
1250.376850,383.047749,592.164754,9400.615463
1250.377169,459.657299,444.123565,9548.656652
1250.377488,459.657299,444.123565,9178.553681
1250.377806,306.438199,222.061783,9400.615463
1250.378125,689.485948,222.061783,9252.574275
1250.378444,1072.533697,296.082377,9178.553681
1250.378763,1072.533697,-0.000000,9178.553681
1250.379082,842.705048,444.123565,9104.533087
1250.379401,842.705048,370.102971,9326.594869
1250.379720,1149.143247,222.061783,9252.574275
1250.380038,919.314598,-0.000000,9474.636058
1250.380357,842.705048,74.020594,9252.574275
1250.380676,766.095498,-0.000000,9474.636058
1250.380995,612.876398,-74.020594,9474.636058
1250.381314,536.266849,-0.000000,9400.615463
1250.381633,459.657299,-0.000000,9622.677246
1250.381952,689.485948,-444.123565,9400.615463
1250.382271,383.047749,-0.000000,9474.636058
1250.382589,306.438199,-0.000000,9474.636058
1250.382908,229.828649,-0.000000,9474.636058
1250.383227,306.438199,-592.164754,9474.636058
1250.383546,306.438199,-0.000000,9474.636058
1250.383865,153.219100,296.082377,9400.615463
1250.384184,229.828649,296.082377,9178.553681
1250.384503,0.000000,296.082377,9104.533087
1250.384821,-229.828649,-0.000000,9178.553681
1250.385140,0.000000,370.102971,9252.574275
1250.385459,76.609550,444.123565,9178.553681
1250.385778,0.000000,444.123565,9178.553681
1250.386097,229.828649,296.082377,9252.574275
1250.386416,229.828649,592.164754,9252.574275
1250.386735,0.000000,444.123565,9178.553681
1250.387054,0.000000,444.123565,8956.491898
1250.387372,229.828649,518.144159,9104.533087
1250.387691,459.657299,592.164754,8956.491898
1250.388010,229.828649,444.123565,9252.574275
1250.388329,306.438199,740.205942,9104.533087
1250.388648,536.266849,592.164754,8882.471304
1250.388967,459.657299,518.144159,9030.512492
1250.389286,1149.143247,444.123565,9474.636058
1250.389605,689.485948,222.061783,9252.574275
1250.389923,383.047749,222.061783,8882.471304
1250.390242,306.438199,740.205942,9326.594869
1250.390561,383.047749,666.185348,8956.491898
1250.390880,306.438199,370.102971,9104.533087
1250.391199,229.828649,592.164754,9326.594869
1250.391518,76.609550,592.164754,9178.553681
1250.391837,229.828649,592.164754,9252.574275
1250.392156,76.609550,370.102971,9252.574275
1250.392474,229.828649,518.144159,9400.615463
1250.392793,153.219100,296.082377,9474.636058
1250.393112,536.266849,666.185348,9326.594869
1250.393431,536.266849,592.164754,9474.636058
1250.393750,459.657299,518.144159,9474.636058
1250.394069,842.705048,444.123565,9474.636058
1250.394388,766.095498,592.164754,9400.615463
1250.394707,766.095498,592.164754,9326.594869
1250.395025,689.485948,592.164754,9178.553681
1250.395344,1302.362347,296.082377,9326.594869
1250.395663,536.266849,518.144159,9252.574275
1250.395982,842.705048,814.226536,9178.553681
1250.396301,689.485948,370.102971,9400.615463
1250.396620,612.876398,370.102971,9252.574275
1250.396939,612.876398,296.082377,9178.553681
1250.397258,153.219100,148.041188,9474.636058
1250.397576,383.047749,222.061783,9474.636058
1250.397895,306.438199,296.082377,9474.636058
1250.398214,383.047749,518.144159,9400.615463
1250.398533,306.438199,148.041188,9400.615463
1250.398852,0.000000,296.082377,9326.594869
1250.399171,229.828649,592.164754,9474.636058
1250.399490,229.828649,370.102971,9252.574275
1250.399809,229.828649,222.061783,9548.656652
1250.400127,306.438199,518.144159,9326.594869
1250.400446,153.219100,370.102971,9400.615463
1250.400765,383.047749,296.082377,9326.594869
1250.401084,306.438199,296.082377,9400.615463
1250.401403,229.828649,370.102971,9474.636058
1250.401722,229.828649,222.061783,9400.615463
1250.402041,383.047749,296.082377,9326.594869
1250.402360,383.047749,370.102971,9326.594869
1250.402678,459.657299,222.061783,9326.594869
1250.402997,459.657299,444.123565,9326.594869
1250.403316,459.657299,148.041188,9326.594869
1250.403635,306.438199,370.102971,9178.553681
1250.403954,229.828649,444.123565,9178.553681
1250.404273,612.876398,518.144159,9326.594869
1250.404592,536.266849,444.123565,9252.574275
1250.404910,306.438199,592.164754,9178.553681
1250.405229,306.438199,592.164754,9030.512492
1250.405548,306.438199,518.144159,9252.574275
1250.405867,153.219100,370.102971,9400.615463
1250.406186,0.000000,296.082377,9178.553681
1250.406505,153.219100,666.185348,9030.512492
1250.406824,229.828649,592.164754,9252.574275
1250.407143,229.828649,518.144159,9104.533087
1250.407461,383.047749,740.205942,9104.533087
1250.407780,76.609550,370.102971,8956.491898
1250.408099,76.609550,444.123565,8882.471304
1250.408418,459.657299,444.123565,9030.512492
1250.408737,612.876398,518.144159,9400.615463
1250.409056,383.047749,444.123565,9474.636058
1250.409375,536.266849,518.144159,9400.615463
1250.409694,689.485948,666.185348,9178.553681
1250.410012,995.924147,518.144159,9326.594869
1250.410331,995.924147,444.123565,9400.615463
1250.410650,1072.533697,370.102971,9474.636058
1250.410969,919.314598,370.102971,9252.574275
1250.411288,995.924147,444.123565,9178.553681
1250.411607,919.314598,296.082377,9104.533087
1250.411926,689.485948,-74.020594,9400.615463
1250.412245,842.705048,518.144159,9474.636058
1250.412563,766.095498,222.061783,9474.636058
1250.412882,536.266849,-74.020594,9548.656652
1250.413201,536.266849,-148.041188,9474.636058
1250.413520,383.047749,-222.061783,9548.656652
1250.413839,306.438199,-0.000000,9548.656652
1250.414158,76.609550,-0.000000,9400.615463
1250.414477,229.828649,-74.020594,9548.656652
1250.414796,229.828649,222.061783,9548.656652
1250.415114,153.219100,-0.000000,9474.636058
1250.415433,0.000000,-74.020594,9326.594869
1250.415752,383.047749,-0.000000,9400.615463
1250.416071,153.219100,-0.000000,9326.594869
1250.416390,0.000000,148.041188,9326.594869
1250.416709,306.438199,-148.041188,9400.615463
1250.417028,76.609550,148.041188,9178.553681
1250.417347,229.828649,370.102971,9252.574275
1250.417665,306.438199,370.102971,9252.574275
1250.417984,153.219100,296.082377,9326.594869
1250.418303,153.219100,-0.000000,9178.553681
1250.418622,229.828649,296.082377,9030.512492
1250.418941,459.657299,592.164754,8882.471304
1250.419260,229.828649,592.164754,9104.533087
1250.419579,1149.143247,518.144159,8956.491898
1250.419898,459.657299,370.102971,8882.471304
1250.420216,612.876398,592.164754,9030.512492
1250.420535,383.047749,370.102971,8956.491898
1250.420854,229.828649,592.164754,9030.512492
1250.421173,766.095498,222.061783,9030.512492
1250.421492,536.266849,444.123565,8808.450710
1250.421811,612.876398,740.205942,8956.491898
1250.422130,536.266849,370.102971,9104.533087
1250.422449,229.828649,592.164754,9030.512492
1250.422767,536.266849,666.185348,9400.615463
1250.423086,153.219100,666.185348,9030.512492
1250.423405,153.219100,518.144159,9178.553681
1250.423724,153.219100,592.164754,9104.533087
1250.424043,612.876398,370.102971,9474.636058
1250.424362,689.485948,444.123565,9326.594869
1250.424681,689.485948,666.185348,9252.574275
1250.424999,536.266849,148.041188,9178.553681
1250.425318,612.876398,370.102971,9252.574275
1250.425637,919.314598,222.061783,9252.574275
1250.425956,766.095498,444.123565,9474.636058
1250.426275,842.705048,592.164754,9252.574275
1250.426594,842.705048,444.123565,9178.553681
1250.426913,766.095498,444.123565,9326.594869
1250.427232,1072.533697,444.123565,9400.615463
1250.427550,689.485948,444.123565,9400.615463
1250.427869,919.314598,592.164754,9326.594869
1250.428188,689.485948,296.082377,9548.656652
1250.428507,1072.533697,74.020594,9696.697840
1250.428826,383.047749,222.061783,9474.636058
1250.429145,306.438199,-0.000000,9548.656652
1250.429464,306.438199,148.041188,9474.636058
1250.429783,229.828649,296.082377,9622.677246
1250.430101,383.047749,-0.000000,9622.677246
1250.430420,229.828649,222.061783,9548.656652
1250.430739,76.609550,222.061783,9548.656652
1250.431058,0.000000,148.041188,9474.636058
1250.431377,229.828649,148.041188,9326.594869
1250.431696,536.266849,666.185348,9622.677246
1250.432015,536.266849,518.144159,9474.636058
1250.432334,459.657299,222.061783,9400.615463
1250.432652,306.438199,296.082377,9400.615463
1250.432971,536.266849,-0.000000,9400.615463
1250.433290,459.657299,296.082377,9326.594869
1250.433609,612.876398,222.061783,9326.594869
1250.433928,612.876398,296.082377,9178.553681
1250.434247,689.485948,222.061783,9178.553681
1250.434566,689.485948,148.041188,9178.553681
1250.434885,1072.533697,222.061783,9030.512492
1250.435203,536.266849,-0.000000,9104.533087
1250.435522,766.095498,296.082377,9030.512492
1250.435841,766.095498,148.041188,9030.512492
1250.436160,459.657299,296.082377,9178.553681
1250.436479,612.876398,222.061783,8956.491898
1250.436798,459.657299,370.102971,9178.553681
1250.437117,459.657299,518.144159,9104.533087
1250.437436,459.657299,370.102971,9030.512492
1250.437754,919.314598,518.144159,9326.594869
1250.438073,689.485948,592.164754,9104.533087
1250.438392,229.828649,444.123565,9178.553681
1250.438711,76.609550,370.102971,8734.430116
1250.439030,229.828649,592.164754,9178.553681
1250.439349,383.047749,370.102971,8734.430116
1250.439668,306.438199,370.102971,9030.512492
1250.439987,76.609550,444.123565,9104.533087
1250.440305,383.047749,222.061783,9252.574275
1250.440624,76.609550,518.144159,9326.594869
1250.440943,689.485948,-0.000000,9548.656652
1250.441262,536.266849,370.102971,9326.594869
1250.441581,153.219100,148.041188,9104.533087
1250.441900,766.095498,592.164754,9326.594869
1250.442219,919.314598,444.123565,9178.553681
1250.442538,842.705048,370.102971,9252.574275
1250.442856,919.314598,222.061783,9104.533087
1250.443175,689.485948,370.102971,9104.533087
1250.443494,919.314598,222.061783,9252.574275
1250.443813,689.485948,296.082377,9178.553681
1250.444132,689.485948,-0.000000,9548.656652
1250.444451,842.705048,296.082377,9474.636058
1250.444770,306.438199,222.061783,9548.656652
1250.445088,536.266849,-0.000000,9622.677246
1250.445407,536.266849,-370.102971,9548.656652
1250.445726,536.266849,-0.000000,9548.656652
1250.446045,459.657299,-0.000000,9548.656652
1250.446364,459.657299,-0.000000,9622.677246
1250.446683,383.047749,-0.000000,9474.636058
1250.447002,766.095498,222.061783,9252.574275
1250.447321,689.485948,444.123565,9474.636058
1250.447639,459.657299,148.041188,9548.656652
1250.447958,766.095498,-0.000000,9252.574275
1250.448277,459.657299,222.061783,9400.615463
1250.448596,536.266849,370.102971,9474.636058
1250.448915,766.095498,370.102971,9252.574275
1250.449234,612.876398,444.123565,9400.615463
1250.449553,612.876398,518.144159,9400.615463
1250.449872,612.876398,666.185348,9622.677246
1250.450190,689.485948,592.164754,9326.594869
1250.450509,306.438199,444.123565,9030.512492
1250.450828,229.828649,518.144159,9252.574275
1250.451147,153.219100,444.123565,9104.533087
1250.451466,459.657299,444.123565,8956.491898
1250.451785,383.047749,666.185348,9104.533087
1250.452104,536.266849,666.185348,9104.533087
1250.452423,383.047749,444.123565,9030.512492
1250.452741,76.609550,222.061783,8956.491898
1250.453060,306.438199,444.123565,9178.553681
1250.453379,153.219100,814.226536,9030.512492
1250.453698,153.219100,592.164754,9252.574275
1250.454017,306.438199,592.164754,9030.512492
1250.454336,306.438199,-0.000000,9252.574275
1250.454655,229.828649,666.185348,9326.594869
1250.454974,0.000000,444.123565,9104.533087
1250.455292,153.219100,370.102971,9252.574275
1250.455611,383.047749,444.123565,9104.533087
1250.455930,306.438199,444.123565,9030.512492
1250.456249,459.657299,370.102971,9178.553681
1250.456568,383.047749,370.102971,9178.553681
1250.456887,536.266849,444.123565,9178.553681
1250.457206,536.266849,370.102971,9178.553681
1250.457525,842.705048,444.123565,9252.574275
1250.457843,1072.533697,222.061783,9178.553681
1250.458162,1072.533697,444.123565,9104.533087
1250.458481,842.705048,296.082377,8882.471304
1250.458800,689.485948,-0.000000,9030.512492
1250.459119,766.095498,296.082377,9178.553681
1250.459438,689.485948,148.041188,9252.574275
1250.459757,536.266849,-0.000000,9474.636058
1250.460076,153.219100,-0.000000,9474.636058
1250.460394,306.438199,148.041188,9548.656652
1250.460713,153.219100,-222.061783,9326.594869
1250.461032,383.047749,-0.000000,9326.594869
1250.461351,0.000000,148.041188,9622.677246
1250.461670,0.000000,-0.000000,9400.615463
1250.461989,0.000000,-0.000000,9400.615463
1250.462308,0.000000,222.061783,9474.636058
1250.462627,153.219100,222.061783,9178.553681
1250.462945,153.219100,370.102971,9178.553681
1250.463264,153.219100,-0.000000,9400.615463
1250.463583,0.000000,-0.000000,8956.491898
1250.463902,306.438199,222.061783,9326.594869
1250.464221,76.609550,370.102971,9474.636058
1250.464540,153.219100,370.102971,9252.574275
1250.464859,383.047749,370.102971,9474.636058
1250.465177,153.219100,518.144159,9474.636058
1250.465496,306.438199,518.144159,9252.574275
1250.465815,459.657299,518.144159,9104.533087
1250.466134,459.657299,518.144159,9030.512492
1250.466453,1378.971896,444.123565,9030.512492
1250.466772,689.485948,518.144159,8882.471304
1250.467091,229.828649,296.082377,8956.491898
1250.467410,383.047749,518.144159,9104.533087
1250.467728,459.657299,592.164754,9030.512492
1250.468047,842.705048,592.164754,8808.450710
1250.468366,536.266849,666.185348,9178.553681
1250.468685,459.657299,740.205942,9104.533087
1250.469004,536.266849,666.185348,9104.533087
1250.469323,383.047749,888.247130,8956.491898
1250.469642,689.485948,296.082377,9474.636058
1250.469961,306.438199,666.185348,9104.533087
1250.470279,383.047749,592.164754,9252.574275
1250.470598,459.657299,592.164754,9178.553681
1250.470917,766.095498,592.164754,9178.553681
1250.471236,459.657299,592.164754,9400.615463
1250.471555,536.266849,666.185348,9178.553681
1250.471874,459.657299,444.123565,9326.594869
1250.472193,842.705048,370.102971,9474.636058
1250.472512,766.095498,222.061783,9104.533087
1250.472830,842.705048,370.102971,9178.553681
1250.473149,689.485948,444.123565,9400.615463
1250.473468,689.485948,222.061783,9178.553681
1250.473787,842.705048,222.061783,9400.615463
1250.474106,1072.533697,148.041188,9696.697840
1250.474425,1149.143247,370.102971,9178.553681
1250.474744,689.485948,370.102971,9252.574275
1250.475063,383.047749,296.082377,9474.636058
1250.475381,1225.752797,-0.000000,9400.615463
1250.475700,1072.533697,-0.000000,9326.594869
1250.476019,459.657299,-148.041188,9400.615463
1250.476338,306.438199,-0.000000,9548.656652
1250.476657,153.219100,-0.000000,9474.636058
1250.476976,153.219100,-0.000000,9548.656652
1250.477295,153.219100,222.061783,9400.615463
1250.477614,153.219100,-0.000000,9474.636058
1250.477932,229.828649,148.041188,9400.615463
1250.478251,76.609550,-0.000000,9474.636058
1250.478570,76.609550,148.041188,9400.615463
1250.478889,306.438199,518.144159,9474.636058
1250.479208,0.000000,370.102971,9400.615463
1250.479527,76.609550,148.041188,9178.553681
1250.479846,306.438199,444.123565,9474.636058
1250.480165,689.485948,-0.000000,9326.594869
1250.480483,153.219100,222.061783,9104.533087
1250.480802,689.485948,444.123565,9104.533087
1250.481121,229.828649,518.144159,9104.533087
1250.481440,459.657299,518.144159,9178.553681
1250.481759,0.000000,740.205942,9474.636058
1250.482078,383.047749,444.123565,9252.574275
1250.482397,306.438199,592.164754,9030.512492
1250.482716,229.828649,444.123565,9326.594869
1250.483035,842.705048,518.144159,9104.533087
1250.483354,536.266849,518.144159,9030.512492
1250.483673,612.876398,666.185348,9104.533087
1250.483992,383.047749,814.226536,9030.512492
1250.484311,306.438199,592.164754,9030.512492
1250.484630,229.828649,444.123565,9326.594869
1250.484949,383.047749,518.144159,9104.533087
1250.485268,383.047749,592.164754,9326.594869
1250.485587,536.266849,592.164754,9178.553681
1250.485906,383.047749,296.082377,9030.512492
1250.486225,153.219100,592.164754,9104.533087
1250.486544,383.047749,666.185348,9326.594869
1250.486863,383.047749,518.144159,8956.491898
1250.487181,153.219100,444.123565,9252.574275
1250.487500,76.609550,666.185348,9474.636058
1250.487819,383.047749,666.185348,9474.636058
1250.488138,536.266849,518.144159,9474.636058
1250.488457,689.485948,444.123565,9326.594869
1250.488776,536.266849,296.082377,9474.636058
1250.489095,689.485948,518.144159,9326.594869
1250.489414,612.876398,444.123565,9400.615463
1250.489733,766.095498,370.102971,9400.615463
1250.490052,689.485948,296.082377,9252.574275
1250.490371,536.266849,222.061783,9400.615463
1250.490690,766.095498,296.082377,9474.636058
1250.491009,229.828649,370.102971,9474.636058
1250.491328,306.438199,-0.000000,9474.636058
1250.491647,459.657299,-0.000000,9474.636058
1250.491966,612.876398,-222.061783,9474.636058
1250.492285,459.657299,-74.020594,9696.697840
1250.492604,536.266849,-0.000000,9474.636058
1250.492923,306.438199,222.061783,9474.636058
1250.493242,306.438199,222.061783,9326.594869
1250.493561,689.485948,592.164754,9474.636058
1250.493880,153.219100,296.082377,9326.594869
1250.494199,383.047749,222.061783,9474.636058
1250.494517,229.828649,148.041188,9474.636058
1250.494836,306.438199,592.164754,9252.574275
1250.495155,-229.828649,518.144159,9030.512492
1250.495474,459.657299,222.061783,9474.636058
1250.495793,383.047749,-0.000000,9474.636058
1250.496112,689.485948,-74.020594,9400.615463
1250.496431,306.438199,296.082377,9326.594869
1250.496750,842.705048,-0.000000,9104.533087
1250.497069,842.705048,666.185348,8808.450710
1250.497388,842.705048,370.102971,8956.491898
1250.497707,536.266849,370.102971,9104.533087
1250.498026,842.705048,370.102971,8734.430116
1250.498345,919.314598,814.226536,8956.491898
1250.498664,306.438199,666.185348,8660.409521
1250.498983,612.876398,888.247130,9178.553681
1250.499302,76.609550,518.144159,9252.574275
1250.499621,0.000000,296.082377,9252.574275
1250.499940,0.000000,370.102971,9326.594869
1250.500259,0.000000,592.164754,8956.491898
1250.500578,76.609550,814.226536,8882.471304
1250.500897,0.000000,740.205942,8882.471304
1250.501216,76.609550,740.205942,9400.615463
1250.501534,0.000000,740.205942,9178.553681
1250.501853,0.000000,814.226536,9104.533087
1250.502172,229.828649,740.205942,9104.533087
1250.502491,383.047749,814.226536,9178.553681
1250.502810,153.219100,740.205942,9252.574275
1250.503129,229.828649,370.102971,9326.594869
1250.503448,612.876398,296.082377,9326.594869
1250.503767,612.876398,740.205942,9474.636058
1250.504086,1072.533697,740.205942,9178.553681
1250.504405,995.924147,370.102971,9326.594869
1250.504724,842.705048,518.144159,9326.594869
1250.505043,919.314598,444.123565,9474.636058
1250.505362,1149.143247,444.123565,9400.615463
1250.505681,1225.752797,444.123565,9104.533087
1250.506000,919.314598,518.144159,9474.636058
1250.506319,1149.143247,222.061783,9400.615463
1250.506638,766.095498,-0.000000,9474.636058
1250.506957,766.095498,148.041188,9548.656652
1250.507276,689.485948,-0.000000,9622.677246
1250.507595,919.314598,-222.061783,9474.636058
1250.507914,612.876398,-0.000000,9622.677246
1250.508233,995.924147,-0.000000,9474.636058
1250.508552,536.266849,-0.000000,9770.718434
1250.508870,689.485948,74.020594,9474.636058
1250.509189,612.876398,-0.000000,9400.615463
1250.509508,383.047749,222.061783,9252.574275
1250.509827,383.047749,-0.000000,9326.594869
1250.510146,383.047749,-0.000000,9252.574275
1250.510465,536.266849,-148.041188,9326.594869
1250.510784,459.657299,222.061783,9104.533087
1250.511103,383.047749,-0.000000,9548.656652
1250.511422,306.438199,-0.000000,9326.594869
1250.511741,459.657299,-0.000000,9326.594869
1250.512060,689.485948,-74.020594,9400.615463
1250.512379,306.438199,148.041188,9030.512492
1250.512698,383.047749,592.164754,9104.533087
1250.513017,459.657299,444.123565,8808.450710
1250.513336,383.047749,296.082377,8808.450710
1250.513655,383.047749,222.061783,8882.471304
1250.513974,153.219100,518.144159,8956.491898
1250.514293,459.657299,666.185348,8734.430116
1250.514612,306.438199,518.144159,8808.450710
1250.514931,153.219100,370.102971,9030.512492
1250.515250,306.438199,444.123565,9030.512492
1250.515569,306.438199,370.102971,9252.574275
1250.515888,76.609550,518.144159,9104.533087
1250.516206,0.000000,592.164754,8956.491898
1250.516525,306.438199,518.144159,9030.512492
1250.516844,536.266849,740.205942,9252.574275
1250.517163,459.657299,222.061783,9030.512492
1250.517482,536.266849,592.164754,9030.512492
1250.517801,76.609550,666.185348,9178.553681
1250.518120,536.266849,592.164754,9104.533087
1250.518439,459.657299,518.144159,9104.533087
1250.518758,842.705048,444.123565,9252.574275
1250.519077,766.095498,370.102971,9474.636058
1250.519396,536.266849,296.082377,9252.574275
1250.519715,842.705048,296.082377,9400.615463
1250.520034,919.314598,370.102971,9400.615463
1250.520353,919.314598,444.123565,9252.574275
1250.520672,842.705048,370.102971,9400.615463
1250.520991,1225.752797,296.082377,9548.656652
1250.521310,689.485948,296.082377,9548.656652
1250.521629,995.924147,296.082377,9252.574275
1250.521948,995.924147,296.082377,9400.615463
1250.522267,612.876398,-0.000000,9844.739029
1250.522586,536.266849,222.061783,9622.677246
1250.522905,459.657299,296.082377,9548.656652
1250.523224,612.876398,370.102971,9474.636058
1250.523542,536.266849,222.061783,9474.636058
1250.523861,306.438199,-0.000000,9252.574275
1250.524180,612.876398,296.082377,9474.636058
1250.524499,0.000000,-74.020594,9622.677246
1250.524818,0.000000,148.041188,9548.656652
1250.525137,76.609550,222.061783,9474.636058
1250.525456,459.657299,296.082377,9844.739029
1250.525775,0.000000,296.082377,9474.636058
1250.526094,76.609550,296.082377,9474.636058
1250.526413,76.609550,148.041188,9326.594869
1250.526732,153.219100,222.061783,9474.636058
1250.527051,306.438199,370.102971,9548.656652
1250.527370,0.000000,222.061783,9252.574275
1250.527689,229.828649,518.144159,9474.636058
1250.528008,306.438199,444.123565,9326.594869
1250.528327,459.657299,370.102971,9326.594869
1250.528646,536.266849,296.082377,9326.594869
1250.528965,306.438199,296.082377,9252.574275
1250.529284,459.657299,444.123565,9104.533087
1250.529603,306.438199,592.164754,9178.553681
1250.529922,459.657299,-0.000000,9104.533087
1250.530241,76.609550,148.041188,9474.636058
1250.530559,306.438199,518.144159,9400.615463
1250.530878,612.876398,518.144159,8882.471304
1250.531197,459.657299,518.144159,9030.512492
1250.531516,306.438199,222.061783,9104.533087
1250.531835,536.266849,666.185348,9104.533087
1250.532154,383.047749,740.205942,9030.512492
1250.532473,459.657299,592.164754,8882.471304
1250.532792,459.657299,666.185348,8956.491898
1250.533111,383.047749,666.185348,9030.512492
1250.533430,383.047749,444.123565,8956.491898
1250.533749,689.485948,592.164754,8882.471304
1250.534068,689.485948,592.164754,8956.491898
1250.534387,383.047749,592.164754,9104.533087
1250.534706,536.266849,296.082377,9104.533087
1250.535025,536.266849,370.102971,9104.533087
1250.535344,459.657299,444.123565,9326.594869
1250.535663,842.705048,444.123565,9178.553681
1250.535982,995.924147,-0.000000,9030.512492
1250.536301,995.924147,518.144159,9474.636058
1250.536620,1149.143247,444.123565,9178.553681
1250.536939,919.314598,148.041188,9252.574275
1250.537258,995.924147,370.102971,9252.574275
1250.537577,1225.752797,-0.000000,9178.553681
1250.537895,919.314598,-0.000000,9548.656652
1250.538214,766.095498,-0.000000,9474.636058
1250.538533,612.876398,-0.000000,9474.636058
1250.538852,536.266849,-0.000000,9326.594869
1250.539171,766.095498,222.061783,9474.636058
1250.539490,153.219100,222.061783,9770.718434
1250.539809,459.657299,370.102971,9474.636058
1250.540128,306.438199,-148.041188,9548.656652
1250.540447,76.609550,-0.000000,9844.739029
1250.540766,0.000000,-0.000000,9696.697840
1250.541085,229.828649,-0.000000,9474.636058
1250.541404,459.657299,-0.000000,9474.636058
1250.541723,229.828649,-0.000000,9474.636058
1250.542042,536.266849,370.102971,9400.615463
1250.542361,306.438199,444.123565,9474.636058
1250.542680,383.047749,444.123565,9400.615463
1250.542999,383.047749,518.144159,8882.471304
1250.543318,229.828649,148.041188,9104.533087
1250.543637,0.000000,518.144159,9178.553681
1250.543956,153.219100,444.123565,9104.533087
1250.544275,383.047749,370.102971,8956.491898
1250.544594,229.828649,518.144159,9252.574275
1250.544913,383.047749,518.144159,9252.574275
1250.545231,383.047749,518.144159,9104.533087
1250.545550,306.438199,444.123565,8956.491898
1250.545869,689.485948,814.226536,9030.512492
1250.546188,306.438199,740.205942,9178.553681
1250.546507,536.266849,666.185348,9104.533087
1250.546826,383.047749,666.185348,8956.491898
1250.547145,306.438199,888.247130,8956.491898
1250.547464,383.047749,666.185348,8956.491898
1250.547783,383.047749,666.185348,9104.533087
1250.548102,306.438199,444.123565,9030.512492
1250.548421,612.876398,666.185348,9178.553681
1250.548740,536.266849,592.164754,9178.553681
1250.549059,306.438199,592.164754,9178.553681
1250.549378,306.438199,370.102971,9252.574275
1250.549697,459.657299,444.123565,9918.759623
1250.550016,0.000000,296.082377,9400.615463
1250.550335,459.657299,222.061783,9326.594869
1250.550654,383.047749,296.082377,9252.574275
1250.550973,766.095498,592.164754,9474.636058
1250.551292,536.266849,518.144159,9474.636058
1250.551611,689.485948,370.102971,9252.574275
1250.551930,612.876398,370.102971,9474.636058
1250.552249,919.314598,296.082377,9326.594869
1250.552567,536.266849,-74.020594,9326.594869
1250.552886,919.314598,370.102971,9104.533087
1250.553205,459.657299,296.082377,9474.636058
1250.553524,536.266849,222.061783,9326.594869
1250.553843,536.266849,296.082377,9400.615463
1250.554162,612.876398,-148.041188,9770.718434
1250.554481,383.047749,222.061783,9474.636058
1250.554800,306.438199,-0.000000,9400.615463
1250.555119,76.609550,-0.000000,9474.636058
1250.555438,612.876398,148.041188,9474.636058
1250.555757,306.438199,-0.000000,9400.615463
1250.556076,153.219100,370.102971,9400.615463
1250.556395,0.000000,296.082377,9548.656652
1250.556714,0.000000,296.082377,9400.615463
1250.557033,306.438199,444.123565,9400.615463
1250.557352,153.219100,444.123565,9696.697840
1250.557671,306.438199,222.061783,9474.636058
1250.557990,229.828649,222.061783,9400.615463
1250.558309,383.047749,296.082377,9326.594869
1250.558628,229.828649,-0.000000,9400.615463
1250.558947,383.047749,296.082377,9770.718434
1250.559266,306.438199,370.102971,9474.636058
1250.559584,229.828649,370.102971,9400.615463
1250.559903,689.485948,370.102971,9030.512492
1250.560222,919.314598,-0.000000,9178.553681
1250.560541,842.705048,518.144159,9104.533087
1250.560860,612.876398,222.061783,9030.512492
1250.561179,459.657299,148.041188,9178.553681
1250.561498,459.657299,222.061783,8956.491898
1250.561817,306.438199,370.102971,9104.533087
1250.562136,383.047749,518.144159,8956.491898
1250.562455,459.657299,518.144159,8956.491898
1250.562774,459.657299,518.144159,9104.533087
1250.563093,383.047749,518.144159,8956.491898
1250.563412,153.219100,296.082377,8956.491898
1250.563731,229.828649,666.185348,9030.512492
1250.564050,229.828649,592.164754,8882.471304
1250.564369,229.828649,666.185348,8956.491898
1250.564688,229.828649,518.144159,9030.512492
1250.565007,-153.219100,-0.000000,9178.553681
1250.565326,0.000000,592.164754,9252.574275
1250.565645,153.219100,518.144159,8956.491898
1250.565964,153.219100,592.164754,9326.594869
1250.566283,0.000000,370.102971,9400.615463
1250.566602,383.047749,740.205942,9252.574275
1250.566920,689.485948,518.144159,9326.594869
1250.567239,612.876398,592.164754,9252.574275
1250.567558,689.485948,740.205942,9178.553681
1250.567877,536.266849,592.164754,9104.533087
1250.568196,842.705048,370.102971,8956.491898
1250.568515,995.924147,666.185348,9326.594869
1250.568834,1072.533697,370.102971,9252.574275
1250.569153,689.485948,370.102971,9400.615463
1250.569472,689.485948,-74.020594,9104.533087
1250.569791,612.876398,148.041188,9400.615463
1250.570110,689.485948,-0.000000,9474.636058
1250.570429,536.266849,148.041188,9474.636058
1250.570748,76.609550,-0.000000,9770.718434
1250.571067,229.828649,-0.000000,9770.718434
1250.571386,536.266849,222.061783,9770.718434
1250.571705,0.000000,-0.000000,9622.677246
1250.572024,229.828649,148.041188,9548.656652
1250.572343,919.314598,-0.000000,9548.656652
1250.572662,306.438199,148.041188,9548.656652
1250.572981,306.438199,296.082377,9548.656652
1250.573300,306.438199,370.102971,9474.636058
1250.573619,459.657299,222.061783,9326.594869
1250.573938,383.047749,370.102971,9474.636058
1250.574256,536.266849,296.082377,9400.615463
1250.574575,306.438199,518.144159,9326.594869
1250.574894,459.657299,370.102971,9326.594869
1250.575213,612.876398,-0.000000,9474.636058
1250.575532,459.657299,222.061783,9178.553681
1250.575851,306.438199,370.102971,9104.533087
1250.576170,383.047749,444.123565,9252.574275
1250.576489,459.657299,370.102971,9104.533087
1250.576808,459.657299,370.102971,9178.553681
1250.577127,383.047749,444.123565,9030.512492
1250.577446,536.266849,444.123565,8882.471304
1250.577765,459.657299,518.144159,8956.491898
1250.578084,459.657299,444.123565,9030.512492
1250.578403,689.485948,222.061783,8882.471304
1250.578722,536.266849,444.123565,9178.553681
1250.579041,76.609550,74.020594,8882.471304
1250.579360,306.438199,444.123565,8882.471304
1250.579679,306.438199,518.144159,8956.491898
1250.579997,153.219100,444.123565,8882.471304
1250.580316,306.438199,370.102971,8882.471304
1250.580635,229.828649,370.102971,8882.471304
1250.580954,383.047749,370.102971,8956.491898
1250.581273,612.876398,-0.000000,8882.471304
1250.581592,689.485948,370.102971,9030.512492
1250.581910,842.705048,444.123565,9178.553681
1250.582229,612.876398,444.123565,9326.594869
1250.582548,919.314598,370.102971,9326.594869
1250.582867,459.657299,296.082377,9400.615463
1250.583186,766.095498,370.102971,9178.553681
1250.583504,536.266849,518.144159,9178.553681
1250.583823,689.485948,370.102971,9400.615463
1250.584142,766.095498,370.102971,9104.533087
1250.584461,689.485948,-0.000000,9104.533087
1250.584780,995.924147,370.102971,9326.594869
1250.585099,383.047749,-0.000000,9474.636058
1250.585417,459.657299,148.041188,9474.636058
1250.585736,536.266849,-0.000000,9474.636058
1250.586055,995.924147,-148.041188,9178.553681
1250.586374,689.485948,-0.000000,9252.574275
1250.586693,689.485948,-0.000000,9474.636058
1250.587012,459.657299,222.061783,9400.615463
1250.587330,153.219100,-0.000000,9622.677246
1250.587649,536.266849,-0.000000,9252.574275
1250.587968,76.609550,222.061783,9474.636058
1250.588287,536.266849,296.082377,9252.574275
1250.588606,229.828649,148.041188,9474.636058
1250.588924,306.438199,370.102971,9548.656652
1250.589243,0.000000,444.123565,9474.636058
1250.589562,0.000000,666.185348,9622.677246
1250.589881,76.609550,370.102971,9622.677246
1250.590200,0.000000,296.082377,9474.636058
1250.590519,153.219100,518.144159,9474.636058
1250.590837,153.219100,148.041188,9326.594869
1250.591156,459.657299,518.144159,9400.615463
1250.591475,306.438199,296.082377,9178.553681
1250.591794,536.266849,592.164754,9178.553681
1250.592113,229.828649,962.267725,9178.553681
1250.592432,612.876398,666.185348,8956.491898
1250.592750,612.876398,592.164754,9030.512492
1250.593069,689.485948,444.123565,8956.491898
1250.593388,536.266849,222.061783,9178.553681
1250.593707,536.266849,592.164754,9030.512492
1250.594026,536.266849,740.205942,9104.533087
1250.594344,306.438199,-0.000000,9326.594869
1250.594663,229.828649,592.164754,9400.615463
1250.594982,0.000000,444.123565,9326.594869
1250.595301,229.828649,444.123565,9104.533087
1250.595620,306.438199,518.144159,9326.594869
1250.595939,229.828649,740.205942,9326.594869
1250.596257,459.657299,592.164754,9400.615463
1250.596576,459.657299,592.164754,9252.574275
1250.596895,766.095498,666.185348,9178.553681
1250.597214,689.485948,222.061783,9104.533087
1250.597533,1072.533697,444.123565,9400.615463
1250.597852,842.705048,148.041188,9474.636058
1250.598170,612.876398,666.185348,9548.656652
1250.598489,1225.752797,222.061783,9252.574275
1250.598808,995.924147,148.041188,9326.594869
1250.599127,1072.533697,222.061783,9252.574275
1250.599446,995.924147,444.123565,9252.574275
1250.599764,1149.143247,222.061783,9400.615463
1250.600083,1072.533697,444.123565,9326.594869
1250.600402,689.485948,-0.000000,9474.636058
1250.600721,766.095498,-0.000000,9252.574275
1250.601040,842.705048,296.082377,9030.512492
1250.601359,612.876398,222.061783,9400.615463
1250.601677,612.876398,-0.000000,9178.553681
1250.601996,536.266849,148.041188,9252.574275
1250.602315,306.438199,-0.000000,9400.615463
1250.602634,229.828649,-0.000000,9400.615463
1250.602953,306.438199,-0.000000,9400.615463
1250.603272,383.047749,296.082377,9252.574275
1250.603590,153.219100,444.123565,9178.553681
1250.603909,306.438199,222.061783,9400.615463
1250.604228,0.000000,444.123565,9252.574275
1250.604547,0.000000,370.102971,8956.491898
1250.604866,229.828649,592.164754,9104.533087
1250.605184,0.000000,296.082377,8956.491898
1250.605503,76.609550,444.123565,9252.574275
1250.605822,0.000000,518.144159,9030.512492
1250.606141,0.000000,518.144159,9178.553681
1250.606460,229.828649,370.102971,9104.533087
1250.606779,536.266849,370.102971,9252.574275
1250.607097,536.266849,296.082377,8808.450710
1250.607416,459.657299,740.205942,8882.471304
1250.607735,383.047749,666.185348,8882.471304
1250.608054,383.047749,518.144159,9030.512492
1250.608373,536.266849,888.247130,9104.533087
1250.608692,612.876398,666.185348,9178.553681
1250.609010,612.876398,444.123565,9326.594869
1250.609329,612.876398,444.123565,9326.594869
1250.609648,536.266849,444.123565,9400.615463
1250.609967,919.314598,370.102971,9548.656652
1250.610286,919.314598,592.164754,9400.615463
1250.610604,459.657299,370.102971,9474.636058
1250.610923,612.876398,370.102971,9326.594869
1250.611242,766.095498,444.123565,9400.615463
1250.611561,995.924147,518.144159,9326.594869
1250.611880,689.485948,296.082377,9400.615463
1250.612199,536.266849,296.082377,9474.636058
1250.612517,383.047749,370.102971,9474.636058
1250.612836,536.266849,-0.000000,9622.677246
1250.613155,919.314598,148.041188,9622.677246
1250.613474,842.705048,222.061783,9474.636058
1250.613793,536.266849,74.020594,9622.677246
1250.614112,766.095498,296.082377,9474.636058
1250.614430,995.924147,148.041188,9548.656652
1250.614749,1302.362347,148.041188,9474.636058
1250.615068,919.314598,296.082377,9252.574275
1250.615387,919.314598,148.041188,9400.615463
1250.615706,1149.143247,148.041188,9474.636058
1250.616024,842.705048,-0.000000,9252.574275
1250.616343,612.876398,-222.061783,9474.636058
1250.616662,689.485948,222.061783,9474.636058
1250.616981,612.876398,-0.000000,9326.594869
1250.617300,612.876398,-74.020594,9252.574275
1250.617619,842.705048,-148.041188,9400.615463
1250.617937,229.828649,-74.020594,9400.615463
1250.618256,306.438199,444.123565,9178.553681
1250.618575,0.000000,-74.020594,9252.574275
1250.618894,76.609550,-0.000000,9252.574275
1250.619213,0.000000,-0.000000,9178.553681
1250.619532,-306.438199,666.185348,8956.491898
1250.619850,306.438199,-0.000000,9178.553681
1250.620169,153.219100,-0.000000,9104.533087
1250.620488,0.000000,222.061783,9622.677246
1250.620807,0.000000,-74.020594,8808.450710
1250.621126,0.000000,592.164754,9252.574275
1250.621444,76.609550,444.123565,9104.533087
1250.621763,383.047749,296.082377,9178.553681
1250.622082,0.000000,370.102971,8882.471304
1250.622401,536.266849,-0.000000,9178.553681
1250.622720,459.657299,518.144159,9030.512492
1250.623039,0.000000,222.061783,8956.491898
1250.623357,229.828649,444.123565,9030.512492
1250.623676,612.876398,518.144159,9252.574275
1250.623995,153.219100,592.164754,9030.512492
1250.624314,536.266849,370.102971,9030.512492
1250.624633,459.657299,518.144159,9104.533087
1250.624952,689.485948,592.164754,9252.574275
1250.625270,766.095498,740.205942,9030.512492
1250.625589,995.924147,814.226536,8956.491898
1250.625908,689.485948,814.226536,9326.594869
1250.626227,689.485948,888.247130,9104.533087
1250.626546,612.876398,1036.288319,9104.533087
1250.626864,1532.190996,962.267725,9474.636058
1250.627183,536.266849,1332.370696,9178.553681
1250.627502,689.485948,1110.308913,9030.512492
1250.627821,766.095498,962.267725,9252.574275
1250.628140,766.095498,666.185348,9400.615463
1250.628459,153.219100,444.123565,9770.718434
1250.628777,459.657299,740.205942,9474.636058
1250.629096,153.219100,740.205942,9622.677246
1250.629415,229.828649,518.144159,9770.718434
1250.629734,459.657299,222.061783,9622.677246
1250.630053,689.485948,370.102971,9770.718434
1250.630372,383.047749,370.102971,9400.615463
1250.630690,612.876398,592.164754,9178.553681
1250.631009,689.485948,296.082377,9400.615463
1250.631328,689.485948,444.123565,9696.697840
1250.631647,383.047749,444.123565,9104.533087
1250.631966,536.266849,370.102971,9474.636058
1250.632284,229.828649,-0.000000,9548.656652
1250.632603,459.657299,-296.082377,9474.636058
1250.632922,76.609550,-0.000000,9474.636058
1250.633241,153.219100,-0.000000,9918.759623
1250.633560,306.438199,-0.000000,9474.636058
1250.633879,153.219100,-0.000000,9548.656652
1250.634197,383.047749,-0.000000,9622.677246
1250.634516,0.000000,-0.000000,9696.697840
1250.634835,229.828649,148.041188,9326.594869
1250.635154,383.047749,296.082377,9252.574275
1250.635473,689.485948,222.061783,9178.553681
1250.635792,383.047749,-0.000000,9400.615463
1250.636110,229.828649,148.041188,8956.491898
1250.636429,612.876398,-0.000000,9030.512492
1250.636748,536.266849,222.061783,9030.512492
1250.637067,1072.533697,296.082377,9178.553681
1250.637386,766.095498,-0.000000,9030.512492
1250.637704,612.876398,-0.000000,9178.553681
1250.638023,536.266849,148.041188,9252.574275
1250.638342,383.047749,-0.000000,9252.574275
1250.638661,536.266849,148.041188,9104.533087
1250.638980,536.266849,518.144159,9178.553681
1250.639299,612.876398,296.082377,8808.450710
1250.639617,383.047749,370.102971,8882.471304
1250.639936,536.266849,296.082377,8882.471304
1250.640255,842.705048,-74.020594,8660.409521
1250.640574,459.657299,-0.000000,8808.450710
1250.640893,383.047749,296.082377,8734.430116
1250.641212,459.657299,518.144159,8956.491898
1250.641530,76.609550,222.061783,8882.471304
1250.641849,536.266849,148.041188,9104.533087
1250.642168,0.000000,-0.000000,9030.512492
1250.642487,0.000000,296.082377,8956.491898
1250.642806,229.828649,666.185348,9030.512492
1250.643124,76.609550,444.123565,9104.533087
1250.643443,0.000000,-0.000000,8882.471304
1250.643762,0.000000,296.082377,9178.553681
1250.644081,0.000000,222.061783,9326.594869
1250.644400,76.609550,518.144159,9178.553681
1250.644719,459.657299,518.144159,9326.594869
1250.645037,1149.143247,518.144159,9326.594869
1250.645356,536.266849,518.144159,9178.553681
1250.645675,459.657299,370.102971,9326.594869
1250.645994,766.095498,740.205942,9252.574275
1250.646313,689.485948,444.123565,8956.491898
1250.646632,919.314598,518.144159,9548.656652
1250.646950,766.095498,518.144159,9030.512492
1250.647269,995.924147,444.123565,9400.615463
1250.647588,689.485948,444.123565,9474.636058
1250.647907,842.705048,222.061783,9474.636058
1250.648226,1302.362347,-0.000000,9474.636058
1250.648544,766.095498,444.123565,9474.636058
1250.648863,766.095498,-0.000000,9474.636058
1250.649182,842.705048,-0.000000,9548.656652
1250.649501,766.095498,-0.000000,9548.656652
1250.649820,919.314598,-0.000000,9474.636058
1250.650139,766.095498,444.123565,9474.636058
1250.650457,842.705048,444.123565,9474.636058
1250.650776,612.876398,222.061783,9474.636058
1250.651095,536.266849,222.061783,9104.533087
1250.651414,612.876398,222.061783,9400.615463
1250.651733,536.266849,-74.020594,9548.656652
1250.652052,153.219100,666.185348,9252.574275
1250.652370,306.438199,592.164754,9474.636058
1250.652689,459.657299,444.123565,9104.533087
1250.653008,0.000000,962.267725,9400.615463
1250.653327,0.000000,592.164754,9252.574275
1250.653646,0.000000,740.205942,9400.615463
1250.653964,-459.657299,444.123565,9474.636058
1250.654283,383.047749,666.185348,9400.615463
1250.654602,383.047749,740.205942,9326.594869
1250.654921,153.219100,888.247130,9474.636058
1250.655240,229.828649,740.205942,8956.491898
1250.655559,-229.828649,1036.288319,8734.430116
1250.655877,229.828649,814.226536,8956.491898
1250.656196,0.000000,1184.329507,8512.368333
1250.656515,76.609550,814.226536,9104.533087
1250.656834,-229.828649,888.247130,9030.512492
1250.657153,0.000000,888.247130,8956.491898
1250.657472,0.000000,888.247130,9178.553681
1250.657790,0.000000,444.123565,9622.677246
1250.658109,76.609550,296.082377,9104.533087
1250.658428,0.000000,592.164754,9400.615463
1250.658747,153.219100,666.185348,9474.636058
1250.659066,0.000000,592.164754,9252.574275
1250.659384,229.828649,666.185348,9104.533087
1250.659703,76.609550,592.164754,9326.594869
1250.660022,766.095498,370.102971,9400.615463
1250.660341,459.657299,222.061783,8808.450710
1250.660660,612.876398,444.123565,9400.615463
1250.660979,995.924147,444.123565,9474.636058
1250.661297,842.705048,518.144159,9178.553681
1250.661616,306.438199,-0.000000,9400.615463
1250.661935,766.095498,-0.000000,9622.677246
1250.662254,1072.533697,-0.000000,9770.718434
1250.662573,1302.362347,-0.000000,9400.615463
1250.662892,1225.752797,-0.000000,9400.615463
1250.663210,1072.533697,-0.000000,9474.636058
1250.663529,1072.533697,-222.061783,9474.636058
1250.663848,1072.533697,-74.020594,9326.594869
1250.664167,459.657299,-296.082377,9326.594869
1250.664486,1225.752797,-0.000000,9400.615463
1250.664804,995.924147,-148.041188,9326.594869
1250.665123,459.657299,-0.000000,9178.553681
1250.665442,229.828649,-74.020594,9400.615463
1250.665761,229.828649,-148.041188,9474.636058
1250.666080,383.047749,-222.061783,9400.615463
1250.666399,383.047749,-74.020594,9400.615463
1250.666717,459.657299,-0.000000,9474.636058
1250.667036,229.828649,222.061783,9104.533087
1250.667355,383.047749,-0.000000,9178.553681
1250.667674,536.266849,-0.000000,9696.697840
1250.667993,689.485948,148.041188,9178.553681
1250.668312,459.657299,-0.000000,8956.491898
1250.668630,229.828649,370.102971,8734.430116
1250.668949,612.876398,370.102971,8882.471304
1250.669268,229.828649,592.164754,8882.471304
1250.669587,536.266849,296.082377,8734.430116
1250.669906,153.219100,148.041188,9178.553681
1250.670224,76.609550,222.061783,9252.574275
1250.670543,229.828649,370.102971,8882.471304
1250.670862,0.000000,444.123565,8734.430116
1250.671181,153.219100,-0.000000,8956.491898
1250.671500,76.609550,222.061783,9400.615463
1250.671819,76.609550,222.061783,9104.533087
1250.672137,0.000000,444.123565,8956.491898
1250.672456,306.438199,592.164754,9252.574275
1250.672775,76.609550,814.226536,9030.512492
1250.673094,306.438199,592.164754,8956.491898
1250.673413,306.438199,592.164754,9252.574275
1250.673732,153.219100,370.102971,9252.574275
1250.674050,76.609550,148.041188,8586.388927
1250.674369,536.266849,592.164754,9104.533087
1250.674688,229.828649,666.185348,9326.594869
1250.675007,306.438199,962.267725,9252.574275
1250.675326,842.705048,518.144159,9178.553681
1250.675644,229.828649,814.226536,9252.574275
1250.675963,383.047749,814.226536,9400.615463
1250.676282,536.266849,962.267725,9474.636058
1250.676601,383.047749,888.247130,9400.615463
1250.676920,459.657299,1110.308913,9400.615463
1250.677239,766.095498,814.226536,9474.636058
1250.677557,612.876398,592.164754,9622.677246
1250.677876,995.924147,666.185348,9326.594869
1250.678195,842.705048,814.226536,9474.636058
1250.678514,459.657299,1184.329507,9326.594869
1250.678833,919.314598,740.205942,9030.512492
1250.679152,689.485948,666.185348,9400.615463
1250.679470,689.485948,740.205942,9696.697840
1250.679789,766.095498,592.164754,9474.636058
1250.680108,766.095498,370.102971,9400.615463
1250.680427,153.219100,222.061783,9844.739029
1250.680746,383.047749,222.061783,9770.718434
1250.681065,153.219100,296.082377,9696.697840
1250.681384,766.095498,-148.041188,9622.677246
1250.681703,383.047749,-0.000000,9548.656652
1250.682021,766.095498,-0.000000,9696.697840
1250.682340,919.314598,592.164754,9474.636058
1250.682659,306.438199,592.164754,9326.594869
1250.682978,842.705048,-0.000000,9400.615463
1250.683297,689.485948,222.061783,9474.636058
1250.683616,459.657299,-222.061783,9178.553681
1250.683935,766.095498,222.061783,9030.512492
1250.684253,612.876398,-0.000000,9104.533087
1250.684572,459.657299,-592.164754,9178.553681
1250.684891,919.314598,-148.041188,9400.615463
1250.685210,842.705048,-0.000000,9252.574275
1250.685529,536.266849,-222.061783,9030.512492
1250.685848,306.438199,-74.020594,9178.553681
1250.686167,612.876398,-0.000000,9030.512492
1250.686486,689.485948,518.144159,8808.450710
1250.686804,153.219100,148.041188,8808.450710
1250.687123,612.876398,148.041188,8882.471304
1250.687442,383.047749,-0.000000,8660.409521
1250.687761,383.047749,-0.000000,8882.471304
1250.688080,459.657299,148.041188,8956.491898
1250.688399,306.438199,296.082377,8808.450710
1250.688718,0.000000,-0.000000,8734.430116
1250.689036,0.000000,296.082377,9252.574275
1250.689355,306.438199,444.123565,8808.450710
1250.689674,153.219100,666.185348,9178.553681
1250.689993,76.609550,222.061783,8734.430116
1250.690312,0.000000,296.082377,8956.491898
1250.690631,383.047749,-0.000000,8882.471304
1250.690950,229.828649,148.041188,9252.574275
1250.691268,0.000000,222.061783,9252.574275
1250.691587,306.438199,148.041188,9104.533087
1250.691906,919.314598,592.164754,9104.533087
1250.692225,459.657299,370.102971,9326.594869
1250.692544,995.924147,370.102971,9326.594869
1250.692863,995.924147,444.123565,9474.636058
1250.693182,919.314598,222.061783,9178.553681
1250.693501,689.485948,-0.000000,9178.553681
1250.693819,1225.752797,296.082377,9178.553681
1250.694138,1149.143247,222.061783,9252.574275
1250.694457,919.314598,296.082377,9326.594869
1250.694776,919.314598,296.082377,9326.594869
1250.695095,842.705048,444.123565,9770.718434
1250.695414,766.095498,74.020594,9400.615463
1250.695733,766.095498,222.061783,9622.677246
1250.696051,689.485948,370.102971,9474.636058
1250.696370,459.657299,814.226536,9918.759623
1250.696689,612.876398,518.144159,9696.697840
1250.697008,536.266849,148.041188,9622.677246
1250.697327,383.047749,-0.000000,9696.697840
1250.697646,536.266849,148.041188,9696.697840
1250.697965,459.657299,592.164754,9474.636058
1250.698284,306.438199,592.164754,9400.615463
1250.698602,459.657299,740.205942,9474.636058
1250.698921,383.047749,666.185348,9474.636058
1250.699240,0.000000,592.164754,9400.615463
1250.699559,612.876398,444.123565,9474.636058
1250.699878,689.485948,518.144159,9252.574275
1250.700197,459.657299,518.144159,9400.615463
1250.700516,229.828649,518.144159,9474.636058
1250.700834,383.047749,296.082377,9326.594869
1250.701153,229.828649,370.102971,9474.636058
1250.701472,383.047749,518.144159,9326.594869
1250.701791,306.438199,740.205942,9252.574275
1250.702110,383.047749,962.267725,8882.471304
1250.702429,536.266849,1036.288319,9178.553681
1250.702748,689.485948,592.164754,8882.471304
1250.703066,842.705048,740.205942,8882.471304
1250.703385,689.485948,592.164754,9252.574275
1250.703704,306.438199,592.164754,9178.553681
1250.704023,766.095498,148.041188,9252.574275
1250.704342,459.657299,296.082377,9104.533087
1250.704661,383.047749,592.164754,9400.615463
1250.704980,306.438199,370.102971,9326.594869
1250.705299,76.609550,296.082377,9030.512492
1250.705617,229.828649,370.102971,9030.512492
1250.705936,229.828649,666.185348,9326.594869
1250.706255,306.438199,740.205942,8882.471304
1250.706574,306.438199,370.102971,9252.574275
1250.706893,306.438199,222.061783,9326.594869
1250.707212,536.266849,296.082377,9770.718434
1250.707531,459.657299,296.082377,9326.594869
1250.707849,612.876398,518.144159,9178.553681
1250.708168,766.095498,444.123565,9326.594869
1250.708487,1149.143247,-0.000000,9252.574275
1250.708806,459.657299,-0.000000,9400.615463
1250.709125,919.314598,74.020594,9326.594869
1250.709444,995.924147,-0.000000,8882.471304
1250.709763,536.266849,-0.000000,9030.512492
1250.710082,689.485948,-296.082377,9030.512492
1250.710400,842.705048,-0.000000,9252.574275
1250.710719,612.876398,148.041188,9178.553681
1250.711038,612.876398,-0.000000,9104.533087
1250.711357,612.876398,-74.020594,9178.553681
1250.711676,383.047749,-0.000000,9474.636058
1250.711995,536.266849,-0.000000,9400.615463
1250.712314,536.266849,-0.000000,9252.574275
1250.712632,229.828649,-148.041188,9474.636058
1250.712951,76.609550,-0.000000,9474.636058
1250.713270,229.828649,222.061783,9548.656652
1250.713589,229.828649,-0.000000,9474.636058
1250.713908,229.828649,-0.000000,9326.594869
1250.714227,0.000000,222.061783,9400.615463
1250.714546,-153.219100,-0.000000,9252.574275
1250.714864,0.000000,148.041188,9474.636058
1250.715183,76.609550,296.082377,9548.656652
1250.715502,306.438199,296.082377,9178.553681
1250.715821,153.219100,148.041188,9252.574275
1250.716140,459.657299,296.082377,9326.594869
1250.716459,383.047749,-0.000000,9474.636058
1250.716778,459.657299,370.102971,9178.553681
1250.717097,536.266849,296.082377,9178.553681
1250.717415,689.485948,518.144159,9104.533087
1250.717734,459.657299,592.164754,9252.574275
1250.718053,689.485948,518.144159,9104.533087
1250.718372,766.095498,740.205942,8882.471304
1250.718691,689.485948,666.185348,9178.553681
1250.719010,536.266849,370.102971,9104.533087
1250.719329,842.705048,592.164754,9252.574275
1250.719647,459.657299,518.144159,9400.615463
1250.719966,306.438199,666.185348,9326.594869
1250.720285,306.438199,592.164754,9252.574275
1250.720604,153.219100,666.185348,9104.533087
1250.720923,612.876398,518.144159,9178.553681
1250.721242,306.438199,814.226536,9326.594869
1250.721561,153.219100,666.185348,9104.533087
1250.721879,383.047749,1036.288319,9104.533087
1250.722198,229.828649,962.267725,9178.553681
1250.722517,459.657299,666.185348,9326.594869
1250.722836,306.438199,370.102971,9326.594869
1250.723155,536.266849,666.185348,9474.636058
1250.723474,306.438199,814.226536,9326.594869
1250.723793,536.266849,444.123565,9104.533087
1250.724112,383.047749,74.020594,9474.636058
1250.724430,842.705048,222.061783,9548.656652
1250.724749,612.876398,444.123565,9400.615463
1250.725068,1072.533697,592.164754,9400.615463
1250.725387,536.266849,814.226536,9104.533087
1250.725706,689.485948,518.144159,9178.553681
1250.726025,459.657299,444.123565,9326.594869
1250.726344,612.876398,-0.000000,9622.677246
1250.726662,612.876398,-0.000000,9548.656652
1250.726981,383.047749,518.144159,9326.594869
1250.727300,383.047749,222.061783,9178.553681
1250.727619,306.438199,-0.000000,9400.615463
1250.727938,0.000000,148.041188,9622.677246
1250.728257,-383.047749,-0.000000,9474.636058
1250.728576,306.438199,518.144159,9326.594869
1250.728895,76.609550,592.164754,9548.656652
1250.729213,153.219100,370.102971,9400.615463
1250.729532,0.000000,74.020594,9326.594869
1250.729851,0.000000,-0.000000,9474.636058
1250.730170,-383.047749,-0.000000,9252.574275
1250.730489,0.000000,-0.000000,9104.533087
1250.730808,0.000000,444.123565,9474.636058
1250.731127,383.047749,370.102971,9178.553681
1250.731445,383.047749,222.061783,9104.533087
1250.731764,612.876398,-0.000000,9104.533087
1250.732083,536.266849,222.061783,9104.533087
1250.732402,612.876398,518.144159,8882.471304
1250.732721,919.314598,370.102971,8956.491898
1250.733040,842.705048,444.123565,8734.430116
1250.733359,689.485948,296.082377,8808.450710
1250.733677,919.314598,296.082377,9104.533087
1250.733996,536.266849,296.082377,9178.553681
1250.734315,995.924147,666.185348,8956.491898
1250.734634,766.095498,370.102971,8808.450710
1250.734953,536.266849,296.082377,9252.574275
1250.735272,612.876398,148.041188,9252.574275
1250.735591,842.705048,222.061783,9178.553681
1250.735910,689.485948,370.102971,9474.636058
1250.736228,536.266849,666.185348,9030.512492
1250.736547,766.095498,592.164754,8956.491898
1250.736866,689.485948,592.164754,9252.574275
1250.737185,153.219100,296.082377,8882.471304
1250.737504,612.876398,-222.061783,8882.471304
1250.737823,153.219100,370.102971,9400.615463
1250.738142,842.705048,666.185348,9104.533087
1250.738460,536.266849,444.123565,9030.512492
1250.738779,306.438199,222.061783,9474.636058
1250.739098,229.828649,-0.000000,9400.615463
1250.739417,459.657299,-0.000000,9252.574275
1250.739736,229.828649,-0.000000,9400.615463
1250.740055,306.438199,148.041188,9474.636058
1250.740374,306.438199,-0.000000,9178.553681
1250.740693,306.438199,-0.000000,9400.615463
1250.741011,536.266849,592.164754,9326.594869
1250.741330,306.438199,370.102971,9400.615463
1250.741649,229.828649,-0.000000,9178.553681
1250.741968,-229.828649,-0.000000,9770.718434
1250.742287,306.438199,-0.000000,9474.636058
1250.742606,229.828649,370.102971,9400.615463
1250.742925,459.657299,370.102971,9474.636058
1250.743243,766.095498,222.061783,9548.656652
1250.743562,383.047749,444.123565,9252.574275
1250.743881,76.609550,-0.000000,9326.594869
1250.744200,76.609550,444.123565,9104.533087
1250.744519,153.219100,370.102971,9474.636058
1250.744838,0.000000,592.164754,9400.615463
1250.745157,0.000000,888.247130,9178.553681
1250.745475,76.609550,666.185348,9326.594869
1250.745794,76.609550,222.061783,9326.594869
1250.746113,229.828649,444.123565,9474.636058
1250.746432,459.657299,370.102971,9474.636058
1250.746751,229.828649,444.123565,9400.615463
1250.747070,689.485948,740.205942,9252.574275
1250.747389,766.095498,592.164754,9252.574275
1250.747708,612.876398,592.164754,9326.594869
1250.748026,919.314598,370.102971,9104.533087
1250.748345,842.705048,592.164754,8808.450710
1250.748664,919.314598,666.185348,9104.533087
1250.748983,689.485948,814.226536,9030.512492
1250.749302,689.485948,518.144159,8882.471304
1250.749621,1072.533697,296.082377,9178.553681
1250.749940,536.266849,444.123565,9400.615463
1250.750258,612.876398,444.123565,9030.512492
1250.750577,306.438199,444.123565,9474.636058
1250.750896,383.047749,222.061783,9474.636058
1250.751215,536.266849,518.144159,9252.574275
1250.751534,689.485948,222.061783,9252.574275
1250.751853,459.657299,592.164754,9326.594869
1250.752172,536.266849,592.164754,9326.594869
1250.752491,306.438199,888.247130,9474.636058
1250.752809,536.266849,740.205942,9030.512492
1250.753128,76.609550,518.144159,8956.491898
1250.753447,76.609550,518.144159,9252.574275
1250.753766,229.828649,-0.000000,9400.615463
1250.754085,0.000000,222.061783,9474.636058
1250.754404,76.609550,444.123565,9252.574275
1250.754723,0.000000,740.205942,9326.594869
1250.755041,383.047749,518.144159,9474.636058
1250.755360,229.828649,148.041188,9696.697840
1250.755679,229.828649,518.144159,9474.636058
1250.755998,536.266849,962.267725,9178.553681
1250.756317,842.705048,888.247130,9030.512492
1250.756636,612.876398,814.226536,8882.471304
1250.756955,689.485948,222.061783,8808.450710
1250.757273,766.095498,518.144159,8956.491898
1250.757592,842.705048,370.102971,9030.512492
1250.757911,842.705048,888.247130,8660.409521
1250.758230,919.314598,-0.000000,8882.471304
1250.758549,459.657299,-0.000000,9622.677246
1250.758868,383.047749,-0.000000,9548.656652
1250.759187,459.657299,370.102971,8586.388927
1250.759506,383.047749,370.102971,9474.636058
1250.759824,459.657299,370.102971,9474.636058
1250.760143,459.657299,-0.000000,9400.615463
1250.760462,229.828649,222.061783,8956.491898
1250.760781,536.266849,-0.000000,9474.636058
1250.761100,689.485948,444.123565,8882.471304
1250.761419,919.314598,148.041188,9252.574275
1250.761738,612.876398,370.102971,9400.615463
1250.762056,536.266849,296.082377,9326.594869
