#time,accel_x,accel_y,accel_z
1616.714858,689.485948,-0.000000,9474.636058
1616.715175,689.485948,-0.000000,9400.615463
1616.715493,1149.143247,-0.000000,9474.636058
1616.715810,612.876398,-0.000000,9400.615463
1616.716127,612.876398,296.082377,9474.636058
1616.716445,842.705048,296.082377,9474.636058
1616.716762,842.705048,444.123565,9548.656652
1616.717079,995.924147,-0.000000,9622.677246
1616.717396,919.314598,296.082377,9326.594869
1616.717714,689.485948,-0.000000,9474.636058
1616.718031,766.095498,148.041188,9326.594869
1616.718348,153.219100,-0.000000,9252.574275
1616.718666,766.095498,222.061783,9326.594869
1616.718983,842.705048,370.102971,9474.636058
1616.719300,766.095498,222.061783,9400.615463
1616.719617,689.485948,370.102971,9400.615463
1616.719935,919.314598,222.061783,9400.615463
1616.720252,842.705048,-0.000000,9474.636058
1616.720569,766.095498,222.061783,9326.594869
1616.720887,612.876398,148.041188,9474.636058
1616.721204,689.485948,148.041188,9252.574275
1616.721521,919.314598,-148.041188,9622.677246
1616.721838,766.095498,-0.000000,9474.636058
1616.722156,766.095498,296.082377,9548.656652
1616.722473,842.705048,444.123565,9474.636058
1616.722790,766.095498,148.041188,9400.615463
1616.723108,766.095498,370.102971,9400.615463
1616.723425,995.924147,-0.000000,9548.656652
1616.723742,459.657299,148.041188,9474.636058
1616.724059,842.705048,-0.000000,9326.594869
1616.724377,766.095498,148.041188,9474.636058
1616.724694,612.876398,-0.000000,9474.636058
1616.725011,766.095498,-0.000000,9474.636058
1616.725329,842.705048,296.082377,9400.615463
1616.725646,689.485948,296.082377,9474.636058
1616.725963,766.095498,296.082377,9474.636058
1616.726280,766.095498,370.102971,9474.636058
1616.726598,919.314598,296.082377,9474.636058
1616.726915,612.876398,-0.000000,9326.594869
1616.727232,612.876398,148.041188,9474.636058
1616.727550,536.266849,370.102971,9474.636058
1616.727867,766.095498,-0.000000,9400.615463
1616.728184,842.705048,148.041188,9474.636058
1616.728501,766.095498,222.061783,9474.636058
1616.728819,689.485948,296.082377,9400.615463
1616.729136,689.485948,296.082377,9474.636058
1616.729453,689.485948,-0.000000,9474.636058
1616.729771,766.095498,370.102971,9474.636058
1616.730088,766.095498,148.041188,9400.615463
1616.730405,689.485948,296.082377,9400.615463
1616.730722,766.095498,-0.000000,9400.615463
1616.731040,1149.143247,-0.000000,9400.615463
1616.731357,766.095498,-0.000000,9622.677246
1616.731674,689.485948,-0.000000,9178.553681
1616.731992,689.485948,296.082377,9252.574275
1616.732309,842.705048,296.082377,9400.615463
1616.732626,842.705048,-0.000000,9178.553681
1616.732943,842.705048,-0.000000,9400.615463
1616.733261,612.876398,222.061783,9474.636058
1616.733578,842.705048,-0.000000,9400.615463
1616.733895,689.485948,222.061783,9474.636058
1616.734213,612.876398,296.082377,9474.636058
1616.734530,459.657299,-0.000000,9326.594869
1616.734847,842.705048,148.041188,9178.553681
1616.735164,459.657299,-148.041188,9178.553681
1616.735482,536.266849,-222.061783,9326.594869
1616.735799,229.828649,-740.205942,9474.636058
1616.736116,383.047749,-666.185348,9326.594869
1616.736434,0.000000,-814.226536,9252.574275
1616.736751,76.609550,-592.164754,9400.615463
1616.737068,0.000000,-592.164754,9104.533087
1616.737385,-153.219100,-740.205942,9030.512492
1616.737703,-459.657299,-666.185348,8734.430116
1616.738020,-536.266849,-666.185348,8882.471304
1616.738337,-766.095498,-1036.288319,8512.368333
1616.738655,-995.924147,-1480.411884,8956.491898
1616.738972,-1302.362347,-1554.432478,9326.594869
1616.739289,-1302.362347,-2146.597232,9400.615463
1616.739606,-1378.971896,-1776.494261,9474.636058
1616.739924,-1149.143247,-1554.432478,9326.594869
1616.740241,-919.314598,-1036.288319,9030.512492
1616.740558,-1072.533697,-1110.308913,9030.512492
1616.740876,-1225.752797,-1036.288319,8364.327145
1616.741193,-1149.143247,-1110.308913,8142.265362
1616.741510,-1302.362347,-1628.453072,8586.388927
1616.741828,-766.095498,-2146.597232,9252.574275
1616.742145,-1608.800546,-2368.659014,9622.677246
1616.742462,-1608.800546,-2664.741391,10140.821405
1616.742779,-1532.190996,-2516.700203,10436.903782
1616.743097,-1378.971896,-2294.638420,9992.780217
1616.743414,-1225.752797,-1406.391290,9474.636058
1616.743731,-1072.533697,-1258.350101,8882.471304
1616.744049,-1532.190996,-1554.432478,8734.430116
1616.744366,-1762.019645,-1702.473667,8882.471304
1616.744683,-1915.238745,-2442.679609,9326.594869
1616.745000,-3064.381992,-3330.926739,10288.862594
1616.745318,-2911.162892,-4071.132681,10362.883188
1616.745635,-3217.601092,-4441.235652,10658.965565
1616.745952,-3600.648841,-4367.215058,10807.006753
1616.746270,-3677.258390,-3997.112087,10510.924376
1616.746587,-3600.648841,-3330.926739,10362.883188
1616.746904,-3447.429741,-3256.906145,10214.842000
1616.747221,-3907.087040,-3182.885551,10140.821405
1616.747539,-4213.525239,-3330.926739,10066.800811
1616.747856,-3907.087040,-3849.070898,10807.006753
1616.748173,-3677.258390,-4145.153275,10510.924376
1616.748491,-4749.792088,-3627.009116,9844.739029
1616.748808,-4213.525239,-4663.297435,10436.903782
1616.749125,-4749.792088,-3552.988522,10066.800811
1616.749442,-4136.915689,-3923.091493,10658.965565
1616.749760,-3217.601092,-3404.947333,10436.903782
1616.750077,-3753.867940,-3627.009116,10881.027347
1616.750394,-3294.210641,-3034.844362,10732.986159
1616.750712,-3064.381992,-3256.906145,10732.986159
1616.751029,-2834.553343,-3034.844362,10214.842000
1616.751346,-2681.334243,-2886.803174,10288.862594
1616.751663,-3294.210641,-2220.617826,9030.512492
1616.751981,-2451.505594,-2516.700203,9844.739029
1616.752298,-2068.457845,-2368.659014,9696.697840
1616.752615,-1762.019645,-3108.864956,10140.821405
1616.752933,-919.314598,-4219.173869,9770.718434
1616.753250,-1225.752797,-3997.112087,10362.883188
1616.753567,-383.047749,-4219.173869,9844.739029
1616.753884,459.657299,-3701.029710,9252.574275
1616.754202,612.876398,-2812.782580,8660.409521
1616.754519,842.705048,-2220.617826,8290.306550
1616.754836,1225.752797,-1776.494261,8068.244768
1616.755154,1915.238745,-1702.473667,7994.224174
1616.755471,1762.019645,-1998.556043,8290.306550
1616.755788,1302.362347,-2294.638420,7698.141797
1616.756105,1072.533697,-1924.535449,7550.100608
1616.756423,689.485948,-2072.576638,7550.100608
1616.756740,995.924147,-2220.617826,8290.306550
1616.757057,153.219100,-2368.659014,8364.327145
1616.757375,0.000000,-1924.535449,8734.430116
1616.757692,-153.219100,-2294.638420,9400.615463
1616.758009,-306.438199,-1998.556043,9696.697840
1616.758326,-612.876398,-1924.535449,9770.718434
1616.758644,-689.485948,-888.247130,9326.594869
1616.758961,-842.705048,-0.000000,8808.450710
1616.759278,-459.657299,370.102971,8734.430116
1616.759596,0.000000,222.061783,8660.409521
1616.759913,-229.828649,-0.000000,8586.388927
1616.760230,0.000000,518.144159,8586.388927
1616.760547,-229.828649,296.082377,8364.327145
1616.760865,-153.219100,-222.061783,8290.306550
1616.761182,-306.438199,-740.205942,9030.512492
1616.761499,-1072.533697,-962.267725,9770.718434
1616.761817,-1378.971896,-1110.308913,10362.883188
1616.762134,-1302.362347,-222.061783,10436.903782
1616.762451,-1455.581446,518.144159,9770.718434
1616.762768,-766.095498,962.267725,9844.739029
1616.763086,-1685.410096,814.226536,9400.615463
1616.763403,-2451.505594,1184.329507,8290.306550
1616.763720,-2604.724693,1702.473667,8438.347739
1616.764038,-2987.772442,962.267725,8956.491898
1616.764355,-3217.601092,-518.144159,9400.615463
1616.764672,-3677.258390,-1332.370696,10881.027347
1616.764989,-4519.963438,-2146.597232,11769.274478
1616.765307,-4903.011187,-2220.617826,11843.295072
1616.765624,-4596.572988,-2072.576638,12139.377449
1616.765941,-4366.744339,-1554.432478,11917.315666
1616.766259,-4290.134789,-444.123565,11695.253884
1616.766576,-3983.696590,222.061783,10732.986159
1616.766893,-3370.820191,296.082377,10140.821405
1616.767210,-3064.381992,-0.000000,9918.759623
1616.767528,-2298.286494,-444.123565,10510.924376
1616.767845,-2451.505594,-1332.370696,10807.006753
1616.768162,-2604.724693,-2146.597232,10881.027347
1616.768480,-2528.115143,-2664.741391,10584.944971
1616.768797,-2374.896044,-3256.906145,11177.109724
1616.769114,-2068.457845,-3923.091493,11177.109724
1616.769431,-1762.019645,-3330.926739,10288.862594
1616.769749,-1378.971896,-3256.906145,9918.759623
1616.770066,-1685.410096,-3182.885551,9548.656652
1616.770383,-1532.190996,-3701.029710,10658.965565
1616.770701,-1685.410096,-4367.215058,10881.027347
1616.771018,-1608.800546,-4811.338623,10955.047942
1616.771335,-1838.629195,-4811.338623,11547.212695
1616.771652,-2068.457845,-4811.338623,12065.356855
1616.771970,-689.485948,-3552.988522,11769.274478
1616.772287,612.876398,-2812.782580,10584.944971
1616.772604,1149.143247,-2294.638420,9548.656652
1616.772922,1685.410096,-2368.659014,9252.574275
1616.773239,2834.553343,-2664.741391,7920.203579
1616.773556,2911.162892,-3478.967927,7698.141797
1616.773873,2987.772442,-3775.050304,7624.121203
1616.774191,2221.676944,-3923.091493,7550.100608
1616.774508,1455.581446,-3330.926739,7105.977043
1616.774825,842.705048,-3478.967927,7698.141797
1616.775143,229.828649,-4441.235652,8956.491898
1616.775460,0.000000,-4589.276840,9104.533087
1616.775777,0.000000,-3701.029710,8290.306550
1616.776094,0.000000,-4071.132681,8512.368333
1616.776412,153.219100,-4293.194464,9252.574275
1616.776729,689.485948,-3701.029710,8808.450710
1616.777049,1378.971896,-2368.659014,7772.162391
1616.777367,1991.848295,-1702.473667,7550.100608
1616.777684,2451.505594,-1258.350101,7476.080014
1616.778001,2911.162892,-222.061783,6883.915261
1616.778319,3294.210641,222.061783,5995.668130
1616.778636,3217.601092,-1110.308913,6291.750507
1616.778953,2221.676944,-1776.494261,5995.668130
1616.779271,1915.238745,-1480.411884,5403.503377
1616.779588,1378.971896,-1036.288319,5551.544565
1616.779905,76.609550,-2590.720797,7402.059420
1616.780223,-306.438199,-2146.597232,8142.265362
1616.780540,-766.095498,-2072.576638,8586.388927
1616.780857,-1608.800546,-1998.556043,10066.800811
1616.781175,-1608.800546,-1776.494261,10955.047942
1616.781492,-842.705048,-370.102971,10066.800811
1616.781809,-306.438199,814.226536,9548.656652
1616.782127,612.876398,1480.411884,9474.636058
1616.782444,1149.143247,2368.659014,8512.368333
1616.782761,2681.334243,3997.112087,6957.935855
1616.783079,3140.991542,4293.194464,5995.668130
1616.783396,2911.162892,3404.947333,6735.874072
1616.783713,2298.286494,2960.823768,7105.977043
1616.784031,1072.533697,2368.659014,7179.997637
1616.784348,0.000000,1110.308913,9474.636058
1616.784665,-1072.533697,444.123565,11769.274478
1616.784983,-1532.190996,1554.432478,11917.315666
1616.785300,-1762.019645,2368.659014,11769.274478
1616.785617,-1685.410096,2368.659014,12879.583391
1616.785935,-536.266849,2590.720797,14063.912898
1616.786252,-766.095498,4737.318029,11103.089130
1616.786569,919.314598,4293.194464,11473.192101
1616.786887,612.876398,4737.318029,10881.027347
1616.787204,995.924147,4737.318029,10881.027347
1616.787521,1685.410096,4663.297435,8068.244768
1616.787839,1378.971896,4293.194464,9104.533087
1616.788156,1378.971896,3701.029710,9622.677246
1616.788473,383.047749,2960.823768,8142.265362
1616.788791,306.438199,1776.494261,9844.739029
1616.789108,-1685.410096,-296.082377,12435.459826
1616.789425,-2374.896044,-74.020594,13841.851115
1616.789743,-2681.334243,1036.288319,13027.624579
1616.790060,-2911.162892,888.247130,14211.954086
1616.790377,-2374.896044,1480.411884,15100.201217
1616.790695,-1991.848295,2812.782580,14063.912898
1616.791012,-995.924147,3849.070898,11621.233289
1616.791329,0.000000,3108.864956,12731.542202
1616.791647,459.657299,2368.659014,12435.459826
1616.791964,1378.971896,2516.700203,10066.800811
1616.792281,2451.505594,814.226536,9326.594869
1616.792599,2298.286494,-814.226536,9474.636058
1616.792916,2145.067394,-1110.308913,9030.512492
1616.793233,2834.553343,-1702.473667,9770.718434
1616.793551,2298.286494,-2146.597232,9252.574275
1616.793868,2145.067394,-1184.329507,10510.924376
1616.794185,995.924147,-370.102971,10362.883188
1616.794503,0.000000,-0.000000,9770.718434
1616.794820,383.047749,-888.247130,10881.027347
1616.795137,0.000000,518.144159,11547.212695
1616.795455,459.657299,1110.308913,10436.903782
1616.795772,1225.752797,592.164754,9030.512492
1616.796089,1838.629195,-444.123565,9474.636058
1616.796407,3447.429741,-888.247130,8956.491898
1616.796724,3753.867940,-1924.535449,6439.791695
1616.797041,3294.210641,-3034.844362,5699.585753
1616.797359,3524.039291,-3478.967927,6809.894666
1616.797676,2987.772442,-3034.844362,6069.688724
1616.797993,3064.381992,-3182.885551,6217.729913
1616.798311,1991.848295,-2590.720797,7402.059420
1616.798628,1225.752797,-2590.720797,8586.388927
1616.798945,459.657299,-1702.473667,7624.121203
1616.799263,-459.657299,-1998.556043,8586.388927
1616.799580,-153.219100,-2072.576638,9252.574275
1616.799897,153.219100,-888.247130,7846.182985
1616.800215,919.314598,-888.247130,6809.894666
1616.800532,1455.581446,-2146.597232,7476.080014
1616.800849,1455.581446,-2072.576638,6809.894666
1616.801167,1991.848295,-2146.597232,5773.606348
1616.801484,1838.629195,-2516.700203,5847.626942
1616.801801,459.657299,-3404.947333,6735.874072
1616.802119,-229.828649,-3256.906145,7105.977043
1616.802436,-459.657299,-2664.741391,7624.121203
1616.802753,-995.924147,-2664.741391,8956.491898
1616.803071,-1302.362347,-2146.597232,10584.944971
1616.803388,-1225.752797,-296.082377,9770.718434
1616.803705,-766.095498,370.102971,8956.491898
1616.804023,-689.485948,-0.000000,9252.574275
1616.804340,0.000000,370.102971,9770.718434
1616.804657,383.047749,814.226536,8808.450710
1616.804975,1072.533697,1110.308913,7624.121203
1616.805292,2145.067394,370.102971,8660.409521
1616.805609,2068.457845,1036.288319,7624.121203
1616.805927,2528.115143,444.123565,7254.018232
1616.806244,2528.115143,-148.041188,7402.059420
1616.806561,2221.676944,592.164754,8216.285956
1616.806879,2298.286494,1110.308913,8512.368333
1616.807196,919.314598,518.144159,9474.636058
1616.807513,153.219100,1036.288319,11399.171507
1616.807831,-383.047749,2738.761985,12287.418637
1616.808148,-995.924147,3997.112087,11251.130318
1616.808465,-842.705048,3775.050304,12139.377449
1616.808783,-766.095498,4219.173869,13027.624579
1616.809100,0.000000,4737.318029,11843.295072
1616.809417,766.095498,4293.194464,10362.883188
1616.809735,536.266849,3701.029710,10140.821405
1616.810052,2221.676944,3923.091493,9696.697840
1616.810369,3064.381992,4145.153275,7254.018232
1616.810687,3524.039291,2590.720797,7550.100608
1616.811004,3217.601092,2368.659014,8438.347739
1616.811321,2834.553343,2886.803174,8734.430116
1616.811639,2068.457845,3478.967927,9178.553681
1616.811956,689.485948,2442.679609,11917.315666
1616.812273,-842.705048,2886.803174,13619.789333
1616.812590,-1608.800546,4367.215058,12879.583391
1616.812908,-1302.362347,4293.194464,13397.727550
1616.813225,-1072.533697,4367.215058,14211.954086
1616.813542,0.000000,4737.318029,13619.789333
1616.813860,919.314598,5033.400406,11547.212695
1616.814177,1532.190996,4071.132681,11695.253884
1616.814494,1608.800546,2738.761985,11621.233289
1616.814812,2145.067394,2146.597232,9474.636058
1616.815129,2451.505594,1924.535449,8216.285956
1616.815446,2221.676944,1258.350101,8512.368333
1616.815764,1685.410096,1406.391290,8882.471304
1616.816081,1072.533697,1628.453072,7254.018232
1616.816398,153.219100,370.102971,9474.636058
1616.816716,-766.095498,-518.144159,12509.480420
1616.817033,-1302.362347,-0.000000,12139.377449
1616.817350,-1608.800546,518.144159,11325.150913
1616.817668,-1532.190996,-74.020594,12657.521608
1616.817985,-689.485948,814.226536,12879.583391
1616.818302,459.657299,1258.350101,11473.192101
1616.818620,2221.676944,1480.411884,9992.780217
1616.818937,2298.286494,1184.329507,9844.739029
1616.819254,3064.381992,962.267725,8660.409521
1616.819572,3753.867940,740.205942,6069.688724
1616.819889,3753.867940,-592.164754,5773.606348
1616.820206,3217.601092,-1332.370696,6809.894666
1616.820524,2681.334243,-962.267725,5551.544565
1616.820841,1991.848295,-740.205942,4663.297435
1616.821158,1378.971896,-2072.576638,7476.080014
1616.821476,229.828649,-2146.597232,9400.615463
1616.821793,-689.485948,-1998.556043,8290.306550
1616.822110,-1225.752797,-2590.720797,9474.636058
1616.822428,-1149.143247,-2590.720797,10436.903782
1616.822745,-536.266849,-1480.411884,10066.800811
1616.823062,76.609550,-1258.350101,9104.533087
1616.823380,1608.800546,-962.267725,8586.388927
1616.823697,2145.067394,-592.164754,7846.182985
1616.824014,2681.334243,-666.185348,6439.791695
1616.824332,3140.991542,-1406.391290,5033.400406
1616.824649,3294.210641,-1924.535449,5995.668130
1616.824966,3140.991542,-1924.535449,5847.626942
1616.825284,2681.334243,-1702.473667,5773.606348
1616.825601,1915.238745,-2960.823768,7402.059420
1616.825918,1225.752797,-2886.803174,8882.471304
1616.826236,536.266849,-1924.535449,8660.409521
1616.826553,0.000000,-1332.370696,9178.553681
1616.826870,-536.266849,-1036.288319,10214.842000
1616.827188,0.000000,148.041188,10584.944971
1616.827505,383.047749,444.123565,10066.800811
1616.827822,766.095498,-296.082377,9696.697840
1616.828140,766.095498,-148.041188,9696.697840
1616.828457,1455.581446,592.164754,8290.306550
1616.828774,2298.286494,518.144159,7550.100608
1616.829092,2068.457845,-518.144159,7698.141797
1616.829409,2221.676944,-74.020594,8734.430116
1616.829726,2374.896044,740.205942,8142.265362
1616.830044,1149.143247,-0.000000,9030.512492
1616.830361,383.047749,148.041188,10732.986159
1616.830678,-229.828649,1406.391290,10955.047942
1616.830996,-1149.143247,1110.308913,10510.924376
1616.831313,-842.705048,962.267725,11695.253884
1616.831630,-1072.533697,1332.370696,12879.583391
1616.831948,-383.047749,2442.679609,11843.295072
1616.832265,0.000000,2886.803174,10066.800811
1616.832582,229.828649,2368.659014,10362.883188
1616.832900,306.438199,2590.720797,9770.718434
1616.833217,459.657299,2442.679609,7920.203579
1616.833534,76.609550,1924.535449,8216.285956
1616.833852,0.000000,1406.391290,9474.636058
1616.834169,76.609550,2294.638420,9178.553681
1616.834486,-689.485948,2146.597232,9622.677246
1616.834804,-1302.362347,592.164754,12509.480420
1616.835121,-1838.629195,666.185348,14211.954086
1616.835438,-2221.676944,1924.535449,13027.624579
1616.835756,-1685.410096,2590.720797,12139.377449
1616.836073,-689.485948,2664.741391,13175.665768
1616.836390,-689.485948,3627.009116,11991.336260
1616.836708,536.266849,3627.009116,9622.677246
1616.837025,536.266849,2664.741391,9844.739029
1616.837342,1455.581446,1924.535449,9326.594869
1616.837660,1838.629195,1702.473667,7550.100608
1616.837977,2298.286494,148.041188,6809.894666
1616.838294,1685.410096,-666.185348,8882.471304
1616.838612,1225.752797,-666.185348,9918.759623
1616.838929,919.314598,-592.164754,9104.533087
1616.839246,536.266849,-666.185348,10214.842000
1616.839564,459.657299,-370.102971,12287.418637
1616.839881,0.000000,888.247130,11843.295072
1616.840198,383.047749,1628.453072,10658.965565
1616.840516,766.095498,962.267725,11399.171507
1616.840833,689.485948,1850.514855,11399.171507
1616.841150,1685.410096,1924.535449,10288.862594
1616.841468,1915.238745,888.247130,9548.656652
1616.841785,2451.505594,296.082377,9622.677246
1616.842102,2604.724693,-370.102971,8068.244768
1616.842420,2987.772442,-1406.391290,6809.894666
1616.842737,3064.381992,-2960.823768,7254.018232
1616.843054,3217.601092,-3108.864956,7402.059420
1616.843372,2451.505594,-2368.659014,6365.771101
1616.843689,1532.190996,-3330.926739,7179.997637
1616.844006,383.047749,-3552.988522,9474.636058
1616.844324,-383.047749,-2368.659014,10140.821405
1616.844641,-995.924147,-1776.494261,9474.636058
1616.844958,-1225.752797,-1554.432478,9918.759623
1616.845276,-1302.362347,-296.082377,10584.944971
1616.845593,-689.485948,666.185348,9474.636058
1616.845910,536.266849,-0.000000,8808.450710
1616.846228,1225.752797,-1332.370696,9252.574275
1616.846545,1838.629195,-1258.350101,7920.203579
1616.846862,2068.457845,-1776.494261,6809.894666
1616.847180,2145.067394,-3034.844362,6217.729913
1616.847497,1685.410096,-3997.112087,7031.956449
1616.847814,1225.752797,-3256.906145,7179.997637
1616.848132,306.438199,-2442.679609,6957.935855
1616.848449,-383.047749,-2812.782580,9178.553681
1616.848766,-1072.533697,-2294.638420,10066.800811
1616.849084,-766.095498,-592.164754,8512.368333
1616.849401,-689.485948,-444.123565,9104.533087
1616.849718,-612.876398,-1110.308913,10584.944971
1616.850036,0.000000,-444.123565,10510.924376
1616.850353,766.095498,-148.041188,9474.636058
1616.850670,2068.457845,-296.082377,9326.594869
1616.850988,2528.115143,-666.185348,10140.821405
1616.851305,2834.553343,-0.000000,8216.285956
1616.851622,2911.162892,-222.061783,7402.059420
1616.851940,2451.505594,-0.000000,7254.018232
1616.852257,2374.896044,296.082377,7698.141797
1616.852574,2068.457845,222.061783,7624.121203
1616.852892,919.314598,-888.247130,9104.533087
1616.853209,383.047749,-1258.350101,11399.171507
1616.853526,-842.705048,-74.020594,11547.212695
1616.853844,-919.314598,592.164754,11029.068536
1616.854161,-766.095498,740.205942,12361.439231
1616.854478,-842.705048,1258.350101,12139.377449
1616.854796,0.000000,2220.617826,10362.883188
1616.855113,536.266849,2146.597232,9918.759623
1616.855430,1532.190996,1998.556043,10066.800811
1616.855748,2451.505594,2072.576638,9104.533087
1616.856065,2298.286494,2220.617826,7105.977043
1616.856382,2451.505594,1184.329507,7328.038826
1616.856700,1225.752797,1480.411884,8142.265362
1616.857017,842.705048,1702.473667,7920.203579
1616.857334,153.219100,888.247130,9400.615463
1616.857652,-842.705048,222.061783,12213.398043
1616.857969,-1915.238745,370.102971,13397.727550
1616.858286,-2451.505594,296.082377,13249.686362
1616.858604,-3370.820191,-74.020594,12805.562797
1616.858921,-3294.210641,370.102971,13471.748144
1616.859238,-2068.457845,1628.453072,11695.253884
1616.859556,-766.095498,1998.556043,9548.656652
1616.859873,153.219100,1406.391290,9622.677246
1616.860190,1225.752797,1702.473667,9622.677246
1616.860508,1915.238745,962.267725,7846.182985
1616.860825,1838.629195,-0.000000,6735.874072
1616.861142,1762.019645,-1036.288319,8364.327145
1616.861460,1149.143247,-518.144159,7698.141797
1616.861777,766.095498,-592.164754,7772.162391
1616.862094,76.609550,-1184.329507,10436.903782
1616.862412,-689.485948,-1258.350101,12731.542202
1616.862729,-995.924147,-0.000000,11547.212695
1616.863046,-1072.533697,740.205942,11325.150913
1616.863364,-1302.362347,518.144159,12139.377449
1616.863681,-1225.752797,888.247130,11177.109724
1616.863998,-153.219100,370.102971,9474.636058
1616.864316,995.924147,296.082377,9474.636058
1616.864633,1225.752797,-518.144159,9474.636058
1616.864950,2374.896044,-296.082377,7476.080014
1616.865268,2451.505594,-1110.308913,6365.771101
1616.865585,2451.505594,-1776.494261,7179.997637
1616.865902,1838.629195,-1850.514855,6513.812290
1616.866220,842.705048,-1480.411884,5625.565159
1616.866537,459.657299,-2220.617826,8068.244768
1616.866854,0.000000,-1998.556043,9844.739029
1616.867172,-383.047749,-1258.350101,10066.800811
1616.867489,-766.095498,-1258.350101,10807.006753
1616.867806,-766.095498,-814.226536,11325.150913
1616.868124,-766.095498,148.041188,10955.047942
1616.868441,306.438199,888.247130,9178.553681
1616.868758,1685.410096,-0.000000,8364.327145
1616.869076,1838.629195,-0.000000,8956.491898
1616.869393,2987.772442,-74.020594,7994.224174
1616.869710,3140.991542,-1110.308913,5847.626942
1616.870028,2987.772442,-3108.864956,6809.894666
1616.870345,2298.286494,-2960.823768,7402.059420
1616.870662,1302.362347,-2368.659014,5995.668130
1616.870980,766.095498,-2368.659014,6587.832884
1616.871297,153.219100,-2738.761985,9474.636058
1616.871614,-229.828649,-1776.494261,10584.944971
1616.871932,0.000000,-296.082377,10288.862594
1616.872249,-306.438199,-222.061783,11251.130318
1616.872566,-612.876398,370.102971,11769.274478
1616.872884,153.219100,1258.350101,11029.068536
1616.873201,995.924147,1406.391290,9474.636058
1616.873518,1838.629195,888.247130,9474.636058
1616.873836,2374.896044,592.164754,9326.594869
1616.874153,3294.210641,740.205942,7550.100608
1616.874470,3830.477490,-0.000000,7179.997637
1616.874788,3370.820191,-740.205942,7920.203579
1616.875105,2987.772442,-518.144159,7994.224174
1616.875422,1838.629195,-0.000000,7031.956449
1616.875740,1608.800546,-666.185348,9474.636058
1616.876057,766.095498,-0.000000,11029.068536
1616.876374,919.314598,1406.391290,11843.295072
1616.876692,0.000000,1554.432478,11991.336260
1616.877009,-229.828649,2220.617826,12583.501014
1616.877326,-306.438199,3034.844362,12509.480420
1616.877644,842.705048,4367.215058,10732.986159
1616.877961,1225.752797,3552.988522,9696.697840
1616.878278,1838.629195,3330.926739,9474.636058
1616.878596,2757.943793,3256.906145,8808.450710
1616.878913,3064.381992,1998.556043,7550.100608
1616.879230,2757.943793,370.102971,8956.491898
1616.879548,1685.410096,296.082377,9474.636058
1616.879865,612.876398,888.247130,8142.265362
1616.880183,-612.876398,518.144159,9326.594869
1616.880500,-995.924147,518.144159,11695.253884
1616.880817,-1762.019645,1332.370696,12287.418637
1616.881135,-1991.848295,2368.659014,11695.253884
1616.881452,-2757.943793,1924.535449,12139.377449
1616.881770,-2145.067394,1998.556043,13619.789333
1616.882087,-2145.067394,2886.803174,11917.315666
1616.882404,-1225.752797,2368.659014,9918.759623
1616.882722,-766.095498,2072.576638,10066.800811
1616.883039,536.266849,2368.659014,9252.574275
1616.883357,1838.629195,1998.556043,7550.100608
1616.883674,2221.676944,1036.288319,7698.141797
1616.883991,2068.457845,-74.020594,9252.574275
1616.884309,1225.752797,-0.000000,8290.306550
1616.884626,0.000000,-74.020594,8142.265362
1616.884944,-383.047749,-518.144159,10214.842000
1616.885261,-1225.752797,-0.000000,11251.130318
1616.885578,-689.485948,1036.288319,11029.068536
1616.885896,-766.095498,1406.391290,11399.171507
1616.886213,-995.924147,1628.453072,11769.274478
1616.886531,995.924147,1702.473667,11843.295072
1616.886848,1225.752797,1850.514855,9252.574275
1616.887165,2145.067394,518.144159,9178.553681
1616.887483,2604.724693,148.041188,9030.512492
1616.887800,2911.162892,666.185348,6439.791695
1616.888118,4136.915689,370.102971,6513.812290
1616.888435,3983.696590,-0.000000,6439.791695
1616.888752,3600.648841,-0.000000,6217.729913
1616.889070,2298.286494,-1184.329507,6661.853478
1616.889387,1455.581446,-2664.741391,8882.471304
1616.889705,-689.485948,-2664.741391,10436.903782
1616.890022,-306.438199,-814.226536,10881.027347
1616.890339,-995.924147,-222.061783,10584.944971
1616.890657,-612.876398,-0.000000,11547.212695
1616.890974,-306.438199,740.205942,10658.965565
1616.891292,689.485948,592.164754,9622.677246
1616.891609,995.924147,296.082377,8808.450710
1616.891926,1915.238745,-444.123565,8808.450710
1616.892244,2451.505594,-0.000000,7031.956449
1616.892561,2911.162892,-74.020594,4737.318029
1616.892879,3064.381992,-1258.350101,5921.647536
1616.893196,2911.162892,-1924.535449,6587.832884
1616.893513,2221.676944,-1258.350101,5551.544565
1616.893831,1685.410096,-1628.453072,5847.626942
1616.894148,459.657299,-1406.391290,8734.430116
1616.894465,-612.876398,-1258.350101,9252.574275
1616.894783,-919.314598,-814.226536,9918.759623
1616.895100,-1532.190996,-1332.370696,11547.212695
1616.895418,-1302.362347,-740.205942,13323.706956
1616.895735,-1225.752797,518.144159,11991.336260
1616.896052,-306.438199,740.205942,10955.047942
1616.896370,229.828649,592.164754,11103.089130
1616.896687,1455.581446,666.185348,9992.780217
1616.897005,2374.896044,962.267725,7698.141797
1616.897322,3294.210641,666.185348,6735.874072
1616.897639,4136.915689,888.247130,6883.915261
1616.897957,4519.963438,1110.308913,6735.874072
1616.898274,3983.696590,962.267725,6291.750507
1616.898592,2757.943793,-444.123565,8512.368333
1616.898909,995.924147,-444.123565,10214.842000
1616.899226,689.485948,-0.000000,10955.047942
1616.899544,-153.219100,962.267725,11547.212695
1616.899861,76.609550,1850.514855,13027.624579
1616.900179,536.266849,2072.576638,12657.521608
1616.900496,689.485948,2812.782580,10881.027347
1616.900813,1225.752797,2368.659014,10732.986159
1616.901131,2068.457845,2812.782580,10510.924376
1616.901448,2681.334243,3182.885551,8808.450710
1616.901766,2757.943793,2516.700203,7328.038826
1616.902083,2374.896044,1554.432478,8660.409521
1616.902400,1608.800546,1332.370696,9474.636058
1616.902718,1532.190996,1184.329507,8734.430116
1616.903035,842.705048,592.164754,9474.636058
1616.903353,-536.266849,-518.144159,11843.295072
1616.903670,-1455.581446,444.123565,11621.233289
1616.903987,-1149.143247,888.247130,11325.150913
1616.904305,-1915.238745,1332.370696,12139.377449
1616.904622,-1302.362347,2294.638420,12583.501014
1616.904940,-229.828649,3627.009116,9992.780217
1616.905257,-229.828649,3775.050304,8882.471304
1616.905574,76.609550,2886.803174,9548.656652
1616.905892,536.266849,2516.700203,8882.471304
1616.906209,1072.533697,1554.432478,7179.997637
1616.906527,536.266849,666.185348,7846.182985
1616.906844,306.438199,-370.102971,9474.636058
1616.907161,-229.828649,-0.000000,8734.430116
1616.907479,-383.047749,-962.267725,9104.533087
1616.907796,-919.314598,-1110.308913,11399.171507
1616.908114,-1378.971896,-444.123565,12065.356855
1616.908431,-842.705048,740.205942,11547.212695
1616.908748,-995.924147,1110.308913,11177.109724
1616.909066,-995.924147,2072.576638,11695.253884
1616.909383,229.828649,2516.700203,10955.047942
1616.909701,1225.752797,2960.823768,8808.450710
1616.910018,1838.629195,2072.576638,8364.327145
1616.910335,2681.334243,1480.411884,8216.285956
1616.910653,3600.648841,1406.391290,5847.626942
1616.910970,3907.087040,-0.000000,5921.647536
1616.911288,3600.648841,-1702.473667,6957.935855
1616.911605,2681.334243,-1850.514855,7402.059420
1616.911922,1532.190996,-1776.494261,7254.018232
1616.912240,919.314598,-2590.720797,9400.615463
1616.912557,-612.876398,-2368.659014,10658.965565
1616.912875,-1149.143247,-1110.308913,11547.212695
1616.913192,-1225.752797,-518.144159,11177.109724
1616.913509,-995.924147,-444.123565,12213.398043
1616.913827,-995.924147,148.041188,11843.295072
1616.914144,689.485948,666.185348,10658.965565
1616.914462,1302.362347,-0.000000,8956.491898
1616.914779,2451.505594,-518.144159,8882.471304
1616.915096,2528.115143,-740.205942,7179.997637
1616.915414,3447.429741,-888.247130,5255.462188
1616.915731,3983.696590,-1184.329507,5107.421000
1616.916049,3370.820191,-1554.432478,5773.606348
1616.916366,3064.381992,-1998.556043,6217.729913
1616.916683,1225.752797,-2146.597232,7105.977043
1616.917001,0.000000,-2738.761985,9474.636058
1616.917318,-1838.629195,-2368.659014,10288.862594
1616.917636,-1608.800546,-1850.514855,11103.089130
1616.917953,-1838.629195,-1628.453072,11473.192101
1616.918270,-2145.067394,-1036.288319,11917.315666
1616.918588,-1608.800546,-74.020594,11695.253884
1616.918905,-536.266849,-592.164754,10140.821405
1616.919222,306.438199,-518.144159,10807.006753
1616.919540,1302.362347,-296.082377,9474.636058
1616.919857,2145.067394,-518.144159,7254.018232
1616.920175,2757.943793,-148.041188,6661.853478
1616.920492,4136.915689,-444.123565,7328.038826
1616.920809,3600.648841,592.164754,6069.688724
1616.921127,3753.867940,-148.041188,6513.812290
1616.921444,2757.943793,-1110.308913,8660.409521
1616.921762,1762.019645,-814.226536,9918.759623
1616.922079,689.485948,-74.020594,9770.718434
1616.922396,0.000000,-0.000000,10955.047942
1616.922714,-1072.533697,-222.061783,12583.501014
1616.923031,-536.266849,962.267725,11917.315666
1616.923349,0.000000,1036.288319,10732.986159
1616.923666,-383.047749,-0.000000,10881.027347
1616.923983,459.657299,222.061783,11177.109724
1616.924301,1149.143247,1184.329507,8216.285956
1616.924618,1991.848295,888.247130,7772.162391
1616.924936,1455.581446,-0.000000,8290.306550
1616.925253,1532.190996,888.247130,7846.182985
1616.925570,1685.410096,1406.391290,7476.080014
1616.925888,1455.581446,444.123565,9400.615463
1616.926205,76.609550,-0.000000,10658.965565
1616.926523,-612.876398,296.082377,10955.047942
1616.926840,-1532.190996,1036.288319,10584.944971
1616.927157,-1991.848295,888.247130,11695.253884
1616.927475,-1685.410096,1184.329507,11621.233289
1616.927792,-1608.800546,2590.720797,10658.965565
1616.928110,-919.314598,1998.556043,10362.883188
1616.928427,-842.705048,1258.350101,10510.924376
1616.928744,0.000000,370.102971,9844.739029
1616.929062,383.047749,296.082377,8660.409521
1616.929379,0.000000,-518.144159,9474.636058
1616.929697,0.000000,-370.102971,9178.553681
1616.930014,306.438199,370.102971,7920.203579
1616.930331,306.438199,-0.000000,9474.636058
1616.930649,76.609550,-0.000000,10881.027347
1616.930966,-229.828649,962.267725,10955.047942
1616.931284,459.657299,1110.308913,10658.965565
1616.931601,306.438199,1332.370696,10881.027347
1616.931918,153.219100,962.267725,11547.212695
1616.932236,2145.067394,1924.535449,10140.821405
1616.932553,2834.553343,2368.659014,8290.306550
1616.932871,3524.039291,1406.391290,8956.491898
1616.933188,3753.867940,1184.329507,7994.224174
1616.933505,3753.867940,740.205942,6439.791695
1616.933823,3064.381992,296.082377,6069.688724
1616.934140,2298.286494,-1184.329507,8290.306550
1616.934458,1072.533697,-814.226536,7920.203579
1616.934775,0.000000,-1776.494261,8364.327145
1616.935092,-842.705048,-1850.514855,10658.965565
1616.935410,-1149.143247,-1406.391290,12509.480420
1616.935727,-1225.752797,-148.041188,11399.171507
1616.936045,-1149.143247,-0.000000,11695.253884
1616.936362,-1608.800546,-0.000000,12139.377449
1616.936679,-689.485948,962.267725,11325.150913
1616.936997,536.266849,1480.411884,9178.553681
1616.937314,1072.533697,1480.411884,8364.327145
1616.937632,2145.067394,592.164754,8956.491898
1616.937949,1608.800546,296.082377,6957.935855
1616.938266,2298.286494,-222.061783,5921.647536
1616.938584,1915.238745,-1332.370696,6661.853478
1616.938901,1608.800546,-1480.411884,6809.894666
1616.939219,1378.971896,-1998.556043,6587.832884
1616.939536,-153.219100,-2590.720797,8364.327145
1616.939853,-1225.752797,-3849.070898,10955.047942
1616.940171,-1915.238745,-2812.782580,11695.253884
1616.940488,-2298.286494,-1924.535449,11473.192101
1616.940806,-1762.019645,-1554.432478,12731.542202
1616.941123,-2145.067394,-296.082377,11917.315666
1616.941440,-689.485948,518.144159,10732.986159
1616.941758,76.609550,962.267725,9548.656652
1616.942075,1455.581446,296.082377,9992.780217
1616.942393,2757.943793,370.102971,8068.244768
1616.942710,3524.039291,370.102971,5699.585753
1616.943027,4596.572988,-666.185348,6217.729913
1616.943345,3830.477490,-888.247130,6513.812290
1616.943662,3677.258390,-296.082377,5921.647536
1616.943979,2451.505594,-962.267725,6883.915261
1616.944297,766.095498,-1480.411884,9696.697840
1616.944614,-153.219100,-1110.308913,11103.089130
1616.944932,-689.485948,-592.164754,11547.212695
1616.945249,-1072.533697,-814.226536,12065.356855
1616.945566,-1225.752797,-148.041188,13471.748144
1616.945884,-1225.752797,1480.411884,12213.398043
1616.946201,229.828649,1480.411884,11103.089130
1616.946519,1302.362347,1554.432478,9696.697840
1616.946836,2528.115143,1924.535449,9696.697840
1616.947153,3524.039291,2294.638420,7328.038826
1616.947471,3524.039291,1110.308913,6143.709319
1616.947788,3294.210641,-0.000000,7105.977043
1616.948106,2757.943793,-370.102971,7105.977043
1616.948423,1991.848295,-518.144159,7105.977043
1616.948740,1072.533697,-1406.391290,8734.430116
1616.949058,306.438199,-1406.391290,10288.862594
1616.949375,-153.219100,-518.144159,10807.006753
1616.949693,-842.705048,222.061783,11029.068536
1616.950010,-1072.533697,-0.000000,11917.315666
1616.950327,-1455.581446,1628.453072,11843.295072
1616.950645,-995.924147,1998.556043,10362.883188
1616.950962,-536.266849,1850.514855,10436.903782
1616.951280,-459.657299,1110.308913,10436.903782
1616.951597,536.266849,1184.329507,9178.553681
1616.951914,1302.362347,592.164754,7550.100608
1616.952232,1225.752797,-888.247130,8290.306550
1616.952549,1149.143247,-888.247130,8512.368333
1616.952867,1685.410096,-296.082377,7328.038826
1616.953184,689.485948,-222.061783,7920.203579
1616.953501,153.219100,-740.205942,10658.965565
1616.953819,-383.047749,444.123565,10881.027347
1616.954136,-153.219100,1850.514855,9844.739029
1616.954454,-612.876398,2368.659014,10584.944971
1616.954771,-1225.752797,2960.823768,11695.253884
1616.955088,-306.438199,3552.988522,10807.006753
1616.955406,0.000000,3108.864956,8808.450710
1616.955723,459.657299,1702.473667,10436.903782
1616.956041,612.876398,2072.576638,9622.677246
1616.956358,1455.581446,1480.411884,7698.141797
1616.956675,1302.362347,74.020594,7476.080014
1616.956993,1302.362347,-518.144159,8956.491898
1616.957310,1225.752797,-296.082377,8660.409521
1616.957628,612.876398,-370.102971,7920.203579
1616.957945,76.609550,-222.061783,10066.800811
1616.958262,-689.485948,-0.000000,11251.130318
1616.958580,-229.828649,1332.370696,10214.842000
1616.958897,-383.047749,1406.391290,11177.109724
1616.959215,-612.876398,1628.453072,11991.336260
1616.959532,536.266849,2368.659014,10584.944971
1616.959849,919.314598,2368.659014,9030.512492
1616.960167,1608.800546,1554.432478,9696.697840
1616.960484,2298.286494,740.205942,8586.388927
1616.960802,2451.505594,740.205942,7105.977043
1616.961119,2528.115143,-0.000000,6735.874072
1616.961436,2298.286494,-1258.350101,7994.224174
1616.961754,1685.410096,-1036.288319,8068.244768
1616.962071,995.924147,-444.123565,7550.100608
1616.962389,0.000000,-1258.350101,9844.739029
1616.962706,-842.705048,-1258.350101,11843.295072
1616.963023,-995.924147,-0.000000,11917.315666
1616.963341,-383.047749,296.082377,11325.150913
1616.963658,-689.485948,666.185348,11621.233289
1616.963976,0.000000,962.267725,11917.315666
1616.964293,1225.752797,1924.535449,10362.883188
1616.964610,2145.067394,1036.288319,9474.636058
1616.964928,2987.772442,296.082377,9844.739029
1616.965245,3524.039291,740.205942,7846.182985
1616.965563,4290.134789,592.164754,6587.832884
1616.965880,4903.011187,-0.000000,6513.812290
1616.966197,4136.915689,-222.061783,7550.100608
1616.966515,3907.087040,-296.082377,7254.018232
1616.966832,2681.334243,-518.144159,7772.162391
1616.967150,1532.190996,-1184.329507,9918.759623
1616.967467,459.657299,-1184.329507,11473.192101
1616.967784,-459.657299,-740.205942,11473.192101
1616.968102,-995.924147,-740.205942,11843.295072
1616.968419,-1149.143247,296.082377,12879.583391
1616.968736,-842.705048,1554.432478,11843.295072
1616.969054,0.000000,1850.514855,10510.924376
1616.969371,1225.752797,1480.411884,9326.594869
1616.969689,1991.848295,1850.514855,8660.409521
1616.970006,2757.943793,2294.638420,6069.688724
1616.970323,3294.210641,1110.308913,5033.400406
1616.970641,3217.601092,-0.000000,6439.791695
1616.970958,2298.286494,296.082377,5921.647536
1616.971276,1762.019645,-370.102971,6587.832884
1616.971593,-76.609550,-1036.288319,8364.327145
1616.971910,-1302.362347,-1406.391290,10807.006753
1616.972228,-2757.943793,-666.185348,10881.027347
1616.972545,-3370.820191,-222.061783,11547.212695
1616.972863,-3753.867940,-296.082377,12657.521608
1616.973180,-3370.820191,888.247130,12509.480420
1616.973497,-2298.286494,1406.391290,10658.965565
1616.973815,-1378.971896,1406.391290,10510.924376
1616.974132,-536.266849,888.247130,10362.883188
1616.974450,536.266849,1628.453072,7846.182985
1616.974767,1915.238745,962.267725,7031.956449
1616.975084,2068.457845,-0.000000,7402.059420
1616.975402,2451.505594,-74.020594,7105.977043
1616.975719,2681.334243,222.061783,6661.853478
1616.976037,2068.457845,-0.000000,7254.018232
1616.976354,1608.800546,-814.226536,9548.656652
1616.976671,459.657299,-0.000000,9548.656652
1616.976989,383.047749,-0.000000,10214.842000
1616.977306,-383.047749,444.123565,11399.171507
1616.977623,0.000000,1110.308913,12139.377449
1616.977940,229.828649,1406.391290,11325.150913
1616.978258,766.095498,1332.370696,10732.986159
1616.978575,995.924147,370.102971,11103.089130
1616.978892,2145.067394,1110.308913,9770.718434
1616.979210,2757.943793,1184.329507,7254.018232
1616.979527,2987.772442,-0.000000,7550.100608
1616.979844,3217.601092,-222.061783,8586.388927
1616.980161,2681.334243,296.082377,7550.100608
1616.980479,2681.334243,-0.000000,7772.162391
1616.980796,1685.410096,-0.000000,9400.615463
1616.981113,1072.533697,148.041188,10807.006753
1616.981430,1532.190996,814.226536,10140.821405
1616.981748,842.705048,740.205942,10658.965565
1616.982065,229.828649,1184.329507,11325.150913
1616.982382,689.485948,1924.535449,10881.027347
1616.982699,1302.362347,2368.659014,9474.636058
1616.983017,1302.362347,1776.494261,9326.594869
1616.983334,1149.143247,1258.350101,9844.739029
1616.983651,1072.533697,962.267725,7994.224174
1616.983969,1225.752797,-148.041188,7624.121203
1616.984286,1072.533697,-1480.411884,9104.533087
1616.984603,995.924147,-1998.556043,9178.553681
1616.984920,229.828649,-1480.411884,7624.121203
1616.985238,76.609550,-2368.659014,10140.821405
1616.985555,-306.438199,-1850.514855,11325.150913
1616.985872,-383.047749,-814.226536,10658.965565
1616.986189,76.609550,592.164754,10066.800811
1616.986507,-459.657299,592.164754,10881.027347
1616.986824,0.000000,1998.556043,10955.047942
1616.987141,842.705048,2442.679609,9400.615463
1616.987458,919.314598,2220.617826,8586.388927
1616.987776,1225.752797,1258.350101,9474.636058
1616.988093,2298.286494,1332.370696,8364.327145
1616.988410,2604.724693,1258.350101,6069.688724
1616.988727,2987.772442,-592.164754,7624.121203
1616.989045,1762.019645,-888.247130,8142.265362
1616.989362,2068.457845,-814.226536,8586.388927
1616.989679,766.095498,-962.267725,8808.450710
1616.989997,306.438199,-1258.350101,11473.192101
1616.990314,-536.266849,-0.000000,11177.109724
1616.990631,-383.047749,518.144159,10510.924376
1616.990948,-689.485948,148.041188,11029.068536
1616.991266,-229.828649,518.144159,11399.171507
1616.991583,612.876398,1480.411884,9770.718434
1616.991900,1378.971896,1850.514855,8216.285956
1616.992217,1762.019645,888.247130,8808.450710
1616.992535,2145.067394,1110.308913,7920.203579
1616.992852,2145.067394,592.164754,6735.874072
1616.993169,2068.457845,-296.082377,6883.915261
1616.993486,1378.971896,-592.164754,8216.285956
1616.993804,995.924147,-222.061783,8364.327145
1616.994121,0.000000,-888.247130,8882.471304
1616.994438,-1455.581446,-1924.535449,11029.068536
1616.994756,-2528.115143,-1554.432478,12287.418637
1616.995073,-2221.676944,-814.226536,12065.356855
1616.995390,-2757.943793,-444.123565,12287.418637
1616.995707,-2681.334243,148.041188,12805.562797
1616.996025,-1455.581446,1258.350101,11621.233289
1616.996342,-383.047749,1554.432478,9326.594869
1616.996659,612.876398,814.226536,9252.574275
1616.996976,1608.800546,518.144159,8808.450710
1616.997294,2911.162892,888.247130,6291.750507
1616.997611,3524.039291,222.061783,5477.523971
1616.997928,4136.915689,-1924.535449,7105.977043
1616.998245,2604.724693,-1332.370696,7476.080014
1616.998563,2221.676944,-962.267725,7254.018232
1616.998880,612.876398,-370.102971,8660.409521
1616.999197,306.438199,-888.247130,11547.212695
1616.999515,-919.314598,-0.000000,11769.274478
1616.999832,-459.657299,814.226536,11695.253884
1617.000149,-1608.800546,740.205942,12583.501014
1617.000466,-1302.362347,888.247130,12657.521608
1617.000784,459.657299,1406.391290,11769.274478
1617.001101,1072.533697,1332.370696,9844.739029
1617.001418,2068.457845,962.267725,9844.739029
1617.001735,2604.724693,1184.329507,8142.265362
1617.002053,3753.867940,814.226536,6365.771101
1617.002370,4519.963438,-0.000000,6513.812290
1617.002687,3677.258390,-74.020594,6735.874072
1617.003004,3217.601092,-0.000000,6069.688724
1617.003322,2451.505594,-0.000000,6143.709319
1617.003639,1685.410096,-518.144159,8882.471304
1617.003956,536.266849,-592.164754,10584.944971
1617.004273,-536.266849,-0.000000,10658.965565
1617.004591,-1685.410096,370.102971,11103.089130
1617.004908,-1685.410096,1184.329507,12287.418637
1617.005225,-1378.971896,1554.432478,11473.192101
1617.005543,-842.705048,518.144159,10732.986159
1617.005860,-1149.143247,74.020594,10510.924376
1617.006177,-383.047749,-0.000000,10584.944971
1617.006494,306.438199,-0.000000,7920.203579
1617.006812,919.314598,-666.185348,7179.997637
1617.007129,1225.752797,-1554.432478,8586.388927
1617.007446,842.705048,-518.144159,7179.997637
1617.007763,766.095498,-888.247130,6439.791695
1617.008081,0.000000,-1332.370696,8734.430116
1617.008398,-229.828649,-1332.370696,10584.944971
1617.008715,-919.314598,-296.082377,9474.636058
1617.009032,-842.705048,-0.000000,10066.800811
1617.009350,-1378.971896,-444.123565,12361.439231
1617.009667,-1072.533697,148.041188,11843.295072
1617.009984,-842.705048,1184.329507,10288.862594
1617.010302,0.000000,814.226536,10510.924376
1617.010619,383.047749,1184.329507,10214.842000
1617.010936,1302.362347,592.164754,9030.512492
1617.011253,1608.800546,-0.000000,7846.182985
1617.011571,1455.581446,-666.185348,8216.285956
1617.011888,1685.410096,-1258.350101,8808.450710
1617.012205,1608.800546,-518.144159,7179.997637
1617.012522,766.095498,-1258.350101,8438.347739
1617.012840,383.047749,-1998.556043,10955.047942
1617.013157,0.000000,-1480.411884,10214.842000
1617.013474,0.000000,-888.247130,10214.842000
1617.013791,-229.828649,222.061783,11029.068536
1617.014109,76.609550,1110.308913,11177.109724
1617.014426,1302.362347,2442.679609,9326.594869
1617.014743,2068.457845,2220.617826,8808.450710
1617.015060,2681.334243,1628.453072,9104.533087
1617.015378,2757.943793,1998.556043,7624.121203
1617.015695,3677.258390,1406.391290,6735.874072
1617.016012,3370.820191,-0.000000,7328.038826
1617.016330,2145.067394,-814.226536,7846.182985
1617.016647,1608.800546,-1036.288319,8068.244768
1617.016964,536.266849,-1332.370696,8586.388927
1617.017281,-459.657299,-2368.659014,11177.109724
1617.017599,-689.485948,-1628.453072,11621.233289
1617.017916,-1225.752797,-444.123565,10955.047942
1617.018233,0.000000,-518.144159,11695.253884
1617.018550,-689.485948,296.082377,11547.212695
1617.018868,766.095498,1110.308913,10584.944971
1617.019185,1915.238745,2146.597232,8586.388927
1617.019502,2451.505594,2146.597232,8438.347739
1617.019819,2987.772442,1776.494261,7846.182985
1617.020137,3064.381992,1850.514855,6069.688724
1617.020454,3447.429741,592.164754,6143.709319
1617.020771,2604.724693,-370.102971,7328.038826
1617.021089,2298.286494,-1184.329507,8290.306550
1617.021406,842.705048,-1406.391290,7772.162391
1617.021723,-229.828649,-2220.617826,9918.759623
1617.022040,-1225.752797,-2220.617826,12509.480420
1617.022358,-1685.410096,-814.226536,12435.459826
1617.022675,-2145.067394,222.061783,11769.274478
1617.022992,-1915.238745,740.205942,12139.377449
1617.023309,-1378.971896,1776.494261,11843.295072
1617.023627,-459.657299,2368.659014,9992.780217
1617.023944,995.924147,1776.494261,8956.491898
1617.024261,1378.971896,2294.638420,8734.430116
1617.024578,2221.676944,2072.576638,7550.100608
1617.024896,2987.772442,1332.370696,5921.647536
1617.025213,2757.943793,444.123565,6587.832884
1617.025530,2451.505594,-296.082377,7179.997637
1617.025848,1762.019645,-0.000000,6587.832884
1617.026165,306.438199,-296.082377,8068.244768
1617.026482,-1225.752797,-1332.370696,10955.047942
1617.026799,-2451.505594,222.061783,11399.171507
1617.027117,-2911.162892,740.205942,11621.233289
1617.027434,-3524.039291,740.205942,12953.603985
1617.027751,-3370.820191,222.061783,13323.706956
1617.028068,-3294.210641,1332.370696,10362.883188
1617.028386,-2451.505594,592.164754,11103.089130
1617.028703,-1532.190996,-296.082377,12213.398043
1617.029020,-612.876398,148.041188,9548.656652
1617.029337,1378.971896,518.144159,7476.080014
1617.029655,2298.286494,-296.082377,7476.080014
1617.029972,2528.115143,-1332.370696,7772.162391
1617.030289,2987.772442,-592.164754,6883.915261
1617.030606,2604.724693,-444.123565,7179.997637
1617.030924,1915.238745,-1184.329507,8142.265362
1617.031241,995.924147,-962.267725,10732.986159
1617.031558,76.609550,-518.144159,11251.130318
1617.031876,0.000000,370.102971,11251.130318
1617.032193,-383.047749,1332.370696,11843.295072
1617.032510,0.000000,1554.432478,12287.418637
1617.032827,919.314598,1406.391290,11177.109724
1617.033145,1455.581446,740.205942,9918.759623
1617.033462,1915.238745,-0.000000,10436.903782
1617.033779,2681.334243,-592.164754,9400.615463
1617.034096,3370.820191,-740.205942,7550.100608
1617.034414,3907.087040,-1036.288319,7476.080014
1617.034731,4136.915689,-740.205942,7624.121203
1617.035048,4136.915689,-370.102971,6957.935855
1617.035365,3370.820191,-0.000000,7846.182985
1617.035683,3064.381992,74.020594,9400.615463
1617.036000,2298.286494,1184.329507,9178.553681
1617.036317,2145.067394,1184.329507,9252.574275
1617.036635,1455.581446,1036.288319,11103.089130
1617.036952,1378.971896,2220.617826,10881.027347
1617.037269,2145.067394,2442.679609,9770.718434
1617.037586,1455.581446,2146.597232,9252.574275
1617.037904,1302.362347,666.185348,10140.821405
1617.038221,1608.800546,-0.000000,8586.388927
1617.038538,1455.581446,-0.000000,7328.038826
1617.038855,1455.581446,-1924.535449,8068.244768
1617.039173,766.095498,-1924.535449,8142.265362
1617.039490,689.485948,-518.144159,6735.874072
1617.039807,612.876398,-444.123565,7254.018232
1617.040124,0.000000,-1332.370696,9178.553681
1617.040442,0.000000,-1258.350101,9844.739029
1617.040759,-842.705048,518.144159,9030.512492
1617.041076,-1378.971896,962.267725,9548.656652
1617.041393,-1225.752797,1332.370696,10881.027347
1617.041711,-995.924147,2812.782580,9918.759623
1617.042028,-536.266849,2442.679609,9400.615463
1617.042345,-383.047749,2146.597232,9844.739029
1617.042663,76.609550,1406.391290,9770.718434
1617.042980,689.485948,962.267725,8142.265362
1617.043297,536.266849,222.061783,7994.224174
1617.043614,153.219100,-592.164754,9178.553681
1617.043932,0.000000,-814.226536,8660.409521
1617.044249,-459.657299,-888.247130,8216.285956
1617.044566,-536.266849,-1480.411884,10140.821405
1617.044883,-995.924147,-444.123565,11103.089130
1617.045201,-306.438199,666.185348,10584.944971
1617.045518,-842.705048,1036.288319,10362.883188
1617.045835,-459.657299,1110.308913,11843.295072
1617.046152,76.609550,2368.659014,11695.253884
1617.046470,2145.067394,2960.823768,9548.656652
1617.046787,2757.943793,2368.659014,9178.553681
1617.047104,3217.601092,2590.720797,8956.491898
1617.047422,4136.915689,2516.700203,7476.080014
1617.047739,4290.134789,2146.597232,6217.729913
1617.048056,3907.087040,814.226536,7772.162391
1617.048373,3140.991542,-74.020594,8660.409521
1617.048691,1915.238745,-0.000000,8068.244768
1617.049008,766.095498,-296.082377,9400.615463
1617.049325,-459.657299,-1110.308913,12657.521608
1617.049642,-1378.971896,-518.144159,12731.542202
1617.049960,-536.266849,148.041188,12435.459826
1617.050277,-1685.410096,-0.000000,12731.542202
1617.050594,-842.705048,296.082377,13175.665768
1617.050911,919.314598,1406.391290,11029.068536
1617.051229,919.314598,1998.556043,9474.636058
1617.051546,2451.505594,1776.494261,9252.574275
1617.051863,1762.019645,1850.514855,7550.100608
1617.052181,3064.381992,888.247130,6513.812290
1617.052498,3064.381992,-148.041188,6883.915261
1617.052815,2298.286494,-1406.391290,8290.306550
1617.053132,1072.533697,-1036.288319,6587.832884
1617.053450,76.609550,-2294.638420,8882.471304
1617.053767,-1149.143247,-2812.782580,11251.130318
1617.054084,-2451.505594,-2368.659014,11695.253884
1617.054401,-2757.943793,-666.185348,11251.130318
1617.054719,-2681.334243,-592.164754,12805.562797
1617.055036,-2681.334243,-814.226536,13767.830521
1617.055353,-1838.629195,-148.041188,12879.583391
1617.055670,-995.924147,666.185348,11399.171507
1617.055988,0.000000,-74.020594,10510.924376
1617.056305,1532.190996,-518.144159,10140.821405
1617.056622,3140.991542,-74.020594,7624.121203
1617.056939,4136.915689,-0.000000,5329.482782
1617.057257,4673.182538,-0.000000,4663.297435
1617.057574,4903.011187,-222.061783,4737.318029
1617.057891,4519.963438,-296.082377,5255.462188
1617.058209,3294.210641,-814.226536,5773.606348
1617.058526,2068.457845,-1036.288319,9030.512492
1617.058843,0.000000,-1258.350101,10362.883188
1617.059160,-995.924147,-1480.411884,11325.150913
1617.059478,-1455.581446,-0.000000,11621.233289
1617.059795,-1455.581446,1776.494261,12065.356855
1617.060112,-612.876398,1332.370696,10658.965565
1617.060429,-153.219100,814.226536,10140.821405
1617.060747,383.047749,1776.494261,9474.636058
1617.061064,1455.581446,2072.576638,7846.182985
1617.061381,2298.286494,888.247130,5477.523971
1617.061698,2221.676944,-888.247130,6365.771101
1617.062016,2221.676944,-1184.329507,7920.203579
1617.062333,1915.238745,-370.102971,5329.482782
1617.062650,1685.410096,-814.226536,6735.874072
1617.062968,1685.410096,-1554.432478,9474.636058
1617.063285,536.266849,-666.185348,9400.615463
1617.063602,0.000000,962.267725,7772.162391
1617.063919,-536.266849,-0.000000,10510.924376
1617.064237,-1225.752797,1036.288319,11325.150913
1617.064554,-689.485948,2442.679609,10140.821405
1617.064871,-612.876398,3552.988522,8512.368333
1617.065188,-919.314598,2146.597232,10362.883188
1617.065506,-612.876398,962.267725,10732.986159
1617.065823,153.219100,592.164754,8586.388927
1617.066140,229.828649,-444.123565,9252.574275
1617.066457,536.266849,-1480.411884,10288.862594
1617.066775,1072.533697,-1406.391290,9548.656652
1617.067092,1532.190996,-518.144159,8142.265362
1617.067409,1378.971896,-592.164754,10066.800811
1617.067726,1532.190996,518.144159,11029.068536
1617.068044,1762.019645,1850.514855,9844.739029
1617.068361,1685.410096,3330.926739,9696.697840
1617.068678,1302.362347,3256.906145,10807.006753
1617.068996,995.924147,3552.988522,10658.965565
1617.069313,1532.190996,3404.947333,9770.718434
1617.069630,1378.971896,2294.638420,10288.862594
1617.069947,1685.410096,1850.514855,10362.883188
1617.070265,2221.676944,1036.288319,9548.656652
1617.070582,2374.896044,-74.020594,9178.553681
1617.070899,2221.676944,-740.205942,9844.739029
1617.071216,995.924147,-1036.288319,9844.739029
1617.071534,689.485948,-962.267725,9326.594869
1617.071851,-306.438199,-1036.288319,10510.924376
1617.072168,-842.705048,-592.164754,12657.521608
1617.072485,-766.095498,592.164754,11991.336260
1617.072803,-995.924147,1480.411884,10732.986159
1617.073120,-919.314598,1406.391290,11843.295072
1617.073437,-383.047749,1850.514855,11695.253884
1617.073755,612.876398,2590.720797,9178.553681
1617.074072,1302.362347,1628.453072,8216.285956
1617.074389,1072.533697,370.102971,9400.615463
1617.074706,1225.752797,-222.061783,8290.306550
1617.075024,1762.019645,-962.267725,6883.915261
1617.075341,1072.533697,-1776.494261,8290.306550
1617.075658,0.000000,-2146.597232,9104.533087
1617.075975,-612.876398,-1702.473667,8290.306550
1617.076293,-1149.143247,-1776.494261,9104.533087
1617.076610,-2221.676944,-2220.617826,11029.068536
1617.076927,-1685.410096,-1776.494261,11843.295072
1617.077244,-2221.676944,-592.164754,10881.027347
1617.077562,-1838.629195,-74.020594,10881.027347
1617.077879,-612.876398,-222.061783,11843.295072
1617.078196,306.438199,296.082377,10214.842000
1617.078514,995.924147,740.205942,8882.471304
1617.078831,1838.629195,740.205942,8660.409521
1617.079148,3140.991542,1258.350101,7624.121203
1617.079465,4749.792088,740.205942,6291.750507
1617.079783,4903.011187,296.082377,5181.441594
1617.080100,4826.401637,-370.102971,5329.482782
1617.080417,3983.696590,-814.226536,5477.523971
1617.080734,3753.867940,-1036.288319,5847.626942
1617.081052,2604.724693,-2220.617826,7624.121203
1617.081369,995.924147,-1998.556043,9548.656652
1617.081686,76.609550,-1332.370696,10288.862594
1617.082003,-842.705048,-1110.308913,10510.924376
1617.082321,-689.485948,-962.267725,12361.439231
1617.082638,-1455.581446,-518.144159,12065.356855
1617.082955,-995.924147,666.185348,10362.883188
1617.083272,229.828649,814.226536,9770.718434
1617.083590,1455.581446,222.061783,9770.718434
1617.083907,2604.724693,888.247130,7402.059420
1617.084224,3064.381992,296.082377,5625.565159
1617.084541,3907.087040,-148.041188,5921.647536
1617.084859,3600.648841,148.041188,5625.565159
1617.085176,3294.210641,-0.000000,5403.503377
1617.085493,2145.067394,-666.185348,6513.812290
1617.085810,306.438199,-1258.350101,9474.636058
1617.086127,-612.876398,-1036.288319,10881.027347
1617.086445,-2068.457845,-592.164754,10658.965565
1617.086762,-2528.115143,-814.226536,12583.501014
1617.087079,-3217.601092,-148.041188,12953.603985
1617.087396,-2374.896044,444.123565,12065.356855
1617.087714,-1532.190996,444.123565,11029.068536
1617.088031,-995.924147,-0.000000,11547.212695
1617.088348,229.828649,888.247130,9918.759623
1617.088665,919.314598,1184.329507,7772.162391
1617.088983,2374.896044,370.102971,8142.265362
1617.089300,1915.238745,-444.123565,8216.285956
1617.089617,1991.848295,296.082377,7624.121203
1617.089934,1991.848295,148.041188,7476.080014
1617.090252,1072.533697,-370.102971,9918.759623
1617.090569,842.705048,-74.020594,11325.150913
1617.090886,76.609550,962.267725,10214.842000
1617.091203,0.000000,1184.329507,11103.089130
1617.091521,-919.314598,1110.308913,12435.459826
1617.091838,-383.047749,1702.473667,12361.439231
1617.092155,-153.219100,2220.617826,11029.068536
1617.092472,-612.876398,1776.494261,11177.109724
1617.092790,-229.828649,1554.432478,11029.068536
1617.093107,612.876398,1702.473667,9474.636058
1617.093424,612.876398,518.144159,8586.388927
1617.093741,1149.143247,-0.000000,9326.594869
1617.094058,919.314598,-74.020594,8882.471304
1617.094376,1915.238745,-666.185348,8142.265362
1617.094693,919.314598,-1406.391290,8882.471304
1617.095010,229.828649,-888.247130,10584.944971
1617.095327,0.000000,-148.041188,10288.862594
1617.095645,0.000000,814.226536,10066.800811
1617.095962,-306.438199,962.267725,11325.150913
1617.096279,-842.705048,2442.679609,11103.089130
1617.096596,306.438199,3552.988522,9622.677246
1617.096914,229.828649,2516.700203,9400.615463
1617.097231,689.485948,1406.391290,9844.739029
1617.097548,842.705048,592.164754,8882.471304
1617.097865,842.705048,-0.000000,7920.203579
1617.098183,1378.971896,-1480.411884,7994.224174
1617.098500,1455.581446,-2220.617826,8734.430116
1617.098817,919.314598,-2368.659014,7846.182985
1617.099134,919.314598,-2960.823768,9178.553681
1617.099452,306.438199,-2368.659014,10658.965565
1617.099769,229.828649,-1554.432478,11029.068536
1617.100086,459.657299,-222.061783,9844.739029
1617.100403,536.266849,1110.308913,10288.862594
1617.100721,459.657299,2146.597232,9844.739029
1617.101038,1915.238745,3182.885551,8512.368333
1617.101355,2757.943793,3108.864956,7624.121203
1617.101672,2911.162892,2146.597232,7920.203579
1617.101989,3677.258390,1480.411884,8068.244768
1617.102307,4060.306139,-0.000000,7328.038826
1617.102624,3294.210641,-1480.411884,7402.059420
1617.102941,2604.724693,-2220.617826,7846.182985
1617.103258,1991.848295,-1998.556043,7994.224174
1617.103576,689.485948,-2146.597232,8142.265362
1617.103893,383.047749,-2072.576638,10214.842000
1617.104210,0.000000,-1480.411884,11177.109724
1617.104527,-536.266849,-0.000000,10436.903782
1617.104845,-306.438199,148.041188,10658.965565
1617.105162,-995.924147,1258.350101,10732.986159
1617.105479,76.609550,1924.535449,10362.883188
1617.105796,229.828649,3552.988522,7920.203579
1617.106114,1225.752797,2294.638420,8512.368333
1617.106431,1838.629195,1702.473667,8512.368333
1617.106748,2145.067394,1332.370696,7402.059420
1617.107065,2374.896044,-0.000000,6291.750507
1617.107383,1455.581446,-962.267725,7328.038826
1617.107700,1608.800546,-2072.576638,8438.347739
1617.108017,153.219100,-1480.411884,7328.038826
1617.108334,-383.047749,-2368.659014,9918.759623
1617.108652,-1915.238745,-1554.432478,11177.109724
1617.108969,-2604.724693,-814.226536,11473.192101
1617.109286,-2374.896044,518.144159,11769.274478
1617.109603,-2834.553343,518.144159,12805.562797
1617.109920,-2221.676944,1554.432478,12065.356855
1617.110238,-995.924147,2442.679609,9918.759623
1617.110555,0.000000,2072.576638,9548.656652
1617.110872,612.876398,1258.350101,9474.636058
1617.111189,2221.676944,1036.288319,8364.327145
1617.111507,2145.067394,740.205942,6957.935855
1617.111824,2834.553343,-888.247130,7698.141797
1617.112141,2834.553343,-962.267725,8438.347739
1617.112458,2145.067394,-444.123565,7772.162391
1617.112776,2068.457845,-296.082377,8734.430116
1617.113093,842.705048,-296.082377,10658.965565
1617.113410,-306.438199,296.082377,11399.171507
1617.113727,0.000000,962.267725,11177.109724
1617.114045,-229.828649,1776.494261,12139.377449
1617.114362,-612.876398,1702.473667,12435.459826
1617.114679,229.828649,2368.659014,12361.439231
1617.114996,1072.533697,2812.782580,10066.800811
1617.115314,1302.362347,2072.576638,9770.718434
1617.115631,2374.896044,2146.597232,9548.656652
1617.115948,2757.943793,1110.308913,7772.162391
1617.116265,3600.648841,888.247130,7105.977043
1617.116583,2911.162892,740.205942,6661.853478
1617.116900,2451.505594,1036.288319,6439.791695
1617.117217,2221.676944,-0.000000,6587.832884
1617.117534,919.314598,-592.164754,8734.430116
1617.117851,-612.876398,-1184.329507,10362.883188
1617.118169,-1685.410096,-370.102971,11843.295072
1617.118486,-2221.676944,-0.000000,11695.253884
1617.118803,-2987.772442,888.247130,12509.480420
1617.119120,-2298.286494,1184.329507,12879.583391
1617.119438,-1762.019645,740.205942,10955.047942
1617.119755,-1455.581446,666.185348,10066.800811
1617.120072,0.000000,518.144159,10584.944971
1617.120389,1072.533697,296.082377,8586.388927
1617.120707,2298.286494,148.041188,7105.977043
1617.121024,2068.457845,-1332.370696,7402.059420
1617.121341,1762.019645,-1110.308913,7031.956449
1617.121658,2221.676944,-962.267725,6143.709319
1617.121976,1608.800546,-1628.453072,7031.956449
1617.122293,689.485948,-1776.494261,9770.718434
1617.122610,-306.438199,-962.267725,10288.862594
1617.122927,-689.485948,444.123565,9548.656652
1617.123245,-612.876398,-370.102971,11621.233289
1617.123562,-1302.362347,-74.020594,12435.459826
1617.123879,-766.095498,740.205942,10732.986159
1617.124196,153.219100,1554.432478,9696.697840
1617.124514,1072.533697,1110.308913,10140.821405
1617.124831,2911.162892,518.144159,9770.718434
1617.125148,3447.429741,740.205942,7402.059420
1617.125465,3983.696590,-0.000000,6809.894666
1617.125782,4136.915689,-666.185348,7179.997637
1617.126100,4136.915689,-518.144159,6439.791695
1617.126417,3830.477490,-518.144159,6291.750507
1617.126734,2681.334243,-740.205942,7994.224174
1617.127051,1532.190996,-592.164754,9622.677246
1617.127369,766.095498,-148.041188,9844.739029
1617.127686,766.095498,-296.082377,10362.883188
1617.128003,536.266849,518.144159,11621.233289
1617.128320,0.000000,1850.514855,10288.862594
1617.128638,995.924147,2220.617826,10140.821405
1617.128955,1072.533697,1776.494261,9918.759623
1617.129272,1532.190996,1998.556043,9622.677246
1617.129589,1915.238745,1924.535449,8142.265362
1617.129907,1838.629195,1850.514855,7105.977043
1617.130224,2145.067394,-0.000000,8364.327145
1617.130541,1532.190996,-296.082377,7772.162391
1617.130858,1532.190996,-814.226536,8068.244768
1617.131176,76.609550,-1998.556043,9326.594869
1617.131493,-459.657299,-1776.494261,10807.006753
1617.131810,-842.705048,-1332.370696,10140.821405
1617.132127,-1302.362347,-666.185348,10955.047942
1617.132445,-2145.067394,-888.247130,12583.501014
1617.132762,-2298.286494,1258.350101,11251.130318
1617.133079,-1991.848295,2072.576638,10658.965565
1617.133396,-1225.752797,2664.741391,10955.047942
1617.133713,-1302.362347,2072.576638,10510.924376
1617.134031,-536.266849,2812.782580,8586.388927
1617.134348,689.485948,1480.411884,8364.327145
1617.134665,842.705048,-148.041188,9474.636058
1617.134982,1532.190996,-1036.288319,9918.759623
1617.135300,2451.505594,-962.267725,8364.327145
1617.135617,1685.410096,-1036.288319,9178.553681
1617.135934,919.314598,-1998.556043,11621.233289
1617.136251,766.095498,-1110.308913,11547.212695
1617.136569,612.876398,1036.288319,10436.903782
1617.136886,76.609550,2294.638420,10140.821405
1617.137203,76.609550,2294.638420,11621.233289
1617.137520,1225.752797,3478.967927,9696.697840
1617.137838,1838.629195,3775.050304,8142.265362
1617.138155,2221.676944,2812.782580,8586.388927
1617.138472,2298.286494,1480.411884,8660.409521
1617.138789,2604.724693,296.082377,7031.956449
1617.139107,2604.724693,-444.123565,7402.059420
1617.139424,1838.629195,-1332.370696,8660.409521
1617.139741,1302.362347,-2220.617826,9030.512492
1617.140058,459.657299,-1184.329507,9326.594869
1617.140376,-1149.143247,-1036.288319,10140.821405
1617.140693,-1302.362347,-148.041188,11547.212695
1617.141010,-995.924147,222.061783,11177.109724
1617.141327,-1149.143247,888.247130,11473.192101
1617.141644,-1762.019645,1258.350101,11991.336260
1617.141962,-766.095498,2738.761985,9918.759623
1617.142279,612.876398,2368.659014,9474.636058
1617.142596,1302.362347,888.247130,9474.636058
1617.142913,1762.019645,1036.288319,7772.162391
1617.143231,2374.896044,-0.000000,6661.853478
1617.143548,2834.553343,-592.164754,6143.709319
1617.143865,2528.115143,-2590.720797,7105.977043
1617.144182,1991.848295,-2368.659014,7476.080014
1617.144500,1378.971896,-2072.576638,7105.977043
1617.144817,612.876398,-2072.576638,8216.285956
1617.145134,0.000000,-2220.617826,11177.109724
1617.145451,76.609550,-1776.494261,11843.295072
1617.145769,-612.876398,1036.288319,9696.697840
1617.146086,76.609550,1110.308913,11843.295072
1617.146403,-383.047749,666.185348,11843.295072
1617.146720,459.657299,1184.329507,11029.068536
1617.147038,1302.362347,1702.473667,8882.471304
1617.147355,2068.457845,962.267725,9326.594869
1617.147672,2757.943793,-296.082377,8512.368333
1617.147989,3217.601092,-962.267725,7254.018232
1617.148307,3830.477490,-518.144159,6957.935855
1617.148624,4443.353888,-666.185348,6735.874072
1617.148941,3524.039291,-1258.350101,6513.812290
1617.149258,2911.162892,-888.247130,6735.874072
1617.149575,1455.581446,-1036.288319,8808.450710
1617.149893,766.095498,-518.144159,9992.780217
1617.150210,0.000000,370.102971,10584.944971
1617.150527,-766.095498,740.205942,11177.109724
1617.150844,-842.705048,1776.494261,12213.398043
1617.151162,-689.485948,2146.597232,10955.047942
1617.151479,-306.438199,1628.453072,10732.986159
1617.151796,76.609550,222.061783,10955.047942
1617.152113,689.485948,888.247130,9770.718434
1617.152431,1608.800546,1406.391290,7402.059420
1617.152748,2528.115143,-0.000000,8068.244768
1617.153065,2528.115143,-1776.494261,8364.327145
1617.153382,2068.457845,-888.247130,6513.812290
1617.153700,2298.286494,-444.123565,7105.977043
1617.154017,1455.581446,-1110.308913,8290.306550
1617.154334,383.047749,-1332.370696,10066.800811
1617.154651,-612.876398,-0.000000,9918.759623
1617.154969,-1302.362347,444.123565,10362.883188
1617.155286,-1762.019645,74.020594,11473.192101
1617.155603,-1225.752797,888.247130,11843.295072
1617.155920,-919.314598,2072.576638,10436.903782
1617.156238,-689.485948,1998.556043,10214.842000
1617.156555,-153.219100,740.205942,11325.150913
1617.156872,306.438199,592.164754,9548.656652
1617.157189,919.314598,592.164754,8660.409521
1617.157506,842.705048,-296.082377,9252.574275
1617.157824,1838.629195,-0.000000,8808.450710
1617.158141,1762.019645,-222.061783,8364.327145
1617.158458,1302.362347,-666.185348,9104.533087
1617.158775,536.266849,-148.041188,10140.821405
1617.159093,306.438199,370.102971,10584.944971
1617.159410,229.828649,444.123565,10584.944971
1617.159727,-383.047749,1850.514855,10510.924376
1617.160044,-383.047749,2442.679609,11029.068536
1617.160362,229.828649,2812.782580,9474.636058
1617.160679,995.924147,2146.597232,9622.677246
1617.160996,1072.533697,1184.329507,9770.718434
1617.161313,1302.362347,814.226536,9104.533087
1617.161631,1532.190996,1036.288319,7476.080014
1617.161948,1915.238745,370.102971,7994.224174
1617.162265,1072.533697,-222.061783,8364.327145
1617.162582,1302.362347,-518.144159,8068.244768
1617.162900,459.657299,-740.205942,8364.327145
1617.163217,-536.266849,-1702.473667,10288.862594
1617.163534,-766.095498,-1776.494261,11473.192101
1617.163851,-1149.143247,-666.185348,11473.192101
1617.164169,-1455.581446,-222.061783,11325.150913
1617.164486,-1302.362347,222.061783,11399.171507
1617.164803,-459.657299,1036.288319,10807.006753
1617.165120,612.876398,2072.576638,9252.574275
1617.165437,1072.533697,2516.700203,8586.388927
1617.165755,2757.943793,2072.576638,8438.347739
1617.166072,2528.115143,740.205942,6957.935855
1617.166389,2145.067394,-444.123565,6587.832884
1617.166706,1532.190996,-2072.576638,7624.121203
1617.167024,1378.971896,-2368.659014,8068.244768
1617.167341,536.266849,-2294.638420,8364.327145
1617.167658,-383.047749,-3108.864956,10214.842000
1617.167975,-995.924147,-2812.782580,11621.233289
1617.168293,-995.924147,-2220.617826,11843.295072
1617.168610,-1302.362347,-1406.391290,11769.274478
1617.168927,-995.924147,-666.185348,12435.459826
1617.169244,-459.657299,888.247130,11769.274478
1617.169562,995.924147,2072.576638,9918.759623
1617.169879,1838.629195,2664.741391,8956.491898
1617.170196,2834.553343,1924.535449,9104.533087
1617.170513,3753.867940,1776.494261,7105.977043
1617.170831,4673.182538,962.267725,5847.626942
1617.171148,5056.230287,-888.247130,6439.791695
1617.171465,4290.134789,-1480.411884,6365.771101
1617.171782,3677.258390,-2368.659014,6513.812290
1617.172100,2451.505594,-2590.720797,7402.059420
1617.172417,995.924147,-2072.576638,9770.718434
1617.172734,229.828649,-1406.391290,11029.068536
1617.173051,-536.266849,-666.185348,11177.109724
1617.173368,-1302.362347,222.061783,11473.192101
1617.173686,-1838.629195,1332.370696,12361.439231
1617.174003,-1378.971896,1850.514855,11769.274478
1617.174320,-229.828649,2368.659014,10066.800811
1617.174637,306.438199,2072.576638,9918.759623
1617.174955,1455.581446,1702.473667,9474.636058
1617.175272,1915.238745,1702.473667,6587.832884
1617.175589,2757.943793,666.185348,6439.791695
1617.175906,2451.505594,-592.164754,6661.853478
1617.176224,2068.457845,-888.247130,6883.915261
1617.176541,1838.629195,-1850.514855,7772.162391
1617.176858,306.438199,-1702.473667,8660.409521
1617.177175,-306.438199,-2072.576638,10214.842000
1617.177493,-1991.848295,-592.164754,10658.965565
1617.177810,-1838.629195,-148.041188,11695.253884
1617.178127,-2987.772442,1406.391290,11473.192101
1617.178444,-2604.724693,1554.432478,11399.171507
1617.178762,-1608.800546,1998.556043,11399.171507
1617.179079,-1532.190996,1924.535449,10436.903782
1617.179396,-383.047749,1480.411884,10436.903782
1617.179713,153.219100,1924.535449,8142.265362
1617.180031,1302.362347,962.267725,8290.306550
1617.180348,1608.800546,-74.020594,8512.368333
1617.180665,2221.676944,-370.102971,8142.265362
1617.180983,2298.286494,-296.082377,7476.080014
1617.181300,1455.581446,-740.205942,9252.574275
1617.181617,1149.143247,-962.267725,10288.862594
1617.181935,1225.752797,-0.000000,11029.068536
1617.182252,306.438199,1554.432478,10510.924376
1617.182570,76.609550,2664.741391,10881.027347
1617.182887,0.000000,3478.967927,10658.965565
1617.183204,383.047749,3404.947333,10288.862594
1617.183522,459.657299,2664.741391,9770.718434
1617.183839,766.095498,1998.556043,10584.944971
1617.184156,1378.971896,1258.350101,10214.842000
1617.184474,1532.190996,296.082377,8808.450710
1617.184791,1915.238745,-888.247130,9844.739029
1617.185109,2451.505594,-1258.350101,9252.574275
1617.185426,2374.896044,-1036.288319,8438.347739
1617.185743,2374.896044,-1110.308913,9030.512492
1617.186061,1991.848295,-814.226536,9548.656652
1617.186378,1149.143247,-0.000000,10214.842000
1617.186695,1149.143247,1258.350101,9770.718434
1617.187013,459.657299,1480.411884,10214.842000
1617.187330,-153.219100,1998.556043,10362.883188
1617.187648,0.000000,2072.576638,10510.924376
1617.187965,0.000000,1998.556043,9918.759623
1617.188282,0.000000,888.247130,10066.800811
1617.188600,0.000000,-0.000000,9844.739029
1617.188917,153.219100,-740.205942,8660.409521
1617.189234,383.047749,-1776.494261,8808.450710
1617.189552,689.485948,-2738.761985,9252.574275
1617.189869,459.657299,-2812.782580,7994.224174
1617.190187,459.657299,-2146.597232,7920.203579
1617.190504,0.000000,-2072.576638,9696.697840
1617.190821,-306.438199,-1850.514855,10732.986159
1617.191139,306.438199,-666.185348,10584.944971
1617.191456,153.219100,962.267725,9474.636058
1617.191773,919.314598,1332.370696,10362.883188
1617.192091,1455.581446,2294.638420,9844.739029
1617.192408,2374.896044,2146.597232,8216.285956
1617.192726,2834.553343,1998.556043,7994.224174
1617.193043,3294.210641,1036.288319,8808.450710
1617.193360,3830.477490,148.041188,7624.121203
1617.193678,3983.696590,-296.082377,6661.853478
1617.193995,3907.087040,-962.267725,7624.121203
1617.194312,3370.820191,-1628.453072,7105.977043
1617.194630,3140.991542,-1036.288319,7105.977043
1617.194947,1915.238745,-1258.350101,8290.306550
1617.195264,1072.533697,-1258.350101,10214.842000
1617.195582,76.609550,-222.061783,10140.821405
1617.195899,-153.219100,148.041188,10066.800811
1617.196217,-306.438199,592.164754,10955.047942
1617.196534,-536.266849,1406.391290,11547.212695
1617.196851,383.047749,1628.453072,10584.944971
1617.197169,229.828649,2294.638420,9326.594869
1617.197486,1149.143247,2294.638420,9622.677246
1617.197803,1838.629195,2072.576638,8142.265362
1617.198121,2145.067394,1702.473667,7031.956449
1617.198438,2068.457845,518.144159,6883.915261
1617.198756,1072.533697,-0.000000,6809.894666
1617.199073,1072.533697,-444.123565,7105.977043
1617.199390,0.000000,-888.247130,7624.121203
1617.199708,-1378.971896,-1998.556043,10066.800811
1617.200025,-2451.505594,-1332.370696,11029.068536
1617.200342,-3447.429741,-1110.308913,11843.295072
1617.200660,-4290.134789,-222.061783,12583.501014
1617.200977,-3753.867940,518.144159,13249.686362
1617.201295,-3370.820191,1554.432478,12583.501014
1617.201612,-2681.334243,2442.679609,11029.068536
1617.201929,-1608.800546,2590.720797,10807.006753
1617.202247,-306.438199,2516.700203,9992.780217
1617.202564,1072.533697,2516.700203,8068.244768
1617.202881,1685.410096,2368.659014,7179.997637
1617.203199,2298.286494,814.226536,7698.141797
1617.203516,2221.676944,-0.000000,7402.059420
1617.203834,1915.238745,-518.144159,7994.224174
1617.204151,842.705048,-814.226536,8956.491898
1617.204468,229.828649,-1036.288319,10658.965565
1617.204786,-306.438199,-962.267725,11621.233289
1617.205103,-1072.533697,-222.061783,11917.315666
1617.205420,-842.705048,370.102971,13027.624579
1617.205738,-995.924147,1036.288319,13027.624579
1617.206055,153.219100,1850.514855,12065.356855
1617.206373,1072.533697,2220.617826,11325.150913
1617.206690,2374.896044,1924.535449,11177.109724
1617.207007,2757.943793,1850.514855,8808.450710
1617.207325,4213.525239,1480.411884,8068.244768
1617.207642,5209.449386,-0.000000,7846.182985
1617.207959,5286.058936,-222.061783,7254.018232
1617.208277,5592.497135,-222.061783,7179.997637
1617.208594,4826.401637,-1110.308913,7772.162391
1617.208912,4519.963438,-1480.411884,8734.430116
1617.209229,3140.991542,-1406.391290,9474.636058
1617.209546,2451.505594,-444.123565,9992.780217
1617.209864,1072.533697,740.205942,9992.780217
1617.210181,536.266849,1184.329507,10066.800811
1617.210498,383.047749,2146.597232,9992.780217
1617.210816,229.828649,2368.659014,9474.636058
1617.211133,-383.047749,962.267725,9548.656652
1617.211450,-459.657299,-0.000000,9622.677246
1617.211768,-612.876398,-148.041188,8586.388927
1617.212085,-459.657299,-962.267725,8364.327145
1617.212403,0.000000,-2146.597232,9178.553681
1617.212720,-459.657299,-2368.659014,8660.409521
1617.213037,-229.828649,-2886.803174,8882.471304
1617.213355,-459.657299,-2812.782580,9030.512492
1617.213672,-229.828649,-1332.370696,10066.800811
1617.213989,0.000000,-444.123565,9474.636058
1617.214307,-383.047749,1036.288319,9030.512492
1617.214624,0.000000,1998.556043,8956.491898
1617.214942,0.000000,3034.844362,8586.388927
1617.215259,-153.219100,3256.906145,7624.121203
1617.215576,0.000000,3330.926739,7698.141797
1617.215894,459.657299,1924.535449,8512.368333
1617.216211,995.924147,-222.061783,8882.471304
1617.216528,1072.533697,-1702.473667,8882.471304
1617.216846,1455.581446,-2664.741391,8956.491898
1617.217163,1608.800546,-3256.906145,9252.574275
1617.217481,2145.067394,-2664.741391,8882.471304
1617.217798,1838.629195,-1776.494261,9622.677246
1617.218115,1608.800546,-814.226536,10510.924376
1617.218433,1991.848295,1036.288319,9770.718434
1617.218750,2298.286494,1850.514855,10288.862594
1617.219067,2834.553343,3108.864956,9622.677246
1617.219385,2757.943793,3923.091493,9030.512492
1617.219702,3217.601092,4441.235652,8290.306550
1617.220020,4443.353888,3404.947333,7994.224174
1617.220337,3983.696590,1924.535449,7994.224174
1617.220654,4136.915689,296.082377,8290.306550
1617.220972,3140.991542,-962.267725,7994.224174
1617.221289,1915.238745,-1702.473667,8068.244768
1617.221606,995.924147,-2590.720797,8438.347739
1617.221924,-459.657299,-2146.597232,8956.491898
1617.222241,-1302.362347,-1998.556043,9844.739029
1617.222559,-2528.115143,-1924.535449,11029.068536
1617.222876,-3600.648841,-1776.494261,12139.377449
1617.223193,-3600.648841,-74.020594,12435.459826
1617.223511,-3217.601092,962.267725,12435.459826
1617.223828,-2911.162892,1998.556043,12287.418637
1617.224145,-2068.457845,2146.597232,11991.336260
1617.224463,-1149.143247,3034.844362,10732.986159
1617.224780,-383.047749,2886.803174,9252.574275
1617.225097,689.485948,2368.659014,8660.409521
1617.225415,1302.362347,1850.514855,7994.224174
1617.225732,1532.190996,814.226536,7254.018232
1617.226050,2068.457845,-666.185348,7402.059420
1617.226367,919.314598,-1480.411884,7920.203579
1617.226684,-229.828649,-1702.473667,8512.368333
1617.227002,-995.924147,-1406.391290,9474.636058
1617.227319,-1915.238745,-888.247130,10732.986159
1617.227636,-1838.629195,-518.144159,12065.356855
1617.227954,-2681.334243,222.061783,11843.295072
1617.228271,-2451.505594,296.082377,13323.706956
1617.228589,-1762.019645,1480.411884,12509.480420
1617.228906,-995.924147,1776.494261,11177.109724
1617.229223,306.438199,962.267725,11251.130318
1617.229541,1302.362347,1480.411884,9918.759623
1617.229858,2374.896044,1110.308913,8734.430116
1617.230175,3830.477490,1036.288319,7105.977043
1617.230493,4596.572988,-0.000000,8290.306550
1617.230810,3830.477490,-74.020594,6439.791695
1617.231128,4290.134789,-444.123565,6439.791695
1617.231445,2834.553343,-1184.329507,7698.141797
1617.231762,1838.629195,-2220.617826,9918.759623
1617.232080,689.485948,-1776.494261,9474.636058
1617.232397,153.219100,-0.000000,9918.759623
1617.232714,0.000000,518.144159,10807.006753
1617.233032,-536.266849,444.123565,11177.109724
1617.233349,153.219100,740.205942,10584.944971
1617.233667,766.095498,592.164754,9992.780217
1617.233984,1149.143247,370.102971,9030.512492
1617.234301,1991.848295,-0.000000,8290.306550
1617.234619,2528.115143,148.041188,7550.100608
1617.234936,3447.429741,-0.000000,6957.935855
1617.235253,3294.210641,-370.102971,6735.874072
1617.235571,3294.210641,-444.123565,6513.812290
1617.235888,3294.210641,-518.144159,7254.018232
1617.236206,2221.676944,-962.267725,7846.182985
1617.236523,1838.629195,-1332.370696,9178.553681
1617.236840,383.047749,-1110.308913,10584.944971
1617.237158,-612.876398,-296.082377,10362.883188
1617.237475,-536.266849,518.144159,10214.842000
1617.237792,-766.095498,1480.411884,10288.862594
1617.238110,689.485948,888.247130,10807.006753
1617.238427,612.876398,592.164754,9548.656652
1617.238744,1149.143247,-0.000000,9400.615463
1617.239062,2221.676944,-0.000000,8882.471304
1617.239379,2221.676944,-222.061783,7846.182985
1617.239697,2834.553343,-222.061783,7476.080014
1617.240014,2911.162892,-518.144159,7402.059420
1617.240331,2451.505594,-0.000000,7105.977043
1617.240649,1915.238745,-0.000000,7698.141797
1617.240966,1991.848295,-1110.308913,10362.883188
1617.241283,76.609550,-814.226536,10881.027347
1617.241601,-919.314598,-0.000000,11251.130318
1617.241918,-1378.971896,1110.308913,11325.150913
1617.242236,-1302.362347,1184.329507,12065.356855
1617.242553,-919.314598,1702.473667,10955.047942
1617.242870,-612.876398,2442.679609,10362.883188
1617.243188,-383.047749,2368.659014,10140.821405
1617.243505,0.000000,1332.370696,9474.636058
1617.243822,612.876398,518.144159,8956.491898
1617.244140,689.485948,-740.205942,8512.368333
1617.244457,612.876398,-1332.370696,8882.471304
1617.244775,689.485948,-1554.432478,8438.347739
1617.245092,689.485948,-1924.535449,8956.491898
1617.245409,459.657299,-1924.535449,10362.883188
1617.245727,-766.095498,-888.247130,10584.944971
1617.246044,-689.485948,222.061783,10881.027347
1617.246361,-766.095498,1258.350101,10732.986159
1617.246679,-842.705048,2072.576638,10881.027347
1617.246996,-1225.752797,3034.844362,9178.553681
1617.247314,-612.876398,3108.864956,9400.615463
1617.247631,-153.219100,2368.659014,9474.636058
1617.247948,0.000000,1702.473667,8956.491898
1617.248266,459.657299,962.267725,9326.594869
1617.248583,459.657299,-592.164754,9400.615463
1617.248900,766.095498,-1258.350101,9474.636058
1617.249218,1149.143247,-1628.453072,9104.533087
1617.249535,1225.752797,-1776.494261,9622.677246
1617.249853,1302.362347,-1702.473667,9844.739029
1617.250170,842.705048,-814.226536,10658.965565
1617.250487,1225.752797,962.267725,10362.883188
1617.250805,1685.410096,2072.576638,10362.883188
1617.251122,1762.019645,3404.947333,9622.677246
1617.251439,2604.724693,3701.029710,9622.677246
1617.251757,2757.943793,3330.926739,8956.491898
1617.252074,2451.505594,2738.761985,7920.203579
1617.252391,2987.772442,1702.473667,8216.285956
1617.252709,2681.334243,962.267725,7846.182985
1617.253026,3140.991542,-592.164754,8290.306550
1617.253344,2068.457845,-1554.432478,7920.203579
1617.253661,1225.752797,-2368.659014,9252.574275
1617.253978,919.314598,-2294.638420,9696.697840
1617.254296,0.000000,-1998.556043,9918.759623
1617.254613,76.609550,-1776.494261,11029.068536
1617.254930,-766.095498,-1406.391290,11917.315666
1617.255248,-1455.581446,-0.000000,11399.171507
1617.255565,-842.705048,1554.432478,10807.006753
1617.255883,0.000000,2072.576638,10955.047942
1617.256200,842.705048,2516.700203,9400.615463
1617.256517,1072.533697,2590.720797,8290.306550
1617.256835,1378.971896,1480.411884,7550.100608
1617.257152,1532.190996,296.082377,7550.100608
1617.257469,1762.019645,-1554.432478,7772.162391
1617.257787,1378.971896,-2294.638420,7328.038826
1617.258104,1072.533697,-2738.761985,8068.244768
1617.258422,153.219100,-2886.803174,7846.182985
1617.258739,-766.095498,-1924.535449,8512.368333
1617.259056,-1149.143247,-1554.432478,9918.759623
1617.259374,-1838.629195,-1258.350101,10066.800811
1617.259691,-1991.848295,-0.000000,10732.986159
1617.260008,-2451.505594,1110.308913,10362.883188
1617.260326,-1915.238745,1258.350101,11103.089130
1617.260643,-1302.362347,1554.432478,10732.986159
1617.260961,-689.485948,1554.432478,10140.821405
1617.261278,229.828649,1628.453072,9326.594869
1617.261595,1608.800546,1406.391290,9030.512492
1617.261913,3064.381992,370.102971,8364.327145
1617.262230,3524.039291,-148.041188,7254.018232
1617.262547,4060.306139,-1110.308913,7328.038826
1617.262865,3907.087040,-1036.288319,6883.915261
1617.263182,3447.429741,-740.205942,6587.832884
1617.263500,2757.943793,-296.082377,7772.162391
1617.263817,1532.190996,-444.123565,9400.615463
1617.264134,1072.533697,962.267725,9992.780217
1617.264452,229.828649,888.247130,10140.821405
1617.264769,-306.438199,814.226536,11547.212695
1617.265086,0.000000,814.226536,12065.356855
1617.265404,153.219100,1332.370696,11251.130318
1617.265721,612.876398,888.247130,10658.965565
1617.266038,919.314598,592.164754,10436.903782
1617.266356,1608.800546,444.123565,10066.800811
1617.266673,2681.334243,666.185348,8956.491898
1617.266991,2681.334243,-148.041188,8512.368333
1617.267308,2681.334243,-666.185348,8290.306550
1617.267625,1915.238745,-222.061783,7994.224174
1617.267943,1608.800546,-222.061783,8364.327145
1617.268260,1072.533697,-592.164754,9400.615463
1617.268577,0.000000,-0.000000,10066.800811
1617.268895,-383.047749,740.205942,10510.924376
1617.269212,-919.314598,1480.411884,10658.965565
1617.269530,-459.657299,1332.370696,10881.027347
1617.269847,-1149.143247,1406.391290,11399.171507
1617.270164,-995.924147,1110.308913,11103.089130
1617.270482,-919.314598,1184.329507,9992.780217
1617.270799,-383.047749,222.061783,9696.697840
1617.271116,153.219100,-444.123565,9696.697840
1617.271434,536.266849,-962.267725,9548.656652
1617.271751,919.314598,-740.205942,9030.512492
1617.272069,1225.752797,-222.061783,8364.327145
1617.272386,1532.190996,518.144159,8734.430116
1617.272703,1762.019645,518.144159,8734.430116
1617.273021,1608.800546,1258.350101,9030.512492
1617.273338,919.314598,1554.432478,9252.574275
1617.273655,1072.533697,2368.659014,9474.636058
1617.273973,76.609550,2220.617826,9622.677246
1617.274290,459.657299,2368.659014,9918.759623
1617.274608,229.828649,2368.659014,9400.615463
1617.274925,76.609550,2442.679609,9252.574275
1617.275242,306.438199,1776.494261,8364.327145
1617.275560,536.266849,1036.288319,8290.306550
1617.275877,689.485948,666.185348,7772.162391
1617.276194,306.438199,-592.164754,8364.327145
1617.276512,0.000000,-1702.473667,8734.430116
1617.276829,0.000000,-2146.597232,9252.574275
1617.277147,-995.924147,-2516.700203,10066.800811
1617.277464,-1455.581446,-2368.659014,11473.192101
1617.277781,-1302.362347,-1258.350101,11917.315666
1617.278099,-919.314598,370.102971,11251.130318
1617.278416,0.000000,1406.391290,11325.150913
1617.278733,383.047749,2146.597232,10732.986159
1617.279051,1378.971896,3256.906145,9622.677246
1617.279368,2528.115143,3182.885551,8734.430116
1617.279685,2757.943793,2442.679609,7328.038826
1617.280003,3217.601092,1554.432478,7624.121203
1617.280320,3064.381992,-0.000000,7105.977043
1617.280638,2987.772442,-1258.350101,7550.100608
1617.280955,2604.724693,-2368.659014,7550.100608
1617.281272,1915.238745,-3701.029710,9104.533087
1617.281590,536.266849,-4219.173869,9992.780217
1617.281907,76.609550,-4219.173869,10881.027347
1617.282224,-306.438199,-3627.009116,11769.274478
1617.282542,-689.485948,-2072.576638,11917.315666
1617.282859,-383.047749,-814.226536,11695.253884
1617.283176,-153.219100,1110.308913,10732.986159
1617.283493,1685.410096,1776.494261,9992.780217
1617.283811,2221.676944,2590.720797,8882.471304
1617.284128,2834.553343,2738.761985,7994.224174
1617.284445,3830.477490,1628.453072,7994.224174
1617.284763,4136.915689,962.267725,6809.894666
1617.285080,4673.182538,740.205942,6069.688724
1617.285397,4213.525239,-444.123565,6661.853478
1617.285714,3370.820191,-814.226536,6735.874072
1617.286032,2374.896044,-1110.308913,7476.080014
1617.286349,766.095498,-1036.288319,8290.306550
1617.286666,-229.828649,-1628.453072,10362.883188
1617.286984,-1762.019645,-962.267725,10732.986159
1617.287301,-1915.238745,296.082377,11325.150913
1617.287618,-2145.067394,222.061783,11843.295072
1617.287935,-2374.896044,370.102971,11843.295072
1617.288253,-1225.752797,1628.453072,10510.924376
1617.288570,-536.266849,2738.761985,9178.553681
1617.288887,536.266849,2516.700203,8586.388927
1617.289205,1455.581446,2294.638420,7550.100608
1617.289522,2298.286494,1554.432478,6957.935855
1617.289839,2298.286494,666.185348,6809.894666
1617.290157,2221.676944,-1110.308913,7846.182985
1617.290474,1378.971896,-962.267725,7550.100608
1617.290791,536.266849,-1776.494261,8956.491898
1617.291108,-306.438199,-1850.514855,10140.821405
1617.291426,-1225.752797,-962.267725,10584.944971
1617.291743,-1685.410096,-222.061783,11251.130318
1617.292060,-2834.553343,1480.411884,10955.047942
1617.292378,-1991.848295,2590.720797,11325.150913
1617.292695,-2221.676944,2960.823768,10955.047942
1617.293012,-1991.848295,2738.761985,10955.047942
1617.293329,-1455.581446,1554.432478,10362.883188
1617.293647,-1378.971896,1110.308913,9474.636058
1617.293964,459.657299,-74.020594,9326.594869
1617.294281,1225.752797,-1110.308913,9400.615463
1617.294599,1762.019645,-1406.391290,9622.677246
1617.294916,1991.848295,-888.247130,8364.327145
1617.295233,2221.676944,-74.020594,8586.388927
1617.295550,1991.848295,444.123565,9030.512492
1617.295868,1532.190996,222.061783,10214.842000
1617.296185,689.485948,1702.473667,10140.821405
1617.296502,0.000000,2960.823768,10066.800811
1617.296820,-306.438199,2960.823768,10732.986159
1617.297137,153.219100,2664.741391,10807.006753
1617.297454,306.438199,2368.659014,10732.986159
1617.297772,689.485948,1850.514855,10066.800811
1617.298089,1149.143247,370.102971,9696.697840
1617.298406,2451.505594,-1258.350101,9474.636058
1617.298723,2604.724693,-1036.288319,9400.615463
1617.299041,2681.334243,-1554.432478,8660.409521
1617.299358,2604.724693,-2146.597232,8956.491898
1617.299675,2451.505594,-1998.556043,8956.491898
1617.299993,2145.067394,-1184.329507,9030.512492
1617.300310,1991.848295,-222.061783,9622.677246
1617.300627,1608.800546,1406.391290,9400.615463
1617.300944,1915.238745,1998.556043,9622.677246
1617.301262,1225.752797,2146.597232,9326.594869
1617.301579,1225.752797,1924.535449,10658.965565
1617.301896,1225.752797,2294.638420,9178.553681
1617.302214,1378.971896,1554.432478,8956.491898
1617.302531,1225.752797,-296.082377,9474.636058
1617.302848,383.047749,-962.267725,9474.636058
1617.303166,842.705048,-2368.659014,9548.656652
1617.303483,0.000000,-2590.720797,8956.491898
1617.303800,383.047749,-3034.844362,9696.697840
1617.304117,0.000000,-2516.700203,8956.491898
1617.304435,-153.219100,-2294.638420,9030.512492
1617.304752,0.000000,-2146.597232,9400.615463
1617.305069,-459.657299,-1110.308913,10362.883188
1617.305387,0.000000,-0.000000,9622.677246
1617.305704,153.219100,1554.432478,9030.512492
1617.306021,383.047749,1924.535449,9474.636058
1617.306338,919.314598,2220.617826,9400.615463
1617.306656,612.876398,2220.617826,7994.224174
1617.306973,995.924147,1554.432478,8364.327145
1617.307290,1378.971896,444.123565,8068.244768
1617.307608,1685.410096,-888.247130,7550.100608
1617.307925,2145.067394,-1628.453072,7920.203579
1617.308242,1532.190996,-2146.597232,7846.182985
1617.308559,1225.752797,-2220.617826,8586.388927
1617.308877,1149.143247,-1628.453072,8808.450710
1617.309194,459.657299,-1702.473667,9104.533087
1617.309511,-306.438199,-814.226536,9622.677246
1617.309829,0.000000,-0.000000,10288.862594
1617.310146,-459.657299,1554.432478,9770.718434
1617.310463,0.000000,1924.535449,10288.862594
1617.310781,1072.533697,2368.659014,10288.862594
1617.311098,1302.362347,2886.803174,8882.471304
1617.311415,2451.505594,2812.782580,7994.224174
1617.311732,2681.334243,1776.494261,8142.265362
1617.312050,3830.477490,1184.329507,8364.327145
1617.312367,3064.381992,518.144159,7031.956449
1617.312684,2681.334243,-0.000000,7328.038826
1617.313002,2145.067394,-296.082377,8216.285956
1617.313319,1302.362347,-740.205942,8438.347739
1617.313636,536.266849,-1332.370696,9844.739029
1617.313953,-1072.533697,-1554.432478,10807.006753
1617.314271,-1608.800546,-1406.391290,11991.336260
1617.314588,-1915.238745,-518.144159,12213.398043
1617.314905,-1762.019645,-0.000000,12287.418637
1617.315223,-1302.362347,962.267725,12657.521608
1617.315540,-689.485948,1850.514855,11029.068536
1617.315857,229.828649,2146.597232,9992.780217
1617.316174,995.924147,1850.514855,9474.636058
1617.316492,2221.676944,1554.432478,9400.615463
1617.316809,2451.505594,962.267725,8216.285956
1617.317126,2757.943793,-0.000000,8512.368333
1617.317444,2374.896044,-666.185348,8290.306550
1617.317761,1838.629195,-1258.350101,8512.368333
1617.318078,1532.190996,-888.247130,9030.512492
1617.318396,766.095498,-518.144159,9992.780217
1617.318713,0.000000,-444.123565,10732.986159
1617.319030,-919.314598,222.061783,11177.109724
1617.319347,-1532.190996,444.123565,11621.233289
1617.319665,-1685.410096,740.205942,11917.315666
1617.319982,-1608.800546,1480.411884,11917.315666
1617.320299,-766.095498,1628.453072,10881.027347
1617.320617,-306.438199,1924.535449,10066.800811
1617.320934,536.266849,1406.391290,9474.636058
1617.321251,1455.581446,518.144159,8956.491898
1617.321568,1915.238745,592.164754,7698.141797
1617.321886,2987.772442,-222.061783,7624.121203
1617.322203,2528.115143,-444.123565,7402.059420
1617.322520,2604.724693,-444.123565,7698.141797
1617.322838,1915.238745,-1184.329507,8216.285956
1617.323155,612.876398,-888.247130,9622.677246
1617.323472,153.219100,-222.061783,10066.800811
1617.323789,0.000000,962.267725,9918.759623
1617.324107,-536.266849,1110.308913,10140.821405
1617.324424,-229.828649,1554.432478,10658.965565
1617.324741,306.438199,1850.514855,10584.944971
1617.325059,0.000000,1850.514855,8438.347739
1617.325376,612.876398,1332.370696,8808.450710
1617.325693,306.438199,888.247130,8512.368333
1617.326011,1302.362347,-296.082377,7846.182985
1617.326328,1072.533697,-1628.453072,8068.244768
1617.326645,995.924147,-2516.700203,9178.553681
1617.326962,842.705048,-2738.761985,8956.491898
1617.327280,995.924147,-2294.638420,9252.574275
1617.327597,536.266849,-1924.535449,9992.780217
1617.327914,229.828649,-1110.308913,10288.862594
1617.328232,536.266849,370.102971,10288.862594
1617.328549,306.438199,1924.535449,9326.594869
1617.328866,766.095498,2368.659014,9770.718434
1617.329183,919.314598,3552.988522,8734.430116
1617.329501,1302.362347,3552.988522,8290.306550
1617.329818,1378.971896,2590.720797,8882.471304
1617.330135,1532.190996,518.144159,9252.574275
1617.330453,2145.067394,-0.000000,8660.409521
1617.330770,1991.848295,-296.082377,8512.368333
1617.331087,2374.896044,-1776.494261,9178.553681
1617.331404,2374.896044,-2664.741391,8586.388927
1617.331722,2298.286494,-2516.700203,9104.533087
1617.332039,1608.800546,-2442.679609,9696.697840
1617.332356,1072.533697,-1480.411884,10214.842000
1617.332674,1532.190996,296.082377,9918.759623
1617.332991,1072.533697,2442.679609,9474.636058
1617.333308,689.485948,3034.844362,9252.574275
1617.333626,919.314598,4219.173869,9104.533087
1617.333943,1685.410096,4441.235652,8142.265362
1617.334260,2374.896044,3478.967927,8216.285956
1617.334577,2068.457845,2368.659014,8364.327145
1617.334895,2528.115143,370.102971,7994.224174
1617.335212,1685.410096,-962.267725,8216.285956
1617.335529,995.924147,-2294.638420,9030.512492
1617.335847,0.000000,-2812.782580,9844.739029
1617.336164,-995.924147,-2146.597232,9918.759623
1617.336481,-1072.533697,-2220.617826,10214.842000
1617.336798,-2145.067394,-1554.432478,11695.253884
1617.337116,-2451.505594,-444.123565,11695.253884
1617.337433,-2298.286494,370.102971,10881.027347
1617.337750,-2145.067394,1258.350101,10436.903782
1617.338068,-1302.362347,1776.494261,10362.883188
1617.338385,-459.657299,2442.679609,9104.533087
1617.338702,689.485948,2590.720797,8438.347739
1617.339020,1302.362347,1702.473667,8290.306550
1617.339337,1685.410096,1110.308913,8216.285956
1617.339654,2221.676944,-0.000000,8438.347739
1617.339971,2221.676944,-444.123565,8142.265362
1617.340289,1915.238745,-1332.370696,8438.347739
1617.340606,1455.581446,-1480.411884,8660.409521
1617.340923,306.438199,-1702.473667,9474.636058
1617.341241,-229.828649,-1406.391290,10214.842000
1617.341558,-1072.533697,-518.144159,10881.027347
1617.341875,-766.095498,666.185348,11843.295072
1617.342192,-995.924147,1406.391290,11621.233289
1617.342510,-995.924147,1924.535449,11547.212695
1617.342827,-612.876398,1924.535449,11399.171507
1617.343144,459.657299,2072.576638,10584.944971
1617.343462,1378.971896,1702.473667,9696.697840
1617.343779,2298.286494,814.226536,9252.574275
1617.344096,3447.429741,1036.288319,8290.306550
1617.344413,3600.648841,740.205942,7328.038826
1617.344731,3830.477490,222.061783,6513.812290
1617.345048,3830.477490,-148.041188,6661.853478
1617.345365,2604.724693,-814.226536,7402.059420
1617.345683,1608.800546,-1406.391290,8808.450710
1617.346000,0.000000,-1554.432478,10066.800811
1617.346317,-995.924147,-740.205942,10955.047942
1617.346635,-1915.238745,-222.061783,11621.233289
1617.346952,-2681.334243,666.185348,11547.212695
1617.347269,-2145.067394,814.226536,11769.274478
1617.347586,-1608.800546,1258.350101,10362.883188
1617.347904,-1225.752797,666.185348,10066.800811
1617.348221,-842.705048,518.144159,10288.862594
1617.348538,689.485948,296.082377,9326.594869
1617.348856,1762.019645,-518.144159,7846.182985
1617.349173,2374.896044,-1332.370696,8364.327145
1617.349490,2757.943793,-1406.391290,7698.141797
1617.349807,3064.381992,-1036.288319,5921.647536
1617.350125,2834.553343,-1258.350101,6883.915261
1617.350442,2374.896044,-1998.556043,9178.553681
1617.350759,1378.971896,-962.267725,9400.615463
1617.351077,842.705048,740.205942,9252.574275
1617.351394,766.095498,1036.288319,10140.821405
1617.351711,0.000000,1332.370696,10510.924376
1617.352028,0.000000,1332.370696,9992.780217
1617.352346,76.609550,1110.308913,9696.697840
1617.352663,0.000000,-0.000000,10288.862594
1617.352980,842.705048,-222.061783,10140.821405
1617.353298,1302.362347,-222.061783,9400.615463
1617.353615,1838.629195,-444.123565,9104.533087
1617.353932,2068.457845,-1258.350101,8882.471304
1617.354250,2221.676944,-1332.370696,8438.347739
1617.354567,2374.896044,-1184.329507,8586.388927
1617.354884,1991.848295,-1036.288319,9178.553681
1617.355201,1991.848295,-518.144159,9696.697840
1617.355519,1378.971896,296.082377,10066.800811
1617.355836,1455.581446,814.226536,10436.903782
1617.356153,1149.143247,1850.514855,9992.780217
1617.356471,1302.362347,2590.720797,9252.574275
1617.356788,919.314598,2664.741391,8882.471304
1617.357105,1149.143247,2664.741391,8808.450710
1617.357422,612.876398,1776.494261,8364.327145
1617.357740,536.266849,148.041188,9030.512492
1617.358057,-229.828649,-962.267725,8956.491898
1617.358374,-306.438199,-1702.473667,9474.636058
1617.358692,-229.828649,-2368.659014,9548.656652
1617.359009,153.219100,-2368.659014,9918.759623
1617.359326,-766.095498,-3034.844362,10955.047942
1617.359643,-1072.533697,-2368.659014,11547.212695
1617.359961,-536.266849,-666.185348,11621.233289
1617.360278,-459.657299,1258.350101,10881.027347
1617.360595,76.609550,2516.700203,10436.903782
1617.360913,1225.752797,4293.194464,9474.636058
1617.361230,1838.629195,5107.421000,7846.182985
1617.361547,1991.848295,4737.318029,7402.059420
1617.361865,1991.848295,3849.070898,7105.977043
1617.362182,2528.115143,2072.576638,8068.244768
1617.362499,1915.238745,962.267725,8216.285956
1617.362816,1455.581446,-444.123565,7846.182985
1617.363134,536.266849,-1998.556043,9030.512492
1617.363451,459.657299,-2812.782580,10288.862594
1617.363768,0.000000,-2590.720797,10362.883188
1617.364086,-612.876398,-2294.638420,11029.068536
1617.364403,-1302.362347,-1628.453072,11843.295072
1617.364720,-995.924147,518.144159,11621.233289
1617.365037,-536.266849,2220.617826,10955.047942
1617.365355,76.609550,3404.947333,10436.903782
1617.365672,612.876398,4589.276840,9548.656652
1617.365989,1685.410096,5033.400406,8364.327145
1617.366307,2451.505594,4219.173869,7846.182985
1617.366624,3140.991542,3182.885551,8290.306550
1617.366941,3370.820191,1628.453072,7328.038826
1617.367258,3140.991542,-148.041188,6957.935855
1617.367576,2451.505594,-1258.350101,7772.162391
1617.367893,2145.067394,-2294.638420,8512.368333
1617.368210,689.485948,-2146.597232,9030.512492
1617.368528,-842.705048,-2072.576638,10066.800811
1617.368845,-1838.629195,-1998.556043,11547.212695
1617.369162,-2834.553343,-888.247130,11917.315666
1617.369480,-3140.991542,-296.082377,11769.274478
1617.369797,-3294.210641,370.102971,12213.398043
1617.370114,-2757.943793,1332.370696,11769.274478
1617.370431,-1455.581446,2368.659014,10732.986159
1617.370749,-689.485948,1998.556043,9326.594869
1617.371066,306.438199,1258.350101,8734.430116
1617.371383,1455.581446,222.061783,8512.368333
1617.371701,2451.505594,-74.020594,7994.224174
1617.372018,2911.162892,-1110.308913,7550.100608
1617.372335,3064.381992,-1998.556043,7920.203579
1617.372652,2681.334243,-1702.473667,8216.285956
1617.372970,1991.848295,-1110.308913,7476.080014
1617.373287,1685.410096,-1554.432478,9326.594869
1617.373604,536.266849,-370.102971,9474.636058
1617.373922,153.219100,148.041188,10288.862594
1617.374239,-689.485948,962.267725,9548.656652
1617.374556,-1072.533697,1258.350101,10436.903782
1617.374874,-612.876398,592.164754,10732.986159
1617.375191,-229.828649,666.185348,9696.697840
1617.375508,-153.219100,-222.061783,10510.924376
1617.375825,459.657299,-814.226536,10288.862594
1617.376143,2068.457845,-1110.308913,9770.718434
1617.376460,3370.820191,-962.267725,9474.636058
1617.376777,3677.258390,-1258.350101,8660.409521
1617.377095,3830.477490,-592.164754,8068.244768
1617.377412,3983.696590,-444.123565,7179.997637
1617.377729,3983.696590,-74.020594,7920.203579
1617.378046,3677.258390,444.123565,9104.533087
1617.378364,3370.820191,592.164754,9252.574275
1617.378681,1072.533697,2072.576638,8586.388927
1617.378998,995.924147,1184.329507,10436.903782
1617.379316,383.047749,1110.308913,10288.862594
1617.379633,919.314598,888.247130,10214.842000
1617.379950,766.095498,-814.226536,10362.883188
1617.380268,0.000000,-962.267725,9178.553681
1617.380585,612.876398,-1776.494261,9770.718434
1617.380902,919.314598,-1850.514855,8660.409521
1617.381220,766.095498,-2590.720797,8882.471304
1617.381537,995.924147,-2738.761985,9326.594869
1617.381854,153.219100,-1628.453072,8808.450710
1617.382172,766.095498,-1406.391290,9178.553681
1617.382489,689.485948,-222.061783,10140.821405
1617.382807,689.485948,1184.329507,9992.780217
1617.383124,689.485948,2146.597232,8660.409521
1617.383441,0.000000,1998.556043,9104.533087
1617.383759,153.219100,2738.761985,9104.533087
1617.384076,-229.828649,2368.659014,8734.430116
1617.384393,153.219100,2368.659014,8438.347739
1617.384711,153.219100,1036.288319,8660.409521
1617.385028,-383.047749,296.082377,8290.306550
1617.385346,0.000000,-518.144159,8438.347739
1617.385663,-919.314598,-1850.514855,9104.533087
1617.385980,-612.876398,-2664.741391,9622.677246
1617.386298,-919.314598,-2368.659014,9178.553681
1617.386615,-1225.752797,-1776.494261,9474.636058
1617.386932,-1608.800546,-1258.350101,10584.944971
1617.387250,-1072.533697,-74.020594,11251.130318
1617.387567,-459.657299,2072.576638,10288.862594
1617.387884,-306.438199,3108.864956,9770.718434
1617.388202,306.438199,3627.009116,10288.862594
1617.388519,1149.143247,4589.276840,9252.574275
1617.388837,2298.286494,4811.338623,8216.285956
1617.389154,2834.553343,3256.906145,8586.388927
1617.389471,2374.896044,2590.720797,8216.285956
1617.389789,2604.724693,1406.391290,7772.162391
1617.390106,1991.848295,518.144159,7328.038826
1617.390423,1149.143247,-888.247130,8142.265362
1617.390741,612.876398,-1480.411884,9918.759623
1617.391058,-383.047749,-2442.679609,9918.759623
1617.391376,-1685.410096,-2590.720797,11177.109724
1617.391693,-2068.457845,-2516.700203,12805.562797
1617.392010,-2145.067394,-1184.329507,12509.480420
1617.392328,-1915.238745,148.041188,12361.439231
1617.392645,-919.314598,1036.288319,12509.480420
1617.392962,-153.219100,2812.782580,11029.068536
1617.393280,995.924147,3552.988522,9474.636058
1617.393597,2374.896044,3627.009116,8808.450710
1617.393914,2681.334243,3256.906145,8068.244768
1617.394232,3753.867940,2442.679609,7254.018232
1617.394549,3830.477490,1776.494261,7105.977043
1617.394867,3447.429741,-0.000000,7179.997637
1617.395184,2604.724693,-1554.432478,7994.224174
1617.395501,1762.019645,-2294.638420,8808.450710
1617.395819,536.266849,-3182.885551,9918.759623
1617.396136,-306.438199,-3034.844362,11029.068536
1617.396453,-1072.533697,-2368.659014,12213.398043
1617.396771,-1685.410096,-1036.288319,11843.295072
1617.397088,-1378.971896,-222.061783,11917.315666
1617.397406,-995.924147,444.123565,11399.171507
1617.397723,-383.047749,1850.514855,10955.047942
1617.398040,919.314598,2590.720797,9548.656652
1617.398358,1762.019645,2072.576638,9104.533087
1617.398675,3140.991542,1702.473667,8438.347739
1617.398992,4136.915689,1184.329507,7698.141797
1617.399310,4213.525239,518.144159,6735.874072
1617.399627,4673.182538,-370.102971,6735.874072
1617.399944,4519.963438,-1258.350101,7254.018232
1617.400262,3524.039291,-1480.411884,7920.203579
1617.400579,2451.505594,-1998.556043,8512.368333
1617.400897,459.657299,-1628.453072,9696.697840
1617.401214,-306.438199,-1406.391290,10732.986159
1617.401531,-1225.752797,-592.164754,10658.965565
1617.401849,-1302.362347,-0.000000,11399.171507
1617.402166,-1455.581446,1184.329507,10584.944971
1617.402483,-1302.362347,1110.308913,9844.739029
1617.402801,-842.705048,1554.432478,9252.574275
1617.403118,0.000000,814.226536,9104.533087
1617.403436,383.047749,1110.308913,7772.162391
1617.403753,1455.581446,-0.000000,7698.141797
1617.404070,1302.362347,-1258.350101,7846.182985
1617.404388,2145.067394,-2072.576638,8068.244768
1617.404705,1685.410096,-1998.556043,7994.224174
1617.405022,995.924147,-1776.494261,8142.265362
1617.405340,306.438199,-1702.473667,9770.718434
1617.405657,-612.876398,-296.082377,9770.718434
1617.405974,-689.485948,888.247130,9178.553681
1617.406292,-1532.190996,1480.411884,8808.450710
1617.406609,-1608.800546,2072.576638,9474.636058
1617.406927,-1762.019645,2664.741391,8364.327145
1617.407244,-1455.581446,2072.576638,8808.450710
1617.407561,-1225.752797,592.164754,8882.471304
1617.407879,-1072.533697,-518.144159,8882.471304
1617.408196,-536.266849,-1184.329507,9252.574275
1617.408513,229.828649,-2442.679609,9400.615463
1617.408831,842.705048,-2664.741391,10288.862594
1617.409148,1149.143247,-2146.597232,10288.862594
1617.409466,1762.019645,-1554.432478,10288.862594
1617.409783,2145.067394,-0.000000,9992.780217
1617.410100,2604.724693,1184.329507,10066.800811
1617.410418,2987.772442,2886.803174,9326.594869
1617.410735,2528.115143,3923.091493,8512.368333
1617.411052,2451.505594,4441.235652,8734.430116
1617.411370,2451.505594,4441.235652,8290.306550
1617.411687,2451.505594,3775.050304,8586.388927
1617.412005,2145.067394,2220.617826,8586.388927
1617.412322,1838.629195,888.247130,9400.615463
1617.412639,1532.190996,-740.205942,9548.656652
1617.412957,1225.752797,-2368.659014,10214.842000
1617.413274,536.266849,-3701.029710,10955.047942
1617.413591,0.000000,-3923.091493,11769.274478
1617.413909,76.609550,-3182.885551,11843.295072
1617.414226,-306.438199,-1998.556043,11769.274478
1617.414543,-229.828649,-74.020594,11917.315666
1617.414861,0.000000,1924.535449,11473.192101
1617.415178,612.876398,3552.988522,9918.759623
1617.415496,919.314598,4071.132681,9844.739029
1617.415813,1072.533697,4589.276840,9474.636058
1617.416130,2221.676944,4293.194464,8512.368333
1617.416448,1991.848295,2812.782580,7994.224174
1617.416765,2221.676944,1258.350101,8290.306550
1617.417082,1532.190996,-518.144159,8364.327145
1617.417400,1378.971896,-1258.350101,7698.141797
1617.417717,995.924147,-2368.659014,8364.327145
1617.418035,0.000000,-3256.906145,9548.656652
1617.418352,-995.924147,-3256.906145,9844.739029
1617.418669,-1685.410096,-3034.844362,10510.924376
1617.418987,-1991.848295,-2294.638420,11695.253884
1617.419304,-2451.505594,-444.123565,11621.233289
1617.419621,-1991.848295,1480.411884,10732.986159
1617.419939,-1532.190996,2812.782580,10436.903782
1617.420256,-766.095498,3552.988522,10140.821405
1617.420573,229.828649,4071.132681,9474.636058
1617.420891,1378.971896,3552.988522,8512.368333
1617.421208,2145.067394,2368.659014,8734.430116
1617.421526,2757.943793,1406.391290,8290.306550
1617.421843,3370.820191,518.144159,7179.997637
1617.422160,3294.210641,-888.247130,6513.812290
1617.422478,3217.601092,-1702.473667,7179.997637
1617.422795,2681.334243,-1332.370696,7624.121203
1617.423112,2221.676944,-1332.370696,7254.018232
1617.423430,919.314598,-2146.597232,9400.615463
1617.423747,229.828649,-1924.535449,11029.068536
1617.424065,-459.657299,-666.185348,10807.006753
1617.424382,-995.924147,444.123565,10214.842000
1617.424699,-1225.752797,666.185348,10881.027347
1617.425017,-689.485948,1480.411884,10881.027347
1617.425334,153.219100,2368.659014,9178.553681
1617.425651,1072.533697,2368.659014,8734.430116
1617.425969,1532.190996,1480.411884,9400.615463
1617.426286,2451.505594,1406.391290,8290.306550
1617.426603,2834.553343,592.164754,7402.059420
1617.426921,3294.210641,-1184.329507,7402.059420
1617.427238,2451.505594,-1258.350101,8216.285956
1617.427556,1991.848295,-1406.391290,7846.182985
1617.427873,1532.190996,-1776.494261,9252.574275
1617.428190,612.876398,-1554.432478,10288.862594
1617.428508,-383.047749,-592.164754,10584.944971
1617.428825,-1149.143247,222.061783,9992.780217
1617.429142,-1225.752797,1258.350101,9770.718434
1617.429460,-995.924147,1480.411884,10214.842000
1617.429777,-612.876398,2146.597232,9474.636058
1617.430095,-459.657299,1332.370696,9474.636058
1617.430412,-229.828649,814.226536,9770.718434
1617.430729,383.047749,814.226536,9696.697840
1617.431047,1149.143247,-0.000000,9030.512492
1617.431364,1608.800546,-444.123565,8808.450710
1617.431681,1608.800546,-1332.370696,9178.553681
1617.431999,1685.410096,-1184.329507,9474.636058
1617.432316,1455.581446,-1036.288319,9474.636058
1617.432633,536.266849,-1036.288319,10288.862594
1617.432951,306.438199,-0.000000,11251.130318
1617.433268,-229.828649,1554.432478,10214.842000
1617.433586,0.000000,2368.659014,10140.821405
1617.433903,0.000000,2812.782580,10362.883188
1617.434220,0.000000,2812.782580,9992.780217
1617.434538,459.657299,2146.597232,9252.574275
1617.434855,689.485948,1258.350101,9548.656652
1617.435172,919.314598,-0.000000,10214.842000
1617.435490,612.876398,-0.000000,9252.574275
1617.435807,919.314598,-1184.329507,8512.368333
1617.436125,1302.362347,-1924.535449,9474.636058
1617.436442,1225.752797,-1998.556043,10214.842000
1617.436759,1225.752797,-1406.391290,9474.636058
1617.437077,919.314598,-1480.411884,10140.821405
1617.437394,0.000000,-592.164754,11399.171507
1617.437711,0.000000,1258.350101,10510.924376
1617.438029,229.828649,2072.576638,9696.697840
1617.438346,-153.219100,2368.659014,9770.718434
1617.438663,612.876398,2960.823768,9696.697840
1617.438981,536.266849,3182.885551,8142.265362
1617.439298,919.314598,2072.576638,8438.347739
1617.439616,1072.533697,666.185348,9030.512492
1617.439933,842.705048,-222.061783,8512.368333
1617.440250,766.095498,-1554.432478,8068.244768
1617.440568,306.438199,-2442.679609,8956.491898
1617.440885,229.828649,-3552.988522,9548.656652
1617.441202,76.609550,-3182.885551,10140.821405
1617.441520,383.047749,-2442.679609,10584.944971
1617.441837,0.000000,-2294.638420,11177.109724
1617.442155,383.047749,-962.267725,11029.068536
1617.442472,1072.533697,1258.350101,10658.965565
1617.442789,1455.581446,2664.741391,9326.594869
1617.443107,2068.457845,4145.153275,8364.327145
1617.443424,2911.162892,4811.338623,7179.997637
1617.443741,3600.648841,4219.173869,6957.935855
1617.444059,3830.477490,2738.761985,7179.997637
1617.444376,4213.525239,1554.432478,7254.018232
1617.444693,4136.915689,370.102971,7105.977043
1617.445011,3217.601092,-1332.370696,7698.141797
1617.445328,2528.115143,-3034.844362,8734.430116
1617.445646,1991.848295,-3330.926739,9770.718434
1617.445963,1072.533697,-3182.885551,10214.842000
1617.446280,612.876398,-2442.679609,10955.047942
1617.446598,0.000000,-1258.350101,11325.150913
1617.446915,-153.219100,962.267725,9918.759623
1617.447232,-306.438199,1998.556043,9918.759623
1617.447550,-766.095498,2886.803174,9474.636058
1617.447867,76.609550,3404.947333,9030.512492
1617.448185,-153.219100,3478.967927,7994.224174
1617.448502,536.266849,2220.617826,8364.327145
1617.448819,612.876398,1184.329507,8808.450710
1617.449137,1149.143247,-0.000000,8512.368333
1617.449454,842.705048,-1332.370696,8216.285956
1617.449771,689.485948,-2146.597232,8364.327145
1617.450089,1455.581446,-3034.844362,9696.697840
1617.450406,-536.266849,-1998.556043,8290.306550
1617.450723,-842.705048,-2294.638420,10288.862594
1617.451041,-1991.848295,-1036.288319,11251.130318
1617.451358,-1915.238745,148.041188,11177.109724
1617.451676,-2604.724693,1110.308913,10584.944971
1617.451993,-2834.553343,2294.638420,11177.109724
1617.452310,-1991.848295,2368.659014,10658.965565
1617.452628,-1149.143247,1850.514855,9104.533087
1617.452945,0.000000,1480.411884,9992.780217
1617.453262,306.438199,-0.000000,9474.636058
1617.453580,1762.019645,-0.000000,9252.574275
1617.453897,1378.971896,-814.226536,7846.182985
1617.454215,2145.067394,-1998.556043,9252.574275
1617.454532,1685.410096,-1924.535449,9474.636058
1617.454849,1302.362347,-1332.370696,8882.471304
1617.455167,459.657299,-1406.391290,9474.636058
1617.455484,0.000000,-1776.494261,11251.130318
1617.455801,0.000000,-222.061783,10881.027347
1617.456119,-459.657299,1702.473667,10066.800811
1617.456436,153.219100,1924.535449,10807.006753
1617.456754,153.219100,1776.494261,10658.965565
1617.457071,766.095498,2220.617826,10362.883188
1617.457388,995.924147,1998.556043,9400.615463
1617.457706,766.095498,1036.288319,9474.636058
1617.458023,1915.238745,444.123565,9474.636058
1617.458340,2451.505594,-0.000000,9178.553681
1617.458658,3370.820191,-592.164754,9474.636058
1617.458975,3140.991542,-1332.370696,8660.409521
1617.459292,3294.210641,-1480.411884,8734.430116
1617.459610,2987.772442,-1628.453072,8512.368333
1617.459927,2451.505594,-1628.453072,9104.533087
1617.460245,1608.800546,-444.123565,9252.574275
1617.460562,1072.533697,666.185348,9548.656652
1617.460879,229.828649,2368.659014,9178.553681
1617.461197,0.000000,2664.741391,9474.636058
1617.461514,0.000000,3404.947333,9474.636058
1617.461831,153.219100,2590.720797,9548.656652
1617.462149,-306.438199,1258.350101,9474.636058
1617.462466,-153.219100,666.185348,9548.656652
1617.462784,536.266849,-222.061783,8882.471304
1617.463101,766.095498,-1628.453072,8068.244768
1617.463418,766.095498,-2590.720797,8290.306550
1617.463736,1072.533697,-2294.638420,8512.368333
1617.464053,766.095498,-1332.370696,7179.997637
1617.464370,229.828649,-1184.329507,8216.285956
1617.464688,0.000000,-1258.350101,9622.677246
1617.465005,-459.657299,148.041188,9844.739029
1617.465322,-919.314598,1406.391290,9104.533087
1617.465640,-1302.362347,2368.659014,9178.553681
1617.465957,-842.705048,2812.782580,9400.615463
1617.466275,306.438199,3478.967927,8438.347739
1617.466592,612.876398,2146.597232,7994.224174
1617.466909,842.705048,592.164754,8882.471304
1617.467227,612.876398,-74.020594,9252.574275
1617.467544,689.485948,-1110.308913,8438.347739
1617.467861,612.876398,-1776.494261,9252.574275
1617.468179,919.314598,-1850.514855,10436.903782
1617.468496,459.657299,-1850.514855,9844.739029
1617.468814,536.266849,-1110.308913,9992.780217
1617.469131,995.924147,-1036.288319,10955.047942
1617.469448,1302.362347,-222.061783,10658.965565
1617.469766,1685.410096,1184.329507,10362.883188
1617.470083,1838.629195,1702.473667,10066.800811
1617.470400,2068.457845,2368.659014,9252.574275
1617.470718,2834.553343,3256.906145,9030.512492
1617.471035,3140.991542,3108.864956,8290.306550
1617.471352,2757.943793,2072.576638,8142.265362
1617.471670,2604.724693,1480.411884,8142.265362
1617.471987,2221.676944,296.082377,8512.368333
1617.472305,1455.581446,-1406.391290,9844.739029
1617.472622,919.314598,-2442.679609,9918.759623
1617.472939,612.876398,-2738.761985,10881.027347
1617.473257,0.000000,-2812.782580,11029.068536
1617.473574,-229.828649,-2960.823768,11991.336260
1617.473891,-459.657299,-1998.556043,11991.336260
1617.474209,0.000000,370.102971,11843.295072
1617.474526,0.000000,1702.473667,10955.047942
1617.474844,0.000000,2960.823768,10214.842000
1617.475161,842.705048,3923.091493,9992.780217
1617.475478,1378.971896,4367.215058,8512.368333
1617.475796,1915.238745,3404.947333,8068.244768
1617.476113,1685.410096,2220.617826,7772.162391
1617.476430,2374.896044,592.164754,7772.162391
1617.476748,2298.286494,-370.102971,7254.018232
1617.477065,1685.410096,-2146.597232,7772.162391
1617.477382,1302.362347,-2886.803174,9178.553681
1617.477700,0.000000,-2960.823768,9252.574275
1617.478017,-612.876398,-2664.741391,10288.862594
1617.478335,-2068.457845,-1850.514855,11399.171507
1617.478652,-2221.676944,-814.226536,12139.377449
1617.478969,-2298.286494,814.226536,11843.295072
1617.479287,-2298.286494,2442.679609,11473.192101
1617.479604,-995.924147,3034.844362,10584.944971
1617.479921,-229.828649,3849.070898,9474.636058
1617.480239,995.924147,3775.050304,8364.327145
1617.480556,1532.190996,2368.659014,8216.285956
1617.480874,2604.724693,1702.473667,7624.121203
1617.481191,2911.162892,370.102971,7105.977043
1617.481508,3140.991542,-814.226536,7179.997637
1617.481826,2681.334243,-1850.514855,7920.203579
1617.482143,2221.676944,-2146.597232,8068.244768
1617.482460,306.438199,-1258.350101,7772.162391
1617.482778,76.609550,-1332.370696,10140.821405
1617.483095,-459.657299,-592.164754,10140.821405
1617.483413,-919.314598,518.144159,10140.821405
1617.483730,-1378.971896,1036.288319,10362.883188
1617.484047,-1838.629195,1332.370696,11029.068536
1617.484365,-995.924147,2294.638420,10362.883188
1617.484682,-383.047749,3108.864956,8734.430116
1617.485000,383.047749,2294.638420,8956.491898
1617.485317,995.924147,1554.432478,8808.450710
1617.485634,1685.410096,296.082377,8808.450710
1617.485952,2451.505594,-814.226536,8364.327145
1617.486269,2451.505594,-2442.679609,8808.450710
1617.486587,2374.896044,-2442.679609,9104.533087
1617.486904,2451.505594,-1924.535449,8068.244768
1617.487221,1915.238745,-2220.617826,8512.368333
1617.487539,1225.752797,-888.247130,9400.615463
1617.487856,1072.533697,-0.000000,9844.739029
1617.488174,536.266849,1850.514855,9104.533087
1617.488491,76.609550,2590.720797,9474.636058
1617.488808,-306.438199,2072.576638,10140.821405
1617.489126,-229.828649,2072.576638,9770.718434
1617.489443,-76.609550,1406.391290,10140.821405
1617.489761,153.219100,-74.020594,10436.903782
1617.490078,689.485948,-740.205942,10362.883188
1617.490395,1532.190996,-2220.617826,10732.986159
1617.490713,2374.896044,-2294.638420,10140.821405
1617.491030,2681.334243,-2368.659014,10066.800811
1617.491348,2987.772442,-1480.411884,9474.636058
1617.491665,3370.820191,-666.185348,8956.491898
1617.491982,2374.896044,-0.000000,9178.553681
1617.492300,2068.457845,1258.350101,9104.533087
1617.492617,1991.848295,2812.782580,8808.450710
1617.492935,1532.190996,3330.926739,8290.306550
1617.493252,306.438199,2812.782580,9548.656652
1617.493569,306.438199,3182.885551,9326.594869
1617.493887,-229.828649,2368.659014,8660.409521
1617.494204,-383.047749,592.164754,9992.780217
1617.494522,-229.828649,-592.164754,10807.006753
1617.494839,-766.095498,-1110.308913,10140.821405
1617.495156,-842.705048,-2072.576638,10658.965565
1617.495474,-612.876398,-2738.761985,11399.171507
1617.495791,-766.095498,-2368.659014,11103.089130
1617.496109,0.000000,-1628.453072,10510.924376
1617.496426,0.000000,-1406.391290,9918.759623
1617.496743,0.000000,-222.061783,9696.697840
1617.497061,536.266849,962.267725,9326.594869
1617.497378,459.657299,2368.659014,7994.224174
1617.497696,1149.143247,3182.885551,8068.244768
1617.498013,1378.971896,3849.070898,7550.100608
1617.498330,1532.190996,3627.009116,6735.874072
1617.498648,1378.971896,2368.659014,7105.977043
1617.498965,1149.143247,1110.308913,8142.265362
1617.499283,1149.143247,-222.061783,8068.244768
1617.499600,76.609550,-1332.370696,8882.471304
1617.499917,-842.705048,-2960.823768,10140.821405
1617.500235,-1302.362347,-2886.803174,11251.130318
1617.500552,-1762.019645,-2590.720797,11103.089130
1617.500870,-1762.019645,-2294.638420,11325.150913
1617.501187,-1762.019645,-1702.473667,11843.295072
1617.501504,-995.924147,222.061783,11695.253884
1617.501822,0.000000,1998.556043,10288.862594
1617.502139,689.485948,2738.761985,9474.636058
1617.502457,1225.752797,3627.009116,9770.718434
1617.502774,2298.286494,4515.256246,8586.388927
1617.503091,3524.039291,4589.276840,6809.894666
1617.503409,4519.963438,2812.782580,7254.018232
1617.503726,4366.744339,1480.411884,7550.100608
1617.504044,4060.306139,-0.000000,7254.018232
1617.504361,3524.039291,-1406.391290,7254.018232
1617.504678,2528.115143,-2590.720797,8364.327145
1617.504996,1762.019645,-3034.844362,9474.636058
1617.505313,-229.828649,-2738.761985,9548.656652
1617.505631,-842.705048,-3108.864956,11843.295072
1617.505948,-2145.067394,-2072.576638,12287.418637
1617.506265,-1532.190996,-444.123565,12287.418637
