#time,accel_x,accel_y,accel_z
885.518640,3294.210641,1110.308913,3478.967927
885.518959,2987.772442,1036.288319,3849.070898
885.519278,2451.505594,1184.329507,4293.194464
885.519597,1991.848295,1332.370696,5773.606348
885.519916,1378.971896,1332.370696,5847.626942
885.520235,842.705048,1702.473667,6069.688724
885.520553,0.000000,1924.535449,6291.750507
885.520872,-995.924147,2072.576638,6439.791695
885.521191,-1302.362347,2072.576638,6587.832884
885.521510,-2298.286494,1406.391290,7328.038826
885.521829,-2451.505594,1480.411884,8364.327145
885.522148,-2987.772442,1554.432478,9178.553681
885.522467,-3370.820191,1258.350101,9400.615463
885.522785,-3294.210641,1406.391290,10214.842000
885.523104,-3370.820191,1480.411884,9992.780217
885.523423,-3677.258390,1036.288319,10140.821405
885.523742,-3217.601092,518.144159,9992.780217
885.524061,-3064.381992,-740.205942,11251.130318
885.524380,-3217.601092,-1554.432478,12287.418637
885.524699,-3140.991542,-2738.761985,13027.624579
885.525018,-2911.162892,-3034.844362,13545.768739
885.525336,-2604.724693,-2812.782580,14137.933492
885.525655,-1915.238745,-1776.494261,14063.912898
885.525974,-1685.410096,-962.267725,13027.624579
885.526293,-919.314598,-74.020594,12361.439231
885.526612,-306.438199,-0.000000,11769.274478
885.526931,0.000000,148.041188,11029.068536
885.527250,0.000000,222.061783,10584.944971
885.527568,153.219100,-0.000000,11177.109724
885.527887,842.705048,-148.041188,11103.089130
885.528206,1302.362347,-0.000000,10955.047942
885.528525,1685.410096,962.267725,10436.903782
885.528844,1378.971896,1628.453072,9770.718434
885.529163,1532.190996,2368.659014,9178.553681
885.529482,1532.190996,3108.864956,7772.162391
885.529801,1685.410096,3330.926739,7772.162391
885.530119,1149.143247,2960.823768,8142.265362
885.530438,842.705048,2960.823768,8290.306550
885.530757,766.095498,2368.659014,7994.224174
885.531076,383.047749,2294.638420,8290.306550
885.531395,76.609550,2368.659014,8290.306550
885.531714,383.047749,2886.803174,7772.162391
885.532033,459.657299,2664.741391,7624.121203
885.532351,76.609550,1850.514855,7328.038826
885.532670,76.609550,1776.494261,7476.080014
885.532989,153.219100,1258.350101,7772.162391
885.533308,-459.657299,-0.000000,8438.347739
885.533627,-919.314598,-814.226536,9474.636058
885.533946,-1378.971896,-1554.432478,9770.718434
885.534265,-1608.800546,-1480.411884,10288.862594
885.534584,-1762.019645,-2072.576638,10436.903782
885.534902,-1532.190996,-1628.453072,10807.006753
885.535221,-1762.019645,-2072.576638,10807.006753
885.535540,-1455.581446,-2368.659014,10658.965565
885.535859,-1072.533697,-2886.803174,10807.006753
885.536178,-766.095498,-3404.947333,11029.068536
885.536497,-612.876398,-3775.050304,10807.006753
885.536816,-229.828649,-3552.988522,11029.068536
885.537134,0.000000,-3404.947333,10881.027347
885.537453,153.219100,-3034.844362,10732.986159
885.537772,306.438199,-2812.782580,10362.883188
885.538091,76.609550,-2368.659014,10510.924376
885.538410,0.000000,-2368.659014,10214.842000
885.538729,0.000000,-1998.556043,10214.842000
885.539048,76.609550,-1850.514855,10140.821405
885.539367,-229.828649,-1998.556043,10214.842000
885.539685,-689.485948,-1850.514855,10214.842000
885.540004,-383.047749,-1332.370696,9992.780217
885.540323,-306.438199,-814.226536,9326.594869
885.540642,-306.438199,-666.185348,8734.430116
885.540961,-306.438199,-0.000000,8364.327145
885.541280,-383.047749,-0.000000,7920.203579
885.541599,-306.438199,296.082377,7994.224174
885.541917,0.000000,518.144159,7994.224174
885.542236,0.000000,-0.000000,8660.409521
885.542555,0.000000,370.102971,8438.347739
885.542874,76.609550,370.102971,8438.347739
885.543193,153.219100,370.102971,8290.306550
885.543512,766.095498,370.102971,8068.244768
885.543831,536.266849,370.102971,7698.141797
885.544150,536.266849,444.123565,7105.977043
885.544468,766.095498,148.041188,7328.038826
885.544787,995.924147,-74.020594,7772.162391
885.545106,536.266849,-666.185348,7920.203579
885.545425,459.657299,-444.123565,8586.388927
885.545744,459.657299,-740.205942,8956.491898
885.546063,153.219100,-666.185348,9400.615463
885.546382,76.609550,-296.082377,9400.615463
885.546701,153.219100,148.041188,9178.553681
885.547019,153.219100,296.082377,8660.409521
885.547338,153.219100,74.020594,8882.471304
885.547657,0.000000,222.061783,9104.533087
885.547976,536.266849,296.082377,9104.533087
885.548295,383.047749,592.164754,9400.615463
885.548614,306.438199,740.205942,9252.574275
885.548933,689.485948,1258.350101,9400.615463
885.549251,766.095498,2072.576638,9030.512492
885.549570,1149.143247,2368.659014,8734.430116
885.549889,1149.143247,2590.720797,8290.306550
885.550208,1225.752797,2738.761985,8068.244768
885.550527,842.705048,2664.741391,8290.306550
885.550846,689.485948,2368.659014,8364.327145
885.551165,229.828649,1776.494261,9030.512492
885.551484,0.000000,1406.391290,9252.574275
885.551803,-383.047749,1406.391290,9474.636058
885.552122,-842.705048,1406.391290,9770.718434
885.552441,-1072.533697,1554.432478,9844.739029
885.552760,-1378.971896,1776.494261,9992.780217
885.553079,-1225.752797,1924.535449,9992.780217
885.553398,-1302.362347,1850.514855,9992.780217
885.553717,-1378.971896,1110.308913,10140.821405
885.554036,-1072.533697,592.164754,10436.903782
885.554355,-689.485948,148.041188,10510.924376
885.554674,-1149.143247,-666.185348,10732.986159
885.554993,-612.876398,-888.247130,11325.150913
885.555312,-459.657299,-962.267725,11399.171507
885.555631,0.000000,-1258.350101,11473.192101
885.555950,229.828649,-888.247130,11251.130318
885.556269,612.876398,-888.247130,10807.006753
885.556588,383.047749,-1110.308913,10807.006753
885.556907,1072.533697,-1406.391290,10658.965565
885.557226,689.485948,-1628.453072,11103.089130
885.557545,919.314598,-2072.576638,10881.027347
885.557864,919.314598,-1998.556043,10881.027347
885.558183,842.705048,-1998.556043,11103.089130
885.558502,1072.533697,-1776.494261,10658.965565
885.558821,1072.533697,-1332.370696,10436.903782
885.559140,1455.581446,-740.205942,9770.718434
885.559459,1532.190996,-222.061783,9474.636058
885.559778,1608.800546,518.144159,9030.512492
885.560098,2374.896044,370.102971,8290.306550
885.560417,1685.410096,888.247130,8438.347739
885.560736,1378.971896,814.226536,8290.306550
885.561055,1149.143247,814.226536,7920.203579
885.561374,995.924147,888.247130,7698.141797
885.561693,612.876398,962.267725,7698.141797
885.562012,842.705048,1110.308913,7254.018232
885.562331,612.876398,1332.370696,7031.956449
885.562650,459.657299,1258.350101,6957.935855
885.562969,536.266849,1332.370696,6957.935855
885.563288,383.047749,666.185348,6809.894666
885.563607,-153.219100,296.082377,7031.956449
885.563926,-306.438199,148.041188,7179.997637
885.564245,-612.876398,-0.000000,7476.080014
885.564564,-1378.971896,-740.205942,7772.162391
885.564883,-1225.752797,-740.205942,8068.244768
885.565202,-1225.752797,-1036.288319,8216.285956
885.565521,-1149.143247,-1110.308913,8512.368333
885.565840,-1378.971896,-1332.370696,8882.471304
885.566159,-459.657299,-1184.329507,9178.553681
885.566478,-1149.143247,-1628.453072,9400.615463
885.566797,-612.876398,-1702.473667,9474.636058
885.567116,-842.705048,-1998.556043,9622.677246
885.567435,-459.657299,-2146.597232,9918.759623
885.567754,153.219100,-2294.638420,10658.965565
885.568073,153.219100,-2294.638420,10362.883188
885.568392,383.047749,-2294.638420,10214.842000
885.568712,842.705048,-1850.514855,10510.924376
885.569031,1608.800546,-1406.391290,10510.924376
885.569350,1608.800546,-962.267725,10362.883188
885.569669,2374.896044,-222.061783,9844.739029
885.569988,2451.505594,-74.020594,9696.697840
885.570307,2681.334243,518.144159,9474.636058
885.570626,2911.162892,740.205942,9326.594869
885.570945,2987.772442,666.185348,9252.574275
885.571264,3064.381992,1184.329507,9326.594869
885.571583,3064.381992,1702.473667,9252.574275
885.571902,2757.943793,1998.556043,9326.594869
885.572221,2451.505594,2590.720797,9400.615463
885.572540,2374.896044,2960.823768,9030.512492
885.572859,2298.286494,3627.009116,8882.471304
885.573178,1762.019645,3701.029710,8882.471304
885.573497,1149.143247,3923.091493,8660.409521
885.573816,459.657299,3775.050304,8882.471304
885.574135,612.876398,3775.050304,9104.533087
885.574454,0.000000,3404.947333,9178.553681
885.574773,0.000000,3182.885551,9400.615463
885.575092,0.000000,3108.864956,9400.615463
885.575411,76.609550,3108.864956,9474.636058
885.575730,-383.047749,3182.885551,9252.574275
885.576049,-995.924147,2738.761985,9474.636058
885.576368,-995.924147,2368.659014,9104.533087
885.576687,-1302.362347,1998.556043,9474.636058
885.577006,-1378.971896,1184.329507,9918.759623
885.577326,-1455.581446,740.205942,9918.759623
885.577645,-1685.410096,-0.000000,10362.883188
885.577964,-2221.676944,-148.041188,10807.006753
885.578283,-2374.896044,-370.102971,11177.109724
885.578602,-2068.457845,-222.061783,10807.006753
885.578921,-1915.238745,-296.082377,10584.944971
885.579240,-1608.800546,-148.041188,10214.842000
885.579559,-1378.971896,-222.061783,10288.862594
885.579878,-689.485948,-592.164754,10510.924376
885.580197,-689.485948,-888.247130,10140.821405
885.580516,-383.047749,-1258.350101,10362.883188
885.580835,153.219100,-1554.432478,10288.862594
885.581154,689.485948,-1480.411884,10362.883188
885.581473,842.705048,-1554.432478,10214.842000
885.581792,1915.238745,-814.226536,9622.677246
885.582111,2298.286494,-740.205942,9326.594869
885.582430,2604.724693,-444.123565,8734.430116
885.582749,3753.867940,-444.123565,8364.327145
885.583068,3370.820191,-370.102971,8216.285956
885.583387,3677.258390,-888.247130,8216.285956
885.583706,3677.258390,-1110.308913,8142.265362
885.584025,3447.429741,-1332.370696,8438.347739
885.584344,3140.991542,-1554.432478,8364.327145
885.584663,3217.601092,-1110.308913,8290.306550
885.584982,3064.381992,-814.226536,7994.224174
885.585301,2528.115143,-222.061783,7846.182985
885.585620,2604.724693,-0.000000,7994.224174
885.585939,2068.457845,-0.000000,7624.121203
885.586259,1685.410096,-74.020594,7624.121203
885.586578,1378.971896,-148.041188,7476.080014
885.586897,689.485948,-0.000000,7920.203579
885.587216,459.657299,-222.061783,7550.100608
885.587535,229.828649,148.041188,7772.162391
885.587854,0.000000,148.041188,7920.203579
885.588173,-153.219100,296.082377,7698.141797
885.588492,-383.047749,518.144159,7846.182985
885.588811,0.000000,444.123565,7846.182985
885.589130,-766.095498,518.144159,7624.121203
885.589449,-766.095498,518.144159,7920.203579
885.589768,-1149.143247,444.123565,8216.285956
885.590087,-1378.971896,444.123565,8586.388927
885.590406,-1762.019645,518.144159,8956.491898
885.590725,-1762.019645,666.185348,9252.574275
885.591044,-1991.848295,1036.288319,9178.553681
885.591363,-1532.190996,1480.411884,9104.533087
885.591682,-1225.752797,1554.432478,9030.512492
885.592001,-766.095498,2220.617826,8956.491898
885.592320,-766.095498,2220.617826,9400.615463
885.592639,-612.876398,2220.617826,9400.615463
885.592958,-153.219100,2294.638420,9696.697840
885.593277,0.000000,1776.494261,10066.800811
885.593596,459.657299,2072.576638,10288.862594
885.593915,919.314598,1850.514855,10510.924376
885.594234,1225.752797,2146.597232,10732.986159
885.594553,1991.848295,2220.617826,10584.944971
885.594873,2604.724693,2368.659014,11029.068536
885.595192,3064.381992,2442.679609,10584.944971
885.595511,3217.601092,2368.659014,10732.986159
885.595830,3370.820191,2368.659014,10436.903782
885.596149,3907.087040,1998.556043,10807.006753
885.596468,3677.258390,1480.411884,10881.027347
885.596787,3677.258390,1406.391290,10584.944971
885.597106,3447.429741,1258.350101,10881.027347
885.597425,3217.601092,1332.370696,10955.047942
885.597744,2987.772442,1480.411884,11177.109724
885.598063,2757.943793,1554.432478,11029.068536
885.598382,2221.676944,1776.494261,10881.027347
885.598701,1838.629195,1776.494261,10658.965565
885.599020,1302.362347,1850.514855,10732.986159
885.599339,689.485948,1850.514855,10510.924376
885.599658,612.876398,1776.494261,10140.821405
885.599977,76.609550,1628.453072,10214.842000
885.600296,76.609550,1628.453072,9844.739029
885.600615,-229.828649,1480.411884,9474.636058
885.600934,-995.924147,1554.432478,9474.636058
885.601253,-1225.752797,1406.391290,9474.636058
885.601572,-1302.362347,1258.350101,8808.450710
885.601891,-1685.410096,1110.308913,8734.430116
885.602210,-1991.848295,1036.288319,8512.368333
885.602529,-2451.505594,444.123565,8512.368333
885.602848,-2374.896044,148.041188,8660.409521
885.603167,-2374.896044,-0.000000,8734.430116
885.603487,-2451.505594,-148.041188,8734.430116
885.603806,-2528.115143,-592.164754,8808.450710
885.604125,-2604.724693,-740.205942,8364.327145
885.604444,-1991.848295,-592.164754,8216.285956
885.604763,-1991.848295,-592.164754,8512.368333
885.605082,-1225.752797,-666.185348,7846.182985
885.605401,-995.924147,-814.226536,7846.182985
885.605720,-766.095498,-1406.391290,8068.244768
885.606039,-306.438199,-1628.453072,8290.306550
885.606358,306.438199,-1998.556043,8438.347739
885.606677,766.095498,-2294.638420,8660.409521
885.606996,1532.190996,-2368.659014,8660.409521
885.607315,1685.410096,-2294.638420,8808.450710
885.607634,2374.896044,-2072.576638,8660.409521
885.607953,2528.115143,-1998.556043,8364.327145
885.608272,2911.162892,-1702.473667,8364.327145
885.608591,3600.648841,-1850.514855,7994.224174
885.608910,3677.258390,-1850.514855,8364.327145
885.609229,3753.867940,-1924.535449,8512.368333
885.609548,3447.429741,-1850.514855,8586.388927
885.609867,3217.601092,-1554.432478,8882.471304
885.610186,3524.039291,-1258.350101,8586.388927
885.610505,3140.991542,-592.164754,8438.347739
885.610824,2757.943793,-296.082377,8438.347739
885.611143,2681.334243,-0.000000,7994.224174
885.611462,2451.505594,666.185348,7994.224174
885.611781,1762.019645,1110.308913,7994.224174
885.612101,1302.362347,1332.370696,7994.224174
885.612420,766.095498,1554.432478,8290.306550
885.612739,76.609550,1776.494261,8586.388927
885.613058,0.000000,2146.597232,8808.450710
885.613377,-612.876398,2294.638420,8586.388927
885.613696,-689.485948,2368.659014,8734.430116
885.614015,-995.924147,3034.844362,8364.327145
885.614334,-1302.362347,2960.823768,8512.368333
885.614653,-1532.190996,2886.803174,8660.409521
885.614972,-1915.238745,2812.782580,8808.450710
885.615291,-1991.848295,2516.700203,9252.574275
885.615610,-2374.896044,2368.659014,9548.656652
885.615929,-2298.286494,2146.597232,9992.780217
885.616248,-2528.115143,1998.556043,10140.821405
885.616567,-2451.505594,1776.494261,10436.903782
885.616886,-2528.115143,1628.453072,10584.944971
885.617205,-2374.896044,1702.473667,10436.903782
885.617524,-1838.629195,1702.473667,10807.006753
885.617843,-1991.848295,1628.453072,10807.006753
885.618162,-1455.581446,1628.453072,11103.089130
885.618481,-1302.362347,1036.288319,11029.068536
885.618800,-1072.533697,1036.288319,11399.171507
885.619119,-306.438199,666.185348,11621.233289
885.619438,0.000000,444.123565,11621.233289
885.619757,689.485948,296.082377,11621.233289
885.620076,1149.143247,296.082377,11695.253884
885.620395,2068.457845,444.123565,11621.233289
885.620715,2298.286494,444.123565,11177.109724
885.621034,2911.162892,592.164754,10955.047942
885.621353,3217.601092,740.205942,10658.965565
885.621672,3294.210641,296.082377,10510.924376
885.621991,3677.258390,370.102971,9992.780217
885.622310,3447.429741,296.082377,10066.800811
885.622629,3294.210641,-0.000000,10066.800811
885.622948,3370.820191,148.041188,9844.739029
885.623267,2987.772442,-148.041188,9548.656652
885.623586,2528.115143,-0.000000,9474.636058
885.623905,2528.115143,592.164754,9326.594869
885.624224,1991.848295,444.123565,9178.553681
885.624543,1455.581446,666.185348,8808.450710
885.624862,1302.362347,740.205942,8512.368333
885.625181,459.657299,518.144159,8586.388927
885.625500,153.219100,148.041188,8438.347739
885.625819,-306.438199,-0.000000,8364.327145
885.626138,-766.095498,-0.000000,8142.265362
885.626457,-842.705048,-222.061783,7846.182985
885.626776,-1149.143247,-0.000000,7698.141797
885.627095,-1378.971896,-0.000000,7920.203579
885.627414,-1608.800546,-0.000000,7624.121203
885.627733,-1762.019645,-222.061783,7402.059420
885.628052,-1991.848295,-814.226536,7328.038826
885.628371,-2374.896044,-740.205942,7476.080014
885.628690,-2528.115143,-1258.350101,7920.203579
885.629009,-2757.943793,-1406.391290,8068.244768
885.629329,-2911.162892,-1702.473667,8364.327145
885.629648,-3064.381992,-1554.432478,8438.347739
885.629967,-2604.724693,-1554.432478,8290.306550
885.630286,-2374.896044,-1110.308913,8586.388927
885.630605,-1991.848295,-814.226536,8364.327145
885.630924,-1455.581446,-740.205942,8142.265362
885.631243,-1149.143247,-888.247130,8216.285956
885.631562,-842.705048,-814.226536,8364.327145
885.631881,-229.828649,-1036.288319,8512.368333
885.632200,153.219100,-1258.350101,8734.430116
885.632519,689.485948,-1332.370696,9252.574275
885.632838,1225.752797,-888.247130,9474.636058
885.633157,1838.629195,-740.205942,9030.512492
885.633476,2374.896044,-296.082377,9178.553681
885.633795,2834.553343,-74.020594,8956.491898
885.634114,2987.772442,-0.000000,8734.430116
885.634433,3370.820191,222.061783,8586.388927
885.634752,3600.648841,222.061783,8956.491898
885.635071,3600.648841,370.102971,9104.533087
885.635390,3600.648841,-0.000000,9474.636058
885.635709,3217.601092,222.061783,9326.594869
885.636028,3064.381992,592.164754,9622.677246
885.636347,2451.505594,962.267725,9326.594869
885.636666,1991.848295,1036.288319,9326.594869
885.636985,2221.676944,1406.391290,9326.594869
885.637304,1762.019645,1628.453072,9400.615463
885.637623,1225.752797,1554.432478,9474.636058
885.637942,689.485948,1480.411884,9548.656652
885.638262,153.219100,1776.494261,9696.697840
885.638581,-612.876398,1554.432478,10140.821405
885.638900,-842.705048,1702.473667,10140.821405
885.639219,-1225.752797,1702.473667,10066.800811
885.639538,-1532.190996,1850.514855,10140.821405
885.639857,-1378.971896,2146.597232,9622.677246
885.640176,-1762.019645,1998.556043,9548.656652
885.640495,-1838.629195,1924.535449,9548.656652
885.640814,-2221.676944,1850.514855,9548.656652
885.641133,-2221.676944,1480.411884,9696.697840
885.641452,-2374.896044,1036.288319,10214.842000
885.641771,-2374.896044,888.247130,10214.842000
885.642090,-2604.724693,888.247130,10510.924376
885.642409,-2528.115143,740.205942,10362.883188
885.642728,-2145.067394,962.267725,10510.924376
885.643047,-2145.067394,962.267725,10214.842000
885.643366,-1455.581446,888.247130,9992.780217
885.643685,-1072.533697,962.267725,9696.697840
885.644004,-919.314598,888.247130,9696.697840
885.644323,-766.095498,148.041188,9548.656652
885.644642,0.000000,-0.000000,9918.759623
885.644961,459.657299,-222.061783,10214.842000
885.645280,1225.752797,-518.144159,10288.862594
885.645599,1455.581446,-592.164754,10288.862594
885.645918,1991.848295,-740.205942,9992.780217
885.646237,2604.724693,-444.123565,9844.739029
885.646556,2834.553343,-518.144159,9548.656652
885.646876,3140.991542,-444.123565,9326.594869
885.647195,3524.039291,-740.205942,8882.471304
885.647514,3524.039291,-888.247130,8956.491898
885.647833,3677.258390,-962.267725,8956.491898
885.648152,3600.648841,-1332.370696,9030.512492
885.648471,3370.820191,-1406.391290,8882.471304
885.648790,3064.381992,-1332.370696,9400.615463
885.649109,2681.334243,-1554.432478,8882.471304
885.649428,2757.943793,-888.247130,8586.388927
885.649747,2451.505594,-518.144159,8586.388927
885.650066,2145.067394,-222.061783,8364.327145
885.650385,1838.629195,-666.185348,8068.244768
885.650695,1149.143247,-74.020594,8216.285956
885.651014,689.485948,-222.061783,7994.224174
885.651332,306.438199,-0.000000,8142.265362
885.651651,0.000000,-0.000000,8216.285956
885.651970,0.000000,-74.020594,8142.265362
885.652289,-306.438199,370.102971,7772.162391
885.652608,-766.095498,666.185348,7846.182985
885.652927,-995.924147,666.185348,7624.121203
885.653246,-536.266849,814.226536,7402.059420
885.653565,-1608.800546,740.205942,7254.018232
885.653884,-1838.629195,888.247130,7624.121203
885.654203,-1532.190996,444.123565,7772.162391
885.654522,-1915.238745,370.102971,8216.285956
885.654840,-1685.410096,148.041188,8438.347739
885.655159,-2221.676944,444.123565,8882.471304
885.655478,-2221.676944,370.102971,8808.450710
885.655797,-1915.238745,666.185348,9104.533087
885.656116,-1685.410096,814.226536,8882.471304
885.656435,-919.314598,1110.308913,9104.533087
885.656754,-766.095498,1258.350101,9326.594869
885.657073,-383.047749,1036.288319,9400.615463
885.657392,0.000000,444.123565,9474.636058
885.657711,306.438199,222.061783,9844.739029
885.658030,306.438199,-0.000000,10362.883188
885.658349,919.314598,-222.061783,10436.903782
885.658667,1532.190996,-0.000000,10584.944971
885.658986,2298.286494,222.061783,10658.965565
885.659305,2451.505594,444.123565,10510.924376
885.659624,2987.772442,888.247130,10362.883188
885.659943,3370.820191,592.164754,10362.883188
885.660262,3370.820191,592.164754,10288.862594
885.660581,3370.820191,592.164754,10288.862594
885.660900,3600.648841,-0.000000,10066.800811
885.661219,3447.429741,148.041188,11103.089130
885.661538,2834.553343,444.123565,10658.965565
885.661857,2681.334243,518.144159,10214.842000
885.662175,2681.334243,888.247130,10140.821405
885.662494,2221.676944,1184.329507,9770.718434
885.662813,2068.457845,1332.370696,9622.677246
885.663132,1608.800546,1554.432478,9696.697840
885.663451,919.314598,1628.453072,9474.636058
885.663770,536.266849,1628.453072,9770.718434
885.664089,0.000000,1628.453072,9696.697840
885.664408,0.000000,1702.473667,9474.636058
885.664727,-383.047749,1628.453072,9548.656652
885.665046,-459.657299,1850.514855,9252.574275
885.665365,-919.314598,2072.576638,8956.491898
885.665683,-842.705048,2220.617826,8734.430116
885.666002,-919.314598,1998.556043,8660.409521
885.666321,-1149.143247,1776.494261,8438.347739
885.666640,-1225.752797,1406.391290,8364.327145
885.666959,-1455.581446,1184.329507,8882.471304
885.667278,-1685.410096,814.226536,8956.491898
885.667597,-1532.190996,222.061783,9030.512492
885.667916,-1685.410096,148.041188,9178.553681
885.668235,-1762.019645,-0.000000,9178.553681
885.668554,-1762.019645,222.061783,9474.636058
885.668873,-1225.752797,-0.000000,9030.512492
885.669192,-1149.143247,-74.020594,8882.471304
885.669510,-689.485948,-148.041188,8956.491898
885.669829,-153.219100,-814.226536,9252.574275
885.670148,-76.609550,-888.247130,9326.594869
885.670467,76.609550,-1258.350101,9400.615463
885.670786,612.876398,-1406.391290,9474.636058
885.671105,1149.143247,-1628.453072,9474.636058
885.671424,1302.362347,-1480.411884,9696.697840
885.671743,2221.676944,-1184.329507,9548.656652
885.672062,2451.505594,-1184.329507,9326.594869
885.672381,2834.553343,-962.267725,9030.512492
885.672700,3447.429741,-666.185348,9030.512492
885.673018,3217.601092,-888.247130,8808.450710
885.673337,3677.258390,-740.205942,8660.409521
885.673656,3524.039291,-814.226536,8586.388927
885.673975,3524.039291,-592.164754,8660.409521
885.674294,3753.867940,-518.144159,8882.471304
885.674613,2911.162892,-444.123565,9178.553681
885.674932,2834.553343,-74.020594,8956.491898
885.675251,2911.162892,444.123565,8364.327145
885.675570,2451.505594,740.205942,8512.368333
885.675889,2145.067394,888.247130,8290.306550
885.676208,1532.190996,1332.370696,8142.265362
885.676527,1149.143247,1110.308913,8290.306550
885.676845,612.876398,1258.350101,8142.265362
885.677164,383.047749,1406.391290,8660.409521
885.677483,0.000000,1184.329507,8586.388927
885.677802,0.000000,1554.432478,9030.512492
885.678121,-536.266849,1850.514855,8586.388927
885.678440,-766.095498,1776.494261,8660.409521
885.678759,-919.314598,2072.576638,8438.347739
885.679078,-1072.533697,2146.597232,8956.491898
885.679397,-1225.752797,1924.535449,8734.430116
885.679716,-1608.800546,1776.494261,8956.491898
885.680035,-1685.410096,1332.370696,9178.553681
885.680353,-1455.581446,1036.288319,9474.636058
885.680672,-1608.800546,814.226536,9770.718434
885.680991,-2068.457845,666.185348,9918.759623
885.681310,-1838.629195,1184.329507,9992.780217
885.681629,-1685.410096,1110.308913,10362.883188
885.681948,-1762.019645,1480.411884,10288.862594
885.682267,-1302.362347,1184.329507,10140.821405
885.682586,-612.876398,1406.391290,9992.780217
885.682905,-612.876398,1036.288319,10214.842000
885.683224,0.000000,666.185348,10288.862594
885.683543,459.657299,-0.000000,10584.944971
885.683861,612.876398,-0.000000,10807.006753
885.684180,1302.362347,296.082377,10881.027347
885.684499,1608.800546,592.164754,10955.047942
885.684818,2068.457845,740.205942,10436.903782
885.685137,2757.943793,740.205942,10362.883188
885.685456,2911.162892,1258.350101,9992.780217
885.685775,3294.210641,888.247130,9548.656652
885.686094,3370.820191,814.226536,9548.656652
885.686413,3064.381992,-0.000000,9844.739029
885.686732,3217.601092,-0.000000,9770.718434
885.687051,2681.334243,-74.020594,10066.800811
885.687370,2757.943793,-0.000000,10362.883188
885.687688,2068.457845,74.020594,9918.759623
885.688007,2451.505594,-0.000000,9696.697840
885.688326,1762.019645,666.185348,9474.636058
885.688645,1302.362347,888.247130,9400.615463
885.688964,1072.533697,888.247130,9104.533087
885.689283,459.657299,814.226536,9030.512492
885.689602,0.000000,296.082377,8882.471304
885.689921,-459.657299,370.102971,9104.533087
885.690240,-153.219100,222.061783,8882.471304
885.690559,-919.314598,-0.000000,8660.409521
885.690878,-1378.971896,814.226536,8882.471304
885.691196,-1225.752797,592.164754,8216.285956
885.691515,-1302.362347,518.144159,7846.182985
885.691834,-1455.581446,666.185348,7994.224174
885.692153,-1455.581446,518.144159,7772.162391
885.692472,-1762.019645,148.041188,7920.203579
885.692791,-2068.457845,-0.000000,7994.224174
885.693110,-2374.896044,-222.061783,8364.327145
885.693429,-2068.457845,-296.082377,8586.388927
885.693748,-2068.457845,-518.144159,8438.347739
885.694067,-2298.286494,-370.102971,8290.306550
885.694386,-1762.019645,-148.041188,8512.368333
885.694705,-995.924147,148.041188,8216.285956
885.695023,-536.266849,296.082377,8068.244768
885.695342,0.000000,148.041188,8216.285956
885.695661,76.609550,-0.000000,8290.306550
885.695980,459.657299,-222.061783,8512.368333
885.696299,536.266849,-518.144159,8808.450710
885.696618,766.095498,-444.123565,9178.553681
885.696937,842.705048,-666.185348,9474.636058
885.697256,1915.238745,-888.247130,9030.512492
885.697575,1991.848295,-370.102971,9548.656652
885.697894,2451.505594,-148.041188,9178.553681
885.698213,2911.162892,-0.000000,9178.553681
885.698531,2987.772442,-0.000000,9104.533087
885.698850,3140.991542,-0.000000,9030.512492
885.699169,3140.991542,-222.061783,9252.574275
885.699488,3064.381992,-222.061783,9474.636058
885.699807,3064.381992,-444.123565,9474.636058
885.700126,2604.724693,-148.041188,9696.697840
885.700445,2221.676944,-222.061783,9548.656652
885.700764,1991.848295,-0.000000,9844.739029
885.701083,1685.410096,370.102971,9844.739029
885.701402,1302.362347,740.205942,9696.697840
885.701721,689.485948,1110.308913,9696.697840
885.702039,536.266849,1184.329507,9844.739029
885.702358,0.000000,1406.391290,9918.759623
885.702677,-306.438199,1110.308913,9918.759623
885.702996,-1072.533697,1332.370696,10140.821405
885.703315,-1225.752797,1036.288319,10140.821405
885.703634,-1072.533697,1776.494261,9918.759623
885.703953,-1225.752797,1924.535449,9918.759623
885.704272,-1149.143247,1924.535449,9474.636058
885.704591,-1149.143247,2072.576638,9474.636058
885.704910,-1302.362347,2368.659014,9104.533087
885.705229,-1225.752797,2146.597232,9252.574275
885.705548,-1685.410096,1924.535449,9400.615463
885.705866,-1762.019645,1480.411884,9474.636058
885.706185,-2068.457845,1110.308913,10066.800811
885.706504,-1991.848295,1258.350101,9992.780217
885.706823,-1608.800546,962.267725,10066.800811
885.707142,-1608.800546,1110.308913,9844.739029
885.707461,-1532.190996,1110.308913,9696.697840
885.707780,-919.314598,1258.350101,9622.677246
885.708099,-612.876398,1184.329507,9474.636058
885.708418,-383.047749,1036.288319,9474.636058
885.708737,0.000000,814.226536,9474.636058
885.709056,689.485948,-370.102971,9696.697840
885.709374,459.657299,-0.000000,9918.759623
885.709693,1149.143247,-518.144159,9918.759623
885.710012,1608.800546,-592.164754,10066.800811
885.710331,1608.800546,-370.102971,9770.718434
885.710650,2221.676944,-222.061783,9844.739029
885.710969,2374.896044,-74.020594,9474.636058
885.711288,2528.115143,-222.061783,9252.574275
885.711607,2911.162892,-370.102971,9178.553681
885.711926,2604.724693,-740.205942,9104.533087
885.712245,2528.115143,-888.247130,9400.615463
885.712564,2528.115143,-1184.329507,9030.512492
885.712883,2298.286494,-1184.329507,9400.615463
885.713201,1991.848295,-814.226536,9252.574275
885.713520,1991.848295,-814.226536,9030.512492
885.713839,1838.629195,-222.061783,8956.491898
885.714158,1302.362347,-148.041188,8512.368333
885.714477,842.705048,-148.041188,8438.347739
885.714796,536.266849,-0.000000,8364.327145
885.715115,536.266849,-222.061783,8142.265362
885.715434,-229.828649,-0.000000,8512.368333
885.715753,0.000000,148.041188,8290.306550
885.716072,-459.657299,222.061783,8290.306550
885.716391,-459.657299,370.102971,8290.306550
885.716709,-995.924147,518.144159,8216.285956
885.717028,-689.485948,814.226536,7846.182985
885.717347,-1149.143247,1184.329507,7846.182985
885.717666,-1378.971896,1036.288319,7698.141797
885.717985,-1532.190996,666.185348,7550.100608
885.718304,-1608.800546,296.082377,7846.182985
885.718623,-1762.019645,148.041188,8290.306550
885.718942,-1915.238745,-0.000000,8586.388927
885.719261,-1608.800546,-0.000000,9030.512492
885.719580,-2145.067394,-148.041188,9178.553681
885.719899,-1685.410096,296.082377,9326.594869
885.720218,-1532.190996,296.082377,9326.594869
885.720536,-1225.752797,518.144159,9400.615463
885.720855,-919.314598,222.061783,9030.512492
885.721174,-995.924147,370.102971,9326.594869
885.721493,-459.657299,-0.000000,9474.636058
885.721812,-383.047749,-222.061783,9770.718434
885.722131,0.000000,-444.123565,9992.780217
885.722450,459.657299,-592.164754,10214.842000
885.722769,995.924147,-444.123565,10510.924376
885.723088,1685.410096,-148.041188,10436.903782
885.723407,2145.067394,-0.000000,10288.862594
885.723726,2374.896044,148.041188,9918.759623
885.724044,2528.115143,-0.000000,9548.656652
885.724363,2834.553343,518.144159,9844.739029
885.724682,2987.772442,444.123565,9770.718434
885.725001,3064.381992,222.061783,9696.697840
885.725320,2757.943793,-0.000000,9770.718434
885.725639,2681.334243,-0.000000,10066.800811
885.725958,2681.334243,296.082377,9918.759623
885.726277,1991.848295,296.082377,9992.780217
885.726596,2068.457845,740.205942,9918.759623
885.726915,1532.190996,1110.308913,9548.656652
885.727234,1302.362347,1184.329507,9474.636058
885.727552,995.924147,1480.411884,9400.615463
885.727871,536.266849,1554.432478,9400.615463
885.728190,76.609550,1480.411884,9474.636058
885.728509,-306.438199,1480.411884,9548.656652
885.728828,-459.657299,1258.350101,9400.615463
885.729147,-842.705048,1332.370696,9474.636058
885.729466,-766.095498,1554.432478,9030.512492
885.729785,-766.095498,1480.411884,9030.512492
885.730104,-766.095498,1702.473667,8808.450710
885.730423,-1378.971896,1702.473667,8586.388927
885.730742,-1149.143247,1554.432478,8512.368333
885.731061,-1302.362347,1110.308913,8586.388927
885.731379,-1378.971896,962.267725,8956.491898
885.731698,-1608.800546,666.185348,9104.533087
885.732017,-1378.971896,222.061783,9178.553681
885.732336,-1455.581446,222.061783,9252.574275
885.732655,-1455.581446,-0.000000,9474.636058
885.732974,-1302.362347,444.123565,9474.636058
885.733293,-842.705048,-0.000000,9326.594869
885.733612,-689.485948,222.061783,9030.512492
885.733931,-229.828649,222.061783,9178.553681
885.734250,76.609550,-0.000000,9104.533087
885.734569,842.705048,-370.102971,9326.594869
885.734887,536.266849,-888.247130,9474.636058
885.735206,1072.533697,-888.247130,9474.636058
885.735525,1532.190996,-740.205942,9622.677246
885.735844,1991.848295,-814.226536,9474.636058
885.736163,2757.943793,-814.226536,9548.656652
885.736482,2681.334243,-592.164754,9400.615463
885.736801,3140.991542,-296.082377,9030.512492
885.737120,3370.820191,-148.041188,9030.512492
885.737439,3600.648841,-444.123565,9030.512492
885.737758,3217.601092,-666.185348,9104.533087
885.738077,3294.210641,-814.226536,9178.553681
885.738396,3140.991542,-814.226536,9104.533087
885.738714,2911.162892,-888.247130,9400.615463
885.739033,2528.115143,-592.164754,9326.594869
885.739352,2145.067394,-0.000000,9178.553681
885.739671,1915.238745,-0.000000,8882.471304
885.739990,1532.190996,592.164754,8734.430116
885.740309,1149.143247,740.205942,8734.430116
885.740628,842.705048,518.144159,8808.450710
885.740947,0.000000,740.205942,8882.471304
885.741266,0.000000,592.164754,8734.430116
885.741585,-612.876398,444.123565,8956.491898
885.741904,-689.485948,814.226536,8882.471304
885.742222,-919.314598,1110.308913,8956.491898
885.742541,-995.924147,1258.350101,8808.450710
885.742860,-1225.752797,1480.411884,8438.347739
885.743179,-1302.362347,1554.432478,8512.368333
885.743498,-1378.971896,1480.411884,8438.347739
885.743817,-1455.581446,1332.370696,8512.368333
885.744136,-1608.800546,1110.308913,8808.450710
885.744455,-2145.067394,740.205942,9030.512492
885.744774,-1991.848295,740.205942,9326.594869
885.745093,-1915.238745,518.144159,9548.656652
885.745412,-1838.629195,444.123565,9548.656652
885.745730,-1378.971896,666.185348,9622.677246
885.746049,-1378.971896,962.267725,9474.636058
885.746368,-995.924147,1036.288319,9474.636058
885.746687,-612.876398,962.267725,9548.656652
885.747006,-459.657299,592.164754,9770.718434
885.747325,0.000000,444.123565,9622.677246
885.747644,383.047749,-0.000000,10288.862594
885.747963,766.095498,-0.000000,10510.924376
885.748282,995.924147,-370.102971,10584.944971
885.748601,1532.190996,-0.000000,10436.903782
885.748920,2221.676944,-74.020594,10288.862594
885.749239,2451.505594,-0.000000,10140.821405
885.749557,2374.896044,148.041188,10214.842000
885.749876,3064.381992,148.041188,9770.718434
885.750195,3370.820191,-0.000000,9622.677246
885.750514,3370.820191,-0.000000,9622.677246
885.750833,3064.381992,-222.061783,9622.677246
885.751152,3524.039291,-296.082377,10140.821405
885.751471,2987.772442,-444.123565,9622.677246
885.751790,2528.115143,-444.123565,9622.677246
885.752109,2451.505594,-0.000000,9622.677246
885.752427,2221.676944,296.082377,9326.594869
885.752746,2298.286494,444.123565,9326.594869
885.753065,1455.581446,814.226536,9030.512492
885.753384,1225.752797,888.247130,9030.512492
885.753703,612.876398,962.267725,9030.512492
885.754022,919.314598,814.226536,8364.327145
885.754341,229.828649,740.205942,8808.450710
885.754660,-536.266849,1036.288319,8882.471304
885.754979,-459.657299,1258.350101,8512.368333
885.755298,-459.657299,1184.329507,8364.327145
885.755616,-919.314598,1480.411884,7920.203579
885.755935,-766.095498,1628.453072,7994.224174
885.756254,-842.705048,1480.411884,8068.244768
885.756573,-995.924147,1480.411884,7994.224174
885.756892,-1378.971896,1258.350101,8216.285956
885.757211,-1378.971896,888.247130,8364.327145
885.757530,-1608.800546,444.123565,8512.368333
885.757849,-1302.362347,592.164754,8882.471304
885.758168,-1532.190996,518.144159,8808.450710
885.758486,-1378.971896,444.123565,8660.409521
885.758805,-842.705048,370.102971,8882.471304
885.759124,-995.924147,666.185348,8808.450710
885.759443,-536.266849,740.205942,8808.450710
885.759762,-229.828649,370.102971,8882.471304
885.760081,0.000000,-0.000000,9252.574275
885.760400,0.000000,-0.000000,9844.739029
885.760719,536.266849,-518.144159,9548.656652
885.761038,1302.362347,-444.123565,9918.759623
885.761357,1608.800546,-518.144159,9918.759623
885.761675,1608.800546,-740.205942,9918.759623
885.761994,2451.505594,-296.082377,9696.697840
885.762313,2604.724693,-148.041188,9770.718434
885.762632,2834.553343,-148.041188,9474.636058
885.762951,3217.601092,-222.061783,9548.656652
885.763270,2911.162892,-296.082377,9918.759623
885.763589,3217.601092,-444.123565,9844.739029
885.763908,3753.867940,-148.041188,9844.739029
885.764227,3140.991542,-444.123565,10066.800811
885.764545,3064.381992,-148.041188,9918.759623
885.764864,2987.772442,-74.020594,9844.739029
885.765183,2451.505594,296.082377,9548.656652
885.765502,2451.505594,592.164754,9400.615463
885.765821,1762.019645,814.226536,9474.636058
885.766140,1685.410096,740.205942,9252.574275
885.766459,842.705048,962.267725,9326.594869
885.766778,842.705048,1184.329507,9326.594869
885.767097,153.219100,1184.329507,9326.594869
885.767415,0.000000,1332.370696,9178.553681
885.767734,-306.438199,1628.453072,9104.533087
885.768053,-612.876398,1554.432478,8882.471304
885.768372,-1072.533697,1628.453072,8660.409521
885.768691,-1378.971896,1998.556043,8512.368333
885.769010,-1302.362347,1480.411884,8586.388927
885.769329,-1455.581446,1554.432478,8586.388927
885.769648,-1762.019645,1554.432478,8882.471304
885.769967,-2068.457845,1184.329507,9252.574275
885.770286,-2221.676944,1110.308913,9030.512492
885.770604,-1915.238745,-0.000000,9326.594869
885.770923,-2221.676944,592.164754,9400.615463
885.771242,-1991.848295,592.164754,9622.677246
885.771561,-1915.238745,814.226536,9178.553681
885.771880,-1302.362347,518.144159,9178.553681
885.772199,-1225.752797,518.144159,9474.636058
885.772518,-919.314598,518.144159,9326.594869
885.772837,-689.485948,222.061783,9178.553681
885.773156,-229.828649,-222.061783,9474.636058
885.773474,229.828649,-148.041188,9696.697840
885.773793,766.095498,-370.102971,9844.739029
885.774112,1225.752797,-518.144159,9474.636058
885.774431,1532.190996,-666.185348,9918.759623
885.774750,2068.457845,-370.102971,9770.718434
885.775069,2911.162892,-740.205942,9400.615463
885.775388,2681.334243,-148.041188,9622.677246
885.775707,2911.162892,-222.061783,9400.615463
885.776026,3140.991542,-74.020594,9474.636058
885.776345,3294.210641,-222.061783,9252.574275
885.776663,3140.991542,-296.082377,9326.594869
885.776982,3140.991542,-370.102971,9548.656652
885.777301,3294.210641,-370.102971,9104.533087
885.777620,2834.553343,-296.082377,9400.615463
885.777939,2528.115143,-74.020594,9104.533087
885.778258,1762.019645,-0.000000,9104.533087
885.778577,1762.019645,370.102971,8956.491898
885.778896,1302.362347,592.164754,8808.450710
885.779215,612.876398,814.226536,8882.471304
885.779533,612.876398,962.267725,8808.450710
885.779852,229.828649,592.164754,8882.471304
885.780171,-306.438199,962.267725,8660.409521
885.780490,-612.876398,888.247130,8882.471304
885.780809,-689.485948,1036.288319,8660.409521
885.781128,-612.876398,1184.329507,8660.409521
885.781447,-1225.752797,1332.370696,8438.347739
885.781766,-1225.752797,1628.453072,8290.306550
885.782085,-1302.362347,1628.453072,8512.368333
885.782404,-1455.581446,1184.329507,8290.306550
885.782722,-1838.629195,1036.288319,8734.430116
885.783041,-1838.629195,592.164754,8808.450710
885.783360,-2298.286494,370.102971,9030.512492
885.783679,-1991.848295,-0.000000,9252.574275
885.783998,-1991.848295,148.041188,9622.677246
885.784317,-1608.800546,370.102971,9696.697840
885.784636,-1532.190996,518.144159,9474.636058
885.784955,-1225.752797,444.123565,9548.656652
885.785274,-919.314598,666.185348,9474.636058
885.785592,-689.485948,592.164754,9474.636058
885.785911,0.000000,370.102971,9474.636058
885.786230,153.219100,-0.000000,9918.759623
885.786549,612.876398,-370.102971,9844.739029
885.786868,1072.533697,-518.144159,10214.842000
885.787187,1072.533697,-444.123565,10584.944971
885.787506,1838.629195,-592.164754,10362.883188
885.787825,2374.896044,-0.000000,9918.759623
885.788144,2451.505594,222.061783,9918.759623
885.788462,2987.772442,148.041188,9622.677246
885.788781,3140.991542,148.041188,9326.594869
885.789100,3064.381992,-148.041188,9474.636058
885.789419,3140.991542,-0.000000,9474.636058
885.789738,2834.553343,-0.000000,9770.718434
885.790057,2604.724693,-148.041188,9548.656652
885.790376,2451.505594,-0.000000,9622.677246
885.790695,2068.457845,518.144159,9474.636058
885.791014,1838.629195,1036.288319,9178.553681
885.791333,1532.190996,1184.329507,9030.512492
885.791651,1378.971896,1110.308913,9326.594869
885.791970,1149.143247,1332.370696,8956.491898
885.792289,76.609550,1184.329507,8882.471304
885.792608,76.609550,1036.288319,8956.491898
885.792927,0.000000,962.267725,8956.491898
885.793246,-306.438199,1036.288319,8734.430116
885.793565,-842.705048,1110.308913,8956.491898
885.793884,-1072.533697,1332.370696,8586.388927
885.794203,-919.314598,1480.411884,8364.327145
885.794521,-1225.752797,1332.370696,8364.327145
885.794840,-1532.190996,1332.370696,8216.285956
885.795159,-1608.800546,814.226536,8142.265362
885.795478,-1532.190996,814.226536,8438.347739
885.795797,-1838.629195,592.164754,8882.471304
885.796116,-1838.629195,-222.061783,9178.553681
885.796435,-1915.238745,-0.000000,9400.615463
885.796754,-1685.410096,-0.000000,9400.615463
885.797073,-1685.410096,-0.000000,9178.553681
885.797392,-1378.971896,74.020594,9178.553681
885.797710,-1149.143247,222.061783,9400.615463
885.798029,-689.485948,-0.000000,9104.533087
885.798348,-306.438199,-0.000000,9030.512492
885.798667,-229.828649,-148.041188,9326.594869
885.798986,612.876398,-444.123565,9474.636058
885.799305,0.000000,-888.247130,9548.656652
885.799624,1225.752797,-814.226536,9770.718434
885.799943,1302.362347,-814.226536,9844.739029
885.800262,1608.800546,-740.205942,9992.780217
885.800580,2374.896044,-740.205942,9474.636058
885.800899,2298.286494,-222.061783,9474.636058
885.801218,2528.115143,-148.041188,9326.594869
885.801537,2834.553343,-148.041188,9326.594869
885.801856,2757.943793,-296.082377,9252.574275
885.802175,3140.991542,-592.164754,9252.574275
885.802494,2528.115143,-518.144159,9474.636058
885.802813,2911.162892,-370.102971,9474.636058
885.803132,2374.896044,-444.123565,9400.615463
885.803451,2068.457845,-148.041188,9400.615463
885.803769,1762.019645,-222.061783,9104.533087
885.804088,1838.629195,444.123565,9104.533087
885.804407,1225.752797,740.205942,8808.450710
885.804726,842.705048,962.267725,9104.533087
885.805045,229.828649,962.267725,9104.533087
885.805364,229.828649,592.164754,9178.553681
885.805683,-76.609550,1258.350101,9178.553681
885.806002,-766.095498,740.205942,9252.574275
885.806321,-919.314598,1184.329507,9104.533087
885.806639,-1072.533697,1480.411884,9030.512492
885.806958,-1072.533697,1554.432478,8660.409521
885.807277,-1149.143247,1850.514855,8586.388927
885.807596,-995.924147,1776.494261,8438.347739
885.807915,-1149.143247,1628.453072,8290.306550
885.808234,-1532.190996,1258.350101,8586.388927
885.808553,-1302.362347,962.267725,8882.471304
885.808872,-1991.848295,222.061783,9104.533087
885.809191,-1838.629195,518.144159,9326.594869
885.809509,-1762.019645,296.082377,9474.636058
885.809828,-1685.410096,592.164754,10066.800811
885.810147,-1608.800546,740.205942,9474.636058
885.810466,-1225.752797,814.226536,9474.636058
885.810785,-842.705048,740.205942,9400.615463
885.811104,-306.438199,518.144159,9474.636058
885.811423,-689.485948,740.205942,9696.697840
885.811742,-153.219100,-74.020594,9696.697840
885.812061,459.657299,-296.082377,9770.718434
885.812380,612.876398,-592.164754,10214.842000
885.812698,1532.190996,-740.205942,10288.862594
885.813017,1532.190996,-370.102971,10066.800811
885.813336,2145.067394,-148.041188,9844.739029
885.813655,2221.676944,148.041188,9696.697840
885.813974,2834.553343,222.061783,9474.636058
885.814293,2987.772442,74.020594,9548.656652
885.814612,3217.601092,-0.000000,9548.656652
885.814931,2987.772442,-296.082377,9474.636058
885.815250,2834.553343,-370.102971,9474.636058
885.815568,2834.553343,-222.061783,9548.656652
885.815887,2911.162892,-296.082377,9696.697840
885.816206,2911.162892,-0.000000,9474.636058
885.816525,2374.896044,370.102971,9178.553681
885.816844,2451.505594,814.226536,8882.471304
885.817163,2068.457845,666.185348,8438.347739
885.817482,1455.581446,814.226536,9104.533087
885.817801,842.705048,962.267725,8956.491898
885.818120,383.047749,1184.329507,9326.594869
885.818439,0.000000,1110.308913,9104.533087
885.818757,-536.266849,1110.308913,8956.491898
885.819076,-229.828649,1036.288319,8808.450710
885.819395,-459.657299,1258.350101,8660.409521
885.819714,-766.095498,1332.370696,8660.409521
885.820033,-842.705048,1480.411884,8364.327145
885.820352,-919.314598,1480.411884,8364.327145
885.820671,-1608.800546,1480.411884,8364.327145
885.820990,-1378.971896,1184.329507,8364.327145
885.821309,-1685.410096,888.247130,9104.533087
885.821627,-1991.848295,666.185348,8882.471304
885.821946,-2068.457845,444.123565,9030.512492
885.822265,-2298.286494,370.102971,9104.533087
885.822584,-2068.457845,296.082377,9104.533087
885.822903,-1685.410096,370.102971,9104.533087
885.823222,-1455.581446,370.102971,9252.574275
885.823541,-1225.752797,370.102971,9400.615463
885.823860,-842.705048,148.041188,9252.574275
885.824179,-689.485948,296.082377,9474.636058
885.824498,-383.047749,-74.020594,9548.656652
885.824816,0.000000,-296.082377,9844.739029
885.825135,536.266849,-370.102971,10066.800811
885.825454,1302.362347,-666.185348,9918.759623
885.825773,1608.800546,-444.123565,9918.759623
885.826092,2528.115143,-222.061783,9844.739029
885.826411,2757.943793,-74.020594,9696.697840
885.826730,3140.991542,-74.020594,9474.636058
885.827049,3370.820191,148.041188,9326.594869
885.827368,3600.648841,148.041188,9326.594869
885.827686,3753.867940,-148.041188,9474.636058
885.828005,3677.258390,-222.061783,9474.636058
885.828324,3294.210641,-444.123565,9622.677246
885.828643,2987.772442,-444.123565,9770.718434
885.828962,2834.553343,-296.082377,9548.656652
885.829281,2528.115143,-74.020594,9696.697840
885.829600,1991.848295,222.061783,9400.615463
885.829919,2145.067394,666.185348,9326.594869
885.830238,1378.971896,740.205942,9030.512492
885.830556,1149.143247,888.247130,9030.512492
885.830875,689.485948,740.205942,8808.450710
885.831194,306.438199,1184.329507,9400.615463
885.831513,0.000000,962.267725,8734.430116
885.831832,-306.438199,1110.308913,9104.533087
885.832151,-153.219100,1332.370696,8808.450710
885.832470,-689.485948,1480.411884,8512.368333
885.832789,-766.095498,1702.473667,8290.306550
885.833108,-919.314598,1702.473667,8364.327145
885.833427,-1072.533697,1776.494261,8290.306550
885.833745,-1532.190996,1480.411884,8142.265362
885.834064,-1685.410096,1110.308913,8438.347739
885.834383,-1608.800546,1036.288319,8882.471304
885.834702,-1838.629195,666.185348,8882.471304
885.835021,-1915.238745,592.164754,9030.512492
885.835340,-2298.286494,370.102971,9326.594869
885.835659,-1915.238745,518.144159,9178.553681
885.835978,-1608.800546,592.164754,9400.615463
885.836297,-1302.362347,740.205942,9252.574275
885.836615,-459.657299,296.082377,9104.533087
885.836934,-919.314598,370.102971,9326.594869
885.837253,0.000000,222.061783,9326.594869
885.837572,76.609550,-148.041188,9548.656652
885.837891,459.657299,-444.123565,9770.718434
885.838210,1225.752797,-592.164754,9696.697840
885.838529,1532.190996,-518.144159,10214.842000
885.838848,2298.286494,-444.123565,9992.780217
885.839167,2451.505594,-370.102971,9770.718434
885.839486,2604.724693,-222.061783,9696.697840
885.839804,3217.601092,-0.000000,9252.574275
885.840123,3217.601092,-74.020594,9474.636058
885.840442,3217.601092,-370.102971,9548.656652
885.840761,3370.820191,-666.185348,9622.677246
885.841080,3370.820191,-740.205942,9918.759623
885.841399,3064.381992,-518.144159,9918.759623
885.841718,3140.991542,-296.082377,9696.697840
885.842037,2911.162892,-0.000000,9696.697840
885.842356,2604.724693,518.144159,9548.656652
885.842674,2451.505594,518.144159,9400.615463
885.842993,1915.238745,814.226536,9030.512492
885.843312,1838.629195,1036.288319,9104.533087
885.843631,1378.971896,962.267725,8808.450710
885.843950,919.314598,888.247130,9104.533087
885.844269,536.266849,1184.329507,9104.533087
885.844588,0.000000,1184.329507,9104.533087
885.844907,-153.219100,1258.350101,9030.512492
885.845226,-459.657299,1258.350101,8586.388927
885.845545,-919.314598,1628.453072,8438.347739
885.845863,-995.924147,1480.411884,8290.306550
885.846182,-1378.971896,1554.432478,8512.368333
885.846501,-1532.190996,1406.391290,8586.388927
885.846820,-2068.457845,1110.308913,8364.327145
885.847139,-1915.238745,888.247130,8438.347739
885.847458,-2068.457845,518.144159,9030.512492
885.847777,-1915.238745,518.144159,9252.574275
885.848096,-1838.629195,666.185348,9326.594869
885.848415,-2068.457845,592.164754,9400.615463
885.848733,-1532.190996,518.144159,8956.491898
885.849052,-1455.581446,666.185348,9030.512492
885.849371,-766.095498,444.123565,9178.553681
885.849690,-612.876398,370.102971,9178.553681
885.850009,-536.266849,-0.000000,9474.636058
885.850328,-306.438199,-148.041188,9844.739029
885.850647,536.266849,-296.082377,9770.718434
885.850966,689.485948,-592.164754,10066.800811
885.851285,1378.971896,-370.102971,9918.759623
885.851603,2068.457845,-814.226536,10214.842000
885.851922,2221.676944,-444.123565,9992.780217
885.852241,2681.334243,-222.061783,9844.739029
885.852560,2681.334243,-0.000000,9474.636058
885.852879,3064.381992,-0.000000,9400.615463
885.853198,3064.381992,222.061783,9548.656652
885.853517,3140.991542,-444.123565,9252.574275
885.853836,3370.820191,-296.082377,9474.636058
885.854155,2987.772442,-518.144159,9548.656652
885.854474,3217.601092,-518.144159,9548.656652
885.854792,3064.381992,-370.102971,9622.677246
885.855111,2221.676944,-74.020594,9474.636058
885.855430,1838.629195,148.041188,9252.574275
885.855749,1455.581446,814.226536,9326.594869
885.856068,842.705048,962.267725,9030.512492
885.856387,689.485948,1036.288319,8882.471304
885.856706,0.000000,962.267725,9030.512492
885.857025,0.000000,888.247130,8956.491898
885.857344,-306.438199,1110.308913,8956.491898
885.857663,-689.485948,1110.308913,8808.450710
885.857981,-842.705048,1036.288319,9178.553681
885.858300,-1072.533697,1332.370696,8586.388927
885.858619,-1225.752797,1628.453072,8660.409521
885.858938,-1225.752797,1628.453072,8290.306550
885.859257,-1378.971896,1332.370696,8364.327145
885.859576,-1532.190996,1110.308913,8364.327145
885.859895,-2298.286494,1036.288319,8734.430116
885.860214,-2374.896044,370.102971,8956.491898
885.860533,-2451.505594,296.082377,9252.574275
885.860851,-2298.286494,-148.041188,9474.636058
885.861170,-2221.676944,-0.000000,9918.759623
885.861489,-2298.286494,-0.000000,9770.718434
885.861808,-1991.848295,148.041188,9474.636058
885.862127,-1378.971896,222.061783,9474.636058
885.862446,-1149.143247,-0.000000,9326.594869
885.862765,-383.047749,-222.061783,9178.553681
885.863084,0.000000,-148.041188,9548.656652
885.863403,153.219100,-592.164754,9844.739029
885.863722,612.876398,-962.267725,9770.718434
885.864040,1072.533697,-1258.350101,10362.883188
885.864359,1685.410096,-740.205942,10140.821405
885.864678,2221.676944,-518.144159,9844.739029
885.864997,2681.334243,-148.041188,9622.677246
885.865316,3217.601092,-0.000000,9400.615463
885.865635,3370.820191,148.041188,9252.574275
885.865954,3600.648841,74.020594,9326.594869
885.866273,3524.039291,-296.082377,9030.512492
885.866592,3753.867940,-74.020594,9252.574275
885.866910,3524.039291,-74.020594,9400.615463
885.867229,3217.601092,-0.000000,9474.636058
885.867548,3217.601092,148.041188,9178.553681
885.867867,2604.724693,592.164754,9030.512492
885.868186,2528.115143,1110.308913,9104.533087
885.868505,2221.676944,1554.432478,8438.347739
885.868824,1915.238745,1110.308913,8512.368333
885.869143,1378.971896,1480.411884,8438.347739
885.869462,766.095498,1258.350101,9030.512492
885.869781,229.828649,1184.329507,8956.491898
885.870099,0.000000,814.226536,9474.636058
885.870418,-536.266849,1332.370696,9104.533087
885.870737,-1225.752797,2072.576638,8660.409521
885.871056,-1072.533697,1776.494261,8142.265362
885.871375,-1455.581446,1924.535449,8068.244768
885.871694,-1762.019645,962.267725,8956.491898
885.872013,-1762.019645,1406.391290,8290.306550
885.872332,-2068.457845,1184.329507,8512.368333
885.872651,-2068.457845,814.226536,9252.574275
885.872969,-2374.896044,592.164754,9548.656652
885.873288,-2681.334243,296.082377,9474.636058
885.873607,-2604.724693,-0.000000,9696.697840
885.873926,-2451.505594,-0.000000,9844.739029
885.874245,-2145.067394,148.041188,9770.718434
885.874564,-1685.410096,222.061783,9326.594869
885.874883,-1685.410096,370.102971,9548.656652
885.875202,-1225.752797,-0.000000,9474.636058
885.875521,-766.095498,-444.123565,9770.718434
885.875840,-536.266849,-666.185348,9918.759623
885.876158,153.219100,-592.164754,9992.780217
885.876477,229.828649,-740.205942,9918.759623
885.876796,919.314598,-888.247130,10362.883188
885.877115,1608.800546,-592.164754,10288.862594
885.877434,2298.286494,-296.082377,10066.800811
885.877753,2451.505594,-74.020594,9770.718434
885.878072,2987.772442,-148.041188,9474.636058
885.878391,3064.381992,-148.041188,9178.553681
885.878710,3217.601092,-74.020594,9326.594869
885.879029,3447.429741,-148.041188,9400.615463
885.879347,3064.381992,-370.102971,9474.636058
885.879666,3217.601092,-518.144159,9622.677246
885.879985,2911.162892,-666.185348,9622.677246
885.880304,3294.210641,-296.082377,9178.553681
885.880623,2451.505594,-0.000000,9178.553681
885.880942,1991.848295,592.164754,9104.533087
885.881261,1838.629195,888.247130,8956.491898
885.881580,1072.533697,1184.329507,8734.430116
885.881899,612.876398,1332.370696,8734.430116
885.882217,536.266849,1258.350101,8734.430116
885.882536,0.000000,1184.329507,8956.491898
885.882855,-383.047749,1110.308913,8808.450710
885.883174,-842.705048,1184.329507,9030.512492
885.883493,-842.705048,1184.329507,9178.553681
885.883812,-1149.143247,1628.453072,8882.471304
885.884131,-1225.752797,1702.473667,8512.368333
885.884450,-1072.533697,1702.473667,8142.265362
885.884769,-1149.143247,1776.494261,8216.285956
885.885088,-1608.800546,1628.453072,8290.306550
885.885406,-1532.190996,1258.350101,8364.327145
885.885725,-1915.238745,1110.308913,8734.430116
885.886044,-1915.238745,666.185348,8808.450710
885.886363,-1455.581446,518.144159,9030.512492
885.886682,-1685.410096,370.102971,9104.533087
885.887001,-1455.581446,666.185348,9030.512492
885.887320,-1532.190996,740.205942,9326.594869
885.887639,-1225.752797,592.164754,9178.553681
885.887958,-995.924147,740.205942,9252.574275
885.888276,-689.485948,518.144159,9474.636058
885.888595,-306.438199,-74.020594,9474.636058
885.888914,0.000000,-148.041188,9474.636058
885.889233,153.219100,-370.102971,9918.759623
885.889552,153.219100,-1036.288319,10436.903782
885.889871,1225.752797,-814.226536,10362.883188
885.890190,1302.362347,-592.164754,10066.800811
885.890509,2145.067394,-222.061783,9844.739029
885.890828,2528.115143,-0.000000,9696.697840
885.891147,2834.553343,-0.000000,9622.677246
885.891465,2987.772442,-148.041188,9474.636058
885.891784,3140.991542,-148.041188,9252.574275
885.892103,2911.162892,-296.082377,9326.594869
885.892422,2987.772442,-814.226536,9474.636058
885.892741,2604.724693,-888.247130,9622.677246
885.893060,2528.115143,-518.144159,9770.718434
885.893379,2451.505594,-0.000000,9548.656652
885.893698,2451.505594,296.082377,9326.594869
885.894017,1915.238745,444.123565,9474.636058
885.894335,1838.629195,740.205942,8734.430116
885.894654,1149.143247,1110.308913,9030.512492
885.894973,536.266849,740.205942,8956.491898
885.895292,459.657299,1110.308913,9178.553681
885.895611,0.000000,666.185348,9326.594869
885.895930,-153.219100,888.247130,9104.533087
885.896249,-459.657299,1036.288319,8956.491898
885.896568,-842.705048,1332.370696,8586.388927
885.896887,-995.924147,1554.432478,8808.450710
885.897206,-919.314598,1628.453072,8512.368333
885.897524,-1072.533697,1776.494261,8438.347739
885.897843,-1378.971896,1628.453072,8586.388927
885.898162,-1378.971896,1110.308913,8290.306550
885.898481,-1608.800546,962.267725,8660.409521
885.898800,-1608.800546,666.185348,9400.615463
885.899119,-2145.067394,518.144159,9326.594869
885.899438,-2145.067394,222.061783,9474.636058
885.899757,-1991.848295,444.123565,9178.553681
885.900076,-1378.971896,518.144159,9400.615463
885.900394,-1455.581446,444.123565,9178.553681
885.900713,-842.705048,666.185348,9104.533087
885.901032,-536.266849,666.185348,8882.471304
885.901351,-459.657299,370.102971,9178.553681
885.901670,459.657299,148.041188,9696.697840
885.901989,76.609550,-370.102971,9622.677246
885.902308,612.876398,-518.144159,9696.697840
885.902627,995.924147,-592.164754,9992.780217
885.902946,1455.581446,-666.185348,9992.780217
885.903265,1762.019645,-518.144159,10066.800811
885.903583,2374.896044,-0.000000,9770.718434
885.903902,2604.724693,74.020594,9770.718434
885.904221,3217.601092,222.061783,9326.594869
885.904540,3524.039291,-74.020594,9622.677246
885.904859,3447.429741,-0.000000,9548.656652
885.905178,3294.210641,-296.082377,9400.615463
885.905497,3217.601092,-518.144159,9474.636058
885.905816,3524.039291,-444.123565,9400.615463
885.906135,3217.601092,-296.082377,9474.636058
885.906454,2604.724693,148.041188,9400.615463
885.906772,2604.724693,370.102971,9326.594869
885.907091,2145.067394,666.185348,8956.491898
885.907410,1685.410096,740.205942,8956.491898
885.907729,1302.362347,888.247130,9400.615463
885.908048,459.657299,888.247130,8956.491898
885.908367,229.828649,1036.288319,9326.594869
885.908686,0.000000,814.226536,9104.533087
885.909005,0.000000,1406.391290,9474.636058
885.909324,-536.266849,1258.350101,8808.450710
885.909642,-689.485948,1480.411884,8586.388927
885.909961,-995.924147,1628.453072,8364.327145
885.910280,-536.266849,1924.535449,8364.327145
885.910599,-1378.971896,1554.432478,8438.347739
885.910918,-1455.581446,1480.411884,8290.306550
885.911237,-1455.581446,1110.308913,8660.409521
885.911556,-1991.848295,888.247130,8882.471304
885.911875,-2068.457845,666.185348,9104.533087
885.912194,-2221.676944,370.102971,9326.594869
885.912513,-2145.067394,370.102971,9474.636058
885.912831,-1991.848295,518.144159,9474.636058
885.913150,-1838.629195,740.205942,9326.594869
885.913469,-1455.581446,740.205942,9326.594869
885.913788,-995.924147,814.226536,9474.636058
885.914107,-612.876398,592.164754,9252.574275
885.914426,-153.219100,-0.000000,9400.615463
885.914745,0.000000,-148.041188,9622.677246
885.915064,1072.533697,-814.226536,9992.780217
885.915383,612.876398,-592.164754,10066.800811
885.915701,1225.752797,-592.164754,10214.842000
885.916020,1838.629195,-370.102971,10066.800811
885.916339,2451.505594,-296.082377,9844.739029
885.916658,2757.943793,-0.000000,9696.697840
885.916977,3524.039291,-0.000000,9622.677246
885.917296,3370.820191,-444.123565,9696.697840
885.917615,3294.210641,-148.041188,9622.677246
885.917934,3677.258390,-518.144159,9622.677246
885.918253,3524.039291,-962.267725,9696.697840
885.918572,3217.601092,-740.205942,9474.636058
885.918890,3217.601092,-518.144159,9474.636058
885.919209,2987.772442,-148.041188,9400.615463
885.919528,3217.601092,-148.041188,8956.491898
885.919847,2374.896044,666.185348,9326.594869
885.920166,1991.848295,666.185348,9178.553681
885.920485,1915.238745,962.267725,8808.450710
885.920804,919.314598,888.247130,9030.512492
885.921123,919.314598,962.267725,9104.533087
885.921442,0.000000,962.267725,9178.553681
885.921760,0.000000,1332.370696,9104.533087
885.922079,-536.266849,1184.329507,8734.430116
885.922398,-612.876398,1702.473667,8734.430116
885.922717,-1149.143247,1702.473667,8364.327145
885.923036,-1149.143247,1776.494261,8364.327145
885.923355,-1991.848295,1406.391290,8364.327145
885.923674,-1685.410096,1480.411884,8364.327145
885.923993,-2145.067394,1258.350101,8364.327145
885.924312,-2145.067394,1036.288319,9104.533087
885.924631,-2374.896044,814.226536,9030.512492
885.924949,-2451.505594,518.144159,8956.491898
885.925268,-2145.067394,518.144159,9252.574275
885.925587,-1685.410096,518.144159,8956.491898
885.925906,-1762.019645,740.205942,9178.553681
885.926225,-1455.581446,592.164754,9030.512492
885.926544,-1149.143247,370.102971,9104.533087
885.926863,-919.314598,-0.000000,9474.636058
885.927182,-766.095498,-222.061783,9178.553681
885.927501,0.000000,-296.082377,9622.677246
885.927820,536.266849,-370.102971,9770.718434
885.928138,995.924147,-666.185348,10066.800811
885.928457,1532.190996,-592.164754,9844.739029
885.928776,2221.676944,-370.102971,9918.759623
885.929095,2451.505594,-0.000000,9326.594869
885.929414,2987.772442,-0.000000,9474.636058
885.929733,3217.601092,-0.000000,9326.594869
885.930052,3830.477490,-296.082377,9474.636058
885.930371,3370.820191,-518.144159,9326.594869
885.930690,3370.820191,-592.164754,9548.656652
885.931008,3217.601092,-962.267725,9696.697840
885.931327,2911.162892,-962.267725,9770.718434
885.931646,3140.991542,-814.226536,10140.821405
885.931965,2834.553343,-296.082377,9696.697840
885.932284,2681.334243,-0.000000,9474.636058
885.932603,2451.505594,666.185348,9178.553681
885.932922,2298.286494,1036.288319,9030.512492
885.933241,1532.190996,518.144159,8438.347739
885.933560,612.876398,814.226536,8882.471304
885.933879,306.438199,740.205942,8882.471304
885.934197,229.828649,666.185348,9104.533087
885.934516,-383.047749,518.144159,9622.677246
885.934835,-306.438199,1036.288319,9252.574275
885.935154,-842.705048,1110.308913,8956.491898
885.935473,-1072.533697,1184.329507,8956.491898
885.935792,-995.924147,1258.350101,8660.409521
885.936111,-1302.362347,1776.494261,8734.430116
885.936430,-1378.971896,1332.370696,8290.306550
885.936749,-1532.190996,1480.411884,8142.265362
885.937067,-1991.848295,1184.329507,8586.388927
885.937386,-2068.457845,666.185348,8734.430116
885.937705,-1991.848295,518.144159,9030.512492
885.938024,-2374.896044,444.123565,9178.553681
885.938343,-2068.457845,296.082377,9474.636058
885.938662,-2068.457845,592.164754,9474.636058
885.938981,-1685.410096,888.247130,9252.574275
885.939300,-1149.143247,888.247130,9326.594869
885.939619,-536.266849,592.164754,9030.512492
885.939938,-612.876398,296.082377,9326.594869
885.940256,-153.219100,-0.000000,9252.574275
885.940575,306.438199,-222.061783,9474.636058
885.940894,689.485948,-444.123565,9770.718434
885.941213,995.924147,-222.061783,9770.718434
885.941532,1378.971896,-444.123565,9696.697840
885.941851,1685.410096,-222.061783,9770.718434
885.942170,2451.505594,222.061783,9474.636058
885.942489,2528.115143,296.082377,9474.636058
885.942808,3140.991542,-0.000000,9474.636058
885.943126,3064.381992,-222.061783,9474.636058
885.943445,3140.991542,-296.082377,9474.636058
885.943764,3294.210641,-666.185348,9770.718434
885.944083,2911.162892,-666.185348,9622.677246
885.944402,2757.943793,-666.185348,9548.656652
885.944721,2681.334243,-74.020594,9622.677246
885.945040,2528.115143,370.102971,9474.636058
885.945359,2298.286494,296.082377,9252.574275
885.945678,1915.238745,444.123565,9104.533087
885.945997,1455.581446,592.164754,9178.553681
885.946315,1072.533697,666.185348,9252.574275
885.946634,689.485948,444.123565,9252.574275
885.946953,306.438199,666.185348,9252.574275
885.947272,-153.219100,592.164754,9326.594869
885.947591,-536.266849,814.226536,9178.553681
885.947910,-536.266849,1184.329507,8956.491898
885.948229,-459.657299,1480.411884,8660.409521
885.948548,-995.924147,1628.453072,8364.327145
885.948867,-1225.752797,1998.556043,8216.285956
885.949185,-1532.190996,1332.370696,8512.368333
885.949504,-1915.238745,1184.329507,8660.409521
885.949823,-1991.848295,962.267725,9104.533087
885.950142,-2221.676944,518.144159,9030.512492
885.950461,-2068.457845,370.102971,9252.574275
885.950780,-2374.896044,444.123565,9400.615463
885.951099,-1532.190996,222.061783,9252.574275
885.951418,-1838.629195,222.061783,8956.491898
885.951737,-1608.800546,592.164754,9030.512492
885.952056,-1532.190996,666.185348,9104.533087
885.952374,-919.314598,666.185348,9030.512492
885.952693,-1072.533697,370.102971,9474.636058
885.953012,-383.047749,222.061783,9400.615463
885.953331,-229.828649,-0.000000,9474.636058
885.953650,306.438199,-296.082377,9918.759623
885.953969,536.266849,-666.185348,9918.759623
885.954288,1455.581446,-666.185348,9992.780217
885.954606,1608.800546,-592.164754,9918.759623
885.954925,2374.896044,-296.082377,9622.677246
885.955244,2451.505594,-148.041188,9548.656652
885.955563,2528.115143,-0.000000,9326.594869
885.955882,3140.991542,-0.000000,9474.636058
885.956201,3064.381992,-0.000000,9252.574275
885.956519,3217.601092,-222.061783,9326.594869
885.956838,3140.991542,-222.061783,9474.636058
885.957157,3140.991542,-444.123565,9474.636058
885.957476,2604.724693,-296.082377,9474.636058
885.957795,2681.334243,-148.041188,9474.636058
885.958114,2451.505594,148.041188,9178.553681
885.958432,2451.505594,444.123565,9474.636058
885.958751,1762.019645,666.185348,9178.553681
885.959070,995.924147,814.226536,9326.594869
885.959389,919.314598,1036.288319,8808.450710
885.959708,459.657299,962.267725,8882.471304
885.960026,0.000000,1036.288319,8808.450710
885.960345,-229.828649,1332.370696,9178.553681
885.960664,-459.657299,1184.329507,8882.471304
885.960983,-766.095498,1258.350101,8808.450710
885.961302,-995.924147,1702.473667,8734.430116
885.961621,-1072.533697,1480.411884,8660.409521
885.961939,-1685.410096,1480.411884,8660.409521
885.962258,-1608.800546,1554.432478,8512.368333
885.962577,-1915.238745,1332.370696,8882.471304
885.962896,-1915.238745,1036.288319,8808.450710
885.963215,-2145.067394,444.123565,9548.656652
885.963534,-2145.067394,666.185348,9474.636058
885.963852,-2298.286494,592.164754,9474.636058
885.964171,-1915.238745,592.164754,9474.636058
885.964490,-1838.629195,592.164754,9474.636058
885.964809,-1762.019645,592.164754,9326.594869
885.965128,-1455.581446,666.185348,9178.553681
885.965446,-766.095498,370.102971,9548.656652
885.965765,-612.876398,-0.000000,9474.636058
885.966084,0.000000,-148.041188,9696.697840
885.966403,229.828649,-370.102971,9918.759623
885.966722,536.266849,-740.205942,10066.800811
885.967041,1149.143247,-592.164754,10288.862594
885.967359,1838.629195,-592.164754,9992.780217
885.967678,2145.067394,-444.123565,10066.800811
885.967997,2911.162892,-0.000000,9770.718434
885.968316,2911.162892,-0.000000,9548.656652
885.968635,3140.991542,-74.020594,9474.636058
885.968954,3217.601092,-222.061783,9400.615463
885.969272,3524.039291,-962.267725,9696.697840
885.969591,3447.429741,-592.164754,9844.739029
885.969910,3064.381992,-518.144159,9622.677246
885.970229,2834.553343,-592.164754,9474.636058
885.970548,2681.334243,-296.082377,9400.615463
885.970867,2528.115143,-148.041188,9400.615463
885.971185,2221.676944,222.061783,8882.471304
885.971504,1685.410096,592.164754,9104.533087
885.971823,1455.581446,666.185348,8882.471304
885.972142,1072.533697,592.164754,8956.491898
885.972461,689.485948,518.144159,8956.491898
885.972779,0.000000,888.247130,8882.471304
885.973098,-536.266849,888.247130,8586.388927
885.973417,-766.095498,1184.329507,8808.450710
885.973736,-1149.143247,1110.308913,8808.450710
885.974055,-1072.533697,1702.473667,8142.265362
885.974374,-1378.971896,1258.350101,8142.265362
885.974692,-1378.971896,1628.453072,7698.141797
885.975011,-1762.019645,1406.391290,8068.244768
885.975330,-2068.457845,1036.288319,8660.409521
885.975649,-2298.286494,1036.288319,8734.430116
885.975968,-2221.676944,888.247130,8808.450710
885.976287,-2221.676944,814.226536,8808.450710
885.976605,-2145.067394,740.205942,8882.471304
885.976924,-1762.019645,1036.288319,9030.512492
885.977243,-1608.800546,814.226536,9326.594869
885.977562,-1532.190996,814.226536,8808.450710
885.977881,-995.924147,740.205942,9400.615463
885.978199,-919.314598,370.102971,9104.533087
885.978518,-153.219100,370.102971,9178.553681
885.978837,153.219100,-0.000000,9474.636058
885.979156,459.657299,-148.041188,9770.718434
885.979475,1072.533697,-296.082377,9918.759623
885.979794,1762.019645,-666.185348,9770.718434
885.980112,1915.238745,-370.102971,9844.739029
885.980431,2374.896044,-0.000000,9918.759623
885.980750,2834.553343,-0.000000,9474.636058
885.981069,3217.601092,-148.041188,9548.656652
885.981388,3524.039291,-444.123565,9844.739029
885.981707,3600.648841,-518.144159,9696.697840
885.982025,3524.039291,-666.185348,9548.656652
885.982344,3447.429741,-222.061783,9770.718434
885.982663,3677.258390,-592.164754,9770.718434
885.982982,2911.162892,-222.061783,9548.656652
885.983301,2911.162892,-740.205942,9696.697840
885.983620,2528.115143,-222.061783,9400.615463
885.983938,2298.286494,222.061783,9696.697840
885.984257,2068.457845,518.144159,9474.636058
885.984576,1225.752797,814.226536,9030.512492
885.984895,1149.143247,814.226536,9474.636058
885.985214,383.047749,814.226536,9030.512492
885.985532,229.828649,740.205942,9474.636058
885.985851,-229.828649,444.123565,9030.512492
885.986170,-766.095498,1554.432478,8956.491898
885.986489,-995.924147,1998.556043,8734.430116
885.986808,-919.314598,1776.494261,8808.450710
885.987127,-1532.190996,1850.514855,8586.388927
885.987445,-1302.362347,1628.453072,8734.430116
885.987764,-1762.019645,1628.453072,8364.327145
885.988083,-1685.410096,1702.473667,8438.347739
885.988402,-1838.629195,1480.411884,8364.327145
885.988721,-1685.410096,1332.370696,8808.450710
885.989040,-2374.896044,444.123565,9474.636058
885.989358,-2221.676944,370.102971,9770.718434
885.989677,-1991.848295,370.102971,9474.636058
885.989996,-1685.410096,666.185348,9474.636058
885.990315,-995.924147,666.185348,9400.615463
885.990634,-1378.971896,592.164754,9104.533087
885.990953,-842.705048,592.164754,9178.553681
885.991271,-383.047749,-0.000000,9622.677246
885.991590,-153.219100,-370.102971,9548.656652
885.991909,306.438199,-518.144159,9548.656652
885.992228,842.705048,-666.185348,10140.821405
885.992547,689.485948,-370.102971,9844.739029
885.992865,1608.800546,-740.205942,10214.842000
885.993184,1838.629195,-888.247130,10066.800811
885.993503,2604.724693,-814.226536,10362.883188
885.993822,2911.162892,-370.102971,9770.718434
885.994141,3524.039291,-0.000000,9326.594869
885.994460,3447.429741,-222.061783,9770.718434
885.994778,3447.429741,-74.020594,9326.594869
885.995097,3217.601092,-740.205942,9548.656652
885.995416,3370.820191,-1036.288319,10140.821405
885.995735,3140.991542,-814.226536,9696.697840
885.996054,3294.210641,-148.041188,9400.615463
885.996373,3064.381992,222.061783,9400.615463
885.996691,2451.505594,962.267725,9252.574275
885.997010,2145.067394,370.102971,8808.450710
885.997329,1991.848295,666.185348,8808.450710
885.997648,1532.190996,962.267725,8734.430116
885.997967,1225.752797,740.205942,8734.430116
885.998285,306.438199,1406.391290,8660.409521
885.998604,0.000000,1184.329507,9104.533087
885.998923,-383.047749,1332.370696,8734.430116
885.999242,-842.705048,1554.432478,8660.409521
885.999561,-842.705048,1480.411884,8438.347739
885.999880,-1072.533697,1998.556043,8216.285956
886.000198,-1302.362347,1924.535449,7994.224174
886.000517,-1532.190996,1850.514855,7994.224174
886.000836,-1991.848295,1554.432478,8364.327145
886.001155,-1762.019645,1332.370696,8512.368333
886.001474,-2221.676944,962.267725,8734.430116
886.001793,-2221.676944,888.247130,8882.471304
886.002111,-2068.457845,888.247130,9030.512492
886.002430,-2068.457845,740.205942,8882.471304
886.002749,-1762.019645,518.144159,8956.491898
886.003068,-1762.019645,814.226536,9178.553681
886.003387,-1532.190996,592.164754,9252.574275
886.003706,-995.924147,518.144159,9104.533087
886.004024,-459.657299,444.123565,9548.656652
886.004343,-383.047749,-0.000000,9474.636058
886.004662,0.000000,-296.082377,9548.656652
886.004981,76.609550,-444.123565,10140.821405
886.005300,459.657299,-740.205942,10066.800811
886.005618,1532.190996,-666.185348,10066.800811
886.005937,1915.238745,-518.144159,10288.862594
886.006256,2298.286494,-296.082377,9918.759623
886.006575,2604.724693,-222.061783,9844.739029
886.006894,3064.381992,-222.061783,9844.739029
886.007213,3064.381992,-148.041188,9844.739029
886.007531,2987.772442,-222.061783,9696.697840
886.007850,3140.991542,-148.041188,9696.697840
886.008169,3370.820191,-518.144159,9696.697840
886.008488,3064.381992,-518.144159,9548.656652
886.008807,2987.772442,-592.164754,9770.718434
886.009126,2757.943793,-222.061783,9548.656652
886.009444,2374.896044,-0.000000,9622.677246
886.009763,1915.238745,518.144159,9770.718434
886.010082,1915.238745,814.226536,9474.636058
886.010401,1302.362347,814.226536,9326.594869
886.010720,766.095498,740.205942,8956.491898
886.011038,459.657299,888.247130,9252.574275
886.011357,0.000000,814.226536,9178.553681
886.011676,-459.657299,1036.288319,9030.512492
886.011995,-459.657299,1110.308913,9030.512492
886.012314,-995.924147,1258.350101,8808.450710
886.012633,-1149.143247,1332.370696,8734.430116
886.012951,-1225.752797,1332.370696,8438.347739
886.013270,-1378.971896,1702.473667,8438.347739
886.013589,-1608.800546,1332.370696,8364.327145
886.013908,-1762.019645,1110.308913,8512.368333
886.014227,-1915.238745,518.144159,8512.368333
886.014546,-1915.238745,370.102971,8956.491898
886.014864,-2298.286494,444.123565,9178.553681
886.015183,-2145.067394,222.061783,9178.553681
886.015502,-1915.238745,296.082377,9104.533087
886.015821,-1608.800546,296.082377,9400.615463
886.016140,-1532.190996,592.164754,9178.553681
886.016459,-1072.533697,666.185348,8956.491898
886.016777,-689.485948,370.102971,9326.594869
886.017096,-689.485948,74.020594,9178.553681
886.017415,-306.438199,-0.000000,9622.677246
886.017734,536.266849,-222.061783,9474.636058
886.018053,1072.533697,-148.041188,9696.697840
886.018371,1302.362347,-222.061783,9918.759623
886.018690,2604.724693,-296.082377,9770.718434
886.019009,2145.067394,-296.082377,9548.656652
886.019328,2528.115143,-148.041188,9474.636058
886.019647,3370.820191,222.061783,9178.553681
886.019966,3447.429741,148.041188,9252.574275
886.020284,3447.429741,-222.061783,9178.553681
886.020603,3140.991542,-74.020594,9474.636058
886.020922,3370.820191,-518.144159,9474.636058
886.021241,3217.601092,-370.102971,9770.718434
886.021560,2987.772442,-296.082377,9548.656652
886.021879,3140.991542,-0.000000,9474.636058
886.022197,2681.334243,-0.000000,9400.615463
886.022516,2451.505594,444.123565,8956.491898
886.022835,1991.848295,592.164754,9178.553681
886.023154,1378.971896,666.185348,8956.491898
886.023473,1225.752797,518.144159,9326.594869
886.023791,536.266849,814.226536,9178.553681
886.024110,0.000000,962.267725,9104.533087
886.024429,-383.047749,1184.329507,9104.533087
886.024748,-919.314598,814.226536,8882.471304
886.025067,-919.314598,1258.350101,8956.491898
886.025386,-1455.581446,1406.391290,8882.471304
886.025704,-1762.019645,1258.350101,8512.368333
886.026023,-1838.629195,1406.391290,8660.409521
886.026342,-2451.505594,1184.329507,8882.471304
886.026661,-2221.676944,888.247130,8882.471304
886.026980,-2374.896044,666.185348,9104.533087
886.027299,-2451.505594,740.205942,9474.636058
886.027617,-2374.896044,592.164754,9474.636058
886.027936,-2298.286494,740.205942,9474.636058
886.028255,-2451.505594,444.123565,9474.636058
886.028574,-1762.019645,666.185348,9548.656652
886.028893,-1685.410096,666.185348,9326.594869
886.029212,-1149.143247,592.164754,9252.574275
886.029530,-536.266849,666.185348,9474.636058
886.029849,-459.657299,370.102971,9400.615463
886.030168,0.000000,74.020594,9622.677246
886.030487,0.000000,-148.041188,9548.656652
886.030806,612.876398,-444.123565,9844.739029
886.031124,995.924147,-518.144159,9770.718434
886.031443,1455.581446,-370.102971,9844.739029
886.031762,1838.629195,-148.041188,9918.759623
886.032081,2451.505594,-148.041188,9844.739029
886.032400,2911.162892,-222.061783,9992.780217
886.032719,2834.553343,-0.000000,9400.615463
886.033037,2987.772442,-74.020594,9474.636058
886.033356,3447.429741,-222.061783,9474.636058
886.033675,3524.039291,-222.061783,9326.594869
886.033994,2987.772442,-370.102971,9474.636058
886.034313,3217.601092,-296.082377,9474.636058
886.034632,2604.724693,-592.164754,9548.656652
886.034950,2757.943793,-222.061783,9178.553681
886.035269,2451.505594,-444.123565,9252.574275
886.035588,1838.629195,296.082377,9400.615463
886.035907,1455.581446,444.123565,9030.512492
886.036226,1225.752797,518.144159,8882.471304
886.036544,689.485948,666.185348,9030.512492
886.036863,306.438199,666.185348,9030.512492
886.037182,-153.219100,740.205942,8882.471304
886.037501,-612.876398,962.267725,8808.450710
886.037820,-766.095498,1184.329507,8660.409521
886.038139,-1072.533697,1184.329507,8290.306550
886.038457,-766.095498,1776.494261,8364.327145
886.038776,-1378.971896,1406.391290,8142.265362
886.039095,-1608.800546,1406.391290,8142.265362
886.039414,-1838.629195,1110.308913,8364.327145
886.039733,-2221.676944,740.205942,8586.388927
886.040052,-2221.676944,740.205942,8882.471304
886.040370,-2451.505594,592.164754,9104.533087
886.040689,-2374.896044,444.123565,9252.574275
886.041008,-2145.067394,370.102971,9326.594869
886.041327,-2068.457845,222.061783,8956.491898
886.041646,-1532.190996,370.102971,8956.491898
886.041965,-1532.190996,444.123565,9030.512492
886.042283,-1455.581446,592.164754,9104.533087
886.042602,-536.266849,222.061783,9178.553681
886.042921,-612.876398,148.041188,9474.636058
886.043240,76.609550,-148.041188,9548.656652
886.043559,536.266849,-296.082377,9770.718434
886.043877,919.314598,-370.102971,9844.739029
886.044196,1378.971896,-444.123565,9918.759623
886.044515,1838.629195,-370.102971,9844.739029
886.044834,2528.115143,-296.082377,9548.656652
886.045153,2604.724693,-518.144159,9548.656652
886.045472,2681.334243,-0.000000,9770.718434
886.045790,3217.601092,-222.061783,9474.636058
886.046109,3370.820191,-296.082377,9622.677246
886.046428,3294.210641,-370.102971,9548.656652
886.046747,3447.429741,-518.144159,9918.759623
886.047066,3294.210641,-296.082377,9992.780217
886.047385,3447.429741,148.041188,9696.697840
886.047703,3217.601092,370.102971,9770.718434
886.048022,2681.334243,444.123565,9252.574275
886.048341,2374.896044,962.267725,8956.491898
886.048660,2068.457845,962.267725,8882.471304
886.048979,1608.800546,1110.308913,8586.388927
886.049297,1225.752797,1258.350101,9030.512492
886.049616,459.657299,1332.370696,8956.491898
886.049935,76.609550,1406.391290,9104.533087
886.050254,-229.828649,1554.432478,8882.471304
886.050573,-1302.362347,1406.391290,8882.471304
886.050892,-1149.143247,1480.411884,8808.450710
886.051210,-1302.362347,1924.535449,8660.409521
886.051529,-1378.971896,1702.473667,8512.368333
886.051848,-1838.629195,1554.432478,8660.409521
886.052167,-1838.629195,1480.411884,8660.409521
886.052486,-1991.848295,1258.350101,8734.430116
886.052805,-2298.286494,962.267725,8734.430116
886.053124,-2221.676944,962.267725,8882.471304
886.053443,-2145.067394,666.185348,8660.409521
886.053761,-2068.457845,518.144159,9252.574275
886.054080,-1915.238745,370.102971,9400.615463
886.054399,-1915.238745,518.144159,9400.615463
886.054718,-1455.581446,444.123565,9326.594869
886.055037,-842.705048,370.102971,9252.574275
886.055356,-842.705048,148.041188,9474.636058
886.055675,-612.876398,-0.000000,9474.636058
886.055994,0.000000,-74.020594,9844.739029
886.056313,229.828649,-666.185348,9844.739029
886.056632,842.705048,-814.226536,9918.759623
886.056951,1072.533697,-666.185348,9992.780217
886.057269,1915.238745,-666.185348,10066.800811
886.057588,1991.848295,-740.205942,10066.800811
886.057907,2451.505594,-296.082377,9770.718434
886.058226,3294.210641,-74.020594,9474.636058
886.058545,3217.601092,-296.082377,9474.636058
886.058864,3294.210641,-74.020594,9252.574275
886.059183,3524.039291,-74.020594,9104.533087
886.059502,3294.210641,-296.082377,9474.636058
886.059821,3064.381992,-740.205942,9474.636058
886.060140,3370.820191,-518.144159,9474.636058
886.060459,2834.553343,-222.061783,9474.636058
886.060777,2374.896044,-148.041188,9400.615463
886.061096,2298.286494,296.082377,9252.574275
886.061415,1685.410096,666.185348,8734.430116
886.061734,1608.800546,962.267725,8660.409521
886.062053,1072.533697,962.267725,8586.388927
886.062372,536.266849,1110.308913,8660.409521
886.062691,229.828649,888.247130,8882.471304
886.063010,0.000000,1036.288319,9104.533087
886.063329,-383.047749,1184.329507,8882.471304
886.063648,-1072.533697,1554.432478,8882.471304
886.063967,-459.657299,1480.411884,8882.471304
886.064285,-919.314598,1702.473667,8512.368333
886.064604,-1149.143247,1776.494261,8290.306550
886.064923,-1302.362347,1850.514855,8364.327145
886.065242,-1532.190996,1480.411884,8438.347739
886.065561,-1838.629195,1184.329507,8586.388927
886.065880,-1991.848295,666.185348,9104.533087
886.066199,-2221.676944,444.123565,9326.594869
886.066518,-2068.457845,296.082377,9400.615463
886.066837,-1838.629195,592.164754,9474.636058
886.067156,-1915.238745,592.164754,9400.615463
886.067475,-1302.362347,814.226536,9252.574275
886.067793,-1225.752797,962.267725,9104.533087
886.068112,-766.095498,888.247130,9252.574275
886.068431,-842.705048,296.082377,9622.677246
886.068750,-306.438199,-0.000000,9474.636058
886.069069,0.000000,-222.061783,9770.718434
886.069388,536.266849,-296.082377,10140.821405
886.069707,766.095498,-666.185348,10288.862594
886.070026,1149.143247,-370.102971,10436.903782
886.070345,1915.238745,-222.061783,10066.800811
886.070664,2145.067394,74.020594,9844.739029
886.070983,2604.724693,222.061783,9548.656652
886.071301,2757.943793,370.102971,9474.636058
886.071620,2987.772442,-222.061783,9844.739029
886.071939,3370.820191,-148.041188,9474.636058
886.072258,3217.601092,-148.041188,9622.677246
886.072577,3217.601092,-370.102971,9992.780217
886.072896,3524.039291,-222.061783,10140.821405
886.073215,3753.867940,-0.000000,9696.697840
886.073534,3064.381992,444.123565,9178.553681
886.073853,2604.724693,296.082377,9104.533087
886.074172,2451.505594,740.205942,9030.512492
886.074491,2298.286494,962.267725,9104.533087
886.074809,1455.581446,814.226536,9400.615463
886.075128,1072.533697,888.247130,9104.533087
886.075447,536.266849,740.205942,9400.615463
886.075766,0.000000,888.247130,9326.594869
886.076085,-229.828649,666.185348,9030.512492
886.076404,-459.657299,1110.308913,9030.512492
886.076723,-1072.533697,1110.308913,8660.409521
886.077042,-766.095498,1480.411884,8438.347739
886.077361,-1225.752797,1628.453072,8364.327145
886.077680,-1225.752797,1332.370696,8660.409521
886.077999,-1532.190996,1036.288319,8290.306550
886.078317,-1838.629195,814.226536,8734.430116
886.078636,-2145.067394,592.164754,8956.491898
886.078955,-2374.896044,-0.000000,9104.533087
886.079274,-2298.286494,370.102971,9252.574275
886.079593,-1991.848295,666.185348,9178.553681
886.079912,-2068.457845,296.082377,8956.491898
886.080231,-1685.410096,444.123565,9178.553681
886.080550,-1225.752797,518.144159,9104.533087
886.080869,-1225.752797,370.102971,9104.533087
886.081188,-919.314598,370.102971,9104.533087
886.081507,-459.657299,-0.000000,9474.636058
886.081825,0.000000,-148.041188,9474.636058
886.082144,76.609550,-296.082377,9474.636058
886.082463,766.095498,-518.144159,9918.759623
886.082782,1532.190996,-296.082377,9696.697840
886.083101,1762.019645,-444.123565,9696.697840
886.083420,2298.286494,-222.061783,9474.636058
886.083739,2604.724693,-0.000000,9326.594869
886.084058,2911.162892,-0.000000,9178.553681
886.084377,3294.210641,-0.000000,9030.512492
886.084696,3294.210641,-0.000000,9178.553681
886.085015,3753.867940,-444.123565,9400.615463
886.085333,3294.210641,-444.123565,9474.636058
886.085652,3294.210641,-518.144159,9548.656652
886.085971,3140.991542,-148.041188,9474.636058
886.086290,2834.553343,-296.082377,9326.594869
886.086609,3447.429741,-222.061783,9400.615463
886.086928,2298.286494,148.041188,9178.553681
886.087247,1915.238745,296.082377,9178.553681
886.087566,1455.581446,444.123565,9104.533087
886.087885,1072.533697,518.144159,9252.574275
886.088204,459.657299,740.205942,9178.553681
886.088523,306.438199,666.185348,9030.512492
886.088841,-459.657299,740.205942,9252.574275
886.089160,-306.438199,1110.308913,9178.553681
886.089479,-536.266849,888.247130,9104.533087
886.089798,-919.314598,1406.391290,8660.409521
886.090117,-995.924147,1332.370696,8882.471304
886.090436,-1225.752797,1406.391290,8734.430116
886.090755,-1302.362347,1480.411884,8734.430116
886.091074,-1991.848295,1184.329507,8956.491898
886.091393,-1991.848295,1184.329507,9104.533087
886.091712,-2145.067394,1110.308913,9252.574275
886.092031,-2221.676944,740.205942,9326.594869
886.092349,-2221.676944,666.185348,9474.636058
886.092668,-2374.896044,666.185348,9548.656652
886.092987,-1838.629195,740.205942,9474.636058
886.093306,-1532.190996,962.267725,9326.594869
886.093625,-1225.752797,740.205942,9326.594869
886.093944,-919.314598,814.226536,9326.594869
886.094263,-766.095498,370.102971,9548.656652
886.094582,-229.828649,-0.000000,9474.636058
886.094901,153.219100,-0.000000,9770.718434
886.095220,536.266849,-148.041188,10288.862594
886.095539,1072.533697,-296.082377,10214.842000
886.095857,1532.190996,-296.082377,9918.759623
886.096176,1915.238745,-148.041188,9770.718434
886.096495,2374.896044,-0.000000,9622.677246
886.096814,2911.162892,148.041188,9548.656652
886.097133,3217.601092,-74.020594,9548.656652
886.097452,2987.772442,-74.020594,9474.636058
886.097771,3294.210641,-370.102971,9474.636058
886.098090,2987.772442,-592.164754,9400.615463
886.098409,3677.258390,-518.144159,9770.718434
886.098728,2528.115143,-666.185348,9548.656652
886.099047,3294.210641,-0.000000,9252.574275
886.099365,2757.943793,-148.041188,9326.594869
886.099684,2451.505594,296.082377,9104.533087
886.100003,2298.286494,518.144159,8882.471304
886.100322,1685.410096,666.185348,8956.491898
886.100641,1149.143247,592.164754,8882.471304
886.100960,842.705048,888.247130,8882.471304
886.101279,536.266849,740.205942,9030.512492
886.101598,76.609550,888.247130,8734.430116
886.101917,0.000000,1036.288319,8438.347739
886.102236,-689.485948,1332.370696,8734.430116
886.102555,-766.095498,1184.329507,8290.306550
886.102873,-1072.533697,1406.391290,8068.244768
886.103192,-1149.143247,1184.329507,8438.347739
886.103511,-1455.581446,1258.350101,8290.306550
886.103830,-1532.190996,888.247130,8438.347739
886.104149,-2068.457845,592.164754,8586.388927
886.104468,-2068.457845,148.041188,8956.491898
886.104787,-2451.505594,148.041188,9030.512492
886.105106,-2681.334243,-0.000000,9030.512492
886.105425,-2374.896044,296.082377,9178.553681
886.105744,-2451.505594,-0.000000,8956.491898
886.106063,-1991.848295,296.082377,9252.574275
886.106381,-1838.629195,222.061783,9252.574275
886.106700,-1302.362347,-0.000000,9400.615463
886.107019,-842.705048,-74.020594,9474.636058
886.107338,-536.266849,-148.041188,9474.636058
886.107657,0.000000,-370.102971,9770.718434
886.107976,306.438199,-518.144159,9844.739029
886.108295,459.657299,-666.185348,9844.739029
886.108614,1225.752797,-370.102971,9918.759623
886.108933,1838.629195,-222.061783,9992.780217
886.109252,2451.505594,-296.082377,9696.697840
886.109571,2681.334243,-222.061783,9548.656652
886.109889,2987.772442,-148.041188,9548.656652
886.110208,3064.381992,-74.020594,9474.636058
886.110527,3524.039291,-0.000000,9474.636058
886.110846,3064.381992,-444.123565,9770.718434
886.111165,3294.210641,-148.041188,9622.677246
886.111484,2681.334243,-592.164754,9844.739029
886.111803,2987.772442,-74.020594,9622.677246
886.112122,2834.553343,74.020594,9622.677246
886.112441,2374.896044,370.102971,9548.656652
886.112760,2068.457845,518.144159,9326.594869
886.113079,1532.190996,814.226536,9178.553681
886.113397,1072.533697,740.205942,9104.533087
886.113716,459.657299,814.226536,9326.594869
886.114035,153.219100,740.205942,8956.491898
886.114354,0.000000,888.247130,9104.533087
886.114673,-459.657299,1036.288319,9178.553681
886.114992,-383.047749,1184.329507,9178.553681
886.115311,-689.485948,1406.391290,8734.430116
886.115630,-842.705048,1702.473667,8586.388927
886.115949,-995.924147,1628.453072,8438.347739
886.116268,-995.924147,1776.494261,8290.306550
886.116587,-1302.362347,1480.411884,8364.327145
886.116905,-1455.581446,1332.370696,8660.409521
886.117224,-1608.800546,1036.288319,8660.409521
886.117543,-1915.238745,740.205942,8956.491898
886.117862,-1762.019645,444.123565,9252.574275
886.118181,-1838.629195,370.102971,9252.574275
886.118500,-1762.019645,444.123565,9252.574275
886.118819,-1455.581446,592.164754,9178.553681
886.119138,-1378.971896,740.205942,9104.533087
886.119457,-1455.581446,666.185348,9548.656652
886.119776,-842.705048,518.144159,9326.594869
886.120095,-383.047749,-0.000000,9326.594869
886.120413,-383.047749,-0.000000,9474.636058
886.120732,0.000000,-296.082377,9770.718434
886.121051,612.876398,-592.164754,10066.800811
886.121370,1225.752797,-814.226536,10140.821405
886.121689,1838.629195,-0.000000,9844.739029
886.122008,2221.676944,-222.061783,9622.677246
886.122327,2528.115143,-0.000000,9622.677246
886.122646,2834.553343,370.102971,9622.677246
886.122965,3370.820191,-0.000000,9326.594869
886.123284,3370.820191,-296.082377,9252.574275
886.123603,3524.039291,-296.082377,9400.615463
886.123921,3294.210641,-148.041188,9770.718434
886.124240,2681.334243,-370.102971,10066.800811
886.124559,2911.162892,-592.164754,9548.656652
886.124878,2681.334243,-0.000000,9474.636058
886.125197,2604.724693,148.041188,9400.615463
886.125516,2681.334243,592.164754,9326.594869
886.125835,1762.019645,666.185348,9326.594869
886.126154,1302.362347,814.226536,8956.491898
886.126473,995.924147,962.267725,9252.574275
886.126792,459.657299,666.185348,9178.553681
886.127111,0.000000,740.205942,9252.574275
886.127429,0.000000,666.185348,9252.574275
886.127748,-766.095498,962.267725,8660.409521
886.128067,-766.095498,1332.370696,8808.450710
886.128386,-1225.752797,1406.391290,8808.450710
886.128705,-1225.752797,1406.391290,8882.471304
886.129024,-1532.190996,1406.391290,8364.327145
886.129343,-1762.019645,1184.329507,8734.430116
886.129662,-2221.676944,962.267725,8660.409521
886.129981,-2298.286494,814.226536,8808.450710
886.130300,-2298.286494,740.205942,9104.533087
886.130619,-2068.457845,444.123565,9326.594869
886.130937,-2451.505594,222.061783,9252.574275
886.131256,-2374.896044,296.082377,9252.574275
886.131575,-1608.800546,370.102971,9474.636058
886.131894,-1608.800546,592.164754,9178.553681
886.132213,-1225.752797,740.205942,9178.553681
886.132532,-919.314598,370.102971,9178.553681
886.132851,-536.266849,222.061783,9474.636058
886.133170,0.000000,-74.020594,9844.739029
886.133489,459.657299,-222.061783,9770.718434
886.133808,459.657299,-666.185348,9992.780217
886.134127,1149.143247,-444.123565,10066.800811
886.134445,1915.238745,-370.102971,9992.780217
886.134764,2451.505594,-74.020594,9918.759623
886.135083,2528.115143,-0.000000,9400.615463
886.135402,3370.820191,-0.000000,9474.636058
886.135721,3294.210641,-0.000000,9474.636058
886.136040,3294.210641,-0.000000,9548.656652
886.136359,3294.210641,-444.123565,9770.718434
886.136678,3524.039291,-370.102971,9252.574275
886.136997,3217.601092,-444.123565,9622.677246
886.137316,3294.210641,-518.144159,9622.677246
886.137635,2987.772442,-74.020594,9474.636058
886.137953,2757.943793,-0.000000,9474.636058
886.138272,2221.676944,518.144159,9252.574275
886.138591,2068.457845,666.185348,9030.512492
886.138910,1455.581446,962.267725,9030.512492
886.139229,1149.143247,666.185348,9030.512492
886.139548,383.047749,518.144159,9104.533087
886.139867,383.047749,962.267725,8956.491898
886.140186,-153.219100,962.267725,9030.512492
886.140505,-689.485948,666.185348,9030.512492
886.140824,-766.095498,1406.391290,8734.430116
886.141143,-1225.752797,1480.411884,8586.388927
886.141461,-1149.143247,1702.473667,8290.306550
886.141780,-1455.581446,1702.473667,8068.244768
886.142099,-1608.800546,1776.494261,8290.306550
886.142418,-1915.238745,1332.370696,8290.306550
886.142737,-2068.457845,1036.288319,8586.388927
886.143056,-2221.676944,888.247130,8956.491898
886.143375,-2298.286494,370.102971,9030.512492
886.143694,-2068.457845,370.102971,9252.574275
886.144013,-2374.896044,222.061783,9400.615463
886.144332,-1991.848295,740.205942,9178.553681
886.144651,-1532.190996,740.205942,9400.615463
886.144969,-1455.581446,962.267725,9548.656652
886.145288,-766.095498,666.185348,9030.512492
886.145607,-383.047749,444.123565,9178.553681
886.145926,0.000000,-0.000000,9252.574275
886.146245,76.609550,-0.000000,9622.677246
886.146564,689.485948,-444.123565,9992.780217
886.146883,1072.533697,-518.144159,9992.780217
886.147202,1685.410096,-74.020594,9992.780217
886.147521,1991.848295,-444.123565,9992.780217
886.147840,2451.505594,-0.000000,9770.718434
886.148159,2681.334243,-0.000000,9844.739029
886.148477,3294.210641,-0.000000,9474.636058
886.148796,3677.258390,-222.061783,9696.697840
886.149115,3294.210641,-444.123565,9696.697840
886.149434,3600.648841,-444.123565,9770.718434
886.149753,3753.867940,-518.144159,9918.759623
886.150072,3140.991542,-444.123565,9844.739029
886.150391,2911.162892,-148.041188,9474.636058
886.150710,2757.943793,-0.000000,9326.594869
886.151029,3140.991542,222.061783,9326.594869
886.151348,2145.067394,444.123565,9030.512492
886.151667,1608.800546,592.164754,8956.491898
886.151985,919.314598,666.185348,9178.553681
886.152304,689.485948,444.123565,9030.512492
886.152623,153.219100,592.164754,9252.574275
886.152942,-306.438199,666.185348,9474.636058
886.153261,-766.095498,1110.308913,9326.594869
886.153580,-842.705048,1406.391290,8882.471304
886.153899,-1225.752797,1628.453072,8660.409521
886.154218,-1149.143247,1406.391290,8512.368333
886.154537,-1608.800546,1776.494261,8290.306550
886.154856,-1608.800546,1480.411884,7994.224174
886.155175,-1608.800546,1258.350101,8438.347739
886.155494,-1991.848295,962.267725,8660.409521
886.155813,-1838.629195,518.144159,8586.388927
886.156132,-2145.067394,814.226536,9178.553681
886.156451,-2298.286494,518.144159,9252.574275
886.156770,-1915.238745,740.205942,9104.533087
886.157088,-1762.019645,666.185348,9326.594869
886.157407,-1532.190996,888.247130,8956.491898
886.157726,-1225.752797,740.205942,8956.491898
886.158045,-1072.533697,518.144159,9030.512492
886.158364,-536.266849,518.144159,9326.594869
886.158683,0.000000,-0.000000,9548.656652
886.159002,229.828649,-74.020594,9770.718434
886.159321,383.047749,-518.144159,9844.739029
886.159640,1072.533697,-518.144159,10066.800811
886.159959,1608.800546,-296.082377,9992.780217
886.160278,1915.238745,-518.144159,9918.759623
886.160597,2528.115143,-0.000000,9918.759623
886.160916,3064.381992,148.041188,9548.656652
886.161235,3370.820191,-0.000000,9474.636058
886.161554,3447.429741,296.082377,9474.636058
886.161873,3524.039291,-148.041188,9326.594869
886.162192,3370.820191,-518.144159,9400.615463
886.162511,3524.039291,-518.144159,9622.677246
886.162830,3064.381992,-518.144159,9696.697840
886.163149,2911.162892,-666.185348,9474.636058
886.163468,3064.381992,-222.061783,9696.697840
886.163787,2298.286494,222.061783,9400.615463
886.164106,1991.848295,592.164754,9326.594869
886.164425,1532.190996,666.185348,9104.533087
886.164744,919.314598,666.185348,8956.491898
886.165063,766.095498,444.123565,9030.512492
886.165382,0.000000,814.226536,8660.409521
886.165700,-459.657299,1110.308913,8956.491898
886.166019,-536.266849,1184.329507,8956.491898
886.166338,-689.485948,1184.329507,9178.553681
886.166657,-766.095498,1406.391290,8882.471304
886.166976,-995.924147,1702.473667,8512.368333
886.167295,-1455.581446,1702.473667,8216.285956
886.167614,-1608.800546,1776.494261,8068.244768
886.167933,-1455.581446,1850.514855,7846.182985
886.168252,-1455.581446,1184.329507,8068.244768
886.168571,-1838.629195,1036.288319,8660.409521
886.168890,-2068.457845,888.247130,8808.450710
886.169209,-995.924147,592.164754,9104.533087
886.169528,-1915.238745,518.144159,8956.491898
886.169847,-1838.629195,444.123565,9252.574275
886.170166,-1838.629195,518.144159,9474.636058
886.170485,-1378.971896,518.144159,9178.553681
886.170804,-1149.143247,740.205942,9252.574275
886.171123,-612.876398,740.205942,9400.615463
886.171442,0.000000,444.123565,9622.677246
886.171761,153.219100,-222.061783,9622.677246
886.172080,459.657299,-222.061783,9918.759623
886.172399,1149.143247,-444.123565,10362.883188
886.172718,1455.581446,-518.144159,10288.862594
886.173037,1685.410096,-370.102971,10288.862594
886.173356,2528.115143,-296.082377,10066.800811
886.173675,2604.724693,-222.061783,9992.780217
886.173994,3064.381992,222.061783,9770.718434
886.174313,3524.039291,-0.000000,9548.656652
886.174631,3524.039291,-0.000000,9548.656652
886.174950,3600.648841,-148.041188,9474.636058
886.175269,3294.210641,-370.102971,9844.739029
886.175588,3294.210641,-592.164754,9918.759623
886.175907,3140.991542,-296.082377,9844.739029
886.176226,2911.162892,-148.041188,9770.718434
886.176545,2451.505594,-0.000000,9696.697840
886.176864,1915.238745,370.102971,9548.656652
886.177183,1762.019645,814.226536,9400.615463
886.177502,1225.752797,1184.329507,8882.471304
886.177821,995.924147,814.226536,8882.471304
886.178140,0.000000,666.185348,9104.533087
886.178459,0.000000,814.226536,8882.471304
886.178778,-153.219100,814.226536,8808.450710
886.179097,-1225.752797,666.185348,9030.512492
886.179416,-1149.143247,1184.329507,8882.471304
886.179735,-766.095498,1406.391290,8586.388927
886.180054,-1455.581446,1332.370696,8364.327145
886.180373,-1685.410096,1702.473667,8216.285956
886.180692,-1532.190996,1702.473667,8142.265362
886.181011,-1991.848295,1258.350101,8364.327145
886.181330,-2145.067394,592.164754,8438.347739
886.181649,-2221.676944,222.061783,8882.471304
886.181968,-1991.848295,370.102971,9104.533087
886.182287,-1838.629195,222.061783,9252.574275
886.182606,-1762.019645,296.082377,9030.512492
886.182925,-1608.800546,444.123565,9030.512492
886.183243,-1455.581446,592.164754,9030.512492
886.183562,-1072.533697,370.102971,8808.450710
886.183881,-689.485948,592.164754,8734.430116
886.184200,0.000000,74.020594,9252.574275
886.184519,0.000000,-222.061783,8882.471304
886.184838,383.047749,-518.144159,9474.636058
886.185157,536.266849,-814.226536,9844.739029
886.185476,1072.533697,-888.247130,9696.697840
886.185795,1991.848295,-740.205942,9992.780217
886.186114,2068.457845,-666.185348,9770.718434
886.186433,2681.334243,-0.000000,9770.718434
886.186752,2757.943793,-148.041188,9400.615463
886.187071,2987.772442,222.061783,9400.615463
886.187390,3677.258390,-74.020594,9400.615463
886.187709,3753.867940,-296.082377,9178.553681
886.188028,3294.210641,-444.123565,9622.677246
886.188347,3140.991542,-814.226536,9474.636058
886.188666,2911.162892,-666.185348,9548.656652
886.188985,2987.772442,-370.102971,9474.636058
886.189304,2604.724693,-0.000000,9474.636058
886.189623,2068.457845,296.082377,9400.615463
886.189942,1991.848295,740.205942,9178.553681
886.190261,1302.362347,888.247130,9104.533087
886.190580,1149.143247,962.267725,9178.553681
886.190899,612.876398,888.247130,8882.471304
886.191218,383.047749,1036.288319,9178.553681
886.191537,-229.828649,962.267725,9400.615463
886.191856,-766.095498,1110.308913,9326.594869
886.192174,-919.314598,1110.308913,9252.574275
886.192493,-766.095498,1110.308913,9030.512492
886.192812,-1302.362347,1480.411884,8734.430116
886.193131,-1225.752797,1554.432478,8438.347739
886.193450,-1608.800546,1554.432478,8512.368333
886.193769,-1455.581446,1406.391290,8586.388927
886.194088,-1991.848295,1036.288319,9030.512492
886.194407,-1991.848295,666.185348,9030.512492
886.194726,-1915.238745,370.102971,9178.553681
886.195045,-1685.410096,148.041188,9252.574275
886.195364,-2145.067394,370.102971,9474.636058
886.195683,-1762.019645,296.082377,9474.636058
886.196002,-1762.019645,666.185348,9474.636058
886.196321,-766.095498,222.061783,9474.636058
886.196640,-1072.533697,444.123565,9030.512492
886.196959,-459.657299,740.205942,9252.574275
886.197278,-306.438199,148.041188,9178.553681
886.197597,-153.219100,-0.000000,9770.718434
886.197916,306.438199,-518.144159,9992.780217
886.198235,689.485948,-592.164754,9844.739029
886.198554,1072.533697,-518.144159,9844.739029
886.198873,1915.238745,-444.123565,9918.759623
886.199192,2298.286494,148.041188,9474.636058
886.199511,2604.724693,-0.000000,9474.636058
886.199830,2528.115143,-0.000000,9178.553681
886.200149,2604.724693,-222.061783,9474.636058
886.200468,2987.772442,-222.061783,9474.636058
886.200786,3447.429741,-740.205942,9622.677246
886.201105,3217.601092,-444.123565,9548.656652
886.201424,2987.772442,-740.205942,9474.636058
886.201743,2911.162892,-444.123565,9548.656652
886.202062,2911.162892,-74.020594,9400.615463
886.202381,2528.115143,-0.000000,8734.430116
886.202700,2221.676944,222.061783,8882.471304
886.203019,2068.457845,666.185348,8808.450710
886.203338,1685.410096,444.123565,8882.471304
886.203657,995.924147,666.185348,8660.409521
886.203976,842.705048,740.205942,9696.697840
886.204295,153.219100,370.102971,9030.512492
886.204614,-306.438199,592.164754,9030.512492
886.204933,-459.657299,444.123565,9474.636058
886.205252,-536.266849,1110.308913,8290.306550
886.205571,-995.924147,1480.411884,8438.347739
886.205890,-766.095498,1184.329507,8438.347739
886.206209,-1149.143247,1332.370696,8364.327145
886.206528,-1378.971896,1110.308913,8290.306550
886.206847,-1608.800546,888.247130,8512.368333
886.207166,-1838.629195,888.247130,8734.430116
886.207485,-1762.019645,148.041188,9474.636058
886.207804,-2298.286494,296.082377,8956.491898
886.208123,-2145.067394,370.102971,9474.636058
886.208442,-1608.800546,222.061783,9696.697840
886.208761,-1915.238745,592.164754,9252.574275
886.209080,-995.924147,148.041188,9474.636058
886.209399,-1072.533697,444.123565,9326.594869
886.209717,-1072.533697,222.061783,9622.677246
886.210036,-459.657299,-148.041188,9400.615463
886.210355,-153.219100,-0.000000,9696.697840
886.210674,0.000000,-666.185348,9844.739029
886.210993,459.657299,-592.164754,9844.739029
886.211312,995.924147,-370.102971,10140.821405
886.211631,1608.800546,-444.123565,10288.862594
886.211950,2221.676944,-148.041188,9844.739029
886.212269,2298.286494,-0.000000,9548.656652
886.212588,2834.553343,-0.000000,9696.697840
886.212907,2757.943793,-0.000000,9326.594869
886.213226,3370.820191,-0.000000,9030.512492
886.213545,2987.772442,-148.041188,9400.615463
886.213864,2911.162892,-296.082377,9622.677246
886.214183,2987.772442,-518.144159,9622.677246
886.214502,2911.162892,-370.102971,9622.677246
886.214821,2451.505594,-148.041188,9622.677246
886.215140,2528.115143,148.041188,9474.636058
886.215459,1991.848295,444.123565,9178.553681
886.215778,1838.629195,296.082377,9178.553681
886.216097,1225.752797,740.205942,9030.512492
886.216416,1149.143247,888.247130,9030.512492
886.216735,536.266849,814.226536,8882.471304
886.217054,229.828649,962.267725,9104.533087
886.217373,153.219100,592.164754,8882.471304
886.217692,-536.266849,962.267725,9104.533087
886.218011,-766.095498,1184.329507,8808.450710
886.218329,-689.485948,1480.411884,8512.368333
886.218648,-919.314598,1702.473667,8364.327145
886.218967,-1225.752797,1258.350101,8216.285956
886.219286,-1378.971896,1554.432478,8512.368333
886.219605,-1455.581446,1110.308913,8216.285956
886.219924,-1608.800546,814.226536,8438.347739
886.220243,-1685.410096,814.226536,8882.471304
886.220562,-2068.457845,296.082377,9178.553681
886.220881,-1762.019645,148.041188,9252.574275
886.221200,-1762.019645,444.123565,9400.615463
886.221519,-1685.410096,222.061783,9252.574275
886.221838,-1455.581446,518.144159,9030.512492
886.222157,-1149.143247,592.164754,8882.471304
886.222476,-383.047749,370.102971,8956.491898
886.222795,-153.219100,222.061783,8882.471304
886.223114,0.000000,-0.000000,9326.594869
886.223433,229.828649,-370.102971,9474.636058
886.223752,919.314598,-444.123565,9548.656652
886.224071,1225.752797,-592.164754,9918.759623
886.224390,1685.410096,-370.102971,9918.759623
886.224709,2221.676944,-296.082377,9696.697840
886.225028,2528.115143,-148.041188,9400.615463
886.225347,3064.381992,-0.000000,9474.636058
886.225666,3217.601092,-0.000000,9326.594869
886.225985,3217.601092,-74.020594,9030.512492
886.226304,3600.648841,-222.061783,9400.615463
886.226623,3217.601092,-296.082377,9622.677246
886.226942,2757.943793,-814.226536,9992.780217
886.227260,2757.943793,-666.185348,9622.677246
886.227579,2604.724693,-222.061783,9474.636058
886.227898,2451.505594,-0.000000,9474.636058
886.228217,1991.848295,296.082377,9178.553681
886.228536,1608.800546,518.144159,9104.533087
886.228855,1532.190996,740.205942,9104.533087
886.229174,1072.533697,592.164754,9104.533087
886.229493,306.438199,592.164754,9474.636058
886.229812,76.609550,592.164754,9400.615463
886.230131,-459.657299,888.247130,9104.533087
886.230450,-689.485948,1036.288319,9030.512492
886.230769,-1225.752797,1332.370696,8956.491898
886.231088,-919.314598,1480.411884,8734.430116
886.231407,-1225.752797,1628.453072,8438.347739
886.231726,-1608.800546,1628.453072,8512.368333
886.232045,-1225.752797,1628.453072,8216.285956
886.232364,-1685.410096,1332.370696,8660.409521
886.232683,-2068.457845,814.226536,8660.409521
886.233002,-1915.238745,666.185348,9400.615463
886.233321,-1838.629195,592.164754,9474.636058
886.233640,-1915.238745,518.144159,9400.615463
886.233959,-1225.752797,222.061783,9474.636058
886.234278,-1455.581446,666.185348,9474.636058
886.234597,-1225.752797,814.226536,9252.574275
886.234916,-689.485948,592.164754,9104.533087
886.235235,-459.657299,666.185348,9400.615463
886.235554,0.000000,370.102971,9548.656652
886.235872,-306.438199,-0.000000,9696.697840
886.236191,612.876398,-0.000000,9918.759623
886.236510,689.485948,-222.061783,10066.800811
886.236829,1378.971896,148.041188,10066.800811
886.237148,1762.019645,-222.061783,9992.780217
886.237467,2221.676944,-222.061783,9770.718434
886.237786,2604.724693,-0.000000,9696.697840
886.238105,2911.162892,-0.000000,9844.739029
886.238424,3370.820191,222.061783,9548.656652
886.238743,3447.429741,-0.000000,9400.615463
886.239062,3600.648841,-0.000000,9474.636058
886.239381,3217.601092,-222.061783,9400.615463
886.239700,3140.991542,-222.061783,9548.656652
886.240019,2681.334243,-666.185348,9548.656652
886.240338,2451.505594,-222.061783,9622.677246
886.240657,2451.505594,-148.041188,9400.615463
886.240976,1991.848295,222.061783,9326.594869
886.241295,1838.629195,148.041188,9400.615463
886.241614,1302.362347,740.205942,9030.512492
886.241933,229.828649,666.185348,9104.533087
886.242252,536.266849,814.226536,8808.450710
886.242571,0.000000,962.267725,8956.491898
886.242890,0.000000,888.247130,9104.533087
886.243209,-612.876398,1184.329507,8882.471304
886.243528,-1149.143247,1184.329507,8956.491898
886.243847,-1149.143247,1406.391290,8586.388927
886.244166,-1072.533697,1332.370696,8438.347739
886.244485,-1072.533697,1480.411884,8438.347739
886.244803,-1225.752797,1554.432478,8364.327145
886.245122,-1149.143247,1480.411884,8438.347739
886.245441,-1455.581446,1184.329507,8512.368333
886.245760,-1838.629195,814.226536,9178.553681
886.246079,-1532.190996,666.185348,9030.512492
886.246398,-1608.800546,666.185348,9178.553681
886.246717,-1608.800546,370.102971,9178.553681
886.247036,-1608.800546,518.144159,9252.574275
886.247355,-1149.143247,518.144159,9252.574275
886.247674,-766.095498,666.185348,9178.553681
886.247993,-689.485948,592.164754,9178.553681
886.248312,-229.828649,370.102971,9178.553681
886.248631,153.219100,-148.041188,9326.594869
886.248950,612.876398,-0.000000,9622.677246
886.249269,229.828649,-296.082377,9844.739029
886.249588,995.924147,-444.123565,9844.739029
886.249907,1378.971896,-518.144159,10288.862594
886.250226,2068.457845,-592.164754,10140.821405
886.250545,2221.676944,-74.020594,9918.759623
886.250864,2604.724693,222.061783,9770.718434
886.251183,2834.553343,222.061783,9548.656652
886.251502,2987.772442,296.082377,9474.636058
886.251821,2757.943793,-0.000000,9844.739029
886.252140,2757.943793,-296.082377,9474.636058
886.252459,3294.210641,-148.041188,9622.677246
886.252778,2911.162892,-148.041188,9770.718434
886.253097,2604.724693,-444.123565,9770.718434
886.253415,2298.286494,-0.000000,9696.697840
886.253734,2145.067394,518.144159,9474.636058
886.254053,1838.629195,740.205942,9326.594869
886.254372,1302.362347,1036.288319,9252.574275
886.254691,1302.362347,814.226536,8808.450710
886.255010,536.266849,1184.329507,9104.533087
886.255329,229.828649,1110.308913,8882.471304
886.255647,-229.828649,1332.370696,9178.553681
886.255966,-459.657299,1332.370696,9178.553681
886.256285,-459.657299,962.267725,9104.533087
886.256604,-689.485948,1258.350101,8882.471304
886.256923,-842.705048,1554.432478,8586.388927
886.257242,-1149.143247,1554.432478,8290.306550
886.257561,-1378.971896,1702.473667,8216.285956
886.257880,-1149.143247,1480.411884,8586.388927
886.258198,-1532.190996,1258.350101,8438.347739
886.258517,-2068.457845,962.267725,9030.512492
886.258836,-1838.629195,592.164754,9104.533087
886.259155,-1838.629195,444.123565,9178.553681
886.259474,-1685.410096,370.102971,9400.615463
886.259793,-1608.800546,444.123565,9474.636058
886.260112,-1685.410096,518.144159,9178.553681
886.260430,-1149.143247,444.123565,9178.553681
886.260749,-842.705048,814.226536,9326.594869
886.261068,-612.876398,666.185348,9178.553681
886.261387,-689.485948,-0.000000,9326.594869
886.261706,0.000000,-0.000000,9326.594869
886.262025,76.609550,-296.082377,9548.656652
886.262344,842.705048,-370.102971,9844.739029
886.262663,995.924147,-666.185348,10214.842000
886.262981,1225.752797,-592.164754,9844.739029
886.263300,1378.971896,-296.082377,9844.739029
886.263619,2145.067394,-148.041188,9548.656652
886.263938,2604.724693,-0.000000,9770.718434
886.264257,2604.724693,-74.020594,9622.677246
886.264576,2757.943793,-370.102971,9474.636058
886.264895,3064.381992,-296.082377,9696.697840
886.265214,3294.210641,-370.102971,9622.677246
886.265532,3140.991542,-296.082377,9622.677246
886.265851,3140.991542,-370.102971,9474.636058
886.266170,2681.334243,-148.041188,9474.636058
886.266489,2528.115143,-0.000000,9104.533087
886.266808,1991.848295,296.082377,8882.471304
886.267127,1685.410096,296.082377,9178.553681
886.267446,1762.019645,592.164754,8586.388927
886.267764,1149.143247,444.123565,8956.491898
886.268083,766.095498,592.164754,9474.636058
886.268402,76.609550,740.205942,8956.491898
886.268721,-153.219100,962.267725,8734.430116
886.269040,-536.266849,888.247130,9178.553681
886.269359,-612.876398,1332.370696,8882.471304
886.269678,-842.705048,1702.473667,8438.347739
886.269997,-766.095498,1554.432478,8290.306550
886.270315,-1225.752797,1702.473667,8512.368333
886.270634,-1225.752797,1702.473667,8364.327145
886.270953,-1608.800546,1480.411884,8438.347739
886.271272,-1532.190996,1258.350101,9030.512492
886.271591,-1915.238745,814.226536,8734.430116
886.271910,-1991.848295,888.247130,9326.594869
886.272229,-2145.067394,962.267725,9474.636058
886.272547,-1915.238745,1332.370696,9474.636058
886.272866,-1915.238745,888.247130,9326.594869
886.273185,-1302.362347,888.247130,9400.615463
886.273504,-1378.971896,1184.329507,9178.553681
886.273823,-1225.752797,962.267725,9178.553681
886.274142,-842.705048,444.123565,9474.636058
886.274461,-229.828649,444.123565,9474.636058
886.274780,0.000000,148.041188,9696.697840
886.275098,919.314598,222.061783,9770.718434
886.275417,1072.533697,-74.020594,9918.759623
886.275736,1915.238745,-74.020594,9992.780217
886.276055,1991.848295,222.061783,9918.759623
886.276374,2451.505594,444.123565,9622.677246
886.276693,2604.724693,444.123565,9474.636058
886.277012,2987.772442,444.123565,9474.636058
886.277330,3370.820191,-0.000000,9474.636058
886.277649,2757.943793,-0.000000,9474.636058
886.277968,2911.162892,-296.082377,9474.636058
886.278287,2834.553343,-740.205942,9696.697840
886.278606,2681.334243,-444.123565,10214.842000
886.278925,2604.724693,-592.164754,10140.821405
886.279244,2298.286494,-74.020594,9696.697840
886.279563,2068.457845,296.082377,9548.656652
886.279881,1991.848295,148.041188,9474.636058
886.280200,1455.581446,518.144159,9252.574275
886.280519,689.485948,666.185348,9326.594869
886.280838,612.876398,518.144159,9326.594869
886.281157,0.000000,518.144159,9252.574275
886.281476,0.000000,518.144159,8956.491898
886.281795,-383.047749,814.226536,9326.594869
886.282114,-689.485948,888.247130,9104.533087
886.282432,-1072.533697,1184.329507,9178.553681
886.282751,-1302.362347,1110.308913,8734.430116
886.283070,-1072.533697,1258.350101,8660.409521
886.283389,-1378.971896,888.247130,8734.430116
886.283708,-1762.019645,888.247130,8660.409521
886.284027,-1838.629195,518.144159,8660.409521
886.284346,-1915.238745,740.205942,8660.409521
886.284664,-1838.629195,370.102971,8956.491898
886.284983,-1762.019645,444.123565,9030.512492
886.285302,-1762.019645,370.102971,9178.553681
886.285621,-1532.190996,666.185348,9104.533087
886.285940,-1378.971896,370.102971,8956.491898
886.286259,-1378.971896,444.123565,8734.430116
886.286578,-995.924147,592.164754,8956.491898
886.286897,-459.657299,444.123565,8882.471304
886.287215,-306.438199,-0.000000,9400.615463
886.287534,0.000000,-74.020594,9326.594869
886.287853,0.000000,-444.123565,9474.636058
886.288172,306.438199,-814.226536,9548.656652
886.288491,919.314598,-592.164754,10140.821405
886.288810,1455.581446,-370.102971,9696.697840
886.289129,1838.629195,-296.082377,9548.656652
886.289447,2834.553343,-148.041188,9548.656652
886.289766,2604.724693,-0.000000,9400.615463
886.290085,2987.772442,-0.000000,9104.533087
886.290404,2911.162892,-222.061783,9400.615463
886.290723,2987.772442,-444.123565,9104.533087
886.291042,3064.381992,-740.205942,9474.636058
886.291361,2987.772442,-592.164754,9622.677246
886.291680,2834.553343,-370.102971,9548.656652
886.291998,2681.334243,-74.020594,9326.594869
886.292317,2528.115143,-0.000000,9252.574275
886.292636,2757.943793,814.226536,9400.615463
886.292955,1915.238745,962.267725,9178.553681
886.293274,1532.190996,962.267725,8734.430116
886.293593,995.924147,740.205942,8956.491898
886.293912,536.266849,888.247130,8956.491898
886.294230,-76.609550,814.226536,9030.512492
886.294549,0.000000,1110.308913,9104.533087
886.294868,-306.438199,1110.308913,8808.450710
886.295187,-383.047749,1332.370696,8734.430116
886.295506,-766.095498,1702.473667,8734.430116
886.295825,-995.924147,1924.535449,8290.306550
886.296144,-1378.971896,1924.535449,8216.285956
886.296463,-1149.143247,1924.535449,8438.347739
886.296781,-1838.629195,1480.411884,8512.368333
886.297100,-2068.457845,1110.308913,8956.491898
886.297419,-2145.067394,666.185348,9326.594869
886.297738,-2298.286494,296.082377,9474.636058
886.298057,-2374.896044,296.082377,9548.656652
886.298376,-1838.629195,370.102971,9770.718434
886.298695,-1685.410096,518.144159,9548.656652
886.299014,-1455.581446,666.185348,9474.636058
886.299332,-1225.752797,740.205942,9400.615463
886.299651,-612.876398,518.144159,9326.594869
886.299970,-842.705048,222.061783,9474.636058
886.300289,-459.657299,-222.061783,9548.656652
886.300608,76.609550,-296.082377,9918.759623
886.300927,459.657299,-888.247130,10362.883188
886.301246,919.314598,-666.185348,10510.924376
886.301564,1302.362347,-370.102971,10362.883188
886.301883,1762.019645,-444.123565,10140.821405
886.302202,2145.067394,-148.041188,9992.780217
886.302521,2451.505594,-0.000000,9622.677246
886.302840,2757.943793,-74.020594,9548.656652
886.303159,2911.162892,-444.123565,9770.718434
886.303478,2987.772442,-296.082377,9918.759623
886.303797,3294.210641,-666.185348,9844.739029
886.304115,3064.381992,-592.164754,9918.759623
886.304434,3140.991542,-518.144159,9918.759623
886.304753,2834.553343,-148.041188,9474.636058
886.305072,2604.724693,222.061783,9178.553681
886.305391,2451.505594,592.164754,9030.512492
886.305710,2298.286494,740.205942,8808.450710
886.306029,2221.676944,814.226536,9104.533087
886.306347,1378.971896,740.205942,8956.491898
886.306666,995.924147,740.205942,8882.471304
886.306985,229.828649,888.247130,8956.491898
886.307304,0.000000,740.205942,8808.450710
886.307623,-229.828649,962.267725,8882.471304
886.307942,-536.266849,1184.329507,8512.368333
886.308261,-766.095498,1332.370696,8142.265362
886.308580,-842.705048,1554.432478,7920.203579
886.308898,-766.095498,1702.473667,7994.224174
886.309217,-842.705048,1554.432478,8216.285956
886.309536,-1455.581446,1184.329507,8364.327145
886.309855,-1915.238745,1110.308913,8216.285956
886.310174,-1991.848295,888.247130,8586.388927
886.310493,-1915.238745,592.164754,8660.409521
886.310812,-1838.629195,518.144159,9178.553681
886.311130,-1915.238745,444.123565,9030.512492
886.311449,-1532.190996,740.205942,9178.553681
886.311768,-1455.581446,740.205942,8956.491898
886.312087,-1378.971896,1184.329507,9104.533087
886.312406,-689.485948,222.061783,9326.594869
886.312725,-766.095498,296.082377,9400.615463
886.313044,-306.438199,-148.041188,9548.656652
886.313363,0.000000,-296.082377,9474.636058
886.313681,-229.828649,-444.123565,9474.636058
886.314000,1072.533697,-518.144159,10214.842000
886.314319,1378.971896,-740.205942,10066.800811
886.314638,1838.629195,-444.123565,9992.780217
886.314957,2528.115143,-444.123565,9992.780217
886.315276,3294.210641,222.061783,9474.636058
886.315595,3140.991542,-0.000000,9474.636058
886.315914,3294.210641,-444.123565,9770.718434
886.316232,3294.210641,-222.061783,9548.656652
886.316551,3447.429741,-1036.288319,9548.656652
886.316870,2987.772442,-740.205942,10140.821405
886.317189,2911.162892,-888.247130,9844.739029
886.317508,2451.505594,-814.226536,9622.677246
886.317827,2145.067394,-222.061783,9844.739029
886.318146,1838.629195,-74.020594,9696.697840
886.318464,1685.410096,-0.000000,9178.553681
886.318783,1149.143247,296.082377,9252.574275
886.319102,995.924147,592.164754,8808.450710
886.319421,229.828649,814.226536,8660.409521
886.319740,-153.219100,1036.288319,8882.471304
886.320059,-229.828649,740.205942,9030.512492
886.320378,-383.047749,962.267725,8882.471304
886.320697,-689.485948,888.247130,8660.409521
886.321015,-766.095498,1258.350101,8586.388927
886.321334,-919.314598,1406.391290,8438.347739
886.321653,-995.924147,1776.494261,8068.244768
886.321972,-995.924147,1998.556043,7846.182985
886.322291,-1455.581446,1406.391290,8068.244768
886.322610,-995.924147,1554.432478,8142.265362
886.322929,-1455.581446,1332.370696,8216.285956
886.323247,-1915.238745,1036.288319,8586.388927
886.323566,-1915.238745,888.247130,9030.512492
886.323885,-1532.190996,592.164754,9104.533087
886.324204,-1225.752797,518.144159,8882.471304
886.324523,-1225.752797,1480.411884,8956.491898
886.324842,-766.095498,1110.308913,9030.512492
886.325161,-612.876398,1332.370696,8734.430116
886.325480,153.219100,666.185348,9400.615463
886.325798,76.609550,444.123565,9326.594869
886.326117,229.828649,222.061783,9474.636058
886.326436,689.485948,-148.041188,9918.759623
886.326755,1149.143247,-296.082377,9918.759623
886.327074,1608.800546,-296.082377,10066.800811
886.327393,1762.019645,-148.041188,9992.780217
886.327712,2298.286494,-0.000000,9770.718434
886.328030,2681.334243,-0.000000,9548.656652
886.328349,2911.162892,-0.000000,9696.697840
886.328668,3217.601092,-296.082377,9770.718434
886.328987,2834.553343,-444.123565,9844.739029
886.329306,2911.162892,-592.164754,9918.759623
886.329625,2987.772442,-666.185348,10214.842000
886.329944,2681.334243,-592.164754,10140.821405
886.330263,2681.334243,-518.144159,10066.800811
886.330581,2374.896044,-0.000000,9992.780217
886.330900,2221.676944,222.061783,9548.656652
886.331219,1838.629195,518.144159,9474.636058
886.331538,1608.800546,740.205942,9474.636058
886.331857,1225.752797,592.164754,9548.656652
886.332176,306.438199,370.102971,9400.615463
886.332495,0.000000,814.226536,9548.656652
886.332814,-306.438199,740.205942,9622.677246
886.333132,0.000000,814.226536,9548.656652
886.333451,-766.095498,1406.391290,9178.553681
886.333770,-766.095498,1480.411884,8734.430116
886.334089,-919.314598,1628.453072,8438.347739
886.334408,-1072.533697,1702.473667,8290.306550
886.334727,-1378.971896,1628.453072,8364.327145
886.335046,-1608.800546,1258.350101,8290.306550
886.335364,-1455.581446,1258.350101,8882.471304
886.335683,-1915.238745,888.247130,8956.491898
886.336002,-1915.238745,592.164754,8956.491898
886.336321,-2145.067394,444.123565,9474.636058
886.336640,-1838.629195,444.123565,9178.553681
886.336959,-1685.410096,444.123565,9252.574275
886.337278,-1532.190996,592.164754,9178.553681
886.337597,-1149.143247,814.226536,9030.512492
886.337915,-689.485948,370.102971,9178.553681
886.338234,-995.924147,444.123565,9178.553681
886.338553,-612.876398,222.061783,9252.574275
886.338872,-306.438199,-0.000000,9400.615463
886.339191,153.219100,-222.061783,9696.697840
