#time,accel_x,accel_y,accel_z
1965.974797,536.266849,-0.000000,9474.636058
1965.975115,536.266849,148.041188,9474.636058
1965.975432,612.876398,370.102971,9548.656652
1965.975749,536.266849,148.041188,9474.636058
1965.976066,1378.971896,592.164754,9474.636058
1965.976384,766.095498,222.061783,9326.594869
1965.976701,689.485948,222.061783,9326.594869
1965.977018,995.924147,222.061783,9400.615463
1965.977336,612.876398,222.061783,9400.615463
1965.977653,842.705048,296.082377,9474.636058
1965.977970,459.657299,148.041188,9474.636058
1965.978288,689.485948,444.123565,9252.574275
1965.978605,766.095498,222.061783,9326.594869
1965.978922,536.266849,148.041188,9474.636058
1965.979240,842.705048,-0.000000,9548.656652
1965.979557,766.095498,-0.000000,9400.615463
1965.979874,612.876398,296.082377,9474.636058
1965.980192,919.314598,444.123565,9326.594869
1965.980509,842.705048,370.102971,9622.677246
1965.980826,995.924147,370.102971,9474.636058
1965.981143,536.266849,222.061783,9252.574275
1965.981461,689.485948,370.102971,9474.636058
1965.981778,612.876398,370.102971,9474.636058
1965.982095,842.705048,222.061783,9474.636058
1965.982413,689.485948,370.102971,9400.615463
1965.982730,842.705048,222.061783,9474.636058
1965.983047,919.314598,296.082377,9474.636058
1965.983365,995.924147,296.082377,9326.594869
1965.983682,919.314598,222.061783,9474.636058
1965.983999,689.485948,296.082377,9326.594869
1965.984317,919.314598,296.082377,9326.594869
1965.984634,919.314598,296.082377,9400.615463
1965.984951,383.047749,-0.000000,9474.636058
1965.985268,536.266849,296.082377,9474.636058
1965.985586,766.095498,222.061783,9474.636058
1965.985903,766.095498,222.061783,9400.615463
1965.986220,536.266849,370.102971,9474.636058
1965.986538,766.095498,148.041188,9400.615463
1965.986855,689.485948,222.061783,9400.615463
1965.987172,766.095498,222.061783,9326.594869
1965.987490,842.705048,222.061783,9474.636058
1965.987807,383.047749,444.123565,9696.697840
1965.988124,612.876398,-0.000000,9252.574275
1965.988442,612.876398,222.061783,9252.574275
1965.988759,689.485948,296.082377,9474.636058
1965.989076,689.485948,148.041188,9400.615463
1965.989393,1225.752797,222.061783,9474.636058
1965.989711,766.095498,148.041188,9400.615463
1965.990028,766.095498,222.061783,9326.594869
1965.990345,766.095498,296.082377,9474.636058
1965.990663,842.705048,370.102971,9474.636058
1965.990980,919.314598,-0.000000,9474.636058
1965.991297,766.095498,-0.000000,9474.636058
1965.991615,842.705048,518.144159,9252.574275
1965.991932,536.266849,296.082377,9400.615463
1965.992249,842.705048,148.041188,9474.636058
1965.992567,995.924147,370.102971,9326.594869
1965.992884,689.485948,296.082377,9474.636058
1965.993201,842.705048,222.061783,9474.636058
1965.993519,766.095498,222.061783,9400.615463
1965.993836,689.485948,370.102971,9326.594869
1965.994153,919.314598,148.041188,9474.636058
1965.994470,612.876398,148.041188,9474.636058
1965.994788,919.314598,-0.000000,9030.512492
1965.995105,842.705048,222.061783,9326.594869
1965.995422,919.314598,222.061783,9474.636058
1965.995740,766.095498,222.061783,9548.656652
1965.996057,689.485948,444.123565,9474.636058
1965.996374,536.266849,518.144159,9548.656652
1965.996692,383.047749,518.144159,9326.594869
1965.997009,153.219100,592.164754,9474.636058
1965.997326,766.095498,518.144159,9622.677246
1965.997644,766.095498,592.164754,9474.636058
1965.997961,689.485948,1036.288319,9548.656652
1965.998278,306.438199,518.144159,9474.636058
1965.998595,229.828649,296.082377,9622.677246
1965.998913,612.876398,518.144159,9918.759623
1965.999230,459.657299,592.164754,9844.739029
1965.999547,459.657299,666.185348,9770.718434
1965.999865,536.266849,888.247130,9770.718434
1966.000182,689.485948,962.267725,9844.739029
1966.000499,383.047749,1258.350101,9844.739029
1966.000817,0.000000,1258.350101,9474.636058
1966.001134,-153.219100,1332.370696,9326.594869
1966.001451,-689.485948,1406.391290,9252.574275
1966.001769,-459.657299,1036.288319,9400.615463
1966.002086,-1225.752797,962.267725,9474.636058
1966.002403,-1762.019645,740.205942,9474.636058
1966.002720,-2374.896044,592.164754,9992.780217
1966.003038,-2911.162892,518.144159,9696.697840
1966.003355,-2911.162892,592.164754,10288.862594
1966.003672,-3753.867940,888.247130,10288.862594
1966.003990,-3907.087040,1184.329507,9770.718434
1966.004307,-4136.915689,1776.494261,9474.636058
1966.004624,-3600.648841,1776.494261,9326.594869
1966.004942,-4060.306139,1850.514855,9252.574275
1966.005259,-4213.525239,2146.597232,9178.553681
1966.005576,-4519.963438,2516.700203,8882.471304
1966.005894,-4673.182538,2442.679609,8882.471304
1966.006211,-5056.230287,2738.761985,9326.594869
1966.006528,-5132.839837,2886.803174,9104.533087
1966.006845,-4979.620737,3478.967927,8438.347739
1966.007163,-4903.011187,3627.009116,8216.285956
1966.007480,-4749.792088,4071.132681,8290.306550
1966.007797,-4903.011187,4145.153275,8216.285956
1966.008115,-4290.134789,4367.215058,8512.368333
1966.008432,-3830.477490,4367.215058,8808.450710
1966.008749,-2757.943793,4589.276840,9178.553681
1966.009067,-2221.676944,4737.318029,8734.430116
1966.009384,-1762.019645,5995.668130,7920.203579
1966.009701,-383.047749,5773.606348,7550.100608
1966.010019,306.438199,7105.977043,7328.038826
1966.010336,1302.362347,7254.018232,6513.812290
1966.010653,1378.971896,8142.265362,4515.256246
1966.010971,1455.581446,7105.977043,6365.771101
1966.011288,459.657299,6957.935855,6587.832884
1966.011605,-766.095498,5403.503377,7179.997637
1966.011922,-2221.676944,4737.318029,7994.224174
1966.012240,-2681.334243,3775.050304,10140.821405
1966.012557,-3983.696590,4219.173869,10066.800811
1966.012874,-4136.915689,4441.235652,10658.965565
1966.013192,-3600.648841,4367.215058,11029.068536
1966.013509,-3830.477490,5921.647536,9622.677246
1966.013826,-3907.087040,5181.441594,9992.780217
1966.014144,-4749.792088,4441.235652,10807.006753
1966.014461,-5286.058936,2738.761985,11843.295072
1966.014778,-6128.763984,2590.720797,11769.274478
1966.015096,-5822.325785,2442.679609,11843.295072
1966.015413,-4979.620737,2812.782580,12361.439231
1966.015730,-3600.648841,3627.009116,11769.274478
1966.016047,-2451.505594,3849.070898,11325.150913
1966.016365,-2374.896044,3330.926739,10584.944971
1966.016682,-2145.067394,3108.864956,10732.986159
1966.016999,-2221.676944,2368.659014,10436.903782
1966.017317,-2221.676944,1258.350101,11029.068536
1966.017634,-1762.019645,1406.391290,11547.212695
1966.017951,-2068.457845,1924.535449,11473.192101
1966.018269,-536.266849,2590.720797,12435.459826
1966.018586,-383.047749,2590.720797,12361.439231
1966.018903,459.657299,2294.638420,12509.480420
1966.019221,995.924147,2368.659014,12435.459826
1966.019538,2145.067394,2590.720797,11177.109724
1966.019855,2834.553343,2368.659014,9696.697840
1966.020172,3140.991542,3034.844362,9178.553681
1966.020490,3907.087040,3108.864956,9104.533087
1966.020807,3447.429741,2812.782580,9178.553681
1966.021124,2451.505594,2220.617826,9030.512492
1966.021442,1838.629195,2146.597232,9548.656652
1966.021759,536.266849,1998.556043,10214.842000
1966.022076,-306.438199,1258.350101,10510.924376
1966.022394,-612.876398,592.164754,10807.006753
1966.022711,-766.095498,370.102971,10140.821405
1966.023028,-1378.971896,222.061783,9622.677246
1966.023346,-995.924147,148.041188,9400.615463
1966.023663,-459.657299,592.164754,8438.347739
1966.023980,-536.266849,666.185348,7994.224174
1966.024298,-1072.533697,518.144159,7328.038826
1966.024615,-2221.676944,666.185348,7698.141797
1966.024932,-2528.115143,296.082377,8512.368333
1966.025249,-2911.162892,444.123565,8364.327145
1966.025567,-2681.334243,518.144159,8734.430116
1966.025884,-2757.943793,592.164754,9030.512492
1966.026201,-2374.896044,296.082377,7328.038826
1966.026519,-1225.752797,444.123565,7254.018232
1966.026836,-995.924147,296.082377,7476.080014
1966.027153,-1072.533697,666.185348,6735.874072
1966.027471,-1072.533697,1628.453072,6143.709319
1966.027788,-1455.581446,2146.597232,6439.791695
1966.028105,-1915.238745,2146.597232,7179.997637
1966.028423,-2681.334243,1554.432478,7254.018232
1966.028740,-3217.601092,1110.308913,8142.265362
1966.029057,-3830.477490,1258.350101,8660.409521
1966.029374,-3294.210641,1110.308913,8438.347739
1966.029692,-2298.286494,962.267725,8882.471304
1966.030009,-1532.190996,740.205942,8882.471304
1966.030326,-612.876398,962.267725,8808.450710
1966.030644,306.438199,1702.473667,8142.265362
1966.030961,1072.533697,2072.576638,7698.141797
1966.031278,1455.581446,2294.638420,8660.409521
1966.031596,1302.362347,2294.638420,9326.594869
1966.031913,766.095498,2738.761985,8882.471304
1966.032230,1302.362347,2516.700203,9104.533087
1966.032548,1378.971896,2812.782580,9474.636058
1966.032865,2145.067394,2664.741391,9474.636058
1966.033182,2757.943793,1998.556043,8956.491898
1966.033499,2374.896044,2146.597232,8290.306550
1966.033817,2068.457845,1554.432478,9104.533087
1966.034134,1991.848295,1332.370696,9622.677246
1966.034451,1225.752797,666.185348,10362.883188
1966.034769,306.438199,296.082377,11251.130318
1966.035086,-995.924147,148.041188,11473.192101
1966.035403,-1149.143247,962.267725,12287.418637
1966.035721,-1532.190996,962.267725,13175.665768
1966.036038,-995.924147,1110.308913,13101.645173
1966.036355,-1072.533697,1036.288319,13101.645173
1966.036673,-229.828649,1184.329507,12435.459826
1966.036990,459.657299,1184.329507,11917.315666
1966.037307,1915.238745,1110.308913,11251.130318
1966.037624,2757.943793,1036.288319,10510.924376
1966.037941,3294.210641,1258.350101,10288.862594
1966.038259,3140.991542,1776.494261,9696.697840
1966.038576,2987.772442,1332.370696,10288.862594
1966.038893,2451.505594,1036.288319,10510.924376
1966.039210,1915.238745,888.247130,10362.883188
1966.039527,1685.410096,518.144159,10362.883188
1966.039845,1149.143247,-444.123565,11029.068536
1966.040162,1225.752797,-1036.288319,11177.109724
1966.040479,1455.581446,-1110.308913,11325.150913
1966.040796,2068.457845,-222.061783,10881.027347
1966.041114,2528.115143,-0.000000,10584.944971
1966.041431,3064.381992,-0.000000,9992.780217
1966.041748,2681.334243,-0.000000,9770.718434
1966.042065,1762.019645,-0.000000,9992.780217
1966.042382,1608.800546,-0.000000,9844.739029
1966.042700,1378.971896,370.102971,9178.553681
1966.043017,1149.143247,-0.000000,9104.533087
1966.043334,1225.752797,-0.000000,8660.409521
1966.043651,1302.362347,-518.144159,8142.265362
1966.043968,1455.581446,-888.247130,8142.265362
1966.044286,1455.581446,-888.247130,7846.182985
1966.044603,1072.533697,-1258.350101,7550.100608
1966.044920,689.485948,-1480.411884,8142.265362
1966.045237,-536.266849,-2368.659014,8364.327145
1966.045555,76.609550,-1702.473667,8734.430116
1966.045872,-689.485948,-1480.411884,8512.368333
1966.046189,-919.314598,-888.247130,8142.265362
1966.046506,-612.876398,-0.000000,8068.244768
1966.046823,-383.047749,518.144159,7328.038826
1966.047141,-689.485948,-0.000000,7105.977043
1966.047458,-1149.143247,222.061783,7105.977043
1966.047775,-1225.752797,-518.144159,7105.977043
1966.048092,-1225.752797,-370.102971,7105.977043
1966.048409,-1685.410096,-148.041188,7402.059420
1966.048727,-1455.581446,222.061783,7550.100608
1966.049044,-1762.019645,74.020594,7994.224174
1966.049361,-2068.457845,-74.020594,8586.388927
1966.049678,-2681.334243,-296.082377,9474.636058
1966.049995,-2528.115143,-0.000000,9104.533087
1966.050313,-2145.067394,-0.000000,9326.594869
1966.050630,-1149.143247,-0.000000,9400.615463
1966.050947,0.000000,222.061783,9104.533087
1966.051264,1225.752797,518.144159,8956.491898
1966.051582,2451.505594,1850.514855,8290.306550
1966.051899,3677.258390,1850.514855,8068.244768
1966.052216,3600.648841,2368.659014,7698.141797
1966.052533,3370.820191,2294.638420,7920.203579
1966.052850,3217.601092,2146.597232,8586.388927
1966.053168,2604.724693,1998.556043,8882.471304
1966.053485,2451.505594,2220.617826,8882.471304
1966.053802,2298.286494,1924.535449,9252.574275
1966.054119,1991.848295,1554.432478,9770.718434
1966.054436,1532.190996,518.144159,10140.821405
1966.054754,1149.143247,296.082377,11177.109724
1966.055071,459.657299,-518.144159,11325.150913
1966.055388,76.609550,-518.144159,11991.336260
1966.055705,153.219100,-222.061783,12065.356855
1966.056023,0.000000,-222.061783,12213.398043
1966.056340,0.000000,-0.000000,12361.439231
1966.056657,689.485948,148.041188,12361.439231
1966.056974,1302.362347,592.164754,11843.295072
1966.057291,2451.505594,296.082377,11547.212695
1966.057609,2528.115143,222.061783,10955.047942
1966.057926,2834.553343,740.205942,10214.842000
1966.058243,2374.896044,666.185348,9622.677246
1966.058560,2221.676944,296.082377,9400.615463
1966.058877,1225.752797,740.205942,9400.615463
1966.059195,1149.143247,1184.329507,9474.636058
1966.059512,766.095498,814.226536,10214.842000
1966.059829,0.000000,740.205942,10214.842000
1966.060146,-919.314598,-74.020594,10436.903782
1966.060463,-1915.238745,-666.185348,11029.068536
1966.060781,-2757.943793,-962.267725,11177.109724
1966.061098,-2451.505594,-1258.350101,11621.233289
1966.061415,-1915.238745,-1406.391290,11769.274478
1966.061732,-1149.143247,-666.185348,11103.089130
1966.062050,-229.828649,-0.000000,11029.068536
1966.062367,536.266849,666.185348,10140.821405
1966.062684,1378.971896,1406.391290,9252.574275
1966.063001,1608.800546,1480.411884,8882.471304
1966.063318,1455.581446,1036.288319,8808.450710
1966.063636,2068.457845,666.185348,8216.285956
1966.063953,2221.676944,740.205942,7698.141797
1966.064270,2221.676944,518.144159,7179.997637
1966.064587,2298.286494,-0.000000,7476.080014
1966.064904,2145.067394,-0.000000,7402.059420
1966.065222,2374.896044,-740.205942,7105.977043
1966.065539,2068.457845,-888.247130,7772.162391
1966.065856,1072.533697,-1628.453072,8068.244768
1966.066173,153.219100,-2294.638420,8438.347739
1966.066491,76.609550,-2590.720797,8808.450710
1966.066808,153.219100,-1998.556043,9252.574275
1966.067125,229.828649,-1406.391290,9104.533087
1966.067442,842.705048,-666.185348,8808.450710
1966.067759,1302.362347,-518.144159,8956.491898
1966.068077,2145.067394,-740.205942,8734.430116
1966.068394,2298.286494,-666.185348,7994.224174
1966.068711,2221.676944,-592.164754,7994.224174
1966.069028,2221.676944,-1110.308913,8364.327145
1966.069345,2221.676944,-1406.391290,8068.244768
1966.069663,1838.629195,-2146.597232,8438.347739
1966.069980,1225.752797,-2146.597232,8512.368333
1966.070297,1455.581446,-1924.535449,8956.491898
1966.070614,1685.410096,-1850.514855,8438.347739
1966.070931,2221.676944,-1702.473667,8956.491898
1966.071249,1532.190996,-1628.453072,8438.347739
1966.071566,1149.143247,-2294.638420,8882.471304
1966.071883,1072.533697,-2590.720797,9400.615463
1966.072200,689.485948,-2590.720797,9474.636058
1966.072518,1072.533697,-2368.659014,9252.574275
1966.072835,1378.971896,-1406.391290,9918.759623
1966.073152,1455.581446,-814.226536,10140.821405
1966.073469,2068.457845,-0.000000,9252.574275
1966.073786,1302.362347,148.041188,9104.533087
1966.074104,842.705048,-0.000000,9548.656652
1966.074421,842.705048,-0.000000,9474.636058
1966.074738,1072.533697,-0.000000,8956.491898
1966.075055,1378.971896,-370.102971,9696.697840
1966.075372,1072.533697,296.082377,9696.697840
1966.075690,1685.410096,-0.000000,9474.636058
1966.076007,1302.362347,-0.000000,9030.512492
1966.076324,919.314598,-0.000000,9622.677246
1966.076641,766.095498,444.123565,10066.800811
1966.076959,766.095498,222.061783,9696.697840
1966.077276,1608.800546,518.144159,9474.636058
1966.077593,1072.533697,444.123565,9474.636058
1966.077910,1149.143247,888.247130,9622.677246
1966.078227,1608.800546,740.205942,9992.780217
1966.078545,1991.848295,1110.308913,10288.862594
1966.078862,2068.457845,1480.411884,9696.697840
1966.079179,1608.800546,1850.514855,9326.594869
1966.079496,995.924147,1184.329507,9770.718434
1966.079813,995.924147,1110.308913,10214.842000
1966.080131,383.047749,1258.350101,9992.780217
1966.080448,306.438199,1184.329507,10066.800811
1966.080765,-153.219100,740.205942,10658.965565
1966.081082,-229.828649,222.061783,10658.965565
1966.081399,76.609550,-592.164754,10732.986159
1966.081717,-306.438199,-148.041188,10214.842000
1966.082034,-459.657299,-444.123565,10510.924376
1966.082351,-383.047749,-0.000000,10658.965565
1966.082668,76.609550,-0.000000,10658.965565
1966.082986,766.095498,444.123565,10288.862594
1966.083303,766.095498,-0.000000,10807.006753
1966.083620,1838.629195,370.102971,10362.883188
1966.083937,2374.896044,814.226536,9622.677246
1966.084254,2528.115143,1258.350101,8512.368333
1966.084572,2068.457845,1924.535449,9104.533087
1966.084889,1915.238745,1554.432478,8882.471304
1966.085206,2068.457845,1850.514855,8068.244768
1966.085523,1532.190996,1554.432478,8068.244768
1966.085840,919.314598,888.247130,8882.471304
1966.086158,383.047749,1184.329507,9474.636058
1966.086475,229.828649,370.102971,9252.574275
1966.086792,-459.657299,-370.102971,9770.718434
1966.087109,-919.314598,-888.247130,9918.759623
1966.087427,-2145.067394,-888.247130,9622.677246
1966.087744,-1762.019645,-888.247130,10066.800811
1966.088061,-1532.190996,-444.123565,9696.697840
1966.088378,-995.924147,-370.102971,9992.780217
1966.088695,0.000000,-222.061783,9918.759623
1966.089013,536.266849,148.041188,9252.574275
1966.089330,1608.800546,444.123565,8512.368333
1966.089647,1685.410096,444.123565,7920.203579
1966.089964,1455.581446,740.205942,7846.182985
1966.090281,1608.800546,296.082377,8068.244768
1966.090599,1838.629195,592.164754,7920.203579
1966.090916,1915.238745,370.102971,7624.121203
1966.091233,1378.971896,-222.061783,8216.285956
1966.091550,842.705048,-222.061783,7624.121203
1966.091867,1072.533697,-814.226536,8068.244768
1966.092185,-229.828649,-1406.391290,9030.512492
1966.092502,-766.095498,-1850.514855,9992.780217
1966.092819,-1378.971896,-2220.617826,10362.883188
1966.093136,-1455.581446,-2294.638420,10436.903782
1966.093454,-612.876398,-1998.556043,11473.192101
1966.093771,-536.266849,-1036.288319,10066.800811
1966.094088,459.657299,-370.102971,10214.842000
1966.094405,1762.019645,-444.123565,9696.697840
1966.094722,2374.896044,148.041188,8882.471304
1966.095040,2987.772442,370.102971,8512.368333
1966.095357,3830.477490,518.144159,8586.388927
1966.095674,3370.820191,370.102971,7920.203579
1966.095991,4136.915689,962.267725,7994.224174
1966.096308,3677.258390,1110.308913,7698.141797
1966.096626,2987.772442,592.164754,8364.327145
1966.096943,2681.334243,-0.000000,9326.594869
1966.097260,2068.457845,74.020594,9030.512492
1966.097577,1685.410096,-148.041188,9474.636058
1966.097895,536.266849,-592.164754,10066.800811
1966.098212,229.828649,-740.205942,11029.068536
1966.098529,0.000000,-222.061783,10584.944971
1966.098846,76.609550,-222.061783,10510.924376
1966.099163,229.828649,370.102971,10732.986159
1966.099481,459.657299,962.267725,10510.924376
1966.099798,1302.362347,1554.432478,10214.842000
1966.100115,1532.190996,1998.556043,9474.636058
1966.100432,1838.629195,2146.597232,8956.491898
1966.100749,1762.019645,1850.514855,9178.553681
1966.101067,1838.629195,1554.432478,8364.327145
1966.101384,1149.143247,1480.411884,8808.450710
1966.101701,1149.143247,1036.288319,8956.491898
1966.102018,229.828649,814.226536,9252.574275
1966.102335,76.609550,962.267725,9548.656652
1966.102653,-229.828649,888.247130,9992.780217
1966.102970,-1302.362347,1184.329507,9844.739029
1966.103287,-1608.800546,1036.288319,10362.883188
1966.103604,-1838.629195,962.267725,10881.027347
1966.103922,-1762.019645,962.267725,10807.006753
1966.104239,-1302.362347,1258.350101,10510.924376
1966.104556,-842.705048,1554.432478,10732.986159
1966.104873,153.219100,1850.514855,10584.944971
1966.105190,383.047749,1924.535449,9622.677246
1966.105508,995.924147,2146.597232,9104.533087
1966.105825,995.924147,2590.720797,8660.409521
1966.106142,995.924147,2960.823768,8512.368333
1966.106459,842.705048,2442.679609,8142.265362
1966.106776,383.047749,2220.617826,8512.368333
1966.107094,0.000000,1480.411884,8438.347739
1966.107411,-459.657299,666.185348,9030.512492
1966.107728,-612.876398,-0.000000,9474.636058
1966.108045,-536.266849,-444.123565,10066.800811
1966.108363,-995.924147,-666.185348,9844.739029
1966.108680,-612.876398,-814.226536,10584.944971
1966.108997,-766.095498,-444.123565,10732.986159
1966.109314,0.000000,-0.000000,9992.780217
1966.109631,153.219100,962.267725,9474.636058
1966.109949,919.314598,1036.288319,9474.636058
1966.110266,1225.752797,1332.370696,9548.656652
1966.110583,1762.019645,1480.411884,8586.388927
1966.110900,2145.067394,1554.432478,7994.224174
1966.111217,1838.629195,962.267725,8512.368333
1966.111535,1455.581446,-0.000000,9030.512492
1966.111852,1685.410096,-296.082377,8512.368333
1966.112169,459.657299,-666.185348,8882.471304
1966.112486,0.000000,-740.205942,9474.636058
1966.112803,0.000000,-1258.350101,9992.780217
1966.113121,-842.705048,-1184.329507,9770.718434
1966.113438,-612.876398,-1480.411884,9992.780217
1966.113755,-766.095498,-1258.350101,10510.924376
1966.114072,-842.705048,-1406.391290,10584.944971
1966.114390,0.000000,-1258.350101,10362.883188
1966.114707,766.095498,-888.247130,10658.965565
1966.115024,1072.533697,-0.000000,9844.739029
1966.115341,2221.676944,370.102971,9992.780217
1966.115658,3140.991542,592.164754,9252.574275
1966.115976,3983.696590,1332.370696,8512.368333
1966.116293,4366.744339,1776.494261,7994.224174
1966.116610,3370.820191,1776.494261,7550.100608
1966.116927,2604.724693,1554.432478,7328.038826
1966.117244,2451.505594,1480.411884,7920.203579
1966.117562,1532.190996,814.226536,8216.285956
1966.117879,536.266849,814.226536,8290.306550
1966.118196,-306.438199,296.082377,9548.656652
1966.118513,-919.314598,-222.061783,9844.739029
1966.118831,-1149.143247,-814.226536,10066.800811
1966.119148,-1838.629195,-888.247130,9918.759623
1966.119465,-2145.067394,-592.164754,10140.821405
1966.119782,-1915.238745,-222.061783,10066.800811
1966.120099,-1225.752797,148.041188,9622.677246
1966.120417,-842.705048,296.082377,10066.800811
1966.120734,-153.219100,740.205942,9992.780217
1966.121051,459.657299,1184.329507,9844.739029
1966.121368,1378.971896,1776.494261,9178.553681
1966.121685,1685.410096,2146.597232,8734.430116
1966.122003,1915.238745,2220.617826,8808.450710
1966.122320,2068.457845,2294.638420,8364.327145
1966.122637,2145.067394,2590.720797,7772.162391
1966.122954,1762.019645,1924.535449,7920.203579
1966.123271,919.314598,1184.329507,8660.409521
1966.123589,612.876398,444.123565,9178.553681
1966.123906,0.000000,-0.000000,9844.739029
1966.124223,-842.705048,-148.041188,9918.759623
1966.124540,-1225.752797,-0.000000,10955.047942
1966.124858,-1762.019645,296.082377,10881.027347
1966.125175,-1302.362347,592.164754,11029.068536
1966.125492,-1072.533697,666.185348,10955.047942
1966.125809,-383.047749,1110.308913,11325.150913
1966.126126,383.047749,1406.391290,10881.027347
1966.126444,995.924147,1702.473667,9992.780217
1966.126761,2221.676944,2146.597232,9992.780217
1966.127078,2221.676944,1998.556043,9622.677246
1966.127395,2145.067394,1776.494261,9326.594869
1966.127712,1915.238745,1998.556043,9030.512492
1966.128030,1915.238745,1924.535449,9030.512492
1966.128347,1225.752797,1702.473667,8364.327145
1966.128664,919.314598,1554.432478,8660.409521
1966.128981,383.047749,740.205942,9474.636058
1966.129299,229.828649,-0.000000,9474.636058
1966.129616,0.000000,-296.082377,9622.677246
1966.129933,-919.314598,-1110.308913,10436.903782
1966.130250,-842.705048,-592.164754,10732.986159
1966.130567,-612.876398,-370.102971,10214.842000
1966.130885,-536.266849,-222.061783,10288.862594
1966.131202,-306.438199,-148.041188,10436.903782
1966.131519,-306.438199,-0.000000,10214.842000
1966.131836,383.047749,-0.000000,9918.759623
1966.132153,1072.533697,148.041188,9400.615463
1966.132471,1915.238745,-0.000000,9326.594869
1966.132788,1762.019645,-666.185348,8808.450710
1966.133105,1685.410096,-592.164754,8808.450710
1966.133422,2528.115143,-222.061783,8068.244768
1966.133739,2298.286494,-222.061783,7920.203579
1966.134057,2068.457845,-814.226536,8734.430116
1966.134374,2221.676944,-1332.370696,8956.491898
1966.134691,1915.238745,-1258.350101,9252.574275
1966.135008,1302.362347,-814.226536,8586.388927
1966.135324,766.095498,-962.267725,9770.718434
1966.135642,612.876398,-1110.308913,9548.656652
1966.135959,383.047749,-1406.391290,9548.656652
1966.136276,383.047749,-1776.494261,9696.697840
1966.136593,766.095498,-1850.514855,10436.903782
1966.136910,1378.971896,-1184.329507,10140.821405
1966.137227,2298.286494,-296.082377,9326.594869
1966.137545,2374.896044,296.082377,8364.327145
1966.137862,2298.286494,592.164754,7994.224174
1966.138179,2145.067394,444.123565,8142.265362
1966.138496,2221.676944,666.185348,7698.141797
1966.138813,1838.629195,222.061783,7254.018232
1966.139131,1072.533697,296.082377,7994.224174
1966.139448,383.047749,-370.102971,8882.471304
1966.139765,306.438199,-888.247130,8660.409521
1966.140082,-153.219100,-1258.350101,8808.450710
1966.140399,-306.438199,-1184.329507,9474.636058
1966.140717,-919.314598,-1554.432478,9992.780217
1966.141034,-995.924147,-1184.329507,9918.759623
1966.141351,-612.876398,-1480.411884,10288.862594
1966.141668,-842.705048,-814.226536,10584.944971
1966.141985,-306.438199,-0.000000,10140.821405
1966.142303,306.438199,1110.308913,9178.553681
1966.142620,842.705048,1554.432478,8660.409521
1966.142937,995.924147,1776.494261,8290.306550
1966.143254,919.314598,1110.308913,7994.224174
1966.143571,919.314598,888.247130,8956.491898
1966.143889,689.485948,-0.000000,8512.368333
1966.144206,0.000000,-0.000000,8512.368333
1966.144523,0.000000,-74.020594,9252.574275
1966.144840,-229.828649,-222.061783,9770.718434
1966.145157,-459.657299,-0.000000,9696.697840
1966.145475,-536.266849,-74.020594,9770.718434
1966.145792,-612.876398,-666.185348,10881.027347
1966.146109,-612.876398,-370.102971,11029.068536
1966.146426,0.000000,-222.061783,11325.150913
1966.146743,689.485948,-296.082377,10881.027347
1966.147061,1149.143247,1036.288319,10658.965565
1966.147378,2834.553343,1554.432478,10140.821405
1966.147695,3907.087040,2146.597232,9326.594869
1966.148012,4903.011187,1998.556043,8734.430116
1966.148329,4979.620737,2368.659014,8290.306550
1966.148647,4213.525239,2220.617826,8142.265362
1966.148964,3753.867940,1776.494261,8290.306550
1966.149281,2604.724693,1110.308913,8586.388927
1966.149598,1685.410096,814.226536,8882.471304
1966.149915,689.485948,-0.000000,9548.656652
1966.150233,-612.876398,-296.082377,10436.903782
1966.150550,-306.438199,-962.267725,10881.027347
1966.150867,-919.314598,-962.267725,10658.965565
1966.151184,-766.095498,-888.247130,11399.171507
1966.151501,-1225.752797,-1406.391290,11399.171507
1966.151819,-689.485948,-1332.370696,11251.130318
1966.152136,-306.438199,-592.164754,10955.047942
1966.152453,229.828649,222.061783,11029.068536
1966.152770,1225.752797,296.082377,10584.944971
1966.153087,1991.848295,740.205942,10436.903782
1966.153405,2834.553343,1332.370696,9474.636058
1966.153722,2834.553343,1850.514855,8734.430116
1966.154039,2528.115143,1184.329507,8290.306550
1966.154356,2451.505594,740.205942,8364.327145
1966.154673,2298.286494,296.082377,7920.203579
1966.154990,1455.581446,-74.020594,8438.347739
1966.155308,612.876398,-518.144159,9178.553681
1966.155625,0.000000,-1480.411884,9474.636058
1966.155942,-153.219100,-1776.494261,9622.677246
1966.156259,-1378.971896,-1628.453072,9844.739029
1966.156576,-1608.800546,-1850.514855,10214.842000
1966.156894,-1838.629195,-1924.535449,10214.842000
1966.157211,-995.924147,-1332.370696,10510.924376
1966.157528,-306.438199,-888.247130,9992.780217
1966.157845,536.266849,-444.123565,9844.739029
1966.158162,1762.019645,-222.061783,9400.615463
1966.158480,2987.772442,-0.000000,8438.347739
1966.158797,3753.867940,666.185348,8364.327145
1966.159114,3677.258390,1036.288319,7624.121203
1966.159431,3140.991542,592.164754,7772.162391
1966.159748,2987.772442,592.164754,7772.162391
1966.160066,3140.991542,296.082377,7476.080014
1966.160383,2528.115143,148.041188,7328.038826
1966.160700,2221.676944,-370.102971,8142.265362
1966.161017,1915.238745,-888.247130,7920.203579
1966.161334,1225.752797,-1332.370696,7772.162391
1966.161652,229.828649,-1480.411884,8438.347739
1966.161969,0.000000,-1924.535449,8956.491898
1966.162286,0.000000,-1628.453072,9252.574275
1966.162603,-459.657299,-1184.329507,9326.594869
1966.162920,-459.657299,-740.205942,9474.636058
1966.163238,-153.219100,148.041188,9770.718434
1966.163555,306.438199,814.226536,9622.677246
1966.163872,842.705048,962.267725,8734.430116
1966.164189,842.705048,1258.350101,8290.306550
1966.164506,919.314598,518.144159,8734.430116
1966.164824,612.876398,-0.000000,8808.450710
1966.165141,1225.752797,-148.041188,9104.533087
1966.165458,1149.143247,444.123565,8660.409521
1966.165775,612.876398,296.082377,8882.471304
1966.166092,306.438199,-0.000000,9474.636058
1966.166410,612.876398,-148.041188,9770.718434
1966.166727,306.438199,-222.061783,9622.677246
1966.167044,0.000000,-222.061783,9844.739029
1966.167361,-536.266849,-0.000000,10288.862594
1966.167678,-153.219100,-0.000000,10066.800811
1966.167996,229.828649,370.102971,9474.636058
1966.168313,76.609550,-74.020594,9548.656652
1966.168630,306.438199,370.102971,10510.924376
1966.168947,306.438199,-148.041188,10140.821405
1966.169264,995.924147,666.185348,9992.780217
1966.169582,919.314598,962.267725,9918.759623
1966.169899,383.047749,1110.308913,9992.780217
1966.170216,383.047749,962.267725,9770.718434
1966.170533,766.095498,962.267725,9992.780217
1966.170850,766.095498,1480.411884,9474.636058
1966.171168,766.095498,1554.432478,9696.697840
1966.171485,1225.752797,1480.411884,9918.759623
1966.171802,1915.238745,1258.350101,9992.780217
1966.172119,1762.019645,740.205942,9918.759623
1966.172436,1302.362347,148.041188,10288.862594
1966.172753,1072.533697,592.164754,10140.821405
1966.173071,1149.143247,740.205942,10066.800811
1966.173388,1378.971896,888.247130,10214.842000
1966.173705,1302.362347,888.247130,10140.821405
1966.174022,1685.410096,888.247130,10288.862594
1966.174339,1762.019645,814.226536,9770.718434
1966.174657,2374.896044,962.267725,9474.636058
1966.174974,2221.676944,888.247130,9030.512492
1966.175291,1762.019645,1332.370696,9252.574275
1966.175608,919.314598,814.226536,8734.430116
1966.175925,1072.533697,888.247130,9178.553681
1966.176243,612.876398,518.144159,8808.450710
1966.176560,0.000000,-74.020594,9474.636058
1966.176877,0.000000,-666.185348,10288.862594
1966.177194,-153.219100,-1036.288319,10288.862594
1966.177511,0.000000,-1554.432478,10436.903782
1966.177829,-612.876398,-1258.350101,10584.944971
1966.178146,76.609550,-740.205942,10584.944971
1966.178463,536.266849,-370.102971,10066.800811
1966.178780,1225.752797,-0.000000,9474.636058
1966.179097,1455.581446,-148.041188,9992.780217
1966.179415,1991.848295,148.041188,9770.718434
1966.179732,2834.553343,222.061783,9326.594869
1966.180049,2834.553343,888.247130,8512.368333
1966.180366,2604.724693,1184.329507,7772.162391
1966.180683,2145.067394,1036.288319,7772.162391
1966.181001,1608.800546,518.144159,7772.162391
1966.181318,1455.581446,666.185348,6587.832884
1966.181635,612.876398,370.102971,7402.059420
1966.181952,-536.266849,296.082377,8068.244768
1966.182269,-766.095498,-370.102971,8734.430116
1966.182587,-842.705048,-962.267725,9252.574275
1966.182904,-1532.190996,-740.205942,9326.594869
1966.183221,-2145.067394,-814.226536,10066.800811
1966.183538,-2145.067394,-592.164754,10288.862594
1966.183855,-1532.190996,-222.061783,9844.739029
1966.184173,-689.485948,74.020594,9918.759623
1966.184490,-153.219100,518.144159,9844.739029
1966.184807,612.876398,666.185348,9104.533087
1966.185124,1838.629195,1258.350101,8660.409521
1966.185441,2834.553343,1924.535449,7994.224174
1966.185759,3217.601092,1628.453072,7105.977043
1966.186076,2451.505594,2146.597232,7031.956449
1966.186393,2451.505594,1702.473667,7031.956449
1966.186710,1991.848295,1480.411884,6587.832884
1966.187027,1225.752797,592.164754,7624.121203
1966.187345,153.219100,-518.144159,8364.327145
1966.187662,-919.314598,-888.247130,9474.636058
1966.187979,-1838.629195,-1110.308913,10140.821405
1966.188296,-2298.286494,-1406.391290,11029.068536
1966.188613,-3370.820191,-1184.329507,11547.212695
1966.188931,-2834.553343,-1036.288319,12065.356855
1966.189248,-2451.505594,-222.061783,11621.233289
1966.189565,-1378.971896,296.082377,11251.130318
1966.189882,-383.047749,962.267725,11473.192101
1966.190199,383.047749,1332.370696,11103.089130
1966.190517,1608.800546,1554.432478,10140.821405
1966.190834,2528.115143,1850.514855,9622.677246
1966.191151,3370.820191,2220.617826,9844.739029
1966.191468,3600.648841,2220.617826,9326.594869
1966.191785,3370.820191,2738.761985,8586.388927
1966.192102,3217.601092,2368.659014,8808.450710
1966.192420,2604.724693,1554.432478,9030.512492
1966.192737,1838.629195,1258.350101,9474.636058
1966.193054,842.705048,370.102971,9992.780217
1966.193371,383.047749,444.123565,10066.800811
1966.193688,-612.876398,222.061783,10436.903782
1966.194006,-1455.581446,-148.041188,10955.047942
1966.194323,-1685.410096,-296.082377,11473.192101
1966.194640,-1455.581446,-0.000000,11547.212695
1966.194957,-1225.752797,222.061783,10955.047942
1966.195274,-612.876398,740.205942,10955.047942
1966.195592,153.219100,1406.391290,10584.944971
1966.195909,1302.362347,1776.494261,9622.677246
1966.196226,1991.848295,2072.576638,9104.533087
1966.196543,1915.238745,1924.535449,8512.368333
1966.196860,1991.848295,1924.535449,8216.285956
1966.197178,1991.848295,1924.535449,8068.244768
1966.197495,1838.629195,962.267725,8142.265362
1966.197812,1378.971896,740.205942,8512.368333
1966.198129,459.657299,296.082377,9400.615463
1966.198446,0.000000,-0.000000,9252.574275
1966.198764,-306.438199,-74.020594,9104.533087
1966.199081,-995.924147,-222.061783,9474.636058
1966.199398,-1072.533697,-814.226536,9844.739029
1966.199715,-1608.800546,-814.226536,9548.656652
1966.200032,-1532.190996,-740.205942,9992.780217
1966.200350,-842.705048,-666.185348,9844.739029
1966.200667,-459.657299,-444.123565,10140.821405
1966.200984,459.657299,-0.000000,9474.636058
1966.201301,995.924147,222.061783,8734.430116
1966.201618,1608.800546,-0.000000,8734.430116
1966.201936,1762.019645,-0.000000,8586.388927
1966.202253,1685.410096,962.267725,7772.162391
1966.202570,2221.676944,1184.329507,7624.121203
1966.202887,2374.896044,1702.473667,7179.997637
1966.203204,1915.238745,814.226536,7698.141797
1966.203522,1915.238745,-0.000000,8068.244768
1966.203839,1455.581446,-0.000000,8512.368333
1966.204156,1532.190996,-444.123565,8734.430116
1966.204473,919.314598,-814.226536,8808.450710
1966.204790,459.657299,-1110.308913,9326.594869
1966.205108,612.876398,-1184.329507,9696.697840
1966.205425,612.876398,-814.226536,9474.636058
1966.205742,612.876398,-592.164754,9474.636058
1966.206059,612.876398,-0.000000,9992.780217
1966.206376,1072.533697,592.164754,9474.636058
1966.206694,1532.190996,1110.308913,8586.388927
1966.207011,919.314598,296.082377,8438.347739
1966.207328,919.314598,296.082377,9178.553681
1966.207645,612.876398,148.041188,8734.430116
1966.207962,536.266849,148.041188,8142.265362
1966.208280,229.828649,-148.041188,8660.409521
1966.208597,0.000000,-592.164754,9326.594869
1966.208914,-612.876398,-222.061783,9474.636058
1966.209231,-153.219100,-74.020594,9844.739029
1966.209548,0.000000,-296.082377,9622.677246
1966.209865,-536.266849,-592.164754,10066.800811
1966.210183,-995.924147,-0.000000,10288.862594
1966.210500,-612.876398,-0.000000,10955.047942
1966.210817,306.438199,-370.102971,10881.027347
1966.211134,612.876398,296.082377,10955.047942
1966.211451,1072.533697,1036.288319,11251.130318
1966.211769,2145.067394,1702.473667,10436.903782
1966.212086,3064.381992,2220.617826,9696.697840
1966.212403,2834.553343,2146.597232,9400.615463
1966.212720,2528.115143,1998.556043,9104.533087
1966.213037,2298.286494,962.267725,8660.409521
1966.213355,1762.019645,740.205942,9104.533087
1966.213672,1149.143247,148.041188,9474.636058
1966.213989,612.876398,-0.000000,9548.656652
1966.214306,0.000000,-740.205942,10140.821405
1966.214623,0.000000,-740.205942,10214.842000
1966.214941,-612.876398,-1110.308913,10584.944971
1966.215258,-995.924147,-1184.329507,10510.924376
1966.215575,-766.095498,-1332.370696,11547.212695
1966.215892,-536.266849,-740.205942,11103.089130
1966.216209,0.000000,-740.205942,11251.130318
1966.216527,306.438199,296.082377,10881.027347
1966.216844,1149.143247,592.164754,10807.006753
1966.217161,2451.505594,1036.288319,9992.780217
1966.217478,2757.943793,1850.514855,9252.574275
1966.217795,2834.553343,1702.473667,8660.409521
1966.218113,2451.505594,1258.350101,8660.409521
1966.218430,2374.896044,740.205942,8216.285956
1966.218747,2298.286494,-0.000000,8142.265362
1966.219064,1302.362347,222.061783,7624.121203
1966.219381,383.047749,-74.020594,8290.306550
1966.219699,0.000000,-74.020594,8660.409521
1966.220016,-536.266849,-740.205942,8660.409521
1966.220333,-995.924147,-1406.391290,9696.697840
1966.220650,-2145.067394,-1480.411884,9918.759623
1966.220967,-2528.115143,-1332.370696,9844.739029
1966.221285,-2068.457845,-1258.350101,9844.739029
1966.221602,-1455.581446,-444.123565,9992.780217
1966.221919,-842.705048,-148.041188,9918.759623
1966.222236,0.000000,592.164754,9252.574275
1966.222553,1149.143247,1332.370696,8290.306550
1966.222871,2221.676944,1776.494261,8364.327145
1966.223188,2681.334243,1702.473667,8068.244768
1966.223505,2451.505594,1702.473667,7550.100608
1966.223822,2451.505594,1628.453072,7550.100608
1966.224139,2374.896044,1628.453072,7254.018232
1966.224457,1838.629195,962.267725,7328.038826
1966.224774,1149.143247,-0.000000,8068.244768
1966.225091,689.485948,-0.000000,8216.285956
1966.225408,306.438199,-518.144159,8290.306550
1966.225725,-689.485948,-1110.308913,8734.430116
1966.226043,-995.924147,-1850.514855,9696.697840
1966.226360,-1608.800546,-1924.535449,10140.821405
1966.226677,-1378.971896,-1850.514855,10362.883188
1966.226994,-1072.533697,-1480.411884,10510.924376
1966.227311,-536.266849,-1110.308913,11029.068536
1966.227628,383.047749,-518.144159,10955.047942
1966.227946,1455.581446,148.041188,10288.862594
1966.228263,2528.115143,592.164754,9548.656652
1966.228580,2987.772442,888.247130,9474.636058
1966.228897,2987.772442,1258.350101,8882.471304
1966.229214,4060.306139,1110.308913,8438.347739
1966.229532,3907.087040,1184.329507,8882.471304
1966.229849,3600.648841,962.267725,8438.347739
1966.230166,2987.772442,148.041188,9400.615463
1966.230483,2528.115143,-518.144159,9622.677246
1966.230800,2068.457845,-888.247130,9622.677246
1966.231118,919.314598,-1332.370696,10214.842000
1966.231435,306.438199,-1702.473667,10732.986159
1966.231752,-153.219100,-2072.576638,11103.089130
1966.232069,-459.657299,-1776.494261,10955.047942
1966.232386,0.000000,-1258.350101,11177.109724
1966.232704,-153.219100,-962.267725,11399.171507
1966.233021,536.266849,222.061783,10510.924376
1966.233338,1532.190996,1184.329507,9252.574275
1966.233655,1915.238745,1776.494261,9104.533087
1966.233972,2145.067394,1480.411884,9104.533087
1966.234290,2145.067394,1406.391290,8586.388927
1966.234607,1838.629195,1332.370696,8216.285956
1966.234924,1762.019645,1184.329507,8438.347739
1966.235241,1685.410096,1184.329507,8734.430116
1966.235558,1302.362347,666.185348,8956.491898
1966.235876,995.924147,518.144159,9696.697840
1966.236193,536.266849,518.144159,9178.553681
1966.236510,0.000000,-0.000000,9474.636058
1966.236827,0.000000,-148.041188,9918.759623
1966.237145,-766.095498,-370.102971,10214.842000
1966.237462,-536.266849,-0.000000,10140.821405
1966.237779,-383.047749,-0.000000,9918.759623
1966.238096,-153.219100,296.082377,10140.821405
1966.238414,919.314598,444.123565,10214.842000
1966.238731,1149.143247,814.226536,9030.512492
1966.239048,1685.410096,1184.329507,8512.368333
1966.239366,1762.019645,1110.308913,8734.430116
1966.239683,1838.629195,1110.308913,8438.347739
1966.240000,1302.362347,518.144159,7772.162391
1966.240317,1762.019645,222.061783,8142.265362
1966.240635,1225.752797,-592.164754,9030.512492
1966.240952,689.485948,-666.185348,9252.574275
1966.241269,612.876398,-666.185348,9326.594869
1966.241587,1378.971896,-814.226536,9326.594869
1966.241904,76.609550,-962.267725,10510.924376
1966.242221,153.219100,-962.267725,10807.006753
1966.242539,383.047749,-814.226536,9992.780217
1966.242856,842.705048,-222.061783,9992.780217
1966.243173,1225.752797,-370.102971,9548.656652
1966.243490,1762.019645,370.102971,9992.780217
1966.243808,2528.115143,148.041188,9474.636058
1966.244125,2451.505594,888.247130,8660.409521
1966.244442,1991.848295,666.185348,8586.388927
1966.244760,2374.896044,666.185348,8586.388927
1966.245077,2298.286494,592.164754,7994.224174
1966.245394,1378.971896,444.123565,7772.162391
1966.245711,842.705048,222.061783,8364.327145
1966.246029,-153.219100,-444.123565,8734.430116
1966.246346,0.000000,-518.144159,9030.512492
1966.246663,0.000000,-1184.329507,9252.574275
1966.246981,-766.095498,-1036.288319,9252.574275
1966.247298,-1225.752797,-962.267725,9474.636058
1966.247615,-1685.410096,-1184.329507,10214.842000
1966.247932,-919.314598,-962.267725,10066.800811
1966.248250,0.000000,-222.061783,10362.883188
1966.248567,0.000000,222.061783,10288.862594
1966.248884,766.095498,1036.288319,10362.883188
1966.249202,1915.238745,814.226536,9918.759623
1966.249519,2681.334243,2146.597232,8660.409521
1966.249836,2604.724693,1924.535449,8216.285956
1966.250153,2374.896044,1480.411884,8586.388927
1966.250471,1685.410096,1110.308913,8216.285956
1966.250788,1302.362347,444.123565,8438.347739
1966.251105,842.705048,-0.000000,8956.491898
1966.251423,229.828649,-296.082377,9104.533087
1966.251740,-229.828649,-444.123565,9178.553681
1966.252057,-459.657299,-370.102971,9474.636058
1966.252375,-919.314598,-1332.370696,10066.800811
1966.252692,-1378.971896,-888.247130,10584.944971
1966.253009,-842.705048,-592.164754,10881.027347
1966.253326,-766.095498,-0.000000,10214.842000
1966.253644,-153.219100,444.123565,10362.883188
1966.253961,612.876398,1258.350101,10436.903782
1966.254278,1762.019645,1110.308913,10807.006753
1966.254596,2451.505594,1554.432478,10288.862594
1966.254913,3294.210641,2146.597232,9178.553681
1966.255230,2911.162892,1998.556043,9474.636058
1966.255547,3370.820191,2146.597232,8882.471304
1966.255865,3140.991542,1850.514855,8142.265362
1966.256182,2528.115143,1554.432478,8216.285956
1966.256499,1838.629195,1110.308913,8586.388927
1966.256817,1685.410096,740.205942,9030.512492
1966.257134,1072.533697,-74.020594,8808.450710
1966.257451,306.438199,-740.205942,9844.739029
1966.257768,-919.314598,-1258.350101,9992.780217
1966.258086,-1762.019645,-1554.432478,10732.986159
1966.258403,-1838.629195,-1628.453072,10955.047942
1966.258720,-1455.581446,-1332.370696,11251.130318
1966.259038,-995.924147,-666.185348,11177.109724
1966.259355,-383.047749,-0.000000,11177.109724
1966.259672,383.047749,296.082377,10584.944971
1966.259989,1532.190996,592.164754,9844.739029
1966.260307,1762.019645,1850.514855,9178.553681
1966.260624,2374.896044,1924.535449,9326.594869
1966.260941,2451.505594,1850.514855,8512.368333
1966.261259,2911.162892,1036.288319,7772.162391
1966.261576,2298.286494,1406.391290,7920.203579
1966.261893,1915.238745,518.144159,8660.409521
1966.262211,2145.067394,962.267725,8660.409521
1966.262528,1532.190996,518.144159,8586.388927
1966.262845,919.314598,518.144159,8882.471304
1966.263162,153.219100,-74.020594,9178.553681
1966.263480,-536.266849,-666.185348,9474.636058
1966.263797,-612.876398,-814.226536,9474.636058
1966.264114,-689.485948,-962.267725,9696.697840
1966.264432,-766.095498,-740.205942,10362.883188
1966.264749,-612.876398,-370.102971,10140.821405
1966.265066,0.000000,-222.061783,10362.883188
1966.265383,612.876398,666.185348,9474.636058
1966.265701,689.485948,1258.350101,8660.409521
1966.266018,842.705048,1258.350101,8216.285956
1966.266335,1302.362347,1184.329507,8586.388927
1966.266653,1838.629195,1702.473667,8142.265362
1966.266970,1685.410096,1332.370696,7920.203579
1966.267287,1225.752797,1258.350101,8216.285956
1966.267604,1072.533697,-0.000000,8660.409521
1966.267922,612.876398,-148.041188,8956.491898
1966.268239,306.438199,-518.144159,9400.615463
1966.268556,0.000000,148.041188,9918.759623
1966.268874,-229.828649,-444.123565,9918.759623
1966.269191,-536.266849,-0.000000,9400.615463
1966.269508,-153.219100,-518.144159,9622.677246
1966.269826,0.000000,-148.041188,9770.718434
1966.270143,0.000000,-296.082377,9918.759623
1966.270460,383.047749,370.102971,9326.594869
1966.270777,766.095498,518.144159,9326.594869
1966.271095,842.705048,1332.370696,9326.594869
1966.271412,842.705048,1036.288319,8882.471304
1966.271729,766.095498,666.185348,8956.491898
1966.272047,766.095498,1110.308913,8734.430116
1966.272364,842.705048,888.247130,8512.368333
1966.272681,689.485948,370.102971,9474.636058
1966.272998,842.705048,-222.061783,10140.821405
1966.273316,0.000000,-74.020594,9548.656652
1966.273633,-229.828649,-148.041188,9918.759623
1966.273950,0.000000,-296.082377,10955.047942
1966.274268,-229.828649,-148.041188,10732.986159
1966.274585,76.609550,-74.020594,10510.924376
1966.274902,229.828649,-0.000000,10807.006753
1966.275219,612.876398,-148.041188,10807.006753
1966.275537,1455.581446,222.061783,10436.903782
1966.275854,2298.286494,740.205942,9622.677246
1966.276171,2757.943793,1332.370696,8882.471304
1966.276489,2451.505594,962.267725,8956.491898
1966.276806,2298.286494,1110.308913,8068.244768
1966.277123,1455.581446,444.123565,8808.450710
1966.277440,995.924147,740.205942,8882.471304
1966.277758,536.266849,666.185348,9178.553681
1966.278075,-689.485948,444.123565,9400.615463
1966.278392,-766.095498,-0.000000,9474.636058
1966.278710,-612.876398,-518.144159,10214.842000
1966.279027,-1225.752797,-592.164754,10436.903782
1966.279344,-1072.533697,-962.267725,10955.047942
1966.279662,-1302.362347,-740.205942,10140.821405
1966.279979,-612.876398,-148.041188,10584.944971
1966.280296,-229.828649,518.144159,10288.862594
1966.280613,306.438199,740.205942,10436.903782
1966.280931,919.314598,1258.350101,9918.759623
1966.281248,2068.457845,2368.659014,8512.368333
1966.281565,2834.553343,2368.659014,8068.244768
1966.281883,2681.334243,1998.556043,7994.224174
1966.282200,2221.676944,1110.308913,8216.285956
1966.282517,1685.410096,1110.308913,7994.224174
1966.282834,919.314598,222.061783,7920.203579
1966.283152,76.609550,296.082377,8364.327145
1966.283469,-229.828649,-74.020594,9474.636058
1966.283786,-612.876398,-0.000000,9400.615463
1966.284104,-919.314598,-296.082377,9104.533087
1966.284421,-1455.581446,-1184.329507,9844.739029
1966.284738,-1532.190996,-1776.494261,11251.130318
1966.285055,-1072.533697,-1850.514855,11029.068536
1966.285373,-306.438199,-1110.308913,10362.883188
1966.285690,153.219100,-370.102971,10066.800811
1966.286007,766.095498,592.164754,10140.821405
1966.286325,2221.676944,592.164754,10066.800811
1966.286642,3140.991542,1110.308913,9400.615463
1966.286959,3370.820191,1110.308913,8290.306550
1966.287276,3140.991542,1702.473667,8586.388927
1966.287594,2757.943793,1332.370696,8068.244768
1966.287911,2451.505594,962.267725,7846.182985
1966.288228,2068.457845,888.247130,8142.265362
1966.288546,995.924147,592.164754,8734.430116
1966.288863,612.876398,296.082377,8882.471304
1966.289180,229.828649,-370.102971,9696.697840
1966.289498,-459.657299,-814.226536,9844.739029
1966.289815,-919.314598,-1110.308913,10436.903782
1966.290132,-1532.190996,-1184.329507,11029.068536
1966.290449,-919.314598,-740.205942,10436.903782
1966.290767,-689.485948,-148.041188,9992.780217
1966.291084,0.000000,296.082377,10214.842000
1966.291401,842.705048,740.205942,10658.965565
1966.291719,1685.410096,814.226536,9474.636058
1966.292036,2374.896044,962.267725,9178.553681
1966.292353,2604.724693,888.247130,8734.430116
1966.292670,2298.286494,962.267725,9030.512492
1966.292988,2221.676944,444.123565,8956.491898
1966.293305,2068.457845,740.205942,8290.306550
1966.293622,1532.190996,666.185348,7920.203579
1966.293940,1149.143247,296.082377,8586.388927
1966.294257,612.876398,-444.123565,9474.636058
1966.294574,153.219100,-1036.288319,9326.594869
1966.294891,-153.219100,-1184.329507,9770.718434
1966.295209,-1225.752797,-1406.391290,10436.903782
1966.295526,-995.924147,-1258.350101,10584.944971
1966.295843,-1072.533697,-1184.329507,10658.965565
1966.296161,-689.485948,-296.082377,10510.924376
1966.296478,-153.219100,222.061783,10140.821405
1966.296795,229.828649,370.102971,10214.842000
1966.297112,766.095498,296.082377,10288.862594
1966.297430,1685.410096,814.226536,9770.718434
1966.297747,1532.190996,1110.308913,9178.553681
1966.298064,1532.190996,888.247130,9104.533087
1966.298382,1762.019645,814.226536,8808.450710
1966.298699,1762.019645,962.267725,8290.306550
1966.299016,1302.362347,518.144159,7846.182985
1966.299334,1455.581446,740.205942,8512.368333
1966.299651,995.924147,370.102971,8512.368333
1966.299968,1072.533697,296.082377,8808.450710
1966.300285,612.876398,-0.000000,9326.594869
1966.300603,0.000000,-0.000000,9844.739029
1966.300920,0.000000,-222.061783,9918.759623
1966.301237,-612.876398,-74.020594,9918.759623
1966.301555,76.609550,296.082377,10288.862594
1966.301872,76.609550,962.267725,9696.697840
1966.302189,536.266849,370.102971,10066.800811
1966.302506,919.314598,1110.308913,9326.594869
1966.302824,1149.143247,1702.473667,8586.388927
1966.303141,1302.362347,1480.411884,8068.244768
1966.303458,1378.971896,296.082377,8438.347739
1966.303776,612.876398,518.144159,8290.306550
1966.304093,153.219100,296.082377,8512.368333
1966.304410,-229.828649,148.041188,8438.347739
1966.304727,-536.266849,-888.247130,9252.574275
1966.305045,-536.266849,-1036.288319,9918.759623
1966.305362,-383.047749,-740.205942,9770.718434
1966.305679,-76.609550,-444.123565,9992.780217
1966.305997,-612.876398,-888.247130,10436.903782
1966.306314,0.000000,-740.205942,10732.986159
1966.306631,0.000000,-0.000000,10140.821405
1966.306948,612.876398,592.164754,10214.842000
1966.307266,1302.362347,962.267725,10214.842000
1966.307583,1838.629195,888.247130,10214.842000
1966.307900,2451.505594,1258.350101,9844.739029
1966.308218,3064.381992,888.247130,9178.553681
1966.308535,2451.505594,740.205942,9178.553681
1966.308852,2987.772442,444.123565,9104.533087
1966.309170,2221.676944,222.061783,8808.450710
1966.309487,1762.019645,222.061783,8142.265362
1966.309804,1378.971896,-222.061783,8512.368333
1966.310121,766.095498,-444.123565,9474.636058
1966.310439,689.485948,-740.205942,9696.697840
1966.310756,459.657299,-814.226536,9548.656652
1966.311073,0.000000,-1480.411884,10658.965565
1966.311391,0.000000,-1776.494261,11473.192101
1966.311708,229.828649,-2146.597232,11547.212695
1966.312025,842.705048,-740.205942,10881.027347
1966.312342,1378.971896,-296.082377,10658.965565
1966.312660,2145.067394,444.123565,9992.780217
1966.312977,2834.553343,592.164754,9548.656652
1966.313294,3524.039291,1554.432478,8956.491898
1966.313612,3830.477490,1554.432478,8068.244768
1966.313929,3294.210641,1332.370696,7920.203579
1966.314246,2834.553343,888.247130,7994.224174
1966.314563,1915.238745,296.082377,7994.224174
1966.314881,1532.190996,-0.000000,7550.100608
1966.315198,229.828649,-518.144159,8808.450710
1966.315515,-459.657299,-1258.350101,9474.636058
1966.315833,-995.924147,-1184.329507,9104.533087
1966.316150,-1302.362347,-1036.288319,9770.718434
1966.316467,-1455.581446,-1406.391290,10214.842000
1966.316784,-1532.190996,-1332.370696,10288.862594
1966.317102,-1762.019645,-888.247130,9696.697840
1966.317419,-612.876398,-296.082377,10510.924376
1966.317736,76.609550,222.061783,9622.677246
1966.318054,766.095498,518.144159,9696.697840
1966.318371,2145.067394,444.123565,9548.656652
1966.318688,3294.210641,1850.514855,9104.533087
1966.319006,3447.429741,1628.453072,7772.162391
1966.319323,3830.477490,1332.370696,7698.141797
1966.319640,3447.429741,740.205942,7772.162391
1966.319957,3370.820191,740.205942,7254.018232
1966.320275,2298.286494,444.123565,7105.977043
1966.320592,1225.752797,-444.123565,8216.285956
1966.320909,766.095498,-814.226536,8882.471304
1966.321227,-383.047749,-1184.329507,9474.636058
1966.321544,-1072.533697,-1258.350101,9696.697840
1966.321861,-1608.800546,-1628.453072,10881.027347
1966.322178,-1762.019645,-2072.576638,11325.150913
1966.322496,-1532.190996,-1924.535449,10955.047942
1966.322813,-995.924147,-888.247130,10362.883188
1966.323130,-459.657299,-370.102971,10955.047942
1966.323448,842.705048,444.123565,10362.883188
1966.323765,1608.800546,518.144159,9770.718434
1966.324082,2604.724693,1702.473667,9030.512492
1966.324399,3370.820191,2072.576638,8364.327145
1966.324717,3447.429741,1554.432478,8438.347739
1966.325034,2681.334243,1850.514855,7994.224174
1966.325351,2374.896044,1702.473667,7772.162391
1966.325669,1685.410096,1406.391290,8068.244768
1966.325986,1149.143247,740.205942,8808.450710
1966.326303,842.705048,222.061783,9030.512492
1966.326621,229.828649,-148.041188,9696.697840
1966.326938,0.000000,-370.102971,10436.903782
1966.327255,-842.705048,-1258.350101,10955.047942
1966.327572,-1302.362347,-1406.391290,11103.089130
1966.327890,-1608.800546,-814.226536,11103.089130
1966.328207,-1378.971896,-0.000000,10881.027347
1966.328524,-1149.143247,592.164754,10584.944971
1966.328842,-306.438199,1036.288319,10658.965565
1966.329159,766.095498,1702.473667,10066.800811
1966.329476,1685.410096,1924.535449,9178.553681
1966.329793,1991.848295,1702.473667,8512.368333
1966.330111,1991.848295,1258.350101,8734.430116
1966.330428,1915.238745,1184.329507,8882.471304
1966.330745,1608.800546,1480.411884,7846.182985
1966.331063,995.924147,1702.473667,7772.162391
1966.331380,919.314598,1184.329507,8882.471304
1966.331697,689.485948,1036.288319,9400.615463
1966.332014,306.438199,962.267725,9474.636058
1966.332332,-229.828649,296.082377,10066.800811
1966.332649,-995.924147,-74.020594,10584.944971
1966.332966,-842.705048,-370.102971,10584.944971
1966.333284,-536.266849,-0.000000,10362.883188
1966.333601,-153.219100,222.061783,10436.903782
1966.333918,153.219100,444.123565,10214.842000
1966.334235,1072.533697,888.247130,9992.780217
1966.334553,1838.629195,1776.494261,9326.594869
1966.334870,2145.067394,1924.535449,8586.388927
1966.335187,2451.505594,1628.453072,8882.471304
1966.335505,2145.067394,1184.329507,8290.306550
1966.335822,1991.848295,740.205942,8808.450710
1966.336139,1762.019645,888.247130,8290.306550
1966.336457,1302.362347,666.185348,8364.327145
1966.336774,1455.581446,-0.000000,9104.533087
1966.337091,842.705048,-74.020594,9030.512492
1966.337408,612.876398,-518.144159,9474.636058
1966.337726,229.828649,-1110.308913,10066.800811
1966.338043,-229.828649,-1036.288319,10436.903782
1966.338360,-459.657299,-592.164754,10658.965565
1966.338678,-229.828649,-74.020594,10362.883188
1966.338995,0.000000,-74.020594,10362.883188
1966.339313,306.438199,-296.082377,10955.047942
1966.339630,919.314598,-0.000000,10436.903782
1966.339948,1608.800546,222.061783,9918.759623
1966.340265,1838.629195,1184.329507,9400.615463
1966.340582,1915.238745,1184.329507,8734.430116
1966.340900,1991.848295,1110.308913,8290.306550
1966.341217,2068.457845,814.226536,8216.285956
1966.341535,1608.800546,1036.288319,7476.080014
1966.341852,1302.362347,296.082377,8068.244768
1966.342169,842.705048,-0.000000,8882.471304
1966.342487,612.876398,-370.102971,9178.553681
1966.342804,-153.219100,-370.102971,8956.491898
1966.343122,-76.609550,-222.061783,9474.636058
1966.343439,-919.314598,-518.144159,9918.759623
1966.343757,-459.657299,-518.144159,10066.800811
1966.344074,153.219100,-0.000000,10140.821405
1966.344391,689.485948,592.164754,9770.718434
1966.344709,612.876398,296.082377,10288.862594
1966.345026,1225.752797,740.205942,9844.739029
1966.345344,1838.629195,1406.391290,9104.533087
1966.345661,2374.896044,2072.576638,8586.388927
1966.345979,1991.848295,1628.453072,8438.347739
1966.346296,1838.629195,1628.453072,7920.203579
1966.346613,2221.676944,592.164754,8142.265362
1966.346931,1302.362347,-0.000000,7994.224174
1966.347248,1072.533697,-444.123565,8808.450710
1966.347566,76.609550,-1406.391290,9548.656652
1966.347883,-306.438199,-1480.411884,9622.677246
1966.348201,-229.828649,-1776.494261,9622.677246
1966.348518,-919.314598,-2072.576638,10584.944971
1966.348835,-1072.533697,-2368.659014,10881.027347
1966.349153,-1072.533697,-1480.411884,10658.965565
1966.349470,0.000000,-296.082377,9992.780217
1966.349788,0.000000,444.123565,10140.821405
1966.350105,536.266849,1184.329507,9992.780217
1966.350423,919.314598,1184.329507,9918.759623
1966.350740,1838.629195,1406.391290,9400.615463
1966.351057,2528.115143,1480.411884,9178.553681
1966.351375,2221.676944,1332.370696,9474.636058
1966.351692,2145.067394,814.226536,9326.594869
1966.352010,2221.676944,740.205942,9030.512492
1966.352327,1608.800546,888.247130,8216.285956
1966.352645,766.095498,148.041188,9252.574275
1966.352962,153.219100,222.061783,9474.636058
1966.353279,0.000000,222.061783,9178.553681
1966.353597,-995.924147,-74.020594,9622.677246
1966.353914,-2911.162892,-666.185348,9252.574275
1966.354232,-3983.696590,-962.267725,10436.903782
1966.354549,-2298.286494,-3330.926739,12731.542202
1966.354866,-3830.477490,-518.144159,9474.636058
1966.355184,-3140.991542,-1776.494261,10362.883188
1966.355501,-2987.772442,222.061783,10732.986159
1966.355819,-306.438199,-1332.370696,13397.727550
1966.356136,76.609550,-0.000000,9178.553681
1966.356454,-1532.190996,740.205942,7105.977043
1966.356771,2681.334243,1924.535449,11251.130318
1966.357088,1378.971896,518.144159,8882.471304
1966.357406,2298.286494,2368.659014,6661.853478
1966.357723,2374.896044,1110.308913,7846.182985
1966.358041,2298.286494,1184.329507,9326.594869
1966.358358,2834.553343,1702.473667,7698.141797
1966.358676,2528.115143,-222.061783,7994.224174
1966.358993,2451.505594,1110.308913,8438.347739
1966.359310,2604.724693,592.164754,9178.553681
1966.359628,1149.143247,740.205942,8586.388927
1966.359945,2451.505594,-2072.576638,11251.130318
1966.360263,1838.629195,-148.041188,9252.574275
1966.360580,1838.629195,1554.432478,8216.285956
1966.360898,2145.067394,888.247130,10955.047942
1966.361215,2911.162892,592.164754,9696.697840
1966.361532,3294.210641,2368.659014,6809.894666
1966.361850,2757.943793,2442.679609,8290.306550
1966.362167,3370.820191,2146.597232,9548.656652
1966.362485,3830.477490,1258.350101,7031.956449
1966.362802,2911.162892,2220.617826,5921.647536
1966.363120,1762.019645,1554.432478,9326.594869
1966.363437,1225.752797,444.123565,9474.636058
1966.363754,306.438199,-0.000000,7476.080014
1966.364072,153.219100,-0.000000,8512.368333
1966.364389,-995.924147,370.102971,10140.821405
1966.364707,-1991.848295,-222.061783,10288.862594
1966.365024,-2374.896044,-444.123565,10140.821405
1966.365342,-2911.162892,-814.226536,10510.924376
1966.365659,-3064.381992,-444.123565,10732.986159
1966.365976,-2528.115143,-222.061783,11399.171507
1966.366294,-2068.457845,-1184.329507,11621.233289
1966.366611,-995.924147,-888.247130,10881.027347
1966.366929,-689.485948,222.061783,9918.759623
1966.367246,0.000000,1110.308913,9992.780217
1966.367564,459.657299,-222.061783,9696.697840
1966.367881,1149.143247,-296.082377,8734.430116
1966.368198,689.485948,666.185348,8734.430116
1966.368516,0.000000,370.102971,9474.636058
1966.368833,766.095498,-1258.350101,9548.656652
1966.369151,766.095498,-666.185348,9770.718434
1966.369468,536.266849,222.061783,10436.903782
1966.369785,0.000000,-518.144159,11103.089130
1966.370103,153.219100,-518.144159,11251.130318
1966.370420,459.657299,444.123565,10584.944971
1966.370738,842.705048,888.247130,10140.821405
1966.371055,1302.362347,962.267725,10732.986159
1966.371373,1378.971896,222.061783,11029.068536
1966.371690,1915.238745,296.082377,10436.903782
1966.372007,2604.724693,1036.288319,9474.636058
1966.372325,2757.943793,1702.473667,9474.636058
1966.372642,3064.381992,888.247130,9252.574275
1966.372960,3217.601092,-0.000000,8956.491898
1966.373277,2757.943793,444.123565,8438.347739
1966.373595,2604.724693,1036.288319,7994.224174
1966.373912,2604.724693,592.164754,8290.306550
1966.374229,2451.505594,-444.123565,8142.265362
1966.374547,1302.362347,-148.041188,7550.100608
1966.374864,766.095498,666.185348,7772.162391
1966.375182,0.000000,370.102971,7920.203579
1966.375499,0.000000,-666.185348,9326.594869
1966.375817,0.000000,-296.082377,9474.636058
1966.376134,-766.095498,-0.000000,9548.656652
1966.376451,-459.657299,-740.205942,9770.718434
1966.376769,0.000000,-888.247130,9548.656652
1966.377086,229.828649,-814.226536,9696.697840
1966.377404,1608.800546,740.205942,9474.636058
1966.377721,995.924147,444.123565,8068.244768
1966.378039,1225.752797,740.205942,8068.244768
1966.378356,689.485948,1110.308913,8068.244768
1966.378673,995.924147,1628.453072,7624.121203
1966.378991,76.609550,740.205942,7550.100608
1966.379308,-459.657299,148.041188,8438.347739
1966.379626,-766.095498,-444.123565,9104.533087
1966.379943,-766.095498,-370.102971,9326.594869
1966.380261,-612.876398,-592.164754,9622.677246
1966.380578,-536.266849,-1258.350101,9844.739029
1966.380895,-612.876398,-1332.370696,9918.759623
1966.381213,-459.657299,-962.267725,9622.677246
1966.381530,0.000000,-666.185348,9844.739029
1966.381848,459.657299,-296.082377,9918.759623
1966.382165,766.095498,-148.041188,10066.800811
1966.382482,1225.752797,148.041188,10214.842000
1966.382800,1302.362347,1184.329507,9992.780217
1966.383117,2298.286494,962.267725,9622.677246
1966.383435,2451.505594,666.185348,9548.656652
1966.383752,1838.629195,888.247130,9474.636058
1966.384070,1378.971896,1258.350101,8586.388927
1966.384387,766.095498,888.247130,8216.285956
1966.384704,842.705048,-0.000000,8956.491898
1966.385022,153.219100,-0.000000,9474.636058
1966.385339,-153.219100,222.061783,9474.636058
1966.385657,-459.657299,-518.144159,9474.636058
1966.385974,-1455.581446,-1258.350101,10362.883188
1966.386292,-1685.410096,-1480.411884,11029.068536
1966.386609,-1532.190996,-1258.350101,10881.027347
1966.386926,-842.705048,-888.247130,10881.027347
1966.387244,0.000000,-1036.288319,11103.089130
1966.387561,612.876398,-370.102971,11029.068536
1966.387879,2451.505594,370.102971,9918.759623
1966.388196,3140.991542,962.267725,9400.615463
1966.388514,3370.820191,1258.350101,8956.491898
1966.388831,3907.087040,1702.473667,8512.368333
1966.389148,3677.258390,1924.535449,8142.265362
1966.389466,3907.087040,2220.617826,8290.306550
1966.389783,3600.648841,1332.370696,8216.285956
1966.390101,3140.991542,370.102971,9178.553681
1966.390418,2757.943793,-0.000000,9770.718434
1966.390736,2451.505594,-0.000000,8956.491898
1966.391053,2145.067394,-444.123565,9474.636058
1966.391370,2068.457845,-814.226536,10584.944971
1966.391688,995.924147,-1036.288319,10140.821405
1966.392005,919.314598,-0.000000,9696.697840
1966.392323,919.314598,-296.082377,9770.718434
1966.392640,995.924147,-296.082377,10288.862594
1966.392958,1149.143247,-148.041188,10436.903782
1966.393275,1225.752797,296.082377,9770.718434
1966.393592,1378.971896,592.164754,9326.594869
1966.393910,1685.410096,740.205942,9474.636058
1966.394227,1608.800546,1258.350101,8956.491898
1966.394545,1915.238745,1480.411884,8068.244768
1966.394862,1685.410096,1258.350101,7846.182985
1966.395180,842.705048,962.267725,7846.182985
1966.395497,919.314598,814.226536,8290.306550
1966.395814,0.000000,444.123565,8882.471304
1966.396132,-766.095498,-74.020594,9474.636058
1966.396449,-1608.800546,-296.082377,9770.718434
1966.396767,-1991.848295,-592.164754,10288.862594
1966.397084,-2528.115143,-666.185348,10658.965565
1966.397401,-2451.505594,-962.267725,10288.862594
1966.397719,-1762.019645,-444.123565,10436.903782
1966.398036,-1455.581446,-74.020594,9770.718434
1966.398354,-383.047749,148.041188,9918.759623
1966.398671,229.828649,666.185348,9252.574275
1966.398989,766.095498,814.226536,8660.409521
1966.399306,1225.752797,962.267725,8512.368333
1966.399623,1302.362347,814.226536,8438.347739
1966.399941,1838.629195,1110.308913,7994.224174
1966.400258,1532.190996,888.247130,7476.080014
1966.400576,1838.629195,518.144159,7846.182985
1966.400893,1455.581446,-222.061783,8734.430116
1966.401211,1608.800546,-518.144159,9104.533087
1966.401528,1455.581446,-592.164754,8586.388927
1966.401845,1685.410096,-666.185348,9474.636058
1966.402163,1378.971896,-1184.329507,10510.924376
1966.402480,1149.143247,-1036.288319,10510.924376
1966.402798,919.314598,-296.082377,10066.800811
1966.403115,1225.752797,148.041188,9844.739029
1966.403433,1225.752797,222.061783,10807.006753
1966.403750,1915.238745,1110.308913,10288.862594
1966.404067,2451.505594,1554.432478,9400.615463
1966.404385,2757.943793,1702.473667,9178.553681
1966.404702,2987.772442,1332.370696,9178.553681
1966.405020,2451.505594,1258.350101,8512.368333
1966.405337,2604.724693,1258.350101,7846.182985
1966.405655,1608.800546,1036.288319,7624.121203
1966.405972,536.266849,296.082377,7772.162391
1966.406289,-536.266849,-592.164754,9030.512492
1966.406607,-1072.533697,-1332.370696,9918.759623
1966.406924,-1455.581446,-1628.453072,11103.089130
1966.407242,-2604.724693,-962.267725,10732.986159
1966.407559,-2604.724693,-2590.720797,11843.295072
1966.407877,-2757.943793,-1850.514855,12435.459826
1966.408194,-2681.334243,-1628.453072,11991.336260
1966.408511,-1455.581446,-74.020594,11547.212695
1966.408829,-306.438199,370.102971,11325.150913
1966.409146,1608.800546,1480.411884,10436.903782
1966.409464,2451.505594,1332.370696,9326.594869
1966.409781,2911.162892,1480.411884,8660.409521
1966.410098,3064.381992,1258.350101,8734.430116
1966.410416,2834.553343,370.102971,8734.430116
1966.410733,2604.724693,962.267725,6957.935855
1966.411051,2987.772442,740.205942,7402.059420
1966.411368,2068.457845,1036.288319,7772.162391
1966.411686,1532.190996,-740.205942,9474.636058
1966.412003,612.876398,-888.247130,9474.636058
1966.412320,536.266849,-592.164754,9770.718434
1966.412638,-153.219100,-148.041188,10214.842000
1966.412955,-536.266849,-814.226536,11473.192101
1966.413273,-383.047749,-444.123565,10807.006753
1966.413590,229.828649,-74.020594,9918.759623
1966.413908,229.828649,888.247130,10436.903782
1966.414225,1225.752797,1036.288319,10658.965565
1966.414542,2451.505594,962.267725,9252.574275
1966.414860,3064.381992,1702.473667,7994.224174
1966.415177,2451.505594,1406.391290,8068.244768
1966.415495,1532.190996,1628.453072,7105.977043
1966.415812,3447.429741,740.205942,7920.203579
1966.416130,2298.286494,1998.556043,6587.832884
1966.416447,1838.629195,1110.308913,7698.141797
1966.416764,-459.657299,-0.000000,7105.977043
1966.417082,0.000000,-888.247130,10510.924376
1966.417399,-1532.190996,-1776.494261,10214.842000
1966.417717,-3524.039291,-1554.432478,9104.533087
1966.418034,-2451.505594,-1332.370696,11177.109724
1966.418352,-3064.381992,-1480.411884,11177.109724
1966.418669,-1762.019645,-1406.391290,10510.924376
1966.418986,-1685.410096,-296.082377,8956.491898
1966.419304,-229.828649,-0.000000,10510.924376
1966.419621,0.000000,-444.123565,10436.903782
1966.419939,1838.629195,-370.102971,8364.327145
1966.420256,2834.553343,814.226536,8660.409521
1966.420574,2987.772442,1850.514855,8512.368333
1966.420891,3294.210641,1924.535449,7772.162391
1966.421208,3524.039291,1480.411884,7846.182985
1966.421526,3830.477490,1480.411884,8660.409521
1966.421843,2068.457845,2664.741391,7476.080014
1966.422161,1915.238745,1258.350101,9918.759623
1966.422478,1762.019645,222.061783,10214.842000
1966.422795,1225.752797,370.102971,8660.409521
1966.423113,0.000000,518.144159,9696.697840
1966.423430,0.000000,-740.205942,11843.295072
1966.423748,306.438199,-1924.535449,11399.171507
1966.424065,153.219100,-888.247130,9622.677246
1966.424383,76.609550,-814.226536,11473.192101
1966.424700,306.438199,-444.123565,11029.068536
1966.425017,1455.581446,-74.020594,9696.697840
1966.425335,2145.067394,1110.308913,8142.265362
1966.425652,2068.457845,1850.514855,9104.533087
1966.425970,2221.676944,1924.535449,7920.203579
1966.426287,2298.286494,1702.473667,7846.182985
1966.426605,2221.676944,962.267725,8142.265362
1966.426922,1225.752797,1110.308913,7624.121203
1966.427239,536.266849,1480.411884,7994.224174
1966.427557,306.438199,592.164754,9178.553681
1966.427874,0.000000,-0.000000,9400.615463
1966.428192,-689.485948,740.205942,9252.574275
1966.428509,-1378.971896,592.164754,10436.903782
1966.428827,-1685.410096,-1258.350101,11695.253884
1966.429144,-1455.581446,-1036.288319,11251.130318
1966.429461,-1072.533697,740.205942,10510.924376
1966.429779,-1378.971896,962.267725,10362.883188
1966.430096,-766.095498,-0.000000,10584.944971
1966.430414,153.219100,1110.308913,9474.636058
1966.430731,1225.752797,1998.556043,9474.636058
1966.431049,1532.190996,1924.535449,9400.615463
1966.431366,1378.971896,1184.329507,9030.512492
1966.431683,1685.410096,1480.411884,8142.265362
1966.432001,1532.190996,1406.391290,7624.121203
1966.432318,1149.143247,1480.411884,8586.388927
1966.432636,536.266849,296.082377,8438.347739
1966.432953,306.438199,-0.000000,8660.409521
1966.433271,0.000000,-0.000000,9326.594869
1966.433588,-153.219100,-370.102971,10510.924376
1966.433905,-612.876398,-1036.288319,10732.986159
1966.434223,-1225.752797,-1332.370696,11325.150913
1966.434540,-1072.533697,-962.267725,12065.356855
1966.434858,-842.705048,370.102971,11843.295072
1966.435175,229.828649,666.185348,11325.150913
1966.435493,459.657299,1110.308913,10955.047942
1966.435810,995.924147,1776.494261,10584.944971
1966.436127,1225.752797,2146.597232,9178.553681
1966.436445,1762.019645,1184.329507,8956.491898
1966.436762,2298.286494,592.164754,8956.491898
1966.437080,2068.457845,740.205942,8216.285956
1966.437397,1532.190996,888.247130,7328.038826
1966.437714,1225.752797,-296.082377,7624.121203
1966.438032,766.095498,-962.267725,7698.141797
1966.438349,306.438199,-962.267725,8438.347739
1966.438667,-306.438199,-888.247130,8734.430116
1966.438984,-459.657299,-370.102971,8882.471304
1966.439302,-919.314598,-740.205942,9696.697840
1966.439619,-1072.533697,-814.226536,10288.862594
1966.439936,-919.314598,-518.144159,10658.965565
1966.440254,-1072.533697,-148.041188,10732.986159
1966.440571,842.705048,296.082377,10955.047942
1966.440889,842.705048,1110.308913,10436.903782
1966.441206,2374.896044,2072.576638,10066.800811
1966.441524,2987.772442,1850.514855,9030.512492
1966.441841,3294.210641,1702.473667,7920.203579
1966.442159,4673.182538,1110.308913,7772.162391
1966.442476,3753.867940,1480.411884,7179.997637
1966.442794,3370.820191,1406.391290,6735.874072
1966.443111,2834.553343,814.226536,6439.791695
1966.443428,1991.848295,-370.102971,7550.100608
1966.443746,612.876398,-1702.473667,8882.471304
1966.444063,-306.438199,-2072.576638,9030.512492
1966.444381,-919.314598,-2294.638420,9474.636058
1966.444698,-1378.971896,-3330.926739,11399.171507
1966.445016,-1838.629195,-2960.823768,12065.356855
1966.445333,-2068.457845,-1998.556043,11621.233289
1966.445651,-1302.362347,-1258.350101,11103.089130
1966.445968,-459.657299,-370.102971,10881.027347
1966.446286,383.047749,296.082377,10658.965565
1966.446603,1838.629195,1258.350101,9622.677246
1966.446920,2834.553343,2220.617826,8882.471304
1966.447238,2987.772442,2220.617826,8734.430116
1966.447555,2911.162892,2220.617826,8290.306550
1966.447873,2451.505594,1850.514855,7846.182985
1966.448190,1685.410096,1628.453072,7550.100608
1966.448508,1378.971896,1184.329507,7328.038826
1966.448825,306.438199,-0.000000,8734.430116
1966.449143,-689.485948,-740.205942,9400.615463
1966.449460,-1378.971896,-1554.432478,9770.718434
1966.449778,-2374.896044,-1850.514855,10288.862594
1966.450095,-2911.162892,-1850.514855,11251.130318
1966.450412,-2987.772442,-1776.494261,11769.274478
1966.450730,-2681.334243,-962.267725,11251.130318
1966.451047,-1455.581446,-222.061783,10881.027347
1966.451365,-536.266849,370.102971,10955.047942
1966.451682,536.266849,1332.370696,10807.006753
1966.452000,2374.896044,2146.597232,9474.636058
1966.452317,3677.258390,2368.659014,8734.430116
1966.452635,4826.401637,2146.597232,7920.203579
1966.452952,4826.401637,1554.432478,8068.244768
1966.453270,4443.353888,1554.432478,7476.080014
1966.453587,4443.353888,1110.308913,7550.100608
1966.453904,3294.210641,814.226536,8216.285956
1966.454222,2451.505594,148.041188,8882.471304
1966.454539,1302.362347,-0.000000,9474.636058
1966.454857,766.095498,-0.000000,9474.636058
1966.455174,0.000000,-888.247130,10288.862594
1966.455492,-995.924147,-1110.308913,11029.068536
1966.455809,-919.314598,-1036.288319,11177.109724
1966.456127,-919.314598,-518.144159,10658.965565
1966.456444,-536.266849,-444.123565,10881.027347
1966.456762,0.000000,-518.144159,10881.027347
1966.457079,459.657299,-0.000000,10510.924376
1966.457396,1608.800546,370.102971,9474.636058
1966.457714,2145.067394,1332.370696,8808.450710
1966.458031,2681.334243,1850.514855,8438.347739
1966.458349,2451.505594,2368.659014,7698.141797
1966.458666,1685.410096,2072.576638,7179.997637
1966.458984,1991.848295,1628.453072,7698.141797
1966.459301,1072.533697,1110.308913,8216.285956
1966.459619,383.047749,222.061783,8438.347739
1966.459936,-306.438199,-296.082377,9178.553681
1966.460254,-612.876398,-518.144159,9918.759623
1966.460571,-1608.800546,-1110.308913,10214.842000
1966.460888,-2451.505594,-1480.411884,10658.965565
1966.461206,-2451.505594,-1184.329507,10881.027347
1966.461523,-2298.286494,-444.123565,10288.862594
1966.461841,-2298.286494,-370.102971,10066.800811
1966.462158,-995.924147,-518.144159,10140.821405
1966.462476,-383.047749,-0.000000,10214.842000
1966.462793,536.266849,444.123565,9400.615463
1966.463111,1838.629195,814.226536,8438.347739
1966.463428,2068.457845,-148.041188,8364.327145
1966.463746,2298.286494,740.205942,7846.182985
1966.464063,2451.505594,1036.288319,7328.038826
1966.464380,2221.676944,1258.350101,6957.935855
1966.464698,2451.505594,1258.350101,7550.100608
1966.465015,1685.410096,740.205942,8512.368333
1966.465333,1378.971896,370.102971,8808.450710
1966.465650,842.705048,-0.000000,9400.615463
1966.465968,459.657299,-666.185348,10436.903782
1966.466285,-229.828649,-962.267725,11029.068536
1966.466603,-153.219100,-1184.329507,11103.089130
1966.466920,0.000000,-1036.288319,11177.109724
1966.467238,306.438199,-740.205942,11325.150913
1966.467555,919.314598,-518.144159,11177.109724
1966.467873,1302.362347,-74.020594,10881.027347
1966.468190,2298.286494,888.247130,9696.697840
1966.468507,2911.162892,1184.329507,9030.512492
1966.468825,2757.943793,1110.308913,8438.347739
1966.469142,2911.162892,1406.391290,7624.121203
1966.469460,2604.724693,1480.411884,7254.018232
1966.469777,2528.115143,1036.288319,7179.997637
1966.470095,2298.286494,-222.061783,7994.224174
1966.470412,1685.410096,-370.102971,8882.471304
1966.470730,1225.752797,-1110.308913,9104.533087
1966.471047,612.876398,-1332.370696,9326.594869
1966.471365,0.000000,-1258.350101,10214.842000
1966.471682,-689.485948,-1628.453072,10955.047942
1966.471999,-766.095498,-518.144159,10955.047942
1966.472317,-689.485948,740.205942,10510.924376
1966.472634,-383.047749,1110.308913,10955.047942
1966.472952,612.876398,1628.453072,10732.986159
1966.473269,995.924147,1850.514855,10288.862594
1966.473587,1225.752797,1776.494261,9104.533087
1966.473904,1685.410096,1850.514855,8734.430116
1966.474222,1685.410096,1850.514855,8512.368333
1966.474539,1762.019645,1554.432478,8364.327145
1966.474857,1225.752797,1184.329507,7550.100608
1966.475174,766.095498,592.164754,7994.224174
1966.475491,153.219100,-0.000000,8660.409521
1966.475809,-459.657299,-370.102971,8660.409521
1966.476126,-1302.362347,-370.102971,9326.594869
1966.476444,-1532.190996,-888.247130,10066.800811
1966.476761,-2145.067394,-1554.432478,11029.068536
1966.477079,-2374.896044,-1850.514855,11325.150913
1966.477396,-2221.676944,-1554.432478,11399.171507
1966.477714,-1378.971896,-518.144159,11177.109724
1966.478031,-383.047749,-444.123565,11769.274478
1966.478349,766.095498,666.185348,11177.109724
1966.478666,1991.848295,1702.473667,10436.903782
1966.478983,3294.210641,2590.720797,9030.512492
1966.479301,3600.648841,2368.659014,8512.368333
1966.479618,4136.915689,1258.350101,8956.491898
1966.479936,3830.477490,1036.288319,7698.141797
1966.480253,3753.867940,814.226536,7328.038826
1966.480571,3064.381992,444.123565,7624.121203
1966.480888,2374.896044,-370.102971,8068.244768
1966.481206,1991.848295,-1110.308913,8586.388927
1966.481523,919.314598,-1258.350101,9104.533087
1966.481841,229.828649,-1628.453072,9548.656652
1966.482158,0.000000,-1776.494261,10362.883188
1966.482475,-383.047749,-1776.494261,10881.027347
1966.482793,-153.219100,-1628.453072,10362.883188
1966.483110,0.000000,-1258.350101,11177.109724
1966.483428,536.266849,-740.205942,11103.089130
1966.483745,1455.581446,222.061783,10807.006753
1966.484063,2681.334243,1258.350101,9548.656652
1966.484380,3447.429741,1850.514855,9178.553681
1966.484698,3600.648841,2072.576638,8586.388927
1966.485015,3600.648841,1554.432478,7846.182985
1966.485333,3294.210641,1850.514855,7105.977043
1966.485650,2451.505594,1850.514855,7031.956449
1966.485967,1991.848295,814.226536,7105.977043
1966.486285,1072.533697,-74.020594,7772.162391
1966.486602,-76.609550,-518.144159,8882.471304
1966.486920,-1072.533697,-1554.432478,9178.553681
1966.487237,-1991.848295,-2516.700203,9918.759623
1966.487555,-3140.991542,-2516.700203,11029.068536
1966.487872,-3447.429741,-2812.782580,11251.130318
1966.488190,-3524.039291,-1850.514855,10362.883188
1966.488507,-2681.334243,-1850.514855,10807.006753
1966.488825,-1838.629195,-1036.288319,11029.068536
1966.489142,-612.876398,-0.000000,10436.903782
1966.489459,919.314598,1258.350101,9178.553681
1966.489777,1762.019645,1776.494261,8438.347739
1966.490094,2451.505594,2220.617826,7920.203579
1966.490412,2681.334243,2146.597232,7328.038826
1966.490729,2987.772442,2368.659014,6883.915261
1966.491047,2987.772442,1924.535449,7105.977043
1966.491364,2374.896044,1776.494261,7402.059420
1966.491682,2145.067394,666.185348,8142.265362
1966.491999,1378.971896,-0.000000,8734.430116
1966.492317,229.828649,-222.061783,9104.533087
1966.492634,-612.876398,-518.144159,9918.759623
1966.492951,-995.924147,-518.144159,10881.027347
1966.493269,-1302.362347,-222.061783,10955.047942
1966.493586,-1302.362347,-0.000000,10807.006753
1966.493904,-1149.143247,-0.000000,11177.109724
1966.494221,-383.047749,-0.000000,11695.253884
1966.494539,612.876398,444.123565,10658.965565
1966.494856,1685.410096,1184.329507,9918.759623
1966.495174,2298.286494,1702.473667,9326.594869
1966.495491,2911.162892,1776.494261,8734.430116
1966.495809,3447.429741,1480.411884,8364.327145
1966.496126,3677.258390,1480.411884,7550.100608
1966.496443,3600.648841,1554.432478,8068.244768
1966.496761,2681.334243,740.205942,7846.182985
1966.497078,2298.286494,-0.000000,9326.594869
1966.497396,1302.362347,-74.020594,9474.636058
1966.497713,383.047749,-296.082377,10066.800811
1966.498031,-306.438199,-518.144159,10214.842000
1966.498348,-842.705048,-888.247130,11547.212695
1966.498666,-1149.143247,-962.267725,11547.212695
1966.498983,-1149.143247,-370.102971,11473.192101
1966.499301,-536.266849,-296.082377,11695.253884
1966.499618,-689.485948,-222.061783,11843.295072
1966.499935,536.266849,296.082377,11029.068536
1966.500253,1149.143247,1036.288319,9844.739029
1966.500570,1762.019645,888.247130,9622.677246
1966.500888,2068.457845,1036.288319,9400.615463
1966.501205,1915.238745,1258.350101,8956.491898
1966.501523,2145.067394,1480.411884,8216.285956
1966.501840,2374.896044,1924.535449,7254.018232
1966.502158,1762.019645,1480.411884,7994.224174
1966.502475,1532.190996,1110.308913,8216.285956
1966.502793,1302.362347,148.041188,8956.491898
1966.503110,153.219100,-444.123565,8882.471304
1966.503427,-383.047749,-1036.288319,10362.883188
1966.503745,-1378.971896,-1480.411884,10658.965565
1966.504062,-1302.362347,-740.205942,10881.027347
1966.504380,-1302.362347,-0.000000,10658.965565
1966.504697,-536.266849,-0.000000,10807.006753
1966.505015,76.609550,666.185348,10214.842000
1966.505332,612.876398,1110.308913,9696.697840
1966.505650,1455.581446,1554.432478,8808.450710
1966.505967,1455.581446,1036.288319,8512.368333
1966.506285,1915.238745,814.226536,8882.471304
1966.506602,1455.581446,1258.350101,7476.080014
1966.506919,1302.362347,814.226536,6957.935855
1966.507237,919.314598,814.226536,7105.977043
1966.507554,459.657299,-0.000000,7994.224174
1966.507872,0.000000,-296.082377,8364.327145
1966.508189,0.000000,-962.267725,8512.368333
1966.508507,-766.095498,-1480.411884,8882.471304
1966.508824,-1302.362347,-1776.494261,9918.759623
1966.509142,-1915.238745,-2072.576638,10288.862594
1966.509459,-1685.410096,-1480.411884,10140.821405
1966.509777,-995.924147,-1332.370696,10362.883188
1966.510094,-612.876398,-222.061783,10436.903782
1966.510411,0.000000,222.061783,10436.903782
1966.510729,1225.752797,1184.329507,9326.594869
1966.511046,1685.410096,1924.535449,8882.471304
1966.511364,1762.019645,1850.514855,8734.430116
1966.511681,1991.848295,1924.535449,8956.491898
1966.511999,2221.676944,1776.494261,7920.203579
1966.512316,2298.286494,1702.473667,7550.100608
1966.512634,1762.019645,814.226536,8290.306550
1966.512951,1378.971896,-0.000000,9326.594869
1966.513269,995.924147,370.102971,8882.471304
1966.513586,995.924147,-148.041188,8956.491898
1966.513903,76.609550,-74.020594,9326.594869
1966.514221,306.438199,-444.123565,10066.800811
1966.514538,153.219100,-1184.329507,10436.903782
1966.514856,153.219100,-1406.391290,10807.006753
1966.515173,306.438199,-962.267725,10955.047942
1966.515491,536.266849,-222.061783,10658.965565
1966.515808,1149.143247,444.123565,11103.089130
1966.516126,2221.676944,1480.411884,9622.677246
1966.516443,2604.724693,2072.576638,8808.450710
1966.516761,2528.115143,2072.576638,8734.430116
1966.517078,1991.848295,2442.679609,8660.409521
1966.517395,1991.848295,1998.556043,8290.306550
1966.517713,1149.143247,1554.432478,8586.388927
1966.518030,306.438199,518.144159,8956.491898
1966.518348,-536.266849,-0.000000,10214.842000
1966.518665,-842.705048,-666.185348,10732.986159
1966.518983,-1532.190996,-592.164754,9918.759623
1966.519300,-2221.676944,-962.267725,11251.130318
1966.519618,-2604.724693,-1332.370696,11769.274478
1966.519935,-2681.334243,-1332.370696,11843.295072
1966.520253,-1991.848295,-740.205942,10955.047942
1966.520570,-1838.629195,222.061783,10436.903782
1966.520887,-612.876398,296.082377,11251.130318
1966.521205,766.095498,888.247130,10214.842000
1966.521522,1455.581446,740.205942,9400.615463
1966.521840,2451.505594,1184.329507,8734.430116
1966.522157,2681.334243,1702.473667,8734.430116
1966.522475,3600.648841,1998.556043,8216.285956
1966.522792,3677.258390,2664.741391,6291.750507
1966.523110,3524.039291,2368.659014,7031.956449
1966.523427,2604.724693,962.267725,8216.285956
1966.523745,2528.115143,888.247130,8438.347739
1966.524062,2145.067394,-0.000000,8438.347739
1966.524379,919.314598,-0.000000,8808.450710
1966.524697,536.266849,-518.144159,10362.883188
1966.525014,0.000000,-1184.329507,10732.986159
1966.525332,-459.657299,-1258.350101,10881.027347
1966.525649,-689.485948,-148.041188,9918.759623
1966.525967,153.219100,148.041188,11103.089130
1966.526284,689.485948,148.041188,10510.924376
1966.526602,1378.971896,370.102971,9622.677246
1966.526919,1455.581446,1332.370696,8290.306550
1966.527237,1991.848295,1184.329507,8512.368333
1966.527554,2604.724693,222.061783,8882.471304
1966.527871,2987.772442,222.061783,7550.100608
1966.528189,2604.724693,222.061783,7105.977043
1966.528506,1838.629195,518.144159,7550.100608
1966.528824,1225.752797,-814.226536,8586.388927
1966.529141,1378.971896,-1110.308913,8956.491898
1966.529459,153.219100,-1332.370696,8882.471304
1966.529776,-536.266849,-666.185348,9326.594869
1966.530094,-1608.800546,-1036.288319,10288.862594
1966.530411,-1915.238745,-1332.370696,11103.089130
1966.530729,-1762.019645,-1110.308913,10955.047942
1966.531046,-2068.457845,518.144159,10362.883188
1966.531363,-1302.362347,-0.000000,11177.109724
1966.531681,-689.485948,-148.041188,10881.027347
1966.531998,0.000000,444.123565,9622.677246
1966.532316,689.485948,370.102971,9104.533087
1966.532633,1455.581446,592.164754,8734.430116
1966.532951,1532.190996,-296.082377,8734.430116
1966.533268,1225.752797,-0.000000,8364.327145
1966.533586,1302.362347,222.061783,7550.100608
1966.533903,1302.362347,296.082377,7772.162391
1966.534221,1455.581446,222.061783,8660.409521
1966.534538,612.876398,-518.144159,8142.265362
1966.534855,766.095498,-444.123565,9178.553681
1966.535173,229.828649,-888.247130,10288.862594
1966.535490,229.828649,-1110.308913,10807.006753
1966.535808,229.828649,-0.000000,10732.986159
1966.536125,459.657299,1110.308913,9918.759623
1966.536443,1225.752797,1406.391290,9548.656652
1966.536760,1915.238745,1628.453072,9844.739029
1966.537078,2681.334243,1628.453072,10140.821405
1966.537395,2987.772442,2368.659014,9104.533087
1966.537713,2987.772442,2442.679609,8290.306550
1966.538030,2757.943793,1628.453072,8216.285956
1966.538347,2374.896044,740.205942,8956.491898
1966.538665,1532.190996,518.144159,8438.347739
1966.538982,919.314598,444.123565,8290.306550
1966.539299,383.047749,148.041188,8808.450710
1966.539617,-229.828649,-518.144159,9770.718434
1966.539934,-383.047749,-666.185348,9992.780217
1966.540251,-1225.752797,-666.185348,10658.965565
1966.540568,-1915.238745,-1332.370696,11325.150913
1966.540886,-2221.676944,-1184.329507,11769.274478
1966.541203,-1838.629195,-814.226536,11991.336260
1966.541520,-1608.800546,-518.144159,11177.109724
1966.541838,-536.266849,-222.061783,11029.068536
1966.542155,229.828649,222.061783,11177.109724
1966.542472,1302.362347,1480.411884,10510.924376
1966.542790,1838.629195,2516.700203,8808.450710
1966.543107,2451.505594,2664.741391,8142.265362
1966.543424,2528.115143,2886.803174,7994.224174
1966.543742,2145.067394,2368.659014,8290.306550
1966.544059,1608.800546,1628.453072,8142.265362
1966.544376,766.095498,1184.329507,7624.121203
1966.544694,76.609550,444.123565,8734.430116
1966.545011,-383.047749,296.082377,9622.677246
1966.545328,-842.705048,-296.082377,10510.924376
1966.545645,-1072.533697,-962.267725,10584.944971
1966.545963,-995.924147,-888.247130,10658.965565
1966.546280,-459.657299,-814.226536,10658.965565
1966.546597,-536.266849,-296.082377,10807.006753
1966.546915,612.876398,-74.020594,10066.800811
1966.547232,1302.362347,-0.000000,9770.718434
1966.547549,2145.067394,370.102971,9548.656652
1966.547867,3217.601092,1554.432478,8956.491898
1966.548184,3983.696590,1406.391290,8734.430116
1966.548501,4136.915689,1924.535449,7550.100608
1966.548819,4213.525239,1628.453072,7846.182985
1966.549136,3370.820191,1110.308913,7846.182985
1966.549453,2911.162892,814.226536,8068.244768
1966.549771,1991.848295,-296.082377,7920.203579
1966.550088,919.314598,-814.226536,8438.347739
1966.550405,153.219100,-2220.617826,9918.759623
1966.550722,-689.485948,-1998.556043,10510.924376
1966.551040,-766.095498,-2072.576638,11251.130318
1966.551357,-1378.971896,-2368.659014,10658.965565
1966.551674,-1225.752797,-2294.638420,11251.130318
1966.551992,-1225.752797,-2368.659014,11547.212695
1966.552309,-383.047749,-1702.473667,10436.903782
1966.552626,0.000000,-1258.350101,10362.883188
1966.552944,1532.190996,-814.226536,10288.862594
1966.553261,2911.162892,296.082377,8882.471304
1966.553578,3907.087040,1480.411884,7698.141797
1966.553896,4673.182538,1406.391290,7550.100608
1966.554213,4136.915689,1332.370696,6661.853478
1966.554530,4060.306139,1776.494261,6809.894666
1966.554848,3294.210641,1480.411884,6809.894666
1966.555165,2528.115143,962.267725,6661.853478
1966.555482,1915.238745,370.102971,7550.100608
1966.555799,689.485948,-0.000000,8956.491898
1966.556117,229.828649,-296.082377,9400.615463
1966.556434,-766.095498,-888.247130,8882.471304
1966.556751,-1608.800546,-1776.494261,10584.944971
1966.557069,-2681.334243,-1554.432478,11325.150913
1966.557386,-2221.676944,-592.164754,10510.924376
1966.557703,-1838.629195,-0.000000,10066.800811
1966.558021,-1072.533697,740.205942,10362.883188
1966.558338,-229.828649,1184.329507,9622.677246
1966.558655,995.924147,1924.535449,9252.574275
1966.558973,1149.143247,1554.432478,8438.347739
1966.559290,1762.019645,1850.514855,7846.182985
1966.559607,1762.019645,1776.494261,7846.182985
1966.559925,1838.629195,1184.329507,7772.162391
1966.560242,1838.629195,888.247130,7772.162391
1966.560559,1072.533697,666.185348,7772.162391
1966.560876,536.266849,370.102971,8438.347739
1966.561194,76.609550,-518.144159,9844.739029
1966.561511,-536.266849,-740.205942,10066.800811
1966.561828,-1685.410096,-1036.288319,10955.047942
1966.562146,-2221.676944,-1332.370696,11991.336260
1966.562463,-2451.505594,-888.247130,12361.439231
1966.562780,-1991.848295,-222.061783,12065.356855
1966.563098,-995.924147,370.102971,11843.295072
1966.563415,-383.047749,518.144159,11843.295072
1966.563732,536.266849,888.247130,11103.089130
1966.564050,1455.581446,1258.350101,10288.862594
1966.564367,2681.334243,1924.535449,9400.615463
1966.564684,3447.429741,2220.617826,8586.388927
1966.565002,3140.991542,1998.556043,8216.285956
1966.565319,3370.820191,1998.556043,7772.162391
1966.565636,3447.429741,1554.432478,7550.100608
1966.565953,2757.943793,592.164754,8142.265362
1966.566271,2298.286494,-0.000000,9400.615463
1966.566588,1302.362347,-296.082377,9400.615463
1966.566905,1225.752797,-296.082377,9770.718434
1966.567223,306.438199,-592.164754,10881.027347
1966.567540,-229.828649,-740.205942,11473.192101
1966.567857,-383.047749,-518.144159,11103.089130
1966.568175,-383.047749,148.041188,11103.089130
1966.568492,0.000000,296.082377,10732.986159
1966.568809,153.219100,222.061783,10881.027347
1966.569127,995.924147,888.247130,10362.883188
1966.569444,1608.800546,1406.391290,9178.553681
1966.569761,2145.067394,1628.453072,8660.409521
1966.570079,2298.286494,1332.370696,7920.203579
1966.570396,2221.676944,1036.288319,7550.100608
1966.570713,1991.848295,888.247130,7328.038826
1966.571030,1532.190996,962.267725,6957.935855
1966.571348,842.705048,444.123565,7328.038826
1966.571665,76.609550,-222.061783,7994.224174
1966.571982,0.000000,-592.164754,8660.409521
1966.572300,-842.705048,-444.123565,9252.574275
1966.572617,-1378.971896,-1036.288319,9622.677246
1966.572934,-1838.629195,-1480.411884,10288.862594
1966.573252,-2145.067394,-1110.308913,10362.883188
1966.573569,-1302.362347,-592.164754,10881.027347
1966.573886,-459.657299,-0.000000,9622.677246
1966.574204,383.047749,666.185348,9770.718434
1966.574521,1149.143247,1184.329507,9252.574275
1966.574838,2374.896044,1554.432478,8290.306550
1966.575156,1915.238745,1406.391290,7920.203579
1966.575473,2528.115143,1184.329507,7772.162391
1966.575790,1991.848295,962.267725,7624.121203
1966.576107,1532.190996,888.247130,7254.018232
1966.576425,919.314598,222.061783,7624.121203
1966.576742,383.047749,-370.102971,8290.306550
1966.577059,229.828649,-814.226536,9326.594869
1966.577377,-383.047749,-1628.453072,9844.739029
1966.577694,-612.876398,-2368.659014,9992.780217
1966.578011,-1149.143247,-2146.597232,10510.924376
1966.578329,-1302.362347,-2072.576638,11251.130318
1966.578646,-766.095498,-1036.288319,11177.109724
1966.578963,0.000000,-370.102971,10658.965565
1966.579281,1072.533697,370.102971,11029.068536
1966.579598,1915.238745,1110.308913,10436.903782
1966.579915,3064.381992,1554.432478,9622.677246
1966.580233,3294.210641,1702.473667,9104.533087
1966.580550,3753.867940,1628.453072,8586.388927
1966.580867,3677.258390,1776.494261,8216.285956
1966.581184,3294.210641,1628.453072,7994.224174
1966.581502,2834.553343,1110.308913,7772.162391
1966.581819,2451.505594,740.205942,8660.409521
1966.582136,919.314598,296.082377,9400.615463
1966.582454,-153.219100,-592.164754,9992.780217
1966.582771,-1225.752797,-1258.350101,11103.089130
1966.583088,-1915.238745,-1258.350101,11251.130318
1966.583406,-2451.505594,-1480.411884,11325.150913
1966.583723,-2528.115143,-1554.432478,11769.274478
1966.584040,-1685.410096,-1258.350101,12213.398043
1966.584358,-536.266849,-444.123565,11473.192101
1966.584675,459.657299,-74.020594,11251.130318
1966.584992,1455.581446,444.123565,10584.944971
1966.585310,2757.943793,666.185348,10066.800811
1966.585627,3524.039291,1628.453072,8660.409521
1966.585944,3983.696590,1554.432478,8142.265362
1966.586261,3677.258390,2146.597232,7402.059420
1966.586579,3830.477490,2072.576638,7476.080014
1966.586896,3753.867940,2368.659014,6439.791695
1966.587213,3064.381992,1332.370696,7031.956449
1966.587531,2451.505594,370.102971,8290.306550
1966.587848,536.266849,-370.102971,8142.265362
1966.588165,0.000000,-740.205942,9104.533087
1966.588483,-1072.533697,-1184.329507,9770.718434
1966.588800,-1762.019645,-2072.576638,10658.965565
1966.589117,-2451.505594,-1998.556043,11399.171507
1966.589435,-2221.676944,-1406.391290,11473.192101
1966.589752,-1991.848295,-222.061783,10584.944971
1966.590069,-995.924147,148.041188,10807.006753
1966.590387,0.000000,222.061783,9992.780217
1966.590704,766.095498,592.164754,9252.574275
1966.591021,1762.019645,1628.453072,8290.306550
1966.591338,2221.676944,1258.350101,7994.224174
1966.591656,2911.162892,1554.432478,7698.141797
1966.591973,2834.553343,1924.535449,6957.935855
1966.592290,2528.115143,1554.432478,7031.956449
1966.592608,1608.800546,666.185348,7402.059420
1966.592925,689.485948,-370.102971,8068.244768
1966.593242,153.219100,-1184.329507,8956.491898
1966.593560,-383.047749,-1110.308913,9326.594869
1966.593877,-1991.848295,-1110.308913,9622.677246
1966.594194,-2068.457845,-1184.329507,10955.047942
1966.594512,-2221.676944,-1628.453072,11917.315666
1966.594829,-2374.896044,-1184.329507,10955.047942
1966.595146,-1608.800546,-444.123565,10807.006753
1966.595464,-995.924147,222.061783,10807.006753
1966.595781,306.438199,592.164754,10436.903782
1966.596098,1378.971896,1110.308913,9326.594869
1966.596415,1991.848295,1924.535449,8734.430116
1966.596733,2374.896044,1998.556043,8290.306550
1966.597050,2604.724693,1776.494261,7846.182985
1966.597367,2681.334243,2072.576638,7402.059420
1966.597685,2451.505594,1184.329507,7698.141797
1966.598002,1838.629195,370.102971,8068.244768
1966.598319,1608.800546,-148.041188,9030.512492
1966.598637,842.705048,-666.185348,9326.594869
1966.598954,612.876398,-592.164754,9770.718434
1966.599271,229.828649,-518.144159,10214.842000
1966.599589,-689.485948,-814.226536,10510.924376
1966.599906,-842.705048,-666.185348,11399.171507
1966.600223,-612.876398,-222.061783,10658.965565
1966.600541,-612.876398,814.226536,10214.842000
1966.600858,612.876398,444.123565,11547.212695
1966.601175,1225.752797,962.267725,10584.944971
1966.601492,1991.848295,1258.350101,9178.553681
1966.601810,2528.115143,1628.453072,9104.533087
1966.602127,2604.724693,1480.411884,8734.430116
1966.602444,2987.772442,1924.535449,7846.182985
1966.602762,3294.210641,1850.514855,7254.018232
1966.603079,2528.115143,1406.391290,7550.100608
1966.603396,1915.238745,-0.000000,8364.327145
1966.603714,1838.629195,-0.000000,8956.491898
1966.604031,536.266849,-888.247130,9548.656652
1966.604348,-459.657299,-962.267725,10140.821405
1966.604666,-612.876398,-1554.432478,10955.047942
1966.604983,-1532.190996,-1480.411884,11029.068536
1966.605300,-1072.533697,-1406.391290,11621.233289
1966.605618,-766.095498,-74.020594,11177.109724
1966.605935,-306.438199,296.082377,10288.862594
1966.606252,153.219100,740.205942,10658.965565
1966.606569,689.485948,592.164754,10214.842000
1966.606887,919.314598,1036.288319,8882.471304
1966.607204,1532.190996,1554.432478,8882.471304
1966.607521,1838.629195,1110.308913,9030.512492
1966.607839,1455.581446,1628.453072,8068.244768
1966.608156,1608.800546,1628.453072,8216.285956
1966.608473,842.705048,1184.329507,7550.100608
1966.608791,383.047749,444.123565,8734.430116
1966.609108,0.000000,-444.123565,9474.636058
1966.609425,-536.266849,-740.205942,9696.697840
1966.609743,-919.314598,-740.205942,9844.739029
1966.610060,-842.705048,-1258.350101,10288.862594
1966.610377,-1378.971896,-592.164754,10807.006753
1966.610695,-612.876398,-592.164754,10807.006753
1966.611012,0.000000,222.061783,10140.821405
1966.611329,76.609550,296.082377,10066.800811
1966.611646,1378.971896,1184.329507,9918.759623
1966.611964,2298.286494,1776.494261,8808.450710
1966.612281,3294.210641,2220.617826,7994.224174
1966.612598,3753.867940,1628.453072,7624.121203
1966.612916,3294.210641,814.226536,7698.141797
1966.613233,2681.334243,1036.288319,7476.080014
1966.613550,2221.676944,740.205942,7476.080014
1966.613868,1838.629195,-0.000000,7846.182985
1966.614185,383.047749,-222.061783,8290.306550
1966.614502,0.000000,-888.247130,9474.636058
1966.614820,-995.924147,-1258.350101,9622.677246
1966.615137,-1608.800546,-1776.494261,10584.944971
1966.615454,-1991.848295,-2220.617826,11251.130318
1966.615772,-2681.334243,-1554.432478,11473.192101
1966.616089,-2374.896044,-666.185348,11399.171507
1966.616406,-1532.190996,-740.205942,10881.027347
1966.616723,-76.609550,-0.000000,10510.924376
1966.617041,842.705048,370.102971,10732.986159
1966.617358,2145.067394,1036.288319,9770.718434
1966.617675,3064.381992,1480.411884,8734.430116
1966.617993,3677.258390,1184.329507,8364.327145
1966.618310,4290.134789,1406.391290,8068.244768
1966.618627,4060.306139,1702.473667,7698.141797
1966.618945,3983.696590,1776.494261,6735.874072
1966.619262,2911.162892,962.267725,6513.812290
1966.619579,1991.848295,296.082377,7624.121203
1966.619897,1149.143247,-222.061783,8808.450710
1966.620214,-153.219100,-1036.288319,9400.615463
1966.620531,-1302.362347,-1628.453072,10140.821405
1966.620849,-2145.067394,-1702.473667,11251.130318
1966.621166,-2374.896044,-1776.494261,11843.295072
1966.621483,-2145.067394,-1184.329507,11473.192101
1966.621801,-1455.581446,-444.123565,11251.130318
1966.622118,-995.924147,-74.020594,11251.130318
1966.622435,229.828649,518.144159,10658.965565
1966.622752,1532.190996,1184.329507,9844.739029
1966.623070,2834.553343,1924.535449,8512.368333
1966.623387,3447.429741,2368.659014,7772.162391
1966.623704,3677.258390,2146.597232,7624.121203
1966.624022,3753.867940,2146.597232,6883.915261
1966.624339,3370.820191,1850.514855,6439.791695
1966.624656,2298.286494,888.247130,6957.935855
1966.624974,1685.410096,-296.082377,8586.388927
1966.625291,766.095498,-592.164754,8808.450710
1966.625608,-459.657299,-1258.350101,9400.615463
1966.625926,-1302.362347,-1554.432478,10362.883188
1966.626243,-2374.896044,-1628.453072,11473.192101
1966.626560,-2834.553343,-2294.638420,12287.418637
1966.626878,-2757.943793,-1332.370696,11917.315666
1966.627195,-2068.457845,-814.226536,11991.336260
1966.627512,-1149.143247,-0.000000,11399.171507
1966.627829,0.000000,518.144159,11399.171507
1966.628147,1532.190996,740.205942,10288.862594
1966.628464,2757.943793,1702.473667,9104.533087
1966.628781,3217.601092,1258.350101,8512.368333
1966.629099,3983.696590,1184.329507,8438.347739
1966.629416,4596.572988,1110.308913,8068.244768
1966.629733,4290.134789,1406.391290,7254.018232
1966.630051,3907.087040,740.205942,7476.080014
1966.630368,2757.943793,370.102971,7994.224174
1966.630685,2374.896044,-0.000000,8660.409521
1966.631003,1532.190996,-740.205942,8734.430116
1966.631320,536.266849,-1480.411884,10510.924376
1966.631637,-229.828649,-1776.494261,11251.130318
1966.631955,-689.485948,-1924.535449,11103.089130
1966.632272,-766.095498,-1110.308913,11177.109724
1966.632589,-536.266849,-962.267725,11621.233289
1966.632906,0.000000,-444.123565,11325.150913
1966.633224,383.047749,444.123565,10436.903782
1966.633541,1532.190996,1258.350101,9770.718434
1966.633858,1685.410096,1998.556043,8808.450710
1966.634176,2221.676944,1850.514855,8512.368333
1966.634493,2298.286494,1924.535449,8068.244768
1966.634810,2298.286494,1628.453072,7550.100608
1966.635128,2681.334243,1554.432478,7179.997637
1966.635445,1455.581446,1332.370696,7698.141797
1966.635762,1455.581446,888.247130,8290.306550
1966.636080,919.314598,-0.000000,8216.285956
1966.636397,383.047749,-222.061783,8438.347739
1966.636714,-459.657299,-1258.350101,9400.615463
1966.637032,-995.924147,-1332.370696,9992.780217
1966.637349,-1225.752797,-962.267725,9992.780217
1966.637666,-1225.752797,-666.185348,9696.697840
1966.637983,-1225.752797,-370.102971,10140.821405
1966.638301,-842.705048,-0.000000,10510.924376
1966.638618,153.219100,740.205942,9622.677246
1966.638935,919.314598,888.247130,8586.388927
1966.639253,1302.362347,1036.288319,8882.471304
1966.639570,1532.190996,1110.308913,8216.285956
1966.639887,1608.800546,1406.391290,7994.224174
1966.640205,1532.190996,1480.411884,7698.141797
1966.640522,1302.362347,1258.350101,8142.265362
1966.640839,536.266849,666.185348,8216.285956
1966.641157,229.828649,370.102971,9178.553681
1966.641474,0.000000,-296.082377,9770.718434
1966.641791,-383.047749,-962.267725,10288.862594
1966.642108,-1072.533697,-1332.370696,10510.924376
1966.642426,-766.095498,-1332.370696,11029.068536
1966.642743,-689.485948,-814.226536,10881.027347
1966.643060,0.000000,-370.102971,10732.986159
1966.643378,766.095498,-222.061783,10881.027347
1966.643695,1455.581446,592.164754,10584.944971
1966.644012,2221.676944,1036.288319,9918.759623
1966.644330,2834.553343,1776.494261,9030.512492
1966.644647,3140.991542,1406.391290,8808.450710
1966.644964,3447.429741,1702.473667,8660.409521
1966.645281,2681.334243,1702.473667,7846.182985
1966.645599,2604.724693,1332.370696,7698.141797
1966.645916,2068.457845,592.164754,8364.327145
1966.646233,842.705048,-0.000000,8956.491898
1966.646551,0.000000,-0.000000,9696.697840
1966.646868,-689.485948,-444.123565,10140.821405
1966.647185,-1532.190996,-962.267725,10732.986159
1966.647503,-1762.019645,-1258.350101,11769.274478
1966.647820,-1838.629195,-1406.391290,12287.418637
1966.648137,-2068.457845,-888.247130,11473.192101
1966.648455,-1762.019645,-222.061783,11325.150913
1966.648772,-536.266849,296.082377,11621.233289
1966.649089,919.314598,962.267725,10584.944971
1966.649406,2221.676944,1850.514855,9400.615463
1966.649724,3217.601092,2146.597232,8364.327145
1966.650041,3907.087040,2368.659014,7031.956449
1966.650358,3983.696590,2294.638420,7031.956449
1966.650676,3907.087040,1850.514855,7031.956449
1966.650993,3524.039291,1480.411884,6587.832884
1966.651310,1915.238745,740.205942,7179.997637
1966.651628,1608.800546,370.102971,8660.409521
1966.651945,612.876398,148.041188,9400.615463
1966.652262,0.000000,-296.082377,9326.594869
1966.652579,-1532.190996,-1110.308913,10140.821405
1966.652897,-1838.629195,-1332.370696,11695.253884
1966.653214,-1685.410096,-1332.370696,11621.233289
1966.653531,-1991.848295,-1110.308913,11325.150913
1966.653849,-1149.143247,-814.226536,11843.295072
1966.654166,-612.876398,-148.041188,11473.192101
1966.654483,689.485948,518.144159,10288.862594
1966.654801,1991.848295,444.123565,9474.636058
1966.655118,2451.505594,1184.329507,8734.430116
1966.655435,3524.039291,1850.514855,8364.327145
1966.655753,3983.696590,1480.411884,6735.874072
1966.656070,3907.087040,1554.432478,6587.832884
1966.656387,3600.648841,740.205942,6809.894666
1966.656704,2757.943793,-148.041188,6957.935855
1966.657022,1838.629195,-592.164754,7846.182985
1966.657339,919.314598,-1332.370696,8882.471304
1966.657656,-229.828649,-1480.411884,9400.615463
1966.657974,-1455.581446,-1554.432478,9918.759623
1966.658291,-1762.019645,-2146.597232,11399.171507
1966.658608,-2451.505594,-1924.535449,11547.212695
1966.658926,-2068.457845,-1184.329507,11177.109724
1966.659243,-1915.238745,-296.082377,10732.986159
1966.659560,-1072.533697,-148.041188,11399.171507
1966.659878,0.000000,296.082377,10881.027347
1966.660195,1225.752797,740.205942,9326.594869
1966.660512,1915.238745,1110.308913,8882.471304
1966.660829,2681.334243,1480.411884,8512.368333
1966.661147,3294.210641,2294.638420,6957.935855
1966.661464,3677.258390,2442.679609,6143.709319
1966.661781,3217.601092,2220.617826,6661.853478
1966.662099,2528.115143,1258.350101,7624.121203
1966.662416,1838.629195,296.082377,7846.182985
1966.662733,1838.629195,-1110.308913,8734.430116
1966.663051,383.047749,-1554.432478,9548.656652
1966.663368,-842.705048,-1702.473667,10362.883188
1966.663685,-1225.752797,-1702.473667,10881.027347
1966.664002,-1532.190996,-592.164754,10732.986159
1966.664320,-1532.190996,-0.000000,10955.047942
1966.664637,-995.924147,296.082377,10881.027347
1966.664954,-229.828649,370.102971,10881.027347
1966.665272,536.266849,888.247130,10658.965565
1966.665589,1762.019645,1036.288319,9696.697840
1966.665906,1915.238745,666.185348,9844.739029
1966.666224,2298.286494,740.205942,9474.636058
1966.666541,2604.724693,1258.350101,9030.512492
1966.666858,2911.162892,1776.494261,8512.368333
1966.667176,3217.601092,1776.494261,7698.141797
1966.667493,2604.724693,1850.514855,7846.182985
1966.667810,2298.286494,1184.329507,8512.368333
1966.668127,1608.800546,666.185348,9178.553681
1966.668445,766.095498,-370.102971,9622.677246
1966.668762,-612.876398,-666.185348,10140.821405
1966.669079,-842.705048,-1554.432478,11177.109724
1966.669397,-1149.143247,-1406.391290,11177.109724
1966.669714,-1225.752797,-1554.432478,10881.027347
1966.670031,-995.924147,-1036.288319,11177.109724
1966.670349,-766.095498,-222.061783,11029.068536
1966.670666,0.000000,962.267725,10066.800811
1966.670983,689.485948,1184.329507,9400.615463
1966.671300,766.095498,962.267725,9030.512492
1966.671618,842.705048,814.226536,8808.450710
1966.671935,919.314598,962.267725,8290.306550
1966.672252,536.266849,1110.308913,8290.306550
1966.672570,229.828649,962.267725,8142.265362
1966.672887,-153.219100,666.185348,8956.491898
1966.673204,-689.485948,222.061783,9474.636058
1966.673522,-689.485948,-370.102971,9992.780217
1966.673839,-995.924147,-888.247130,9844.739029
1966.674156,-1378.971896,-1036.288319,10510.924376
1966.674474,-842.705048,-1036.288319,11103.089130
1966.674791,-229.828649,-666.185348,10584.944971
1966.675108,0.000000,148.041188,9992.780217
1966.675425,842.705048,444.123565,10436.903782
1966.675743,1532.190996,962.267725,9548.656652
1966.676060,2528.115143,1776.494261,8660.409521
1966.676377,3140.991542,1702.473667,7846.182985
1966.676695,3294.210641,1850.514855,7772.162391
1966.677012,3447.429741,1406.391290,7920.203579
1966.677329,2757.943793,1628.453072,7031.956449
1966.677647,2298.286494,1554.432478,6883.915261
1966.677964,1915.238745,962.267725,7476.080014
1966.678281,1072.533697,592.164754,8660.409521
1966.678598,76.609550,-0.000000,9400.615463
1966.678916,-306.438199,-814.226536,10214.842000
1966.679233,-1455.581446,-1184.329507,10658.965565
1966.679550,-1838.629195,-1702.473667,11843.295072
1966.679868,-1149.143247,-1332.370696,11621.233289
1966.680185,-995.924147,-370.102971,11251.130318
1966.680502,0.000000,222.061783,10436.903782
1966.680820,842.705048,592.164754,9696.697840
1966.681137,1991.848295,592.164754,9548.656652
1966.681454,2604.724693,1036.288319,8808.450710
1966.681772,3217.601092,1554.432478,7920.203579
1966.682089,3447.429741,1184.329507,7105.977043
1966.682406,3524.039291,444.123565,7254.018232
1966.682723,2834.553343,444.123565,7624.121203
1966.683041,1762.019645,222.061783,6957.935855
1966.683358,1225.752797,-0.000000,8142.265362
1966.683675,536.266849,-888.247130,9326.594869
1966.683993,-306.438199,-1924.535449,9844.739029
1966.684310,-1225.752797,-1036.288319,10140.821405
1966.684627,-2451.505594,-1554.432478,11399.171507
1966.684945,-2604.724693,-1850.514855,11843.295072
1966.685262,-1838.629195,-1184.329507,11991.336260
1966.685579,-1302.362347,-666.185348,11991.336260
1966.685897,-689.485948,-0.000000,11399.171507
1966.686214,306.438199,444.123565,11029.068536
1966.686531,1685.410096,814.226536,10436.903782
1966.686848,2604.724693,1702.473667,9400.615463
1966.687166,3447.429741,1998.556043,8142.265362
1966.687483,3677.258390,1998.556043,7179.997637
1966.687800,3907.087040,1850.514855,7105.977043
1966.688118,3753.867940,1628.453072,6957.935855
1966.688435,3217.601092,962.267725,6809.894666
1966.688752,2145.067394,-0.000000,7698.141797
1966.689070,1378.971896,-222.061783,8512.368333
1966.689387,0.000000,-666.185348,9252.574275
1966.689704,-1149.143247,-1036.288319,10140.821405
1966.690021,-1991.848295,-1258.350101,11103.089130
1966.690339,-2451.505594,-1628.453072,11843.295072
1966.690656,-2374.896044,-814.226536,12361.439231
1966.690973,-1685.410096,222.061783,11769.274478
1966.691291,-1149.143247,148.041188,11177.109724
1966.691608,0.000000,666.185348,10807.006753
1966.691925,1225.752797,1332.370696,10362.883188
1966.692243,1915.238745,1628.453072,8956.491898
1966.692560,2757.943793,1924.535449,7994.224174
1966.692877,3447.429741,1554.432478,7846.182985
1966.693195,3217.601092,1480.411884,7624.121203
1966.693512,3447.429741,1406.391290,7105.977043
1966.693829,2834.553343,740.205942,6957.935855
1966.694146,2221.676944,-74.020594,7698.141797
1966.694464,1685.410096,-444.123565,8586.388927
1966.694781,536.266849,-1036.288319,8956.491898
1966.695098,0.000000,-1258.350101,9326.594869
1966.695416,-1072.533697,-2146.597232,10362.883188
1966.695733,-1762.019645,-2072.576638,11547.212695
1966.696050,-1378.971896,-1480.411884,11473.192101
1966.696368,-1378.971896,-222.061783,11029.068536
1966.696685,-1302.362347,444.123565,11103.089130
1966.697002,0.000000,888.247130,11177.109724
1966.697319,1149.143247,1258.350101,9992.780217
1966.697637,2068.457845,1628.453072,9104.533087
1966.697954,2757.943793,1184.329507,8660.409521
1966.698271,2528.115143,1110.308913,8734.430116
1966.698589,2834.553343,1332.370696,7920.203579
1966.698906,3140.991542,1628.453072,7550.100608
1966.699223,1991.848295,740.205942,7772.162391
1966.699541,919.314598,-0.000000,8512.368333
1966.699858,76.609550,-370.102971,8882.471304
1966.700175,-383.047749,-296.082377,9104.533087
1966.700493,-919.314598,-962.267725,9474.636058
1966.700810,-1685.410096,-1554.432478,10140.821405
1966.701127,-1762.019645,-1702.473667,10584.944971
1966.701444,-1455.581446,-1628.453072,10510.924376
1966.701762,-919.314598,-666.185348,10658.965565
1966.702079,-919.314598,-444.123565,10140.821405
1966.702396,76.609550,1036.288319,9918.759623
1966.702714,919.314598,2072.576638,9104.533087
1966.703031,1762.019645,2294.638420,8512.368333
1966.703348,1991.848295,2294.638420,8142.265362
1966.703666,2374.896044,2368.659014,7920.203579
1966.703983,2451.505594,2664.741391,7402.059420
1966.704300,2145.067394,2220.617826,7550.100608
1966.704617,1532.190996,1480.411884,7994.224174
1966.704935,612.876398,-0.000000,9252.574275
1966.705252,153.219100,-222.061783,9918.759623
1966.705569,-459.657299,-888.247130,10436.903782
1966.705887,-1149.143247,-1480.411884,11029.068536
1966.706204,-995.924147,-1702.473667,11843.295072
1966.706521,-612.876398,-1776.494261,12139.377449
1966.706839,0.000000,-740.205942,10955.047942
1966.707156,536.266849,-0.000000,10214.842000
1966.707473,1608.800546,1036.288319,9400.615463
1966.707791,3677.258390,1406.391290,8956.491898
1966.708108,3447.429741,1924.535449,7846.182985
1966.708425,4596.572988,1702.473667,7476.080014
1966.708742,4213.525239,1036.288319,7846.182985
1966.709060,3753.867940,1036.288319,7994.224174
1966.709377,2834.553343,1036.288319,7698.141797
1966.709694,2298.286494,592.164754,8290.306550
1966.710012,995.924147,-74.020594,8956.491898
1966.710329,0.000000,-370.102971,9696.697840
1966.710646,-689.485948,-962.267725,10658.965565
1966.710964,-1378.971896,-1184.329507,11103.089130
1966.711281,-1915.238745,-1628.453072,11843.295072
1966.711598,-2145.067394,-1332.370696,12361.439231
1966.711915,-2528.115143,-1258.350101,12287.418637
1966.712233,-1378.971896,-666.185348,11769.274478
1966.712550,-1149.143247,-0.000000,11251.130318
1966.712867,766.095498,444.123565,10214.842000
1966.713185,2374.896044,1110.308913,9770.718434
1966.713502,3064.381992,1924.535449,7698.141797
1966.713819,4060.306139,1702.473667,7179.997637
1966.714137,3370.820191,1406.391290,6883.915261
1966.714454,3600.648841,1258.350101,6957.935855
1966.714771,3677.258390,370.102971,6735.874072
1966.715089,2298.286494,518.144159,7105.977043
1966.715406,1302.362347,-74.020594,8512.368333
1966.715723,0.000000,-148.041188,9104.533087
1966.716040,-689.485948,-296.082377,9548.656652
1966.716358,-1455.581446,-740.205942,10436.903782
1966.716675,-2221.676944,-1110.308913,11251.130318
1966.716992,-2834.553343,-1628.453072,11991.336260
1966.717310,-2221.676944,-1036.288319,11917.315666
1966.717627,-1762.019645,-148.041188,11103.089130
1966.717944,-306.438199,-0.000000,11029.068536
1966.718262,689.485948,888.247130,10214.842000
1966.718579,2681.334243,1110.308913,9400.615463
1966.718896,3370.820191,1702.473667,8068.244768
1966.719214,3447.429741,2146.597232,7105.977043
1966.719531,4290.134789,1554.432478,7031.956449
1966.719848,4060.306139,1036.288319,5995.668130
1966.720165,3140.991542,814.226536,6069.688724
1966.720483,2298.286494,222.061783,6735.874072
1966.720800,1072.533697,-0.000000,7254.018232
1966.721117,76.609550,-888.247130,8290.306550
1966.721435,-689.485948,-1110.308913,9696.697840
1966.721752,-2068.457845,-1924.535449,10288.862594
1966.722069,-2604.724693,-2146.597232,11325.150913
1966.722387,-3064.381992,-2294.638420,12065.356855
1966.722704,-2757.943793,-1480.411884,12139.377449
1966.723021,-1991.848295,-444.123565,11547.212695
1966.723338,-1149.143247,370.102971,11103.089130
1966.723656,0.000000,962.267725,11177.109724
1966.723973,1225.752797,2072.576638,10140.821405
1966.724290,2681.334243,2590.720797,9104.533087
1966.724608,3447.429741,1850.514855,8512.368333
1966.724925,3983.696590,1628.453072,7846.182985
1966.725242,3907.087040,1628.453072,7105.977043
1966.725560,3830.477490,1184.329507,6513.812290
1966.725877,3140.991542,444.123565,7105.977043
1966.726194,2374.896044,-222.061783,7772.162391
1966.726512,1532.190996,-518.144159,8142.265362
1966.726829,229.828649,-962.267725,9326.594869
1966.727146,-612.876398,-1554.432478,9918.759623
1966.727463,-1378.971896,-1776.494261,10732.986159
1966.727781,-1838.629195,-1702.473667,11399.171507
1966.728098,-2221.676944,-740.205942,11399.171507
1966.728415,-1608.800546,-148.041188,11399.171507
1966.728733,-689.485948,370.102971,11473.192101
1966.729050,536.266849,814.226536,11473.192101
1966.729367,1915.238745,1554.432478,10584.944971
1966.729685,2298.286494,2664.741391,9252.574275
1966.730002,2681.334243,2812.782580,8438.347739
1966.730319,2911.162892,2812.782580,7920.203579
1966.730636,3447.429741,2812.782580,7550.100608
1966.730954,2911.162892,2442.679609,7105.977043
1966.731271,1915.238745,1628.453072,7550.100608
1966.731588,1072.533697,666.185348,8734.430116
1966.731906,459.657299,-0.000000,9548.656652
1966.732223,0.000000,-296.082377,9474.636058
1966.732540,-1225.752797,-1258.350101,10288.862594
1966.732858,-2068.457845,-1776.494261,11251.130318
1966.733175,-2374.896044,-1480.411884,11103.089130
1966.733492,-1915.238745,-1184.329507,11029.068536
1966.733810,-766.095498,-592.164754,10732.986159
1966.734127,-766.095498,-0.000000,10807.006753
1966.734444,0.000000,1406.391290,9844.739029
1966.734761,1072.533697,1850.514855,8734.430116
1966.735079,1838.629195,1036.288319,9400.615463
1966.735396,1762.019645,1184.329507,8734.430116
1966.735713,2068.457845,1332.370696,8068.244768
1966.736031,1915.238745,1554.432478,7994.224174
1966.736348,1455.581446,1406.391290,7772.162391
1966.736665,229.828649,888.247130,8142.265362
1966.736983,383.047749,-0.000000,9474.636058
1966.737300,-306.438199,-518.144159,9918.759623
1966.737617,-1072.533697,-1406.391290,10362.883188
1966.737934,-1762.019645,-2072.576638,11325.150913
1966.738252,-1762.019645,-3108.864956,12213.398043
1966.738569,-1991.848295,-2812.782580,11991.336260
1966.738886,-1149.143247,-2220.617826,11547.212695
1966.739204,-306.438199,-1702.473667,10436.903782
1966.739521,842.705048,-0.000000,9918.759623
1966.739838,3140.991542,1184.329507,8882.471304
1966.740156,3524.039291,2146.597232,7402.059420
1966.740473,4213.525239,1998.556043,6957.935855
1966.740790,4136.915689,1628.453072,7105.977043
1966.741108,3524.039291,1628.453072,7105.977043
1966.741425,3524.039291,1702.473667,7328.038826
1966.741742,2528.115143,1554.432478,7402.059420
1966.742060,1991.848295,1554.432478,7994.224174
1966.742377,1072.533697,518.144159,9030.512492
1966.742694,536.266849,-0.000000,9770.718434
1966.743012,-306.438199,-296.082377,9474.636058
1966.743329,-995.924147,-740.205942,10807.006753
1966.743646,-1072.533697,-1184.329507,11325.150913
1966.743964,-1608.800546,-1110.308913,11251.130318
1966.744281,-1149.143247,-74.020594,10807.006753
1966.744599,-536.266849,518.144159,9992.780217
1966.744916,229.828649,1332.370696,9474.636058
1966.745233,1608.800546,1776.494261,8808.450710
1966.745551,2451.505594,1998.556043,7846.182985
1966.745868,3064.381992,1628.453072,7254.018232
1966.746185,3447.429741,1258.350101,6957.935855
1966.746503,2757.943793,592.164754,7179.997637
1966.746820,2451.505594,666.185348,6809.894666
1966.747137,1532.190996,444.123565,7105.977043
1966.747455,383.047749,148.041188,7994.224174
1966.747772,-229.828649,-296.082377,9548.656652
1966.748090,-995.924147,-666.185348,10214.842000
1966.748407,-2068.457845,-1036.288319,11177.109724
1966.748724,-2374.896044,-2146.597232,12583.501014
1966.749042,-2834.553343,-1332.370696,13027.624579
1966.749359,-2374.896044,-1036.288319,12435.459826
1966.749676,-1762.019645,-740.205942,12287.418637
1966.749994,-919.314598,-74.020594,11991.336260
1966.750311,612.876398,444.123565,11103.089130
1966.750628,1762.019645,1036.288319,10066.800811
1966.750946,2604.724693,1480.411884,9400.615463
1966.751263,3370.820191,1406.391290,8734.430116
1966.751581,3217.601092,1702.473667,7476.080014
1966.751898,3447.429741,1258.350101,7179.997637
1966.752215,2987.772442,740.205942,7476.080014
1966.752533,2451.505594,444.123565,7179.997637
1966.752850,1378.971896,-296.082377,7920.203579
1966.753167,306.438199,-740.205942,9252.574275
1966.753485,-766.095498,-962.267725,9622.677246
1966.753802,-1838.629195,-1332.370696,10140.821405
1966.754119,-2298.286494,-1332.370696,11325.150913
1966.754437,-2374.896044,-1258.350101,12213.398043
1966.754754,-2298.286494,-74.020594,11991.336260
1966.755071,-1915.238745,666.185348,12139.377449
1966.755389,-766.095498,1406.391290,11325.150913
1966.755706,306.438199,2072.576638,11177.109724
1966.756024,2145.067394,2442.679609,9770.718434
1966.756341,3064.381992,2516.700203,8734.430116
1966.756658,3907.087040,2738.761985,7920.203579
1966.756976,4596.572988,2886.803174,6883.915261
1966.757293,4749.792088,2368.659014,6069.688724
1966.757610,4443.353888,1850.514855,5995.668130
1966.757928,3370.820191,962.267725,6735.874072
1966.758245,2374.896044,-0.000000,7328.038826
1966.758562,919.314598,-1258.350101,8438.347739
1966.758880,-612.876398,-1184.329507,8808.450710
1966.759197,-1302.362347,-2072.576638,10140.821405
1966.759515,-2298.286494,-2146.597232,10658.965565
1966.759832,-2528.115143,-2442.679609,11621.233289
1966.760149,-2451.505594,-1554.432478,11917.315666
1966.760467,-1532.190996,-518.144159,11621.233289
1966.760784,-536.266849,-0.000000,11473.192101
1966.761101,842.705048,592.164754,11547.212695
1966.761419,2451.505594,1332.370696,10881.027347
1966.761736,2987.772442,1924.535449,9178.553681
1966.762053,3983.696590,2146.597232,8956.491898
1966.762371,4443.353888,2072.576638,8142.265362
1966.762688,4519.963438,2072.576638,7624.121203
1966.763006,4366.744339,1406.391290,7031.956449
1966.763323,3140.991542,592.164754,7105.977043
1966.763640,2528.115143,-592.164754,7105.977043
1966.763958,1455.581446,-1258.350101,7846.182985
1966.764275,0.000000,-2072.576638,8512.368333
1966.764592,-1302.362347,-2664.741391,9474.636058
1966.764910,-2604.724693,-3627.009116,10955.047942
1966.765227,-3600.648841,-3330.926739,11695.253884
1966.765544,-3294.210641,-2368.659014,11843.295072
1966.765862,-3140.991542,-1332.370696,11547.212695
1966.766179,-2068.457845,-444.123565,11473.192101
1966.766497,-1072.533697,740.205942,10510.924376
1966.766814,0.000000,1628.453072,10140.821405
1966.767131,1762.019645,2294.638420,8882.471304
1966.767449,2451.505594,2220.617826,8586.388927
1966.767766,2681.334243,2072.576638,8142.265362
1966.768083,2681.334243,1998.556043,7846.182985
1966.768401,2528.115143,1628.453072,7402.059420
1966.768718,1991.848295,1998.556043,7476.080014
1966.769035,1378.971896,1332.370696,8512.368333
1966.769353,1378.971896,1110.308913,8290.306550
1966.769670,459.657299,740.205942,8290.306550
