#time,accel_x,accel_y,accel_z
1660.599564,612.876398,296.082377,9400.615463
1660.599881,459.657299,370.102971,9326.594869
1660.600199,766.095498,148.041188,9474.636058
1660.600516,842.705048,-0.000000,9918.759623
1660.600834,612.876398,-74.020594,9400.615463
1660.601151,689.485948,222.061783,9474.636058
1660.601469,612.876398,370.102971,9474.636058
1660.601786,612.876398,296.082377,9548.656652
1660.602103,536.266849,-0.000000,9548.656652
1660.602421,536.266849,222.061783,9474.636058
1660.602738,536.266849,222.061783,9474.636058
1660.603056,766.095498,222.061783,9548.656652
1660.603373,995.924147,148.041188,9474.636058
1660.603691,919.314598,222.061783,9474.636058
1660.604008,766.095498,-0.000000,9400.615463
1660.604326,536.266849,74.020594,9474.636058
1660.604643,459.657299,296.082377,9474.636058
1660.604961,459.657299,-0.000000,9474.636058
1660.605278,689.485948,222.061783,9548.656652
1660.605596,383.047749,222.061783,9400.615463
1660.605913,459.657299,222.061783,9474.636058
1660.606231,995.924147,296.082377,9400.615463
1660.606548,612.876398,148.041188,9474.636058
1660.606866,0.000000,-0.000000,9548.656652
1660.607183,689.485948,222.061783,9400.615463
1660.607501,612.876398,370.102971,9474.636058
1660.607818,766.095498,222.061783,9474.636058
1660.608136,919.314598,-0.000000,9548.656652
1660.608453,689.485948,222.061783,9326.594869
1660.608771,383.047749,222.061783,9400.615463
1660.609088,766.095498,148.041188,9326.594869
1660.609406,689.485948,222.061783,9474.636058
1660.609723,612.876398,-0.000000,9474.636058
1660.610041,459.657299,-0.000000,9400.615463
1660.610358,536.266849,296.082377,9400.615463
1660.610675,689.485948,148.041188,9474.636058
1660.610993,383.047749,370.102971,9474.636058
1660.611310,766.095498,148.041188,9400.615463
1660.611628,612.876398,222.061783,9474.636058
1660.611945,766.095498,296.082377,9326.594869
1660.612263,612.876398,370.102971,9474.636058
1660.612580,612.876398,-0.000000,9400.615463
1660.612898,229.828649,148.041188,9400.615463
1660.613215,689.485948,148.041188,9474.636058
1660.613533,766.095498,370.102971,9474.636058
1660.613850,536.266849,296.082377,9474.636058
1660.614168,536.266849,148.041188,9474.636058
1660.614485,612.876398,296.082377,9474.636058
1660.614803,612.876398,222.061783,9400.615463
1660.615120,842.705048,296.082377,9474.636058
1660.615438,766.095498,222.061783,9474.636058
1660.615755,766.095498,-0.000000,9400.615463
1660.616073,766.095498,518.144159,9622.677246
1660.616390,766.095498,-0.000000,9474.636058
1660.616708,612.876398,74.020594,9474.636058
1660.617025,536.266849,148.041188,9474.636058
1660.617343,766.095498,-0.000000,9326.594869
1660.617660,689.485948,-0.000000,9400.615463
1660.617978,536.266849,222.061783,9474.636058
1660.618295,842.705048,-0.000000,9400.615463
1660.618613,459.657299,370.102971,9474.636058
1660.618930,766.095498,370.102971,9474.636058
1660.619248,919.314598,-0.000000,9474.636058
1660.619565,612.876398,-0.000000,9696.697840
1660.619882,842.705048,370.102971,9474.636058
1660.620200,766.095498,296.082377,9400.615463
1660.620517,995.924147,296.082377,9326.594869
1660.620835,612.876398,370.102971,9548.656652
1660.621152,612.876398,222.061783,9474.636058
1660.621470,919.314598,370.102971,9252.574275
1660.621787,766.095498,148.041188,9474.636058
1660.622105,689.485948,-0.000000,9400.615463
1660.622422,536.266849,370.102971,9400.615463
1660.622740,842.705048,222.061783,9252.574275
1660.623057,995.924147,370.102971,9326.594869
1660.623375,1072.533697,370.102971,9326.594869
1660.623692,919.314598,148.041188,9474.636058
1660.624010,612.876398,148.041188,9474.636058
1660.624327,689.485948,222.061783,9400.615463
1660.624645,842.705048,370.102971,9400.615463
1660.624962,1302.362347,-0.000000,9474.636058
1660.625280,766.095498,-0.000000,9326.594869
1660.625597,766.095498,-0.000000,9400.615463
1660.625915,1149.143247,444.123565,9178.553681
1660.626232,995.924147,222.061783,9474.636058
1660.626550,1072.533697,296.082377,9474.636058
1660.626867,995.924147,296.082377,9400.615463
1660.627185,919.314598,370.102971,9474.636058
1660.627502,689.485948,370.102971,9474.636058
1660.627820,612.876398,370.102971,9326.594869
1660.628137,919.314598,-0.000000,9252.574275
1660.628454,766.095498,148.041188,9326.594869
1660.628772,842.705048,-74.020594,9474.636058
1660.629089,766.095498,222.061783,9548.656652
1660.629407,842.705048,74.020594,9474.636058
1660.629724,995.924147,-0.000000,9474.636058
1660.630042,689.485948,148.041188,9400.615463
1660.630359,919.314598,296.082377,9400.615463
1660.630677,919.314598,148.041188,9400.615463
1660.630994,1149.143247,-0.000000,9252.574275
1660.631312,459.657299,-0.000000,9252.574275
1660.631629,1072.533697,222.061783,9474.636058
1660.631947,842.705048,222.061783,9474.636058
1660.632264,842.705048,222.061783,9474.636058
1660.632582,1608.800546,296.082377,9474.636058
1660.632899,842.705048,444.123565,9326.594869
1660.633217,919.314598,444.123565,9326.594869
1660.633534,919.314598,222.061783,9400.615463
1660.633852,919.314598,222.061783,9252.574275
1660.634169,689.485948,222.061783,9030.512492
1660.634487,689.485948,-0.000000,9548.656652
1660.634804,1072.533697,-0.000000,9474.636058
1660.635122,689.485948,74.020594,9326.594869
1660.635439,766.095498,-148.041188,9474.636058
1660.635757,459.657299,-0.000000,9252.574275
1660.636074,306.438199,-0.000000,9104.533087
1660.636392,229.828649,-370.102971,9252.574275
1660.636709,153.219100,-666.185348,9178.553681
1660.637027,0.000000,-814.226536,9548.656652
1660.637344,0.000000,-666.185348,9474.636058
1660.637661,-229.828649,-888.247130,9622.677246
1660.637979,-383.047749,-666.185348,9400.615463
1660.638296,-306.438199,-518.144159,8956.491898
1660.638614,-459.657299,-888.247130,8956.491898
1660.638931,-919.314598,-888.247130,8660.409521
1660.639249,-766.095498,-1036.288319,8660.409521
1660.639566,-766.095498,-1406.391290,8956.491898
1660.639884,-1225.752797,-1850.514855,9326.594869
1660.640201,-842.705048,-1924.535449,9474.636058
1660.640519,-842.705048,-1406.391290,9622.677246
1660.640836,-689.485948,-962.267725,9178.553681
1660.641154,-459.657299,-444.123565,8660.409521
1660.641471,-689.485948,-962.267725,8216.285956
1660.641789,-383.047749,-888.247130,7994.224174
1660.642106,0.000000,-1480.411884,8438.347739
1660.642424,-306.438199,-2516.700203,9326.594869
1660.642741,-459.657299,-2886.803174,9548.656652
1660.643059,0.000000,-3034.844362,10214.842000
1660.643376,-612.876398,-2812.782580,10140.821405
1660.643694,-229.828649,-2368.659014,9992.780217
1660.644011,-383.047749,-1628.453072,9252.574275
1660.644329,-306.438199,-1110.308913,8586.388927
1660.644646,-766.095498,-1110.308913,8438.347739
1660.644964,-1072.533697,-1850.514855,8956.491898
1660.645281,-1455.581446,-2442.679609,8956.491898
1660.645599,-2221.676944,-3775.050304,9474.636058
1660.645916,-2757.943793,-4515.256246,10362.883188
1660.646234,-3830.477490,-4515.256246,10658.965565
1660.646551,-3677.258390,-4589.276840,10955.047942
1660.646868,-4290.134789,-4071.132681,10362.883188
1660.647186,-4443.353888,-4071.132681,10510.924376
1660.647503,-4290.134789,-3552.988522,10362.883188
1660.647821,-4673.182538,-3997.112087,10066.800811
1660.648138,-4749.792088,-3627.009116,10214.842000
1660.648456,-5286.058936,-3627.009116,9696.697840
1660.648773,-5209.449386,-3627.009116,9548.656652
1660.649091,-5209.449386,-3923.091493,9844.739029
1660.649408,-5515.887586,-4145.153275,10510.924376
1660.649726,-5362.668486,-3997.112087,10584.944971
1660.650043,-5286.058936,-3552.988522,10362.883188
1660.650361,-4749.792088,-3330.926739,10288.862594
1660.650678,-4596.572988,-3478.967927,11029.068536
1660.650996,-3830.477490,-2812.782580,10732.986159
1660.651313,-3294.210641,-2220.617826,10288.862594
1660.651631,-3064.381992,-1258.350101,9400.615463
1660.651948,-2298.286494,-814.226536,8882.471304
1660.652266,-2068.457845,-888.247130,8734.430116
1660.652583,-1608.800546,-1480.411884,8216.285956
1660.652901,-1378.971896,-2442.679609,9326.594869
1660.653218,-1455.581446,-3256.906145,10140.821405
1660.653536,-766.095498,-3552.988522,10658.965565
1660.653853,-842.705048,-3627.009116,11103.089130
1660.654171,-229.828649,-3478.967927,10288.862594
1660.654488,306.438199,-2886.803174,9992.780217
1660.654806,919.314598,-1702.473667,9030.512492
1660.655123,1762.019645,-1332.370696,7920.203579
1660.655440,2451.505594,-1184.329507,8438.347739
1660.655758,2528.115143,-1702.473667,8734.430116
1660.656075,2451.505594,-2368.659014,8660.409521
1660.656393,1915.238745,-2960.823768,8512.368333
1660.656710,1455.581446,-3404.947333,9104.533087
1660.657028,1225.752797,-3034.844362,8956.491898
1660.657345,1225.752797,-2368.659014,8660.409521
1660.657663,1072.533697,-1702.473667,8586.388927
1660.657980,612.876398,-1998.556043,9178.553681
1660.658298,153.219100,-2590.720797,9696.697840
1660.658615,0.000000,-2442.679609,9918.759623
1660.658933,-229.828649,-1998.556043,9770.718434
1660.659250,-536.266849,-1776.494261,9696.697840
1660.659568,-153.219100,-1406.391290,9918.759623
1660.659885,-383.047749,-814.226536,9622.677246
1660.660203,229.828649,-592.164754,9918.759623
1660.660520,0.000000,-592.164754,9622.677246
1660.660838,229.828649,-148.041188,9030.512492
1660.661155,1149.143247,148.041188,9104.533087
1660.661473,383.047749,-0.000000,7772.162391
1660.661790,229.828649,-444.123565,8660.409521
1660.662108,-153.219100,-444.123565,8660.409521
1660.662425,-766.095498,-296.082377,9178.553681
1660.662743,-1225.752797,-74.020594,9474.636058
1660.663060,-1838.629195,962.267725,9400.615463
1660.663378,-1991.848295,888.247130,9030.512492
1660.663695,-3294.210641,740.205942,9030.512492
1660.664013,-4366.744339,296.082377,9178.553681
1660.664330,-5209.449386,296.082377,8808.450710
1660.664647,-5592.497135,222.061783,9178.553681
1660.664965,-5898.935335,-888.247130,10066.800811
1660.665282,-6435.202183,-1628.453072,11177.109724
1660.665600,-6665.030833,-2664.741391,11917.315666
1660.665917,-6894.859482,-2442.679609,11991.336260
1660.666235,-6281.983084,-2368.659014,12065.356855
1660.666552,-5362.668486,-1184.329507,11843.295072
1660.666870,-4519.963438,-296.082377,10584.944971
1660.667187,-3600.648841,222.061783,9548.656652
1660.667505,-2911.162892,-148.041188,9178.553681
1660.667822,-2145.067394,-222.061783,8734.430116
1660.668140,-1608.800546,-962.267725,8586.388927
1660.668457,-1608.800546,-2072.576638,9178.553681
1660.668775,-1685.410096,-2368.659014,9474.636058
1660.669092,-1838.629195,-3330.926739,9696.697840
1660.669410,-1685.410096,-3404.947333,10362.883188
1660.669727,-1762.019645,-3404.947333,10881.027347
1660.670045,-1455.581446,-3256.906145,10732.986159
1660.670362,-1915.238745,-2812.782580,10288.862594
1660.670680,-1838.629195,-2812.782580,10807.006753
1660.670997,-2145.067394,-3256.906145,11399.171507
1660.671315,-1608.800546,-3701.029710,12287.418637
1660.671632,-1225.752797,-4737.318029,11769.274478
1660.671950,-1378.971896,-4589.276840,11621.233289
1660.672267,-689.485948,-4367.215058,11843.295072
1660.672585,383.047749,-3478.967927,10881.027347
1660.672902,1685.410096,-2590.720797,9696.697840
1660.673220,2604.724693,-2812.782580,9104.533087
1660.673537,3217.601092,-2220.617826,8142.265362
1660.673854,4290.134789,-2368.659014,7698.141797
1660.674172,3983.696590,-2738.761985,7105.977043
1660.674489,3447.429741,-3404.947333,7254.018232
1660.674807,2987.772442,-3552.988522,7698.141797
1660.675124,2145.067394,-2738.761985,7105.977043
1660.675442,919.314598,-3182.885551,7624.121203
1660.675759,-459.657299,-3997.112087,8734.430116
1660.676076,-1608.800546,-4071.132681,9696.697840
1660.676394,-2068.457845,-3997.112087,10140.821405
1660.676711,-2757.943793,-3997.112087,10214.842000
1660.677029,-2911.162892,-5107.421000,10732.986159
1660.677346,-2374.896044,-4737.318029,10881.027347
1660.677663,-1991.848295,-3923.091493,9770.718434
1660.677981,-995.924147,-3256.906145,9400.615463
1660.678298,-153.219100,-2886.803174,8438.347739
1660.678616,0.000000,-1628.453072,6291.750507
1660.678933,459.657299,-888.247130,5699.585753
1660.679250,306.438199,-1332.370696,5255.462188
1660.679568,-612.876398,-2294.638420,4663.297435
1660.679885,-1838.629195,-3108.864956,5625.565159
1660.680203,-2987.772442,-3775.050304,6735.874072
1660.680520,-4443.353888,-5033.400406,7550.100608
1660.680837,-5975.544884,-5255.462188,9326.594869
1660.681155,-6511.811733,-5329.482782,10732.986159
1660.681472,-6971.469032,-4737.318029,11473.192101
1660.681790,-6741.640382,-4737.318029,12583.501014
1660.682107,-5439.278036,-3997.112087,12731.542202
1660.682424,-4826.401637,-2294.638420,11991.336260
1660.682742,-3217.601092,-1110.308913,10288.862594
1660.683059,-1838.629195,-814.226536,9992.780217
1660.683377,-842.705048,814.226536,7328.038826
1660.683694,383.047749,888.247130,6069.688724
1660.684011,459.657299,296.082377,6069.688724
1660.684329,306.438199,-148.041188,6217.729913
1660.684646,-229.828649,-148.041188,5921.647536
1660.684964,-1302.362347,-1332.370696,6957.935855
1660.685281,-2068.457845,-1998.556043,9474.636058
1660.685598,-3370.820191,-2738.761985,10584.944971
1660.685916,-3600.648841,-3256.906145,12435.459826
1660.686233,-3907.087040,-2590.720797,13101.645173
1660.686551,-3370.820191,-1406.391290,13841.851115
1660.686868,-2451.505594,-0.000000,13619.789333
1660.687185,-229.828649,-0.000000,13545.768739
1660.687503,-536.266849,2368.659014,9474.636058
1660.687820,1915.238745,1628.453072,10288.862594
1660.688138,2681.334243,2516.700203,7846.182985
1660.688455,4136.915689,1332.370696,8142.265362
1660.688772,4596.572988,74.020594,8438.347739
1660.689090,4519.963438,1184.329507,9178.553681
1660.689407,5286.058936,740.205942,9622.677246
1660.689725,4136.915689,-0.000000,8808.450710
1660.690042,4826.401637,666.185348,9992.780217
1660.690359,3524.039291,-0.000000,10881.027347
1660.690677,2681.334243,1036.288319,10066.800811
1660.690994,2987.772442,296.082377,11251.130318
1660.691312,1685.410096,518.144159,11473.192101
1660.691629,2374.896044,888.247130,11251.130318
1660.691946,2221.676944,222.061783,10807.006753
1660.692264,1608.800546,-0.000000,10955.047942
1660.692581,2757.943793,444.123565,11843.295072
1660.692899,3294.210641,1554.432478,10214.842000
1660.693216,4443.353888,2664.741391,9918.759623
1660.693533,5209.449386,2886.803174,9474.636058
1660.693851,5132.839837,3627.009116,7402.059420
1660.694168,4673.182538,2664.741391,7772.162391
1660.694486,4290.134789,2368.659014,8808.450710
1660.694803,2757.943793,3701.029710,7624.121203
1660.695120,2145.067394,2812.782580,8290.306550
1660.695438,536.266849,1850.514855,9474.636058
1660.695755,-919.314598,962.267725,9992.780217
1660.696073,-1838.629195,-222.061783,10584.944971
1660.696390,-2298.286494,666.185348,10288.862594
1660.696707,-1838.629195,740.205942,10807.006753
1660.697025,-1915.238745,1850.514855,9030.512492
1660.697342,-766.095498,2220.617826,7476.080014
1660.697660,-1072.533697,1924.535449,7105.977043
1660.697977,-1225.752797,1036.288319,7254.018232
1660.698294,-1302.362347,1184.329507,6661.853478
1660.698612,-1378.971896,1406.391290,7254.018232
1660.698929,-2221.676944,148.041188,9252.574275
1660.699247,-3753.867940,-740.205942,10066.800811
1660.699564,-3830.477490,-1036.288319,11843.295072
1660.699881,-4519.963438,-740.205942,11325.150913
1660.700199,-3217.601092,-888.247130,11843.295072
1660.700516,-3294.210641,-888.247130,11399.171507
1660.700834,-2298.286494,370.102971,10362.883188
1660.701151,-1149.143247,518.144159,8956.491898
1660.701468,-306.438199,-0.000000,8956.491898
1660.701786,766.095498,-74.020594,7994.224174
1660.702103,612.876398,-222.061783,7402.059420
1660.702421,1072.533697,-296.082377,7476.080014
1660.702738,766.095498,-962.267725,7772.162391
1660.703055,459.657299,-2294.638420,9548.656652
1660.703373,1608.800546,-2072.576638,10362.883188
1660.703690,1149.143247,-2072.576638,10584.944971
1660.704008,1225.752797,-1998.556043,11399.171507
1660.704325,1149.143247,-2294.638420,12583.501014
1660.704642,1225.752797,-1554.432478,11843.295072
1660.704960,2221.676944,-148.041188,11325.150913
1660.705277,2911.162892,444.123565,10658.965565
1660.705595,2834.553343,1036.288319,9326.594869
1660.705912,4673.182538,1036.288319,8956.491898
1660.706229,4826.401637,370.102971,8290.306550
1660.706547,5286.058936,-666.185348,8660.409521
1660.706864,5286.058936,-1554.432478,8364.327145
1660.707182,4979.620737,-1554.432478,7179.997637
1660.707499,5515.887586,-1702.473667,8216.285956
1660.707816,5286.058936,-740.205942,8586.388927
1660.708134,4290.134789,-814.226536,8512.368333
1660.708451,3677.258390,-0.000000,8142.265362
1660.708769,2987.772442,-0.000000,9770.718434
1660.709086,2221.676944,296.082377,9474.636058
1660.709403,2298.286494,-0.000000,9622.677246
1660.709721,1762.019645,-0.000000,9770.718434
1660.710038,1072.533697,518.144159,9400.615463
1660.710356,1225.752797,370.102971,9030.512492
1660.710673,2068.457845,444.123565,8290.306550
1660.710990,2145.067394,592.164754,7846.182985
1660.711308,2298.286494,1332.370696,7476.080014
1660.711625,919.314598,1628.453072,5699.585753
1660.711943,536.266849,1258.350101,6735.874072
1660.712260,689.485948,-370.102971,7698.141797
1660.712578,-1762.019645,-0.000000,7476.080014
1660.712895,-3064.381992,-0.000000,9844.739029
1660.713212,-4060.306139,1258.350101,8660.409521
1660.713530,-3983.696590,-592.164754,10881.027347
1660.713847,-4366.744339,-1554.432478,13471.748144
1660.714165,-5592.497135,-740.205942,11843.295072
1660.714482,-4596.572988,1554.432478,9474.636058
1660.714799,-2911.162892,2812.782580,10436.903782
1660.715117,-1915.238745,1702.473667,10881.027347
1660.715434,-1302.362347,2146.597232,7328.038826
1660.715752,-1225.752797,2812.782580,7105.977043
1660.716069,-995.924147,1998.556043,7772.162391
1660.716386,153.219100,1480.411884,9326.594869
1660.716704,383.047749,1776.494261,6957.935855
1660.717021,612.876398,1406.391290,7624.121203
1660.717339,-995.924147,1332.370696,10436.903782
1660.717656,0.000000,-0.000000,11473.192101
1660.717973,76.609550,592.164754,10214.842000
1660.718291,153.219100,2590.720797,10732.986159
1660.718608,689.485948,3034.844362,12509.480420
1660.718926,1685.410096,3108.864956,10732.986159
1660.719243,2834.553343,2590.720797,9992.780217
1660.719560,2528.115143,3034.844362,9696.697840
1660.719878,3064.381992,3330.926739,9104.533087
1660.720195,4060.306139,2738.761985,7994.224174
1660.720513,4596.572988,2368.659014,8586.388927
1660.720830,4443.353888,1332.370696,9474.636058
1660.721147,3447.429741,592.164754,9474.636058
1660.721465,3140.991542,222.061783,9622.677246
1660.721782,3983.696590,-0.000000,11695.253884
1660.722100,3370.820191,740.205942,11103.089130
1660.722417,3753.867940,888.247130,12065.356855
1660.722734,3677.258390,1480.411884,12287.418637
1660.723052,3677.258390,2220.617826,11399.171507
1660.723369,4749.792088,2146.597232,10214.842000
1660.723687,4596.572988,2072.576638,9622.677246
1660.724004,4136.915689,1998.556043,8808.450710
1660.724321,3907.087040,1258.350101,8512.368333
1660.724639,3447.429741,888.247130,8364.327145
1660.724956,3830.477490,-814.226536,9918.759623
1660.725274,2451.505594,-1998.556043,9474.636058
1660.725591,1378.971896,-2072.576638,9622.677246
1660.725908,842.705048,-1406.391290,9992.780217
1660.726226,536.266849,-1258.350101,10807.006753
1660.726543,612.876398,-370.102971,11991.336260
1660.726861,536.266849,1036.288319,11325.150913
1660.727178,536.266849,2146.597232,10584.944971
1660.727495,383.047749,2590.720797,9992.780217
1660.727813,1072.533697,2220.617826,9474.636058
1660.728130,1608.800546,2072.576638,8882.471304
1660.728448,1838.629195,1702.473667,8068.244768
1660.728765,1762.019645,1258.350101,7105.977043
1660.729082,1532.190996,-0.000000,7031.956449
1660.729400,229.828649,-0.000000,6957.935855
1660.729717,306.438199,-370.102971,7031.956449
1660.730035,-1225.752797,-592.164754,6661.853478
1660.730352,-1762.019645,-962.267725,7772.162391
1660.730669,-2528.115143,-962.267725,8808.450710
1660.730987,-3217.601092,-444.123565,10140.821405
1660.731304,-3140.991542,-370.102971,10881.027347
1660.731622,-3983.696590,-74.020594,10140.821405
1660.731939,-3524.039291,222.061783,11843.295072
1660.732256,-3064.381992,1924.535449,10510.924376
1660.732574,-1608.800546,2590.720797,9474.636058
1660.732891,-306.438199,3034.844362,7920.203579
1660.733209,842.705048,2664.741391,7402.059420
1660.733526,1149.143247,1998.556043,5329.482782
1660.733843,1455.581446,370.102971,5181.441594
1660.734161,842.705048,-1406.391290,6217.729913
1660.734478,0.000000,-2294.638420,7254.018232
1660.734796,-1149.143247,-2294.638420,8068.244768
1660.735113,-2221.676944,-2220.617826,9252.574275
1660.735430,-2451.505594,-2442.679609,11399.171507
1660.735748,-2374.896044,-2072.576638,12583.501014
1660.736065,-1685.410096,-962.267725,13397.727550
1660.736383,-229.828649,962.267725,12287.418637
1660.736700,766.095498,1924.535449,11917.315666
1660.737017,3140.991542,3108.864956,11029.068536
1660.737335,4749.792088,3701.029710,8142.265362
1660.737652,5669.106685,3404.947333,7179.997637
1660.737970,6358.592633,2442.679609,6957.935855
1660.738287,4979.620737,1554.432478,5255.462188
1660.738604,4903.011187,-592.164754,6365.771101
1660.738922,3753.867940,-2294.638420,9474.636058
1660.739239,2068.457845,-3182.885551,10288.862594
1660.739557,766.095498,-2738.761985,10214.842000
1660.739874,229.828649,-3034.844362,12583.501014
1660.740191,76.609550,-1924.535449,14508.036463
1660.740509,1072.533697,-1702.473667,15174.221811
1660.740826,1762.019645,1332.370696,13397.727550
1660.741144,2451.505594,3034.844362,12065.356855
1660.741461,4060.306139,4441.235652,9104.533087
1660.741778,4979.620737,4737.318029,7179.997637
1660.742096,6741.640382,4219.173869,6291.750507
1660.742413,6052.154434,2738.761985,5403.503377
1660.742731,5286.058936,296.082377,5255.462188
1660.743048,3677.258390,-1776.494261,6439.791695
1660.743365,2451.505594,-3552.988522,8586.388927
1660.743683,0.000000,-4293.194464,8586.388927
1660.744000,-1608.800546,-3552.988522,10807.006753
1660.744318,-2834.553343,-3478.967927,12509.480420
1660.744635,-3217.601092,-2220.617826,13101.645173
1660.744952,-2681.334243,-962.267725,15100.201217
1660.745270,-1991.848295,1184.329507,13471.748144
1660.745587,-1991.848295,1924.535449,10436.903782
1660.745905,-1608.800546,3256.906145,9548.656652
1660.746222,-842.705048,3182.885551,9622.677246
1660.746539,766.095498,4293.194464,5847.626942
1660.746857,1685.410096,3849.070898,4959.379811
1660.747174,2145.067394,2294.638420,5107.421000
1660.747492,612.876398,296.082377,4737.318029
1660.747809,1072.533697,-3034.844362,8290.306550
1660.748126,-1149.143247,-4441.235652,7105.977043
1660.748444,-2374.896044,-4663.297435,8364.327145
1660.748761,-4673.182538,-3849.070898,9696.697840
1660.749079,-6052.154434,-3552.988522,12435.459826
1660.749396,-4903.011187,-1776.494261,14952.160028
1660.749713,-3907.087040,-962.267725,13767.830521
1660.750031,-3677.258390,1258.350101,11991.336260
1660.750348,-2834.553343,2294.638420,12139.377449
1660.750666,-1915.238745,4293.194464,10658.965565
1660.750983,1991.848295,5699.585753,6883.915261
1660.751300,4903.011187,6365.771101,5403.503377
1660.751618,5132.839837,3849.070898,3404.947333
1660.751935,5056.230287,888.247130,3701.029710
1660.752253,5745.716235,-1184.329507,7994.224174
1660.752570,4903.011187,-2220.617826,6735.874072
1660.752887,3677.258390,-4071.132681,7846.182985
1660.753205,306.438199,-4145.153275,9474.636058
1660.753522,-1991.848295,-5181.441594,13175.665768
1660.753840,-2757.943793,-3627.009116,14063.912898
1660.754157,-1991.848295,-2368.659014,16580.613101
1660.754474,-689.485948,-444.123565,15100.201217
1660.754792,0.000000,3404.947333,11621.233289
1660.755109,459.657299,4515.256246,10436.903782
1660.755427,3064.381992,3997.112087,8216.285956
1660.755744,4979.620737,4737.318029,5033.400406
1660.756061,5286.058936,2368.659014,3552.988522
1660.756379,3677.258390,1332.370696,3330.926739
1660.756696,2834.553343,-1554.432478,8364.327145
1660.757014,1838.629195,-3330.926739,9548.656652
1660.757331,0.000000,-5329.482782,10436.903782
1660.757648,-2068.457845,-6439.791695,13619.789333
1660.757966,-4903.011187,-5847.626942,14359.995275
1660.758283,-4213.525239,-3775.050304,15766.386565
1660.758601,-842.705048,-1036.288319,16358.551318
1660.758918,0.000000,2220.617826,12435.459826
1660.759235,1838.629195,4663.297435,12139.377449
1660.759553,2068.457845,6957.935855,9474.636058
1660.759870,4366.744339,8216.285956,6439.791695
1660.760188,5592.497135,7846.182985,1850.514855
1660.760505,6511.811733,4367.215058,3256.906145
1660.760822,4060.306139,888.247130,1110.308913
1660.761140,3140.991542,-2442.679609,6587.832884
1660.761457,3217.601092,-5699.585753,9844.739029
1660.761775,2374.896044,-6439.791695,8660.409521
1660.762092,842.705048,-7994.224174,10881.027347
1660.762409,-3447.429741,-6069.688724,11177.109724
1660.762727,-3753.867940,-5773.606348,15396.283594
1660.763044,-2834.553343,-2294.638420,14359.995275
1660.763362,-1762.019645,1258.350101,11325.150913
1660.763679,-459.657299,3256.906145,10955.047942
1660.763996,-1608.800546,5699.585753,10881.027347
1660.764314,0.000000,5921.647536,9474.636058
1660.764631,1149.143247,6957.935855,7031.956449
1660.764949,2374.896044,4885.359217,3775.050304
1660.765266,2221.676944,2960.823768,2886.803174
1660.765583,536.266849,666.185348,3330.926739
1660.765901,1225.752797,-4737.318029,7994.224174
1660.766218,306.438199,-5921.647536,7994.224174
1660.766536,-153.219100,-8734.430116,9918.759623
1660.766853,-3753.867940,-7031.956449,10436.903782
1660.767170,-5209.449386,-8512.368333,17024.736666
1660.767488,-6971.469032,-4885.359217,15174.221811
1660.767805,-5056.230287,-3182.885551,13545.768739
1660.768123,-4290.134789,814.226536,13841.851115
1660.768440,-4443.353888,3034.844362,11843.295072
1660.768757,-1149.143247,8142.265362,9770.718434
1660.769075,1608.800546,9474.636058,4145.153275
1660.769392,4749.792088,9400.615463,2146.597232
1660.769710,4903.011187,6291.750507,888.247130
1660.770027,2757.943793,222.061783,3701.029710
1660.770344,2451.505594,-6661.853478,8882.471304
1660.770662,1378.971896,-6883.915261,9548.656652
1660.770979,1072.533697,-9326.594869,12435.459826
1660.771297,-2911.162892,-8068.244768,11695.253884
1660.771614,-3064.381992,-7994.224174,16062.468941
1660.771931,-3600.648841,-3997.112087,17024.736666
1660.772249,-1072.533697,-1258.350101,15914.427753
1660.772566,1225.752797,2146.597232,11251.130318
1660.772884,2451.505594,6809.894666,9178.553681
1660.773197,4749.792088,9696.697840,9104.533087
1660.773514,7890.783629,10807.006753,4589.276840
1660.773832,9499.584175,10362.883188,-1184.329507
1660.774149,8963.317327,5403.503377,-888.247130
1660.774466,7048.078582,2886.803174,444.123565
1660.774784,4903.011187,-2664.741391,6291.750507
1660.775101,3830.477490,-5847.626942,8956.491898
1660.775419,612.876398,-11177.109724,10807.006753
1660.775736,-2834.553343,-11325.150913,14211.954086
1660.776053,-5132.839837,-11103.089130,19837.519246
1660.776371,-3370.820191,-6439.791695,20873.807564
1660.776688,-612.876398,-3256.906145,16802.674883
1660.777006,459.657299,3552.988522,14211.954086
1660.777323,2451.505594,6957.935855,13989.892304
1660.777640,1991.848295,15174.221811,5921.647536
1660.777958,8197.221829,15026.180623,6587.832884
1660.778275,7584.345430,16432.571912,-2146.597232
1660.778593,6281.983084,10066.800811,-2960.823768
1660.778910,5132.839837,5921.647536,-2442.679609
1660.779227,1455.581446,-2368.659014,6291.750507
1660.779545,1378.971896,-11991.336260,12213.398043
1660.779862,-2145.067394,-14878.139434,10658.965565
1660.780180,-3753.867940,-16654.633695,16580.613101
1660.780497,-7967.393179,-12731.542202,16506.592507
1660.780814,-5515.887586,-10436.903782,23686.590144
1660.781132,-6205.373534,-3627.009116,16210.510130
1660.781449,-3217.601092,3034.844362,13397.727550
1660.781766,-612.876398,7772.162391,12213.398043
1660.782084,-3370.820191,15914.427753,4293.194464
1660.782401,3140.991542,16284.530724,7920.203579
1660.782719,3524.039291,18727.210333,-1110.308913
1660.783036,4519.963438,14508.036463,-3404.947333
1660.783353,4136.915689,10362.883188,0.000000
1660.783671,-306.438199,1776.494261,4071.132681
1660.783988,1762.019645,-10436.903782,15396.283594
1660.784306,-1302.362347,-13397.727550,12139.377449
1660.784623,-2834.553343,-17838.963202,16136.489536
1660.784940,-8580.269578,-16062.468941,15766.386565
1660.785258,-5822.325785,-13027.624579,23464.528361
1660.785575,-4749.792088,-5329.482782,22132.157666
1660.785893,-3677.258390,370.102971,13915.871710
1660.786210,766.095498,3701.029710,16506.592507
1660.786527,-2757.943793,15248.242405,5181.441594
1660.786845,3294.210641,18283.086767,5773.606348
1660.787162,7507.735880,20281.642811,-814.226536
1660.787480,7814.174080,18653.189738,1480.411884
1660.787797,11721.261119,13619.789333,-3775.050304
1660.788114,8963.317327,7550.100608,-9030.512492
1660.788432,8810.098227,-8216.285956,13693.809927
1660.788749,3907.087040,-16580.613101,15174.221811
1660.789067,-459.657299,-22206.178260,12805.562797
1660.789384,-5209.449386,-20725.766376,16358.551318
1660.789701,-8580.269578,-12361.439231,25611.125593
1660.790019,-5745.716235,-9696.697840,22946.384202
1660.790336,-5975.544884,-4663.297435,18431.127956
1660.790653,-1149.143247,-444.123565,18949.272115
1660.790971,229.828649,9252.574275,12139.377449
1660.791288,842.705048,19615.457463,-222.061783
1660.791606,10189.070123,20429.683999,7105.977043
1660.791923,7890.783629,23168.445985,-1554.432478
1660.792240,13713.109414,18505.148550,-3923.091493
1660.792558,11108.384721,10584.944971,-14656.077652
1660.792875,8963.317327,740.205942,-3997.112087
1660.793193,10648.727422,-16580.613101,22798.343014
1660.793510,-3370.820191,-19911.539840,2442.679609
1660.793827,-1532.190996,-26869.475695,15692.365970
1660.794145,-9269.755526,-16432.571912,20059.581028
1660.794462,-8733.488677,-16654.633695,22502.260637
1660.794780,-8886.707777,-8142.265362,15470.304188
1660.795097,-5132.839837,-4145.153275,16876.695478
1660.795414,76.609550,3627.009116,15026.180623
1660.795732,689.485948,18061.024985,5403.503377
1660.796049,4519.963438,19171.333898,8216.285956
1660.796367,5669.106685,22576.281231,4737.318029
1660.796684,6818.249932,23242.466579,-7105.977043
1660.797001,8044.002729,17987.004391,-5403.503377
1660.797319,7737.564530,8586.388927,-7105.977043
1660.797636,7967.393179,-0.000000,-3775.050304
1660.797954,8656.879127,-15914.427753,13989.892304
1660.798271,-4060.306139,-19245.354492,10362.883188
1660.798588,-4673.182538,-26277.310941,25018.960840
1660.798906,-9576.193725,-20059.581028,18801.230927
1660.799223,-9806.022374,-19911.539840,22502.260637
1660.799540,-10342.289223,-13767.830521,22428.240043
1660.799858,-9806.022374,-888.247130,14137.933492
1660.800175,153.219100,2590.720797,16802.674883
1660.800493,-2298.286494,21836.075289,2146.597232
1660.800810,4596.572988,23390.507767,10732.986159
1660.801127,5056.230287,29534.217086,-888.247130
1660.801445,7277.907231,22206.178260,-7476.080014
1660.801762,9652.803275,11769.274478,-5181.441594
1660.802080,3524.039291,4219.173869,-8512.368333
1660.802397,10955.165621,-8956.491898,13915.871710
1660.802714,1225.752797,-18505.148550,9178.553681
1660.803032,-1378.971896,-24870.919651,16728.654289
1660.803349,-5745.716235,-21169.889941,24352.775492
1660.803667,-14172.766713,-10584.944971,18505.148550
1660.803984,-6511.811733,-17764.942608,27387.619854
1660.804301,-9576.193725,-11473.192101,24352.775492
1660.804619,-4903.011187,-1702.473667,18431.127956
1660.804936,-383.047749,13545.768739,10732.986159
1660.805254,3753.867940,25389.063811,7994.224174
1660.805571,6052.154434,25981.228564,4367.215058
1660.805888,10342.289223,30792.567187,0.000000
1660.806206,14709.033562,26277.310941,-7105.977043
1660.806523,12487.356617,12361.439231,-15914.427753
1660.806841,11261.603821,2442.679609,-7550.100608
1660.807158,15092.081311,-11917.315666,14730.098246
1660.807475,919.314598,-21614.013506,7031.956449
1660.807793,-689.485948,-25537.104999,20725.766376
1660.808110,-9269.755526,-18949.272115,21984.116477
1660.808428,-10878.556072,-18727.210333,21021.848753
1660.808745,-11261.603821,-17394.839637,24352.775492
1660.809062,-8886.707777,-10140.821405,26573.393318
1660.809380,-4673.182538,666.185348,18727.210333
1660.809697,2681.334243,20281.642811,10955.047942
1660.810014,6435.202183,22798.343014,10362.883188
1660.810332,6281.983084,34049.473332,7402.059420
1660.810649,10725.336972,33531.329173,-10955.047942
1660.810967,13100.233016,22798.343014,-8586.388927
1660.811284,13330.061665,9918.759623,-13027.624579
1660.811601,9959.241474,4367.215058,-14730.098246
1660.811919,12334.137518,-13545.768739,11769.274478
1660.812236,-1378.971896,-23316.487173,15322.262999
1660.812554,-5132.839837,-26869.475695,23390.507767
1660.812871,-7814.174080,-24574.837274,27239.578666
1660.813188,-16700.881856,-17764.942608,19763.498651
1660.813506,-11721.261119,-23538.548956,30052.361245
1660.813823,-10495.508323,-9474.636058,24426.796086
1660.814141,-4290.134789,1554.432478,19023.292709
1660.814458,1455.581446,21984.116477,12509.480420
1660.814775,2221.676944,30792.567187,6661.853478
1660.815093,7431.126331,35751.946999,4737.318029
1660.815410,7584.345430,32198.958477,-12731.542202
1660.815728,10572.117872,15470.304188,-8660.409521
1660.816045,8886.707777,4515.256246,-16432.571912
1660.816362,10418.898773,-444.123565,-8216.285956
1660.816680,11184.994271,-15618.345376,14359.995275
1660.816997,-919.314598,-27757.722825,15396.283594
1660.817315,-3140.991542,-28127.825796,23538.548956
1660.817632,-7584.345430,-20947.828159,25018.960840
1660.817949,-13789.718964,-19689.478057,23020.404796
1660.818267,-13713.109414,-19763.498651,25241.022622
1660.818584,-6281.983084,-6513.812290,21984.116477
1660.818901,-229.828649,6513.812290,15840.407159
1660.819219,153.219100,27757.722825,4959.379811
1660.819536,3447.429741,26055.249158,8512.368333
1660.819854,4903.011187,34863.699868,-962.267725
1660.820171,8886.707777,25759.166782,-14285.974681
1660.820488,13406.671215,13397.727550,-8734.430116
1660.820806,4979.620737,5921.647536,-24944.940245
1660.821123,10801.946522,-9400.615463,5403.503377
1660.821441,4903.011187,-22576.281231,9474.636058
1660.821758,-4673.182538,-30052.361245,17246.798449
1660.822075,-7354.516781,-25611.125593,31754.834912
1660.822393,-14249.376263,-12583.501014,24944.940245
1660.822710,-9193.145976,-21984.116477,29830.299463
1660.823028,-12257.527968,-8586.388927,20059.581028
1660.823345,-2911.162892,-1036.288319,20207.622217
1660.823662,2451.505594,14359.995275,11325.150913
1660.823980,2298.286494,29238.134709,370.102971
1660.824297,6665.030833,25907.207970,12805.562797
1660.824615,5669.106685,33309.267390,-7698.141797
1660.824932,11951.089769,23094.425390,-15248.242405
1660.825249,11874.480219,10362.883188,-10807.006753
1660.825567,7048.078582,148.041188,-9474.636058
1660.825884,13100.233016,-16506.592507,8438.347739
1660.826202,153.219100,-23538.548956,12435.459826
1660.826519,-2451.505594,-30052.361245,23760.610738
1660.826836,-5286.058936,-21243.910535,31162.670158
1660.827154,-12334.137518,-14211.954086,20429.683999
1660.827471,-5056.230287,-22132.157666,30126.381839
1660.827788,-7584.345430,-9030.512492,19911.539840
1660.828106,1991.848295,6735.874072,15174.221811
1660.828423,5822.325785,23908.651927,2146.597232
1660.828741,3370.820191,33901.432144,-1258.350101
1660.829058,7124.688131,25759.166782,6809.894666
1660.829375,3447.429741,29164.114115,-16062.468941
1660.829693,9116.536426,16062.468941,-9918.759623
1660.830010,5745.716235,1184.329507,-10436.903782
1660.830328,1608.800546,-13323.706956,16432.571912
1660.830645,4903.011187,-25981.228564,15692.365970
1660.830962,-4213.525239,-24574.837274,14730.098246
1660.831280,-2681.334243,-28423.908173,39008.853143
1660.831597,-8503.660028,-15322.262999,21317.931130
1660.831915,-5822.325785,-8216.285956,15100.201217
1660.832232,-1762.019645,962.267725,15766.386565
1660.832549,-2604.724693,9178.553681,7254.018232
1660.832867,2681.334243,15766.386565,2146.597232
1660.833184,1838.629195,22132.157666,-3182.885551
1660.833502,3294.210641,12879.583391,8142.265362
1660.833819,-3753.867940,15914.427753,-5625.565159
1660.834136,4366.744339,11917.315666,-7179.997637
1660.834454,5286.058936,4737.318029,-1332.370696
1660.834771,5515.887586,-12509.480420,21910.095883
1660.835089,3600.648841,-18061.024985,22946.384202
1660.835406,4596.572988,-14434.015869,11621.233289
1660.835723,3294.210641,-14434.015869,21539.992912
1660.836041,229.828649,-8142.265362,14656.077652
1660.836358,-1072.533697,1406.391290,4071.132681
1660.836676,-229.828649,6217.729913,7179.997637
1660.836993,-2298.286494,5699.585753,3256.906145
1660.837310,1762.019645,7328.038826,4885.359217
1660.837628,-5132.839837,6365.771101,5551.544565
1660.837945,-4213.525239,962.267725,15396.283594
1660.838262,-4749.792088,-592.164754,11991.336260
1660.838580,-5209.449386,6957.935855,2368.659014
1660.838897,-536.266849,3404.947333,5181.441594
1660.839215,-229.828649,-1776.494261,13545.768739
1660.839532,2911.162892,-4885.359217,14656.077652
1660.839849,10495.508323,-7402.059420,19393.395680
1660.840167,3447.429741,-10658.965565,13915.871710
1660.840484,-3140.991542,-6291.750507,5033.400406
1660.840802,-1685.410096,-74.020594,5625.565159
1660.841119,-2374.896044,4441.235652,3256.906145
1660.841436,-4290.134789,1036.288319,7920.203579
1660.841754,-6128.763984,3849.070898,3923.091493
1660.842071,-8733.488677,1184.329507,3552.988522
1660.842389,-5362.668486,-8660.409521,17764.942608
1660.842706,-8120.612279,-10807.006753,26055.249158
1660.843023,-7354.516781,-6735.874072,19763.498651
1660.843341,1072.533697,3256.906145,13397.727550
1660.843658,4443.353888,7550.100608,5033.400406
1660.843976,12257.527968,2812.782580,14285.974681
1660.844293,9882.631924,5255.462188,10658.965565
1660.844610,16394.443657,8068.244768,5773.606348
1660.844928,15628.348159,8364.327145,-296.082377
1660.845245,10878.556072,3923.091493,-2072.576638
1660.845563,7048.078582,-3627.009116,740.205942
1660.845880,3294.210641,-0.000000,-1332.370696
1660.846197,1149.143247,-5403.503377,666.185348
1660.846515,-6205.373534,-11769.274478,8882.471304
1660.846832,-11338.213370,-13619.789333,16950.716072
1660.847149,-10112.460574,-7698.141797,20133.601622
1660.847467,-5898.935335,-9326.594869,24352.775492
1660.847784,-6128.763984,-13397.727550,28423.908173
1660.848102,-4596.572988,-7328.038826,26351.331535
1660.848419,383.047749,12657.521608,10881.027347
1660.848736,10112.460574,22354.219448,1628.453072
1660.849054,13636.499864,20503.704593,296.082377
1660.849371,14172.766713,14063.912898,3923.091493
1660.849689,15628.348159,10881.027347,-7476.080014
1660.850006,14325.985813,9252.574275,-6735.874072
1660.850323,13023.623466,-1924.535449,8512.368333
1660.850641,6205.373534,-6217.729913,2664.741391
1660.850958,3830.477490,-6587.832884,-4441.235652
1660.851276,-7431.126331,-6587.832884,888.247130
1660.851593,-14709.033562,-15396.283594,19985.560434
1660.851910,-17313.758255,-19245.354492,18209.066173
1660.852228,-16088.005458,-13841.851115,16802.674883
1660.852545,-13330.061665,-11695.253884,22576.281231
1660.852863,-13942.938064,-8216.285956,24870.919651
1660.853180,-9806.022374,-2442.679609,20651.745782
1660.853497,-2298.286494,10584.944971,15988.448347
1660.853815,2145.067394,18579.169144,8586.388927
1660.854132,7660.954980,23760.610738,-666.185348
1660.854450,11414.822920,22724.322419,4145.153275
1660.854767,14632.424012,19541.436869,888.247130
1660.855084,17160.539155,9178.553681,-5921.647536
1660.855402,14709.033562,2368.659014,5995.668130
1660.855719,11261.603821,-4071.132681,7254.018232
1660.856036,4366.744339,-11103.089130,962.267725
1660.856354,-4749.792088,-14804.118840,1110.308913
1660.856671,-11031.775171,-13915.871710,12435.459826
1660.856989,-12563.966167,-11325.150913,13989.892304
1660.857306,-13330.061665,-11103.089130,10362.883188
1660.857623,-14479.204912,-15026.180623,20799.786970
1660.857941,-17696.806004,-13471.748144,31976.896694
1660.858258,-12180.918418,-2294.638420,24574.837274
1660.858576,-5592.497135,8142.265362,14434.015869
1660.858893,-383.047749,19245.354492,8364.327145
1660.859210,5669.106685,22280.198854,-814.226536
1660.859528,9346.365076,21317.931130,296.082377
1660.859845,13330.061665,15988.448347,962.267725
1660.860163,16471.053207,7476.080014,8438.347739
1660.860480,16088.005458,-1258.350101,11547.212695
1660.860797,9806.022374,-2220.617826,10362.883188
1660.861115,4826.401637,-9252.574275,11547.212695
1660.861432,-6588.421283,-14285.974681,3108.864956
1660.861750,-5286.058936,-17394.839637,9696.697840
1660.862067,-11108.384721,-4367.215058,9400.615463
1660.862384,-8580.269578,-5107.421000,10732.986159
1660.862702,-6818.249932,-9696.697840,12065.356855
1660.863019,-11644.651570,-9400.615463,22132.157666
1660.863337,-6588.421283,-7179.997637,29608.237680
1660.863654,-1302.362347,6143.709319,11473.192101
1660.863971,6205.373534,12657.521608,3923.091493
1660.864289,7584.345430,13175.665768,2812.782580
1660.864606,13253.452115,17764.942608,5995.668130
1660.864924,17466.977354,19985.560434,-9696.697840
1660.865241,22140.159892,9104.533087,2368.659014
1660.865558,19612.044749,-4219.173869,12657.521608
1660.865876,10495.508323,-5699.585753,2886.803174
1660.866193,5515.887586,-8364.327145,3775.050304
1660.866510,-4519.963438,-10140.821405,5773.606348
1660.866828,-4903.011187,-14211.954086,14285.974681
1660.867145,-11414.822920,-6587.832884,9622.677246
1660.867463,-6971.469032,-4145.153275,14211.954086
1660.867780,-8350.440928,-9400.615463,12213.398043
1660.868097,-9882.631924,-9252.574275,26351.331535
1660.868415,-7124.688131,-2664.741391,25759.166782
1660.868732,-1991.848295,13101.645173,11843.295072
1660.869050,3677.258390,19911.539840,-4811.338623
1660.869367,2298.286494,18357.107362,-1184.329507
1660.869684,9959.241474,11843.295072,6143.709319
1660.870002,12104.308868,12879.583391,-10362.883188
1660.870319,18386.291952,3182.885551,7328.038826
1660.870637,13636.499864,-3182.885551,8068.244768
1660.870954,9499.584175,-8512.368333,5033.400406
1660.871271,3294.210641,-14211.954086,8586.388927
1660.871589,-9806.022374,-9474.636058,8586.388927
1660.871906,-9499.584175,-14359.995275,12583.501014
1660.872224,-14249.376263,-7624.121203,10140.821405
1660.872541,-9499.584175,-2886.803174,12287.418637
1660.872858,-12870.404366,-1110.308913,7698.141797
1660.873176,-10725.336972,-4071.132681,24130.713709
1660.873493,-7431.126331,-4367.215058,26869.475695
1660.873811,-3524.039291,11843.295072,13175.665768
1660.874128,612.876398,20207.622217,-3034.844362
1660.874445,2681.334243,18949.272115,0.000000
1660.874763,9806.022374,14211.954086,5847.626942
1660.875080,14555.814462,16136.489536,296.082377
1660.875397,16164.615008,3701.029710,5847.626942
1660.875715,11568.042020,-4219.173869,10584.944971
1660.876032,7507.735880,-6587.832884,7994.224174
1660.876349,0.000000,-11991.336260,8956.491898
1660.876667,-7354.516781,-13545.768739,11251.130318
1660.876984,-9422.974625,-10658.965565,13397.727550
1660.877301,-12027.699319,-10362.883188,15692.365970
1660.877619,-7354.516781,-6291.750507,12953.603985
1660.877936,-9576.193725,-4737.318029,8216.285956
1660.878253,-9499.584175,-6809.894666,27091.537477
1660.878571,-4979.620737,1110.308913,21539.992912
1660.878888,919.314598,19689.478057,8956.491898
1660.879205,3524.039291,27313.599260,-8142.265362
1660.879523,7048.078582,19467.416275,1776.494261
1660.879840,11797.870669,11769.274478,2220.617826
1660.880157,15245.300410,10881.027347,-370.102971
1660.880475,16854.100956,-4959.379811,13915.871710
1660.880792,8580.269578,-7031.956449,10955.047942
1660.881109,5209.449386,-11325.150913,11843.295072
1660.881427,536.266849,-15470.304188,20873.807564
1660.881744,-6741.640382,-15174.221811,18801.230927
1660.882061,-8963.317327,-10881.027347,6809.894666
1660.882379,-9576.193725,-8586.388927,14434.015869
1660.882696,-3140.991542,-1702.473667,12435.459826
1660.883013,-4979.620737,-1110.308913,6143.709319
1660.883331,-6435.202183,-3701.029710,20873.807564
1660.883648,-842.705048,-296.082377,22132.157666
1660.883965,3370.820191,20947.828159,4737.318029
1660.884283,5822.325785,21910.095883,-6069.688724
1660.884600,12793.794817,14137.933492,11695.253884
1660.884917,14096.157163,9474.636058,-4293.194464
1660.885235,20531.359346,13841.851115,-6513.812290
1660.885552,22982.864940,-2368.659014,7328.038826
1660.885869,8733.488677,-9770.718434,9474.636058
1660.886187,7814.174080,-15692.365970,8956.491898
1660.886504,306.438199,-12065.356855,10881.027347
1660.886821,-8197.221829,-10066.800811,10658.965565
1660.887139,-9422.974625,-12953.603985,15026.180623
1660.887456,-12717.185267,-10436.903782,15322.262999
1660.887773,-5056.230287,-4811.338623,13619.789333
1660.888091,-8427.050478,592.164754,7624.121203
1660.888408,-7201.297681,-3701.029710,23390.507767
1660.888725,-4290.134789,7105.977043,18209.066173
1660.889043,229.828649,24500.816680,1332.370696
1660.889360,5286.058936,26573.393318,-6587.832884
1660.889677,8427.050478,21095.869347,-2738.761985
1660.889995,15628.348159,11621.233289,1480.411884
1660.890312,15704.957709,6957.935855,-5699.585753
1660.890629,12410.747068,-5773.606348,4737.318029
1660.890947,5286.058936,-11103.089130,12213.398043
1660.891264,-229.828649,-14656.077652,8438.347739
1660.891581,-4903.011187,-18949.272115,14730.098246
1660.891899,-14555.814462,-8364.327145,10140.821405
1660.892216,-13100.233016,-13027.624579,14878.139434
1660.892533,-16164.615008,-12213.398043,13545.768739
1660.892851,-10801.946522,-4589.276840,10066.800811
1660.893168,-12410.747068,-4441.235652,16580.613101
1660.893485,-14632.424012,-5255.462188,24130.713709
1660.893803,-6128.763984,3701.029710,23094.425390
1660.894120,-2145.067394,24574.837274,4589.276840
1660.894437,3447.429741,25611.125593,-1776.494261
1660.894755,9729.412825,19911.539840,1776.494261
1660.895072,15168.690860,16580.613101,1480.411884
1660.895389,21144.235745,12583.501014,-6735.874072
1660.895707,14019.547613,-592.164754,1258.350101
1660.896024,8427.050478,-13693.809927,15470.304188
1660.896341,766.095498,-14582.057057,8364.327145
1660.896659,-2757.943793,-21910.095883,18949.272115
1660.896976,-8963.317327,-16062.468941,19541.436869
1660.897293,-7124.688131,-16062.468941,24944.940245
1660.897611,-8733.488677,-9696.697840,15396.283594
1660.897928,-1915.238745,-1258.350101,10955.047942
1660.898245,-3983.696590,1036.288319,11843.295072
1660.898563,-4596.572988,4885.359217,17912.983796
1660.898880,3140.991542,13471.748144,11177.109724
1660.899197,8044.002729,32050.917289,-3627.009116
1660.899515,9652.803275,27165.558071,-8438.347739
1660.899832,14632.424012,13915.871710,3775.050304
1660.900149,17620.196454,5181.441594,-3701.029710
1660.900467,18999.168350,518.144159,6365.771101
1660.900784,12487.356617,-9770.718434,9104.533087
1660.901101,1072.533697,-14582.057057,12657.521608
1660.901419,306.438199,-17024.736666,19985.560434
1660.901736,-6052.154434,-10362.883188,13323.706956
1660.902053,-11414.822920,-10436.903782,16136.489536
1660.902371,-10725.336972,-7402.059420,16506.592507
1660.902688,-8963.317327,-3182.885551,14582.057057
1660.903005,-3677.258390,-2368.659014,5847.626942
1660.903323,-7354.516781,-2960.823768,14211.954086
1660.903640,-9346.365076,-6143.709319,27239.578666
1660.903957,-4979.620737,11917.315666,9844.739029
1660.904275,2987.772442,22502.260637,1258.350101
1660.904592,6128.763984,18357.107362,2220.617826
1660.904909,9346.365076,18579.169144,1998.556043
1660.905227,18539.511052,16506.592507,-2738.761985
1660.905544,18156.463303,7254.018232,-2442.679609
1660.905861,11261.603821,-8068.244768,3478.967927
1660.906179,6052.154434,-15396.283594,10288.862594
1660.906496,-1072.533697,-13915.871710,5921.647536
1660.906813,-5286.058936,-16210.510130,14582.057057
1660.907131,-10878.556072,-10955.047942,15470.304188
1660.907448,-11951.089769,-11325.150913,17246.798449
1660.907765,-9806.022374,-5551.544565,18061.024985
1660.908083,-8044.002729,-1406.391290,8068.244768
1660.908400,-11031.775171,-1850.514855,14656.077652
1660.908717,-10878.556072,-962.267725,23686.590144
1660.909035,-2298.286494,15618.345376,11473.192101
1660.909352,-459.657299,28794.011144,-5477.523971
1660.909669,5362.668486,19911.539840,2220.617826
1660.909987,8120.612279,12953.603985,-1184.329507
1660.910304,12717.185267,10955.047942,-1998.556043
1660.910621,15781.567259,888.247130,8882.471304
1660.910939,4903.011187,-9844.739029,6217.729913
1660.911256,3830.477490,-13841.851115,10288.862594
1660.911573,-2145.067394,-14285.974681,13471.748144
1660.911891,-6511.811733,-17764.942608,18209.066173
1660.912208,-12410.747068,-9992.780217,12731.542202
1660.912525,-6818.249932,-10955.047942,15544.324782
1660.912843,-9576.193725,-3404.947333,10881.027347
1660.913160,-1685.410096,1258.350101,7846.182985
1660.913477,-8733.488677,-1036.288319,10881.027347
1660.913795,-7048.078582,-4589.276840,18801.230927
1660.914112,0.000000,9030.512492,12509.480420
1660.914429,2451.505594,20651.745782,444.123565
1660.914747,7660.954980,14285.974681,5477.523971
1660.915064,10955.165621,14878.139434,2368.659014
1660.915381,16854.100956,11695.253884,0.000000
1660.915699,19765.263848,1924.535449,8142.265362
1660.916016,9959.241474,-7994.224174,4737.318029
1660.916333,7124.688131,-12361.439231,7105.977043
1660.916651,2987.772442,-14211.954086,13249.686362
1660.916968,-4290.134789,-14508.036463,16432.571912
1660.917285,-6358.592633,-9770.718434,14063.912898
1660.917603,-8580.269578,-7772.162391,17394.839637
1660.917920,-2528.115143,-5329.482782,19393.395680
1660.918237,-4213.525239,-4515.256246,8882.471304
1660.918555,-6818.249932,-3775.050304,16802.674883
1660.918872,-6052.154434,-666.185348,22058.137072
1660.919189,3294.210641,15914.427753,11769.274478
1660.919507,3983.696590,25018.960840,-8290.306550
1660.919824,9193.145976,16802.674883,5107.421000
1660.920141,10801.946522,13693.809927,-1406.391290
1660.920459,15398.519510,11103.089130,-6661.853478
1660.920776,19458.825649,-3478.967927,10584.944971
1660.921093,5975.544884,-9992.780217,6957.935855
1660.921411,4290.134789,-14582.057057,7179.997637
1660.921728,536.266849,-13693.809927,14730.098246
1660.922045,-8350.440928,-14359.995275,18135.045579
1660.922363,-10572.117872,-11843.295072,17246.798449
1660.922680,-10878.556072,-7772.162391,11917.315666
1660.922997,-6818.249932,-2886.803174,11695.253884
1660.923315,-6665.030833,-0.000000,8808.450710
1660.923632,-10035.851024,-2960.823768,17542.880825
1660.923949,-8350.440928,-3330.926739,22428.240043
1660.924267,-2604.724693,16580.613101,8364.327145
1660.924584,2911.162892,22058.137072,1110.308913
1660.924901,4596.572988,17987.004391,3108.864956
1660.925219,7354.516781,16210.510130,-444.123565
1660.925536,16700.881856,14804.118840,3256.906145
1660.925853,13559.890315,3034.844362,3478.967927
1660.926171,8886.707777,-6513.812290,4071.132681
1660.926488,7814.174080,-10436.903782,8660.409521
1660.926806,-1455.581446,-13619.789333,8068.244768
1660.927123,-6435.202183,-18283.086767,11991.336260
1660.927440,-10801.946522,-9104.533087,13397.727550
1660.927758,-10725.336972,-7920.203579,12287.418637
1660.928075,-6358.592633,-6661.853478,16950.716072
1660.928392,-7890.783629,-3923.091493,11769.274478
1660.928710,-12104.308868,-4441.235652,17764.942608
1660.929027,-7737.564530,-296.082377,21910.095883
1660.929344,-383.047749,18949.272115,11399.171507
1660.929662,1302.362347,29312.155303,-6439.791695
1660.929979,8886.707777,21836.075289,3627.009116
1660.930296,11721.261119,17172.777854,-3182.885551
1660.930614,16700.881856,11251.130318,-3849.070898
1660.930931,17696.806004,-2664.741391,11177.109724
1660.931248,6435.202183,-9696.697840,4959.379811
1660.931566,4060.306139,-11843.295072,9326.594869
1660.931883,-1302.362347,-12361.439231,14434.015869
1660.932200,-6741.640382,-17542.880825,18801.230927
1660.932518,-13100.233016,-9992.780217,9696.697840
1660.932835,-9193.145976,-10436.903782,17246.798449
1660.933152,-7124.688131,-7328.038826,14285.974681
1660.933470,-7354.516781,-3775.050304,9178.553681
1660.933787,-9193.145976,-7698.141797,21762.054695
1660.934104,-7967.393179,-2590.720797,21317.931130
1660.934422,-689.485948,15692.365970,10436.903782
1660.934739,3677.258390,20947.828159,-3775.050304
1660.935056,5898.935335,17098.757260,6809.894666
1660.935374,11031.775171,13397.727550,1184.329507
1660.935691,17466.977354,12065.356855,-1998.556043
1660.936008,19305.606550,1998.556043,7105.977043
1660.936326,9959.241474,-8660.409521,7254.018232
1660.936643,7354.516781,-16062.468941,10436.903782
1660.936960,1302.362347,-16284.530724,10584.944971
1660.937278,-4903.011187,-16802.674883,12731.542202
1660.937595,-6128.763984,-9252.574275,18505.148550
1660.937912,-4826.401637,-4071.132681,12065.356855
1660.938230,-1072.533697,-222.061783,10732.986159
1660.938547,-1225.752797,-3478.967927,9400.615463
1660.938864,-8197.221829,-5255.462188,17024.736666
1660.939182,-4749.792088,-2812.782580,21169.889941
1660.939499,3753.867940,18949.272115,9030.512492
1660.939816,5056.230287,26647.413912,-11103.089130
1660.940134,9882.631924,18653.189738,2812.782580
1660.940451,12640.575717,12731.542202,-2960.823768
1660.940768,14632.424012,10436.903782,-888.247130
1660.941086,18079.853753,-8660.409521,14285.974681
1660.941403,3064.381992,-11843.295072,5773.606348
1660.941720,3064.381992,-11843.295072,7994.224174
1660.942038,1378.971896,-7550.100608,13989.892304
1660.942355,-9039.926876,-7920.203579,6661.853478
1660.942672,-11491.432470,-10955.047942,17542.880825
1660.942990,-14096.157163,-6439.791695,10362.883188
1660.943307,-5975.544884,2220.617826,5773.606348
1660.943624,-7124.688131,-0.000000,8216.285956
1660.943942,-12487.356617,-10066.800811,25092.981434
1660.944259,-11721.261119,-8660.409521,26055.249158
1660.944576,-6665.030833,17912.983796,5847.626942
1660.944894,2451.505594,18653.189738,4367.215058
1660.945211,1915.238745,15026.180623,1702.473667
1660.945528,8580.269578,16728.654289,2220.617826
1660.945846,15015.471761,17320.819043,7624.121203
1660.946163,11338.213370,7698.141797,1702.473667
1660.946480,7737.564530,-7105.977043,5995.668130
1660.946798,6818.249932,-12139.377449,11991.336260
1660.947115,-1762.019645,-12509.480420,10362.883188
1660.947432,-4979.620737,-15988.448347,10362.883188
1660.947750,-8044.002729,-12213.398043,21317.931130
1660.948067,-9882.631924,-7624.121203,14656.077652
1660.948384,-3370.820191,1628.453072,10214.842000
1660.948702,-2374.896044,-3256.906145,10140.821405
1660.949019,-9422.974625,-7772.162391,21984.116477
1660.949336,-7124.688131,-666.185348,20799.786970
1660.949654,76.609550,22502.260637,6957.935855
1660.949971,6818.249932,29312.155303,-5699.585753
1660.950288,9116.536426,17912.983796,1850.514855
1660.950606,10418.898773,13545.768739,1776.494261
1660.950923,12640.575717,9326.594869,2368.659014
1660.951240,13559.890315,-6957.935855,16802.674883
1660.951558,6052.154434,-13027.624579,8956.491898
1660.951875,4366.744339,-13101.645173,11621.233289
1660.952192,459.657299,-10066.800811,16506.592507
1660.952510,-5898.935335,-11991.336260,14434.015869
1660.952827,-7048.078582,-9770.718434,15396.283594
1660.953144,-10342.289223,-5847.626942,9474.636058
1660.953462,-4213.525239,3627.009116,7920.203579
1660.953779,-2068.457845,2664.741391,5625.565159
1660.954096,-7201.297681,-4737.318029,16654.633695
1660.954414,-4749.792088,-9770.718434,22946.384202
1660.954731,-3907.087040,14211.954086,3330.926739
1660.955048,3524.039291,19097.313304,518.144159
1660.955366,8810.098227,9622.677246,7920.203579
1660.955683,5898.935335,9770.718434,-2960.823768
1660.956000,11568.042020,10066.800811,6883.915261
1660.956318,14555.814462,2960.823768,7550.100608
1660.956635,7814.174080,-8956.491898,4441.235652
1660.956952,6665.030833,-14211.954086,12065.356855
1660.957270,1072.533697,-9696.697840,13175.665768
1660.957587,-2834.553343,-7476.080014,6365.771101
1660.957904,-3830.477490,-8512.368333,14804.118840
1660.958222,-8580.269578,-5699.585753,11251.130318
1660.958539,-3677.258390,1850.514855,8216.285956
1660.958856,-1685.410096,2368.659014,9992.780217
1660.959174,-5515.887586,-5033.400406,18283.086767
1660.959491,-4979.620737,-1850.514855,16210.510130
1660.959808,-1378.971896,16062.468941,6069.688724
1660.960126,5898.935335,20799.786970,-2072.576638
1660.960443,8427.050478,13841.851115,2220.617826
1660.960760,4213.525239,7920.203579,-1702.473667
1660.961078,9116.536426,1776.494261,4737.318029
1660.961395,11491.432470,-2812.782580,13323.706956
1660.961712,7967.393179,-10362.883188,10436.903782
1660.962030,3294.210641,-14211.954086,10732.986159
1660.962347,0.000000,-7402.059420,11621.233289
1660.962664,-2757.943793,-4663.297435,10288.862594
1660.962982,-7354.516781,-4959.379811,13841.851115
1660.963299,-11338.213370,-5921.647536,7550.100608
1660.963616,-8120.612279,2368.659014,4515.256246
1660.963934,-5745.716235,2738.761985,10955.047942
1660.964251,-7967.393179,-4885.359217,17468.860231
1660.964568,-5745.716235,-10214.842000,23464.528361
1660.964886,-5439.278036,10140.821405,7328.038826
1660.965203,3524.039291,15100.201217,8216.285956
1660.965520,6205.373534,13323.706956,1184.329507
1660.965838,6358.592633,10584.944971,5033.400406
1660.966155,13559.890315,7624.121203,12065.356855
1660.966472,12717.185267,7920.203579,-518.144159
1660.966790,11261.603821,1110.308913,1036.288319
1660.967107,3370.820191,-6291.750507,9400.615463
1660.967424,2451.505594,-8734.430116,13323.706956
1660.967742,-2221.676944,-5329.482782,4737.318029
1660.968059,-8427.050478,-4145.153275,10140.821405
1660.968376,-8197.221829,-11621.233289,17246.798449
1660.968694,-8503.660028,-5699.585753,12435.459826
1660.969011,-3907.087040,-8068.244768,15248.242405
1660.969328,-5209.449386,-9770.718434,23020.404796
1660.969646,-7814.174080,-1924.535449,19097.313304
1660.969963,-153.219100,14804.118840,12879.583391
1660.970280,7737.564530,22502.260637,0.000000
1660.970598,9729.412825,21910.095883,-2294.638420
1660.970915,7584.345430,12731.542202,2368.659014
1660.971232,12793.794817,7328.038826,2220.617826
1660.971550,13100.233016,1850.514855,6883.915261
1660.971867,9806.022374,-6809.894666,10807.006753
1660.972184,4519.963438,-9474.636058,9548.656652
1660.972502,2604.724693,-10436.903782,15248.242405
1660.972819,-1685.410096,-13693.809927,16432.571912
1660.973136,-6128.763984,-8438.347739,10584.944971
1660.973454,-7431.126331,-7328.038826,14952.160028
1660.973771,-6435.202183,-1628.453072,8808.450710
1660.974088,-2604.724693,-3923.091493,11621.233289
1660.974406,-6511.811733,-3923.091493,16950.716072
1660.974723,-7737.564530,-6143.709319,21614.013506
1660.975040,-4519.963438,10732.986159,6661.853478
1660.975358,4290.134789,17468.860231,3478.967927
1660.975675,7814.174080,13693.809927,1998.556043
1660.975992,9422.974625,12731.542202,1850.514855
1660.976310,10342.289223,7476.080014,8882.471304
1660.976627,11108.384721,814.226536,6291.750507
1660.976945,8120.612279,-4219.173869,3552.988522
1660.977262,3524.039291,-8808.450710,11251.130318
1660.977580,1225.752797,-5181.441594,11177.109724
1660.977897,0.000000,-5995.668130,9178.553681
1660.978214,-6052.154434,-3182.885551,4663.297435
1660.978532,-5286.058936,-8586.388927,17468.860231
1660.978849,-5669.106685,-3923.091493,11547.212695
1660.979167,-1225.752797,-2442.679609,8808.450710
1660.979484,-4366.744339,-4737.318029,15470.304188
1660.979802,-7277.907231,-2812.782580,16876.695478
1660.980119,-1532.190996,15026.180623,5699.585753
1660.980436,7814.174080,20503.704593,2960.823768
1660.980754,8503.660028,17987.004391,-666.185348
1660.981071,7737.564530,8956.491898,-1850.514855
1660.981389,7431.126331,5773.606348,2516.700203
1660.981706,10878.556072,-4959.379811,15618.345376
1660.982024,6281.983084,-9696.697840,10955.047942
1660.982341,1991.848295,-9992.780217,6883.915261
1660.982658,612.876398,-7105.977043,11621.233289
1660.982976,-1762.019645,-6513.812290,9548.656652
1660.983293,-4519.963438,-5551.544565,7994.224174
1660.983611,-8427.050478,-7105.977043,18357.107362
1660.983928,-9576.193725,-1776.494261,9178.553681
1660.984246,-7277.907231,962.267725,8216.285956
1660.984563,-10035.851024,-3256.906145,15618.345376
1660.984880,-9652.803275,-8734.430116,20947.828159
1660.985198,-8963.317327,5033.400406,9622.677246
1660.985515,-995.924147,11177.109724,7254.018232
1660.985833,3217.601092,10362.883188,7179.997637
1660.986150,4673.182538,8438.347739,7402.059420
1660.986468,6894.859482,3997.112087,14211.954086
1660.986785,7201.297681,1924.535449,7772.162391
1660.987102,6818.249932,1036.288319,2664.741391
1660.987420,4213.525239,-4367.215058,8734.430116
1660.987737,3370.820191,-3923.091493,11399.171507
1660.988055,3447.429741,-3256.906145,6883.915261
1660.988372,0.000000,-2664.741391,3775.050304
1660.988690,-1455.581446,-7772.162391,17320.819043
1660.989007,-5132.839837,-4219.173869,10584.944971
1660.989324,-2298.286494,148.041188,7179.997637
1660.989642,-1225.752797,-2590.720797,14211.954086
1660.989959,-2221.676944,-5255.462188,17542.880825
1660.990277,-1685.410096,5255.462188,7772.162391
1660.990594,5898.935335,10732.986159,11177.109724
1660.990912,11338.213370,10658.965565,5107.421000
1660.991229,12793.794817,5551.544565,4737.318029
1660.991546,9959.241474,6439.791695,2368.659014
1660.991864,13636.499864,1184.329507,11029.068536
1660.992181,9806.022374,-444.123565,4885.359217
1660.992499,9116.536426,-2738.761985,4885.359217
1660.992816,3753.867940,-4145.153275,7031.956449
1660.993134,1072.533697,-1036.288319,7402.059420
1660.993451,-3677.258390,-3775.050304,9030.512492
1660.993768,-7737.564530,-6291.750507,13027.624579
1660.994086,-11491.432470,-7105.977043,13249.686362
1660.994403,-10189.070123,-2146.597232,9918.759623
1660.994721,-9193.145976,-5033.400406,11695.253884
1660.995038,-11491.432470,-12509.480420,23094.425390
1660.995356,-10265.679673,-11103.089130,24870.919651
1660.995673,-3600.648841,3849.070898,17616.901420
1660.995990,2528.115143,14359.995275,8660.409521
1660.996308,8044.002729,14211.954086,7550.100608
1660.996625,8580.269578,15618.345376,-1036.288319
1660.996943,11414.822920,15544.324782,666.185348
1660.997260,12257.527968,6661.853478,1776.494261
1660.997578,10418.898773,3034.844362,-296.082377
1660.997895,7048.078582,-1480.411884,5403.503377
1660.998212,5515.887586,-5033.400406,6143.709319
1660.998530,1225.752797,-7550.100608,6439.791695
1660.998847,-4519.963438,-11843.295072,9400.615463
1660.999165,-9882.631924,-12139.377449,12657.521608
1660.999482,-10725.336972,-8068.244768,9622.677246
1660.999800,-8427.050478,-4959.379811,12583.501014
1661.000117,-6741.640382,-9696.697840,20281.642811
1661.000434,-9882.631924,-9622.677246,21169.889941
1661.000752,-5975.544884,3775.050304,17172.777854
1661.001069,3447.429741,17098.757260,12139.377449
1661.001387,8120.612279,19245.354492,6439.791695
1661.001704,11797.870669,18949.272115,-4589.276840
1661.002022,10265.679673,18209.066173,518.144159
1661.002339,13713.109414,11177.109724,2220.617826
1661.002656,12180.918418,3627.009116,-1258.350101
1661.002974,9269.755526,-7105.977043,9696.697840
1661.003291,4903.011187,-6217.729913,11177.109724
1661.003609,1455.581446,-6143.709319,7476.080014
1661.003926,-4213.525239,-9474.636058,6661.853478
1661.004244,-9806.022374,-9400.615463,10362.883188
1661.004561,-14632.424012,-9400.615463,9474.636058
1661.004878,-14019.547613,-7624.121203,7550.100608
1661.005196,-12487.356617,-9548.656652,14434.015869
1661.005513,-16700.881856,-15840.407159,26943.496289
1661.005831,-12563.966167,-9030.512492,27609.681637
1661.006148,-3830.477490,7105.977043,16358.551318
1661.006466,-612.876398,20059.581028,5255.462188
1661.006783,7124.688131,16284.530724,7994.224174
1661.007101,8197.221829,17468.860231,-1776.494261
1661.007418,10112.460574,17320.819043,1480.411884
1661.007735,14019.547613,10658.965565,5181.441594
1661.008053,10955.165621,-222.061783,5255.462188
1661.008370,10648.727422,-5329.482782,10362.883188
1661.008688,9729.412825,-8290.306550,15100.201217
1661.009005,2528.115143,-11769.274478,10732.986159
1661.009323,153.219100,-12361.439231,6883.915261
1661.009640,-1608.800546,-12213.398043,6513.812290
1661.009957,-7048.078582,-4811.338623,7994.224174
1661.010275,-6665.030833,-6439.791695,8734.430116
1661.010592,-7048.078582,-8882.471304,15914.427753
1661.010910,-8963.317327,-11473.192101,26129.269753
1661.011227,-4213.525239,1924.535449,19319.375086
1661.011545,2987.772442,15840.407159,8512.368333
1661.011862,7890.783629,18431.127956,592.164754
1661.012179,10035.851024,11399.171507,1258.350101
1661.012497,9882.631924,10881.027347,2294.638420
1661.012814,8044.002729,11769.274478,-1702.473667
1661.013132,15551.738609,-444.123565,12805.562797
1661.013449,9806.022374,-7402.059420,12065.356855
1661.013767,8350.440928,-12213.398043,17616.901420
1661.014084,2911.162892,-7179.997637,18135.045579
1661.014401,-2911.162892,-1924.535449,6809.894666
1661.014719,-3830.477490,-3552.988522,3034.844362
1661.015036,-9806.022374,-5181.441594,7031.956449
1661.015354,-9269.755526,-3256.906145,8216.285956
1661.015671,-9806.022374,-3627.009116,8956.491898
1661.015989,-13023.623466,-7994.224174,15840.407159
1661.016306,-8733.488677,-9548.656652,21614.013506
1661.016623,-4136.915689,4589.276840,14434.015869
1661.016941,76.609550,11473.192101,5625.565159
1661.017258,4366.744339,7476.080014,4885.359217
1661.017576,1608.800546,5033.400406,4145.153275
1661.017893,5362.668486,7328.038826,8142.265362
1661.018211,10035.851024,9844.739029,5033.400406
1661.018528,12180.918418,2294.638420,6143.709319
1661.018845,14019.547613,-4367.215058,12657.521608
1661.019163,7354.516781,-3701.029710,11325.150913
1661.019480,2451.505594,-3108.864956,740.205942
1661.019798,766.095498,-4959.379811,5255.462188
1661.020115,-6665.030833,-6439.791695,5625.565159
1661.020433,-8963.317327,-5625.565159,7772.162391
1661.020750,-10495.508323,-222.061783,7105.977043
1661.021067,-9959.241474,-5995.668130,14730.098246
1661.021385,-11491.432470,-11399.171507,21539.992912
1661.021702,-5515.887586,-5033.400406,24352.775492
1661.022020,-1838.629195,12435.459826,8438.347739
1661.022337,3830.477490,16580.613101,3701.029710
1661.022655,5132.839837,9030.512492,2368.659014
1661.022972,5132.839837,7994.224174,3256.906145
1661.023289,7814.174080,11843.295072,9992.780217
1661.023607,12257.527968,7772.162391,5033.400406
1661.023924,9422.974625,-888.247130,3627.009116
1661.024242,12563.966167,-7254.018232,18431.127956
1661.024559,3983.696590,-4145.153275,14804.118840
1661.024877,459.657299,-222.061783,2220.617826
1661.025194,-3447.429741,-6069.688724,5329.482782
1661.025511,-9882.631924,-9104.533087,9992.780217
1661.025829,-10725.336972,-2738.761985,7920.203579
1661.026146,-10725.336972,740.205942,2664.741391
1661.026464,-10648.727422,-6439.791695,9918.759623
1661.026781,-7737.564530,-13397.727550,27905.764013
1661.027099,-3983.696590,-5995.668130,26499.372724
1661.027416,-842.705048,10140.821405,9548.656652
1661.027733,3753.867940,13101.645173,5551.544565
1661.028051,7660.954980,3775.050304,14285.974681
1661.028368,11491.432470,11843.295072,5921.647536
1661.028686,14632.424012,18727.210333,1850.514855
1661.029003,15245.300410,9770.718434,-2072.576638
1661.029321,13330.061665,1258.350101,4589.276840
1661.029638,14249.376263,-7254.018232,20355.663405
1661.029955,5362.668486,-6365.771101,11843.295072
1661.030273,1991.848295,-5995.668130,222.061783
1661.030590,-4290.134789,-9474.636058,4293.194464
1661.030908,-8044.002729,-12435.459826,14730.098246
1661.031225,-7431.126331,-4515.256246,8216.285956
1661.031543,-7201.297681,-2442.679609,12287.418637
1661.031860,-6588.421283,-5625.565159,15100.201217
1661.032177,-5822.325785,-5551.544565,24870.919651
1661.032495,-3830.477490,8586.388927,13397.727550
1661.032812,5209.449386,16136.489536,7698.141797
1661.033130,6435.202183,15248.242405,-962.267725
1661.033447,7277.907231,1628.453072,9252.574275
1661.033765,5056.230287,12065.356855,0.000000
1661.034082,9806.022374,16654.633695,222.061783
1661.034399,11797.870669,1406.391290,7846.182985
1661.034717,9806.022374,-8956.491898,17172.777854
1661.035034,6588.421283,-12139.377449,23834.631332
1661.035352,-1378.971896,-3108.864956,6439.791695
1661.035669,-6665.030833,-3552.988522,370.102971
1661.035987,-7660.954980,-11325.150913,13249.686362
1661.036304,-10801.946522,-6809.894666,13767.830521
1661.036621,-8963.317327,4219.173869,2960.823768
1661.036939,-10648.727422,1110.308913,1628.453072
1661.037256,-11261.603821,-3997.112087,14211.954086
1661.037574,-1302.362347,-9400.615463,31680.814318
1661.037891,-1991.848295,7402.059420,9400.615463
1661.038209,4903.011187,13249.686362,518.144159
1661.038526,3600.648841,6439.791695,9252.574275
1661.038844,4443.353888,5107.421000,7476.080014
1661.039161,9346.365076,11473.192101,4441.235652
1661.039478,12793.794817,9622.677246,2072.576638
1661.039796,9806.022374,1110.308913,6439.791695
1661.040113,10801.946522,-9474.636058,17172.777854
1661.040431,1149.143247,-2072.576638,9548.656652
1661.040748,306.438199,-4737.318029,5255.462188
1661.041066,-4290.134789,-5995.668130,5181.441594
1661.041383,-9806.022374,-11917.315666,9474.636058
1661.041700,-9882.631924,-3627.009116,5181.441594
1661.042018,-10572.117872,740.205942,4367.215058
1661.042335,-7277.907231,-2590.720797,14878.139434
1661.042653,-4826.401637,-8586.388927,23982.672521
1661.042970,-2451.505594,2664.741391,16876.695478
1661.043288,153.219100,12139.377449,5403.503377
1661.043605,3830.477490,12287.418637,2146.597232
1661.043922,6052.154434,740.205942,8882.471304
1661.044240,8503.660028,5477.523971,4737.318029
1661.044557,10725.336972,10214.842000,6069.688724
1661.044875,10878.556072,7031.956449,1776.494261
1661.045192,14325.985813,-2664.741391,9030.512492
1661.045510,10112.460574,-10510.924376,18431.127956
1661.045827,4519.963438,-7698.141797,11695.253884
1661.046144,-306.438199,-4737.318029,4885.359217
1661.046462,-5515.887586,-3182.885551,4145.153275
1661.046779,-5745.716235,-8216.285956,11325.150913
1661.047097,-6511.811733,-0.000000,8216.285956
1661.047414,-5898.935335,444.123565,7994.224174
1661.047732,-5439.278036,-1850.514855,11991.336260
1661.048049,-1991.848295,-5995.668130,22280.198854
1661.048366,-842.705048,3256.906145,15174.221811
1661.048684,7048.078582,8734.430116,11991.336260
1661.049001,4979.620737,8290.306550,5773.606348
1661.049319,8120.612279,962.267725,11843.295072
1661.049636,6971.469032,11695.253884,518.144159
1661.049954,14938.862211,9400.615463,4885.359217
1661.050271,12257.527968,4293.194464,6513.812290
1661.050588,15781.567259,-4145.153275,14730.098246
1661.050906,7890.783629,-2812.782580,12583.501014
1661.051223,1072.533697,-888.247130,2516.700203
1661.051541,153.219100,-6735.874072,6291.750507
1661.051858,-8963.317327,-8290.306550,7624.121203
1661.052176,-8963.317327,-7031.956449,9844.739029
1661.052493,-11721.261119,-1554.432478,5625.565159
1661.052810,-13866.328514,1702.473667,6143.709319
1661.053128,-8044.002729,-8512.368333,24574.837274
1661.053445,-8503.660028,-5107.421000,23612.569550
1661.053763,-4443.353888,2368.659014,14952.160028
1661.054080,-2604.724693,10510.924376,2812.782580
1661.054398,-1072.533697,6143.709319,9696.697840
1661.054715,3907.087040,3997.112087,11547.212695
1661.055032,4136.915689,14063.912898,-1184.329507
1661.055350,7048.078582,12879.583391,-666.185348
1661.055667,5132.839837,3849.070898,9178.553681
1661.055985,8810.098227,-2886.803174,17912.983796
1661.056302,3600.648841,-4885.359217,10955.047942
1661.056620,-1225.752797,-8512.368333,6439.791695
1661.056937,-4749.792088,-11325.150913,9474.636058
1661.057254,-11031.775171,-9992.780217,9844.739029
1661.057572,-9193.145976,-4885.359217,5477.523971
1661.057889,-7354.516781,-4293.194464,9252.574275
1661.058207,-7354.516781,-148.041188,8512.368333
1661.058524,-4749.792088,-2220.617826,19393.395680
1661.058842,-1225.752797,2664.741391,18579.169144
1661.059159,3907.087040,6069.688724,14359.995275
1661.059476,4903.011187,9622.677246,4589.276840
1661.059794,7507.735880,3997.112087,11917.315666
1661.060111,9346.365076,11177.109724,1332.370696
1661.060429,13330.061665,17320.819043,-3923.091493
1661.060746,16164.615008,5033.400406,7994.224174
1661.061064,10189.070123,-1850.514855,12879.583391
1661.061381,11414.822920,-6957.935855,16876.695478
1661.061698,5209.449386,-4367.215058,7624.121203
1661.062016,-1225.752797,-10584.944971,7846.182985
1661.062333,-4903.011187,-15470.304188,13767.830521
1661.062651,-7814.174080,-11103.089130,12879.583391
1661.062968,-2451.505594,-1998.556043,9326.594869
1661.063286,-3294.210641,-2072.576638,5181.441594
1661.063603,-4903.011187,2368.659014,6439.791695
1661.063920,2757.943793,-1480.411884,24870.919651
1661.064238,3140.991542,11177.109724,7402.059420
1661.064555,7584.345430,11177.109724,5847.626942
1661.064873,6971.469032,11547.212695,-2368.659014
1661.065190,7048.078582,4885.359217,592.164754
1661.065508,10648.727422,7402.059420,888.247130
1661.065825,12334.137518,3701.029710,8142.265362
1661.066142,4136.915689,-4663.297435,8438.347739
1661.066460,3753.867940,-4071.132681,11473.192101
1661.066777,383.047749,-6291.750507,16728.654289
1661.067095,-4673.182538,-10288.862594,12287.418637
1661.067412,-8656.879127,-14137.933492,12731.542202
1661.067730,-12104.308868,-9474.636058,7846.182985
1661.068047,-10725.336972,-2072.576638,10807.006753
1661.068364,-5975.544884,2220.617826,6735.874072
1661.068682,-4060.306139,-2960.823768,11695.253884
1661.068999,-7584.345430,2960.823768,11473.192101
1661.069317,229.828649,7772.162391,21243.910535
1661.069634,536.266849,16950.716072,-1036.288319
1661.069952,6741.640382,13323.706956,4367.215058
1661.070269,6435.202183,4367.215058,8290.306550
1661.070587,3447.429741,7920.203579,1332.370696
1661.070904,8273.831378,5477.523971,10584.944971
1661.071221,9116.536426,-1258.350101,7105.977043
1661.071539,5132.839837,-9548.656652,13767.830521
1661.071856,5669.106685,-13175.665768,20059.581028
1661.072174,-1302.362347,-2146.597232,13101.645173
1661.072491,-1915.238745,-5403.503377,5255.462188
1661.072809,-9039.926876,-9252.574275,9400.615463
1661.073126,-10955.165621,-7994.224174,10140.821405
1661.073443,-8963.317327,6291.750507,5477.523971
1661.073761,-6281.983084,888.247130,6513.812290
1661.074078,-8273.831378,-222.061783,8290.306550
1661.074396,-4519.963438,-2294.638420,24574.837274
1661.074713,612.876398,9844.739029,11769.274478
1661.075030,4136.915689,9178.553681,9474.636058
1661.075348,4519.963438,4515.256246,6661.853478
1661.075665,1991.848295,5255.462188,5773.606348
1661.075983,5286.058936,10807.006753,1850.514855
1661.076300,7890.783629,6957.935855,9104.533087
1661.076617,4060.306139,-8660.409521,13397.727550
1661.076935,919.314598,-9474.636058,16950.716072
1661.077252,-1608.800546,-10288.862594,19689.478057
1661.077570,-3753.867940,-1480.411884,8734.430116
1661.077887,-1838.629195,-8882.471304,11695.253884
1661.078204,-6128.763984,-12213.398043,8808.450710
1661.078522,-6588.421283,-7179.997637,10436.903782
1661.078839,-8044.002729,6365.771101,-1628.453072
1661.079157,-6358.592633,2516.700203,1776.494261
1661.079474,1149.143247,-7328.038826,18135.045579
1661.079791,1762.019645,-7402.059420,26055.249158
1661.080109,-1302.362347,10288.862594,8586.388927
1661.080426,9269.755526,11769.274478,6069.688724
1661.080743,8503.660028,8438.347739,5033.400406
1661.081061,15934.786358,-4367.215058,16580.613101
1661.081378,10572.117872,9696.697840,-2072.576638
1661.081696,14019.547613,16210.510130,-3478.967927
1661.082013,18079.853753,592.164754,6587.832884
1661.082330,13253.452115,-9696.697840,16062.468941
1661.082648,7124.688131,-12509.480420,21169.889941
1661.082965,3217.601092,592.164754,6735.874072
1661.083283,-1915.238745,2738.761985,-2516.700203
1661.083600,-6128.763984,-9474.636058,7920.203579
1661.083917,-6358.592633,-9548.656652,13989.892304
1661.084235,-7431.126331,2516.700203,2220.617826
1661.084552,-2681.334243,1184.329507,1776.494261
1661.084870,-5822.325785,-10510.924376,15618.345376
1661.085187,-5898.935335,-10881.027347,30496.484810
1661.085504,-612.876398,4811.338623,9326.594869
1661.085822,6128.763984,16062.468941,4589.276840
1661.086139,4136.915689,5995.668130,5847.626942
1661.086456,4443.353888,5477.523971,6957.935855
1661.086774,7507.735880,15692.365970,-7476.080014
1661.087091,12717.185267,17024.736666,-2960.823768
1661.087409,11108.384721,-666.185348,8586.388927
1661.087726,1762.019645,-11103.089130,13545.768739
1661.088043,-6511.811733,-10362.883188,14730.098246
1661.088361,-7660.954980,-370.102971,7402.059420
1661.088678,-10801.946522,-6513.812290,3552.988522
1661.088996,-11031.775171,-15988.448347,13989.892304
1661.089313,-14249.376263,-7105.977043,12287.418637
1661.089630,-13713.109414,740.205942,4589.276840
1661.089948,-12334.137518,2738.761985,4811.338623
1661.090265,-5975.544884,-10362.883188,25907.207970
1661.090583,-5209.449386,-4885.359217,26351.331535
1661.090900,-3217.601092,14285.974681,9474.636058
1661.091217,6588.421283,20651.745782,0.000000
1661.091535,3753.867940,13989.892304,3404.947333
1661.091852,12334.137518,7105.977043,12213.398043
1661.092170,10112.460574,18727.210333,-3923.091493
1661.092487,13406.671215,18801.230927,-1036.288319
1661.092804,13559.890315,-2220.617826,10807.006753
1661.093122,8350.440928,-14063.912898,18431.127956
1661.093439,2451.505594,-15766.386565,24130.713709
1661.093756,-2298.286494,-6661.853478,9992.780217
1661.094074,-4136.915689,-5477.523971,2442.679609
1661.094391,-7431.126331,-11473.192101,12953.603985
1661.094709,-8273.831378,-4145.153275,10140.821405
1661.095026,-7967.393179,814.226536,4663.297435
1661.095343,-5669.106685,666.185348,4885.359217
1661.095661,-3830.477490,-9178.553681,25463.084405
1661.095978,-4673.182538,-6513.812290,26277.310941
1661.096296,766.095498,6735.874072,12361.439231
1661.096613,7584.345430,15174.221811,7698.141797
1661.096930,7354.516781,9918.759623,7105.977043
1661.097248,8350.440928,12139.377449,2220.617826
1661.097565,12334.137518,17987.004391,-3108.864956
1661.097883,10495.508323,12879.583391,1258.350101
1661.098200,9729.412825,-7179.997637,13619.789333
1661.098517,2451.505594,-20281.642811,24204.734303
1661.098835,-6281.983084,-15988.448347,20355.663405
1661.099152,-7660.954980,-10807.006753,13471.748144
1661.099469,-9882.631924,-7328.038826,6661.853478
1661.099787,-4290.134789,-14137.933492,17616.901420
1661.100104,-6971.469032,-3404.947333,6291.750507
1661.100422,-7124.688131,222.061783,2516.700203
1661.100739,-6205.373534,4589.276840,1776.494261
1661.101056,1838.629195,-4145.153275,24796.899057
1661.101374,6894.859482,-1258.350101,20207.622217
1661.101691,3677.258390,12805.562797,5329.482782
1661.102009,13100.233016,14656.077652,1998.556043
1661.102326,12104.308868,13841.851115,-3256.906145
1661.102643,14555.814462,9548.656652,-1332.370696
1661.102961,18156.463303,7254.018232,0.000000
1661.103278,13406.671215,8216.285956,1850.514855
1661.103596,13483.280765,-4811.338623,6883.915261
1661.103913,5898.935335,-18135.045579,17838.963202
1661.104230,-2221.676944,-21391.951724,22724.322419
1661.104548,-9346.365076,-12287.418637,16284.530724
1661.104865,-8120.612279,666.185348,3182.885551
1661.105183,-5132.839837,-592.164754,4737.318029
1661.105500,-8427.050478,-3404.947333,4219.173869
1661.105817,-7277.907231,888.247130,4885.359217
1661.106135,-5515.887586,4589.276840,6735.874072
1661.106452,306.438199,-2886.803174,19985.560434
1661.106769,-689.485948,-3404.947333,16876.695478
1661.107087,0.000000,12657.521608,6217.729913
1661.107404,7354.516781,16728.654289,1776.494261
1661.107722,4213.525239,11769.274478,-4959.379811
1661.108039,5439.278036,4959.379811,4737.318029
1661.108356,5975.544884,6513.812290,2072.576638
1661.108674,5515.887586,9622.677246,740.205942
1661.108991,7048.078582,-11177.109724,15988.448347
1661.109309,-4213.525239,-21614.013506,25685.146187
1661.109626,-12027.699319,-19615.457463,19911.539840
1661.109943,-16011.395908,-5921.647536,11917.315666
1661.110261,-11031.775171,-5181.441594,9474.636058
1661.110578,-9806.022374,666.185348,1998.556043
1661.110896,-10572.117872,-296.082377,1406.391290
1661.111213,-10112.460574,6513.812290,1776.494261
1661.111530,-4749.792088,5921.647536,18357.107362
1661.111848,5132.839837,-222.061783,19319.375086
1661.112165,3983.696590,-1332.370696,17246.798449
1661.112482,3370.820191,8882.471304,11769.274478
1661.112800,10572.117872,14730.098246,4737.318029
1661.113117,12793.794817,16654.633695,-4071.132681
1661.113435,16011.395908,6291.750507,4589.276840
1661.113752,12717.185267,7550.100608,5773.606348
1661.114069,13789.718964,12139.377449,9104.533087
1661.114387,13483.280765,-7698.141797,17764.942608
1661.114704,3983.696590,-17542.880825,18653.189738
1661.115022,-4979.620737,-17838.963202,24870.919651
1661.115339,-7124.688131,-1406.391290,8956.491898
1661.115656,-5209.449386,7031.956449,0.000000
1661.115974,-5209.449386,814.226536,296.082377
1661.116291,-8580.269578,-1776.494261,1776.494261
1661.116609,-6052.154434,3404.947333,7179.997637
1661.116926,-919.314598,1258.350101,20947.828159
1661.117243,-919.314598,-7846.182985,21836.075289
1661.117561,1455.581446,-10436.903782,29534.217086
1661.117878,-1608.800546,3182.885551,17690.922014
1661.118195,6818.249932,12731.542202,16136.489536
1661.118513,10572.117872,17468.860231,-888.247130
1661.118830,9039.926876,20207.622217,-7624.121203
1661.119148,14785.643111,17172.777854,-2812.782580
1661.119465,12793.794817,17912.983796,-2368.659014
1661.119782,6358.592633,-8956.491898,14434.015869
1661.120100,76.609550,-24426.796086,21169.889941
1661.120417,-11797.870669,-20503.704593,17616.901420
1661.120735,-12717.185267,-14952.160028,16136.489536
1661.121052,-12870.404366,-10140.821405,16728.654289
1661.121369,-12180.918418,-7994.224174,9474.636058
1661.121687,-11184.994271,-2812.782580,-1184.329507
1661.122004,-10189.070123,-0.000000,7772.162391
1661.122322,-1991.848295,-3034.844362,27017.516883
1661.122639,-1685.410096,-296.082377,15100.201217
1661.122956,7048.078582,2516.700203,17468.860231
1661.123274,7201.297681,9992.780217,9474.636058
1661.123591,8963.317327,18357.107362,7624.121203
1661.123909,14249.376263,24648.857869,-6957.935855
1661.124226,14402.595362,24722.878463,-19467.416275
1661.124543,17083.929605,14211.954086,-9918.759623
1661.124861,14555.814462,2738.761985,2072.576638
1661.125178,3294.210641,-17542.880825,17542.880825
1661.125495,-229.828649,-27239.578666,17468.860231
1661.125813,-12334.137518,-27683.702231,16950.716072
1661.126130,-13253.452115,-28645.969955,31828.855506
1661.126448,-11261.603821,-9474.636058,20873.807564
1661.126765,-9576.193725,3182.885551,-444.123565
1661.127082,-7660.954980,5699.585753,-7772.162391
1661.127400,-2681.334243,2664.741391,9918.759623
1661.127717,1838.629195,2812.782580,25389.063811
1661.128035,3524.039291,10362.883188,8290.306550
1661.128352,11261.603821,18949.272115,3997.112087
1661.128669,6358.592633,16580.613101,-2664.741391
1661.128987,7814.174080,11547.212695,11103.089130
1661.129304,11721.261119,16728.654289,-5699.585753
1661.129622,12717.185267,19393.395680,-19615.457463
1661.129939,9959.241474,4515.256246,1110.308913
1661.130256,5592.497135,-14063.912898,17024.736666
1661.130574,-1685.410096,-21021.848753,14730.098246
1661.130891,-7124.688131,-24352.775492,18283.086767
1661.131208,-21527.283494,-28423.908173,21243.910535
1661.131526,-22293.378992,-28942.052332,28645.969955
1661.131843,-15934.786358,-10955.047942,16210.510130
1661.132161,-11568.042020,814.226536,6143.709319
1661.132478,-8044.002729,6291.750507,1850.514855
1661.132795,-2451.505594,7550.100608,16876.695478
1661.133113,4979.620737,5921.647536,25981.228564
1661.133430,6205.373534,29164.114115,-5255.462188
1661.133748,14172.766713,27535.661042,-814.226536
1661.134065,15398.519510,15840.407159,11029.068536
1661.134382,13713.109414,14285.974681,-7920.203579
1661.134700,19535.435199,18949.272115,-13619.789333
1661.135017,13942.938064,15988.448347,-9770.718434
1661.135335,7354.516781,-10362.883188,16802.674883
1661.135652,2604.724693,-30718.546593,24648.857869
1661.135969,-8656.879127,-18949.272115,19245.354492
1661.136287,-12257.527968,-17468.860231,25685.146187
1661.136604,-19152.387450,-28423.908173,25315.043216
1661.136922,-17926.634653,-35529.885216,27535.661042
1661.137239,-12257.527968,-17616.901420,26647.413912
1661.137556,-4903.011187,4811.338623,21169.889941
1661.137874,-1608.800546,19985.560434,3849.070898
1661.138191,13789.718964,24796.899057,16062.468941
1661.138508,14862.252661,33235.246796,-4885.359217
1661.138826,15781.567259,38268.647201,-8142.265362
1661.139143,21833.721693,27017.516883,-3627.009116
1661.139461,21067.626195,17616.901420,-18949.272115
1661.139778,22216.769442,7105.977043,-16062.468941
1661.140095,13942.938064,2960.823768,-7624.121203
1661.140413,5745.716235,-16950.716072,19911.539840
1661.140730,-612.876398,-28053.805202,27757.722825
1661.141048,-11951.089769,-29164.114115,24426.796086
1661.141365,-17313.758255,-19171.333898,27683.702231
1661.141682,-21833.721693,-18949.272115,25018.960840
1661.142000,-23365.912689,-22724.322419,15692.365970
1661.142317,-18999.168350,-19837.519246,21688.034101
1661.142635,-18309.682402,-16062.468941,28127.825796
1661.142952,-12027.699319,1480.411884,23464.528361
1661.143269,2221.676944,29016.072926,14211.954086
1661.143587,10878.556072,45818.747810,-4071.132681
1661.143904,17237.148705,37676.482448,-8586.388927
1661.144221,11874.480219,26869.475695,-15248.242405
1661.144539,18233.072852,20355.663405,-10732.986159
1661.144856,16777.491406,14211.954086,-17690.922014
1661.145174,18386.291952,3404.947333,-19837.519246
1661.145491,10342.289223,-14730.098246,8364.327145
1661.145808,2911.162892,-26277.310941,36048.029375
1661.146126,-6741.640382,-25611.125593,26869.475695
1661.146443,-12487.356617,-13397.727550,15322.262999
1661.146761,-18156.463303,-28053.805202,22428.240043
1661.147078,-15858.176809,-32569.061448,24204.734303
1661.147395,-16011.395908,-16580.613101,14582.057057
1661.147713,-9882.631924,-11695.253884,20577.725188
1661.148030,-9959.241474,-2368.659014,17024.736666
1661.148348,919.314598,17987.004391,21317.931130
1661.148665,13866.328514,43228.027013,1480.411884
1661.148982,15551.738609,48853.592172,-14804.118840
1661.149300,16394.443657,28201.846390,-10140.821405
1661.149617,15475.129060,12731.542202,-18875.251521
1661.149935,22369.988542,9400.615463,-20651.745782
1661.150252,19841.873398,1628.453072,-12509.480420
1661.150569,4903.011187,-18653.189738,12731.542202
1661.150887,689.485948,-35974.008781,33531.329173
1661.151204,-3907.087040,-21984.116477,35381.844028
1661.151521,-16164.615008,-15322.262999,23020.404796
1661.151839,-20607.968896,-20429.683999,19023.292709
1661.152156,-17696.806004,-22576.281231,18653.189738
1661.152474,-16317.834107,-15322.262999,15544.324782
1661.152791,-15551.738609,-7402.059420,15174.221811
1661.153108,-14479.204912,-3404.947333,16062.468941
1661.153426,612.876398,6069.688724,30570.505405
1661.153743,11491.432470,31828.855506,6587.832884
1661.154061,13866.328514,39675.038491,-11325.150913
1661.154378,17160.539155,32791.123231,-8956.491898
1661.154695,15628.348159,18949.272115,-8512.368333
1661.155013,24898.103685,11991.336260,-11547.212695
1661.155330,18462.901502,10584.944971,-13693.809927
1661.155648,15321.909960,-2738.761985,12805.562797
1661.155965,2298.286494,-23390.507767,13101.645173
1661.156282,459.657299,-35085.761651,31902.876100
1661.156600,-7814.174080,-21317.931130,29608.237680
1661.156917,-19841.873398,-14730.098246,18061.024985
1661.157234,-15704.957709,-22946.384202,17912.983796
1661.157552,-11108.384721,-13767.830521,13323.706956
1661.157869,-8580.269578,-7031.956449,19911.539840
1661.158187,-7890.783629,4811.338623,18949.272115
1661.158504,1455.581446,6587.832884,14359.995275
1661.158821,10878.556072,28053.805202,5181.441594
1661.159139,13406.671215,36344.111752,-4219.173869
1661.159456,16471.053207,32495.040854,-7105.977043
1661.159774,15015.471761,26055.249158,-14137.933492
1661.160091,19688.654299,13397.727550,-12805.562797
1661.160408,13023.623466,4663.297435,-14285.974681
1661.160726,12104.308868,-3256.906145,17468.860231
1661.161043,2681.334243,-21317.931130,15396.283594
1661.161361,-3370.820191,-32495.040854,28275.866984
1661.161678,-15092.081311,-22946.384202,28868.031738
1661.161995,-23748.960438,-21021.848753,27683.702231
1661.162313,-22293.378992,-21688.034101,14211.954086
1661.162630,-18769.339701,-16580.613101,10510.924376
1661.162948,-16624.272307,-8216.285956,19541.436869
1661.163265,-13636.499864,4145.153275,20577.725188
1661.163582,-4903.011187,10732.986159,15988.448347
1661.163900,6741.640382,23982.672521,8290.306550
1661.164217,8733.488677,34197.514520,-1406.391290
1661.164534,9882.631924,26721.434506,-6957.935855
1661.164852,10265.679673,21095.869347,-7105.977043
1661.165169,18079.853753,12509.480420,-10362.883188
1661.165487,13253.452115,8956.491898,-17542.880825
1661.165804,13559.890315,592.164754,11251.130318
1661.166121,2757.943793,-9030.512492,11769.274478
1661.166439,2145.067394,-29608.237680,24056.693115
1661.166756,-9346.365076,-23834.631332,23760.610738
1661.167074,-19075.777900,-26277.310941,29016.072926
1661.167391,-21374.064394,-25981.228564,18727.210333
1661.167708,-14785.643111,-18579.169144,10066.800811
1661.168026,-10801.946522,-8216.285956,16506.592507
1661.168343,-6894.859482,2886.803174,21317.931130
1661.168661,-1302.362347,14137.933492,9326.594869
1661.168978,9806.022374,22650.301825,4145.153275
1661.169295,12104.308868,28645.969955,-3108.864956
1661.169613,11874.480219,20725.766376,-1924.535449
1661.169930,13789.718964,14211.954086,-5403.503377
1661.170247,13559.890315,12065.356855,-7994.224174
1661.170565,13559.890315,2886.803174,-11103.089130
1661.170882,7201.297681,-1702.473667,8512.368333
1661.171200,7048.078582,-15174.221811,18949.272115
1661.171517,6052.154434,-25611.125593,23686.590144
1661.171834,-2911.162892,-23760.610738,24352.775492
1661.172152,-11721.261119,-22576.281231,28423.908173
1661.172469,-14019.547613,-20281.642811,24352.775492
1661.172787,-8350.440928,-12731.542202,16580.613101
1661.173104,-2834.553343,2516.700203,9104.533087
1661.173421,-2987.772442,13989.892304,8438.347739
1661.173739,1532.190996,21169.889941,-1036.288319
1661.174056,10035.851024,19837.519246,-1036.288319
1661.174374,8044.002729,20651.745782,-6291.750507
1661.174691,12487.356617,10214.842000,-5329.482782
1661.175008,6818.249932,2590.720797,-8216.285956
1661.175326,5362.668486,-8586.388927,11621.233289
1661.175643,2068.457845,-17024.736666,21021.848753
1661.175960,-1072.533697,-5033.400406,8364.327145
1661.176278,9116.536426,-6957.935855,26647.413912
1661.176595,4443.353888,-7476.080014,27535.661042
1661.176913,2298.286494,-9770.718434,21984.116477
1661.177230,-2068.457845,-296.082377,15840.407159
1661.177547,-153.219100,2960.823768,9770.718434
1661.177865,995.924147,9622.677246,-3034.844362
1661.178182,3064.381992,11251.130318,-666.185348
1661.178499,3524.039291,13915.871710,3256.906145
1661.178817,4903.011187,15618.345376,-5551.544565
1661.179134,3294.210641,14211.954086,-9178.553681
1661.179452,3983.696590,814.226536,2664.741391
1661.179769,0.000000,-8512.368333,13027.624579
1661.180086,-6818.249932,-9992.780217,13027.624579
1661.180404,-7660.954980,-17616.901420,17838.963202
1661.180721,-9882.631924,-15544.324782,20725.766376
1661.181038,-6435.202183,-9918.759623,25833.187376
1661.181356,-919.314598,-4367.215058,26055.249158
1661.181673,4136.915689,7994.224174,16654.633695
1661.181990,6894.859482,15174.221811,7994.224174
1661.182308,2604.724693,17468.860231,814.226536
1661.182625,1838.629195,16284.530724,2516.700203
1661.182943,2374.896044,17246.798449,-1184.329507
1661.183260,-842.705048,13693.809927,-1110.308913
1661.183577,-1225.752797,9992.780217,-3034.844362
1661.183895,-689.485948,4441.235652,-2886.803174
1661.184212,-1225.752797,-370.102971,6291.750507
1661.184529,-1532.190996,-12657.521608,18875.251521
1661.184847,-7124.688131,-16580.613101,21095.869347
1661.185164,-8580.269578,-17764.942608,18357.107362
1661.185482,-9422.974625,-18431.127956,19689.478057
1661.185799,-11874.480219,-17394.839637,26055.249158
1661.186116,-8580.269578,-10881.027347,25981.228564
1661.186434,-2068.457845,2516.700203,17024.736666
1661.186751,2987.772442,15174.221811,8290.306550
1661.187068,4443.353888,22502.260637,1184.329507
1661.187386,5286.058936,23168.445985,-296.082377
1661.187703,7124.688131,18801.230927,-2146.597232
1661.188020,3140.991542,13545.768739,-1998.556043
1661.188338,5745.716235,4737.318029,-888.247130
1661.188655,5286.058936,296.082377,74.020594
1661.188973,7201.297681,-9770.718434,12805.562797
1661.189290,4903.011187,-16210.510130,19097.313304
1661.189607,2221.676944,-19097.313304,21762.054695
1661.189925,1532.190996,-17616.901420,21910.095883
1661.190242,229.828649,-12287.418637,17690.922014
1661.190559,-229.828649,-9992.780217,19319.375086
1661.190877,-2757.943793,-6735.874072,20059.581028
1661.191194,1302.362347,3108.864956,14137.933492
1661.191511,2911.162892,17098.757260,-1406.391290
1661.191829,4979.620737,23168.445985,-7698.141797
1661.192146,10878.556072,17394.839637,-3034.844362
1661.192464,7431.126331,11547.212695,-7105.977043
1661.192781,5362.668486,962.267725,-5625.565159
1661.193098,536.266849,-8956.491898,7254.018232
1661.193416,-5592.497135,-13915.871710,15026.180623
1661.193733,-2528.115143,-17987.004391,23686.590144
1661.194050,-5286.058936,-14359.995275,16580.613101
1661.194368,-4443.353888,-10658.965565,16284.530724
1661.194685,-1225.752797,-10807.006753,19985.560434
1661.195003,919.314598,-10584.944971,21762.054695
1661.195320,5669.106685,-6365.771101,20133.601622
1661.195637,8963.317327,4219.173869,14508.036463
1661.195955,9193.145976,14063.912898,6143.709319
1661.196272,11108.384721,20207.622217,-4367.215058
1661.196589,9806.022374,22798.343014,-7179.997637
1661.196907,12640.575717,22724.322419,-11547.212695
1661.197224,11721.261119,17172.777854,-18949.272115
1661.197541,9806.022374,8142.265362,-15396.283594
1661.197859,2221.676944,-7254.018232,888.247130
1661.198176,-5669.106685,-21614.013506,21688.034101
1661.198494,-15168.690860,-25241.022622,19689.478057
1661.198811,-16854.100956,-23094.425390,18875.251521
1661.199128,-16241.224558,-18505.148550,24574.837274
1661.199446,-16241.224558,-14582.057057,17838.963202
1661.199763,-11491.432470,-12065.356855,18801.230927
1661.200080,-1915.238745,-12065.356855,30570.505405
1661.200398,-383.047749,3478.967927,19985.560434
1661.200715,6511.811733,16876.695478,11991.336260
1661.201033,7431.126331,30348.443622,7920.203579
1661.201350,5898.935335,37232.358883,-3627.009116
1661.201667,10035.851024,35159.782245,-12435.459826
1661.201985,13483.280765,33605.349767,-12065.356855
1661.202302,20531.359346,21021.848753,-16876.695478
1661.202619,15628.348159,9104.533087,-19985.560434
1661.202937,5745.716235,-11399.171507,4071.132681
1661.203254,-6205.373534,-23316.487173,24574.837274
1661.203571,-14325.985813,-27313.599260,25611.125593
1661.203889,-14479.204912,-22058.137072,25315.043216
1661.204206,-20071.702048,-24204.734303,24426.796086
1661.204524,-21374.064394,-27239.578666,31384.731941
1661.204841,-22446.598091,-26203.290347,27313.599260
1661.205158,-11568.042020,-18949.272115,33013.185013
1661.205476,-5592.497135,4885.359217,25241.022622
1661.205793,4136.915689,24648.857869,13619.789333
1661.206110,8733.488677,44116.274143,-3997.112087
1661.206428,11797.870669,45448.644839,-9326.594869
1661.206745,19228.997000,28201.846390,-10955.047942
1661.207062,22063.550342,19171.333898,-16210.510130
1661.207380,28575.362075,16654.633695,-17394.839637
1661.207697,23059.474490,7254.018232,-9770.718434
1661.208015,6511.811733,-8290.306550,-2220.617826
1661.208332,459.657299,-18357.107362,35603.905810
1661.208649,-8810.098227,-19171.333898,33605.349767
1661.208967,-12257.527968,-23168.445985,22354.219448
1661.209284,-18309.682402,-33235.246796,34493.596897
1661.209601,-19535.435199,-29386.175897,35233.802839
1661.209919,-14402.595362,-27905.764013,25389.063811
1661.210236,-5286.058936,-8734.430116,23020.404796
1661.210554,-9346.365076,4589.276840,12435.459826
1661.210871,-229.828649,18431.127956,8882.471304
1661.211188,8120.612279,39008.853143,-11843.295072
1661.211506,16394.443657,31606.793723,-9918.759623
1661.211823,14632.424012,23390.507767,-9178.553681
1661.212140,18156.463303,12287.418637,-17912.983796
1661.212458,20071.702048,6809.894666,-13249.686362
1661.212775,14632.424012,-3997.112087,5403.503377
1661.213092,2451.505594,-12583.501014,17246.798449
1661.213410,-2451.505594,-23094.425390,19393.395680
1661.213727,0.000000,-26351.331535,26943.496289
1661.214045,-6511.811733,-19689.478057,27831.743419
1661.214362,-9116.536426,-18949.272115,34641.638086
1661.214679,-7431.126331,-14211.954086,28201.846390
1661.214997,1685.410096,962.267725,16062.468941
1661.215314,-383.047749,15914.427753,-4071.132681
1661.215631,-2987.772442,15248.242405,-2072.576638
1661.215949,-1225.752797,14730.098246,-888.247130
1661.216266,4290.134789,20133.601622,-11029.068536
1661.216583,10648.727422,18653.189738,-17468.860231
1661.216901,11108.384721,11029.068536,-17690.922014
1661.217218,6052.154434,-4811.338623,4145.153275
1661.217536,1838.629195,-19837.519246,22206.178260
1661.217853,-3830.477490,-20133.601622,9474.636058
1661.218170,-4596.572988,-12657.521608,13989.892304
1661.218488,-3830.477490,-14285.974681,25759.166782
1661.218805,-1838.629195,-14211.954086,26795.455100
1661.219122,-1838.629195,-8882.471304,21984.116477
1661.219440,-3830.477490,-0.000000,21465.972318
1661.219757,2221.676944,11029.068536,14137.933492
1661.220075,229.828649,24796.899057,-8956.491898
1661.220392,6052.154434,23464.528361,-5699.585753
1661.220709,-1302.362347,24648.857869,-4589.276840
1661.221027,-2221.676944,16358.551318,-12361.439231
1661.221344,3370.820191,10214.842000,-14211.954086
1661.221661,306.438199,740.205942,-5699.585753
1661.221979,-2834.553343,-10955.047942,9252.574275
1661.222296,-9806.022374,-20207.622217,22206.178260
1661.222613,-14402.595362,-23538.548956,23760.610738
1661.222931,-12947.013916,-19319.375086,22946.384202
1661.223248,-11721.261119,-16580.613101,27165.558071
1661.223566,-8963.317327,-16062.468941,32272.979071
1661.223883,-2374.896044,-10658.965565,28275.866984
1661.224200,2451.505594,2220.617826,18505.148550
1661.224518,4903.011187,15470.304188,11251.130318
1661.224835,12180.918418,23686.590144,6143.709319
1661.225152,14172.766713,29164.114115,-4663.297435
1661.225470,12104.308868,30644.525999,-4145.153275
1661.225787,13406.671215,29460.196492,-12805.562797
1661.226105,17083.929605,23464.528361,-21465.972318
1661.226422,18386.291952,9178.553681,-13693.809927
1661.226739,9116.536426,-11473.192101,11769.274478
1661.227057,-3830.477490,-25537.104999,26869.475695
1661.227374,-12410.747068,-26203.290347,18209.066173
1661.227691,-12334.137518,-22132.157666,23538.548956
1661.228009,-15704.957709,-23686.590144,33087.205607
1661.228326,-15245.300410,-24796.899057,33161.226202
1661.228643,-9269.755526,-20355.663405,32198.958477
1661.228961,-4519.963438,-6143.709319,23464.528361
1661.229278,3600.648841,10288.862594,17098.757260
1661.229596,10342.289223,19319.375086,12731.542202
1661.229913,14172.766713,24204.734303,5625.565159
1661.230230,11491.432470,33605.349767,-5181.441594
1661.230548,16011.395908,33087.205607,-4515.256246
1661.230865,20531.359346,28423.908173,-12731.542202
1661.231182,25970.637382,20947.828159,-14582.057057
1661.231500,18999.168350,6143.709319,-6587.832884
1661.231817,6052.154434,-6291.750507,-370.102971
1661.232134,-995.924147,-18949.272115,18579.169144
1661.232452,-10572.117872,-21984.116477,18505.148550
1661.232769,-11568.042020,-24278.754898,21836.075289
1661.233087,-17160.539155,-27239.578666,25092.981434
1661.233404,-18003.244203,-28719.990550,36640.194129
1661.233721,-19458.825649,-25018.960840,27831.743419
1661.234039,-11874.480219,-16062.468941,23612.569550
1661.234356,-5056.230287,-3923.091493,20725.766376
1661.234673,-1532.190996,15988.448347,13471.748144
1661.234991,5515.887586,36492.152941,-7105.977043
1661.235308,7048.078582,36936.276506,-10214.842000
1661.235626,13023.623466,26203.290347,-2220.617826
1661.235943,17160.539155,19467.416275,-14211.954086
1661.236260,19995.092498,19763.498651,-21021.848753
1661.236578,15321.909960,9252.574275,-9178.553681
1661.236895,6128.763984,2886.803174,-13915.871710
1661.237212,-7890.783629,-9400.615463,6365.771101
1661.237530,-4903.011187,-20947.828159,34493.596897
1661.237847,-13636.499864,-21169.889941,17468.860231
1661.238164,-14785.643111,-28719.990550,28942.052332
1661.238482,-19382.216099,-38490.708984,40193.182651
1661.238799,-18233.072852,-34715.658680,34937.720462
1661.239117,-10725.336972,-21169.889941,22724.322419
1661.239434,-10648.727422,1702.473667,13175.665768
1661.239751,-383.047749,15618.345376,15100.201217
1661.240069,5362.668486,45374.624245,-11843.295072
1661.240386,12257.527968,42487.821071,-10658.965565
1661.240703,16547.662757,19763.498651,-6883.915261
1661.241021,18692.730151,17468.860231,-17172.777854
1661.241338,21527.283494,8290.306550,-24796.899057
1661.241656,14709.033562,444.123565,-9326.594869
1661.241973,6052.154434,-1110.308913,-10214.842000
1661.242290,-4673.182538,-5995.668130,14359.995275
1661.242608,-3907.087040,-16062.468941,29090.093521
1661.242925,-11644.651570,-19689.478057,20059.581028
1661.243242,-12487.356617,-26573.393318,42413.800477
1661.243560,-13100.233016,-31014.628970,46632.974346
1661.243877,-6358.592633,-29090.093521,38786.791361
1661.244194,-5439.278036,-10658.965565,23612.569550
1661.244512,-2298.286494,13397.727550,13841.851115
1661.244829,6511.811733,25833.187376,8216.285956
1661.245147,8197.221829,44190.294737,-14211.954086
1661.245464,23136.084040,41303.491564,-8660.409521
1661.245781,20071.702048,26573.393318,-20059.581028
1661.246099,23136.084040,21169.889941,-32865.143825
1661.246416,20684.578446,3256.906145,-22798.343014
1661.246733,4443.353888,-13397.727550,0.000000
1661.247051,-6435.202183,-25018.960840,18061.024985
1661.247368,-13559.890315,-19245.354492,21317.931130
1661.247685,-13406.671215,-21614.013506,25018.960840
1661.248003,-15398.519510,-25018.960840,37676.482448
1661.248320,-16700.881856,-32791.123231,47447.200882
1661.248638,-10495.508323,-23834.631332,48631.530389
1661.248955,-5975.544884,-8438.347739,31606.793723
1661.249272,0.000000,9252.574275,20503.704593
1661.249590,2604.724693,27461.640448,9030.512492
1661.249907,5362.668486,42709.882853,-5773.606348
1661.250224,11568.042020,39749.059085,-5773.606348
1661.250542,14862.252661,33605.349767,-13767.830521
1661.250859,19075.777900,30274.423028,-26055.249158
1661.251177,21144.235745,13249.686362,-28794.011144
1661.251494,7890.783629,222.061783,-16802.674883
1661.251811,-612.876398,-21243.910535,9918.759623
1661.252129,-11797.870669,-27683.702231,27165.558071
1661.252446,-18156.463303,-30718.546593,27387.619854
1661.252763,-16011.395908,-27461.640448,34049.473332
1661.253081,-19535.435199,-31162.670158,37528.441259
1661.253398,-13483.280765,-33383.287984,53220.807230
1661.253715,-9882.631924,-18801.230927,37824.523636
1661.254033,-7967.393179,-2960.823768,17246.798449
1661.254350,842.705048,13915.871710,16580.613101
1661.254668,2987.772442,40415.244433,-5995.668130
1661.254985,6205.373534,46929.056723,-4589.276840
1661.255302,17007.320056,41821.635723,-12805.562797
1661.255620,21910.331243,32346.999665,-24426.796086
1661.255937,20991.016645,22946.384202,-33679.370361
1661.256254,18233.072852,6513.812290,-22576.281231
1661.256572,5745.716235,-8882.471304,-14730.098246
1661.256889,-6894.859482,-20947.828159,2072.576638
1661.257206,-11491.432470,-26647.413912,40267.203245
1661.257524,-18309.682402,-25092.981434,39230.914926
1661.257841,-22293.378992,-28571.949361,34641.638086
1661.258159,-18462.901502,-38268.647201,52184.518911
1661.258476,-12640.575717,-31088.649564,47891.324447
1661.258793,-11338.213370,-18727.210333,24352.775492
1661.259111,-689.485948,-4959.379811,20281.642811
1661.259428,2757.943793,24056.693115,2368.659014
1661.259745,5209.449386,47669.262665,-6661.853478
1661.260063,20914.407095,47891.324447,-10881.027347
1661.260380,30337.381721,38490.708984,-28571.949361
1661.260698,25204.541884,29830.299463,-35603.905810
1661.261015,27196.390179,12139.377449,-29090.093521
1661.261332,9499.584175,-6069.688724,-27461.640448
1661.261650,8350.440928,-16950.716072,-9474.636058
1661.261967,-8350.440928,-19985.560434,222.061783
1661.262284,-9193.145976,-22650.301825,55071.322085
1661.262602,-16471.053207,-32346.999665,40489.265027
1661.262919,-18845.949251,-32643.082042,42487.821071
1661.263236,-15168.690860,-41673.594535,53664.930795
1661.263554,-9959.241474,-28201.846390,43746.171172
1661.263871,-10189.070123,-11769.274478,25981.228564
1661.264189,6128.763984,10881.027347,16876.695478
1661.264506,-766.095498,37306.379477,-17838.963202
1661.264823,12027.699319,51222.251186,-2812.782580
1661.265141,24898.103685,43450.088795,-13249.686362
1661.265458,30030.943522,34049.473332,-32050.917289
1661.265775,25740.808733,19615.457463,-32865.143825
1661.266093,16394.443657,148.041188,-24278.754898
1661.266410,-766.095498,-20799.786970,-16432.571912
1661.266728,-383.047749,-37232.358883,22354.219448
1661.267045,-9499.584175,-27239.578666,36196.070564
1661.267362,-8350.440928,-20207.622217,35677.926404
1661.267680,-17237.148705,-24500.816680,37010.297100
1661.267997,-15704.957709,-34419.576303,50037.921679
1661.268314,-9116.536426,-24574.837274,49297.715737
1661.268632,-5898.935335,2072.576638,30644.525999
1661.268949,1685.410096,12879.583391,13175.665768
1661.269266,4749.792088,35751.946999,-10066.800811
1661.269584,6818.249932,46484.933158,-11991.336260
1661.269901,16854.100956,41229.470969,-8586.388927
1661.270219,23978.789087,27165.558071,-19023.292709
1661.270536,21220.845295,21169.889941,-32050.917289
1661.270853,13176.842566,4367.215058,-18135.045579
1661.271171,766.095498,-16580.613101,7772.162391
1661.271488,-9882.631924,-25685.146187,10214.842000
1661.271805,-12563.966167,-30496.484810,26055.249158
1661.272123,-16700.881856,-20503.704593,38342.667796
1661.272440,-17313.758255,-20355.663405,41821.635723
1661.272757,-17313.758255,-26055.249158,38120.606013
1661.273075,-13023.623466,-21910.095883,35751.946999
1661.273392,-5975.544884,-5551.544565,35307.823433
1661.273710,-5669.106685,14137.933492,16876.695478
1661.274027,1685.410096,31088.649564,-3627.009116
1661.274344,-919.314598,39008.853143,-17172.777854
1661.274662,12104.308868,38934.832549,-2442.679609
1661.274979,15015.471761,34789.679274,-18949.272115
1661.275296,25970.637382,18801.230927,-25167.002028
1661.275614,15704.957709,11843.295072,-23908.651927
1661.275931,4519.963438,-5699.585753,-7328.038826
1661.276249,-3064.381992,-15100.201217,12435.459826
1661.276566,-13713.109414,-25389.063811,23242.466579
1661.276883,-11414.822920,-29312.155303,37898.544230
1661.277201,-19152.387450,-25018.960840,38934.832549
1661.277518,-12410.747068,-27535.661042,42339.779882
1661.277835,-10495.508323,-23316.487173,38934.832549
1661.278153,-1149.143247,-9252.574275,33383.287984
1661.278470,5132.839837,10214.842000,19467.416275
1661.278787,7354.516781,26351.331535,-1924.535449
1661.279105,7354.516781,40563.285622,-15618.345376
1661.279422,14709.033562,37824.523636,-7846.182985
1661.279739,20301.530697,30866.587781,-20947.828159
1661.280057,26889.951980,20725.766376,-27609.681637
1661.280374,21603.893044,3923.091493,-24722.878463
1661.280691,9499.584175,-9178.553681,-1110.308913
1661.281009,4366.744339,-24056.693115,10214.842000
1661.281326,-3830.477490,-25611.125593,21317.931130
1661.281643,-5975.544884,-27609.681637,34937.720462
1661.281961,-11108.384721,-21169.889941,35974.008781
1661.282278,-5669.106685,-17098.757260,39378.956114
1661.282595,-3447.429741,-6957.935855,38786.791361
1661.282912,7431.126331,6217.729913,28275.866984
1661.283230,10112.460574,23094.425390,2368.659014
1661.283547,9959.241474,38416.688390,-13249.686362
1661.283864,11184.994271,31458.752535,-7550.100608
1661.284182,11031.775171,22576.281231,-18135.045579
1661.284499,15704.957709,14211.954086,-27905.764013
1661.284816,14479.204912,5255.462188,-19171.333898
1661.285134,9346.365076,-12583.501014,13027.624579
1661.285451,-536.266849,-21465.972318,16950.716072
1661.285768,-2068.457845,-21317.931130,19023.292709
1661.286086,-6052.154434,-15618.345376,24796.899057
1661.286403,-9193.145976,-8438.347739,31014.628970
1661.286720,-7354.516781,-10584.944971,30792.567187
1661.287038,0.000000,3627.009116,21095.869347
1661.287355,1532.190996,16802.674883,9770.718434
1661.287672,8810.098227,29016.072926,2664.741391
1661.287990,13330.061665,28053.805202,-13175.665768
1661.288307,11797.870669,14878.139434,-9918.759623
1661.288624,4826.401637,8438.347739,-7772.162391
1661.288942,842.705048,3552.988522,-6365.771101
1661.289259,4519.963438,-3034.844362,7105.977043
1661.289576,3524.039291,-5995.668130,16358.551318
1661.289894,995.924147,-9252.574275,26129.269753
1661.290211,-2451.505594,-6069.688724,23908.651927
1661.290528,-4213.525239,-1554.432478,21317.931130
1661.290846,-2298.286494,1332.370696,14582.057057
1661.291163,-4366.744339,5477.523971,6883.915261
1661.291480,995.924147,5551.544565,11547.212695
1661.291797,-153.219100,14137.933492,7031.956449
1661.292115,3064.381992,12065.356855,4737.318029
1661.292432,-766.095498,6217.729913,2368.659014
1661.292749,2221.676944,-2664.741391,15026.180623
1661.293067,0.000000,-4885.359217,13915.871710
1661.293384,-1915.238745,-1850.514855,9918.759623
1661.293701,0.000000,-1998.556043,15914.427753
1661.294019,4136.915689,2590.720797,19689.478057
1661.294336,6741.640382,9918.759623,11325.150913
1661.294653,7584.345430,9770.718434,8364.327145
1661.294971,7354.516781,9622.677246,12583.501014
1661.295288,5592.497135,8438.347739,4219.173869
1661.295605,5362.668486,7846.182985,-1480.411884
1661.295923,2834.553343,4589.276840,6513.812290
1661.296240,2298.286494,-1702.473667,16580.613101
1661.296557,-1225.752797,-1036.288319,15544.324782
1661.296875,-995.924147,-814.226536,9696.697840
1661.297192,-2987.772442,-2294.638420,10436.903782
1661.297509,0.000000,-2738.761985,17320.819043
1661.297827,2528.115143,-2590.720797,12583.501014
1661.298144,3907.087040,4071.132681,4737.318029
1661.298461,6281.983084,5773.606348,10362.883188
1661.298779,5975.544884,3182.885551,13767.830521
1661.299096,8427.050478,1258.350101,12361.439231
1661.299413,11108.384721,5773.606348,9622.677246
1661.299731,9499.584175,7994.224174,6587.832884
1661.300048,11108.384721,8882.471304,4145.153275
1661.300365,10725.336972,6587.832884,-592.164754
1661.300682,8733.488677,5625.565159,3034.844362
1661.301000,5745.716235,1924.535449,7624.121203
1661.301317,1762.019645,2442.679609,4589.276840
1661.301634,1302.362347,-1554.432478,6809.894666
1661.301952,306.438199,-3478.967927,10510.924376
1661.302269,-1072.533697,-5995.668130,12065.356855
1661.302586,-919.314598,-9474.636058,13767.830521
1661.302904,-1532.190996,-8068.244768,15692.365970
1661.303221,-2681.334243,-4441.235652,15766.386565
1661.303538,-2834.553343,1850.514855,12213.398043
1661.303856,0.000000,4515.256246,9770.718434
1661.304173,919.314598,7624.121203,4219.173869
1661.304490,2068.457845,9178.553681,4219.173869
1661.304808,3907.087040,8068.244768,3775.050304
1661.305125,6281.983084,6069.688724,2072.576638
1661.305442,7890.783629,1998.556043,3478.967927
1661.305760,6435.202183,-2072.576638,8068.244768
1661.306077,5898.935335,-5773.606348,11621.233289
1661.306394,4673.182538,-4293.194464,7698.141797
1661.306712,4596.572988,-2146.597232,4219.173869
1661.307029,2374.896044,-1406.391290,6735.874072
1661.307346,-842.705048,370.102971,7254.018232
1661.307664,-3217.601092,1850.514855,8068.244768
1661.307981,-5515.887586,1110.308913,11547.212695
1661.308298,-7124.688131,-666.185348,12435.459826
1661.308616,-6741.640382,962.267725,11843.295072
1661.308933,-4979.620737,3330.926739,10955.047942
1661.309250,-1302.362347,4219.173869,11547.212695
1661.309567,1302.362347,4145.153275,12731.542202
1661.309885,4673.182538,6439.791695,8512.368333
1661.310202,8044.002729,7476.080014,4589.276840
1661.310519,9346.365076,4293.194464,6661.853478
1661.310837,9422.974625,2590.720797,10807.006753
1661.311154,9806.022374,4145.153275,9548.656652
1661.311471,9422.974625,7254.018232,5033.400406
1661.311789,8273.831378,6365.771101,6735.874072
1661.312106,5822.325785,3552.988522,10066.800811
1661.312423,4596.572988,1258.350101,11251.130318
1661.312741,2757.943793,1332.370696,9548.656652
1661.313058,1685.410096,3034.844362,9104.533087
1661.313375,2374.896044,4663.297435,8808.450710
1661.313693,3830.477490,4663.297435,8882.471304
1661.314010,3907.087040,3404.947333,11103.089130
1661.314327,2068.457845,1036.288319,12731.542202
1661.314645,919.314598,-518.144159,13323.706956
1661.314962,995.924147,-222.061783,14508.036463
1661.315279,1608.800546,2146.597232,14582.057057
1661.315597,3064.381992,5847.626942,12879.583391
1661.315914,3217.601092,7105.977043,10288.862594
1661.316231,3370.820191,7105.977043,8290.306550
1661.316549,4366.744339,6587.832884,7698.141797
1661.316866,4673.182538,5921.647536,7476.080014
1661.317183,5362.668486,4293.194464,9474.636058
1661.317501,3830.477490,3404.947333,11251.130318
1661.317818,2451.505594,3552.988522,11695.253884
1661.318135,1149.143247,4811.338623,11991.336260
1661.318453,459.657299,4737.318029,11991.336260
1661.318770,-306.438199,4441.235652,10288.862594
1661.319087,-766.095498,4293.194464,7402.059420
1661.319404,-1685.410096,1628.453072,8956.491898
1661.319722,-1455.581446,-2146.597232,11695.253884
1661.320039,-842.705048,-1998.556043,11991.336260
1661.320356,-459.657299,296.082377,10732.986159
1661.320674,306.438199,1554.432478,10214.842000
1661.320991,919.314598,3182.885551,8586.388927
1661.321308,1378.971896,4145.153275,7179.997637
1661.321626,1225.752797,4959.379811,7476.080014
1661.321943,1302.362347,3849.070898,9474.636058
1661.322260,1225.752797,2664.741391,11325.150913
1661.322578,2145.067394,1406.391290,12953.603985
1661.322895,3217.601092,1554.432478,12583.501014
1661.323212,4443.353888,2072.576638,9844.739029
1661.323530,6511.811733,2516.700203,7476.080014
1661.323847,7354.516781,2442.679609,5403.503377
1661.324164,7584.345430,1850.514855,4737.318029
1661.324482,6665.030833,2664.741391,4737.318029
1661.324799,6358.592633,2664.741391,5181.441594
1661.325116,5056.230287,1924.535449,5477.523971
1661.325434,3370.820191,370.102971,6365.771101
1661.325751,1378.971896,-814.226536,7624.121203
1661.326068,229.828649,-962.267725,8734.430116
1661.326386,-459.657299,-1924.535449,10881.027347
1661.326703,-1608.800546,-2664.741391,13767.830521
1661.327020,-2068.457845,-2516.700203,15322.262999
1661.327338,-1532.190996,-1702.473667,14804.118840
1661.327655,0.000000,148.041188,11843.295072
1661.327972,2834.553343,1480.411884,10066.800811
1661.328289,4213.525239,3330.926739,5329.482782
1661.328607,4826.401637,4441.235652,4367.215058
1661.328924,6281.983084,4737.318029,4811.338623
1661.329241,5132.839837,2960.823768,4959.379811
1661.329559,3600.648841,-592.164754,6661.853478
1661.329876,2068.457845,-962.267725,7846.182985
1661.330193,1762.019645,-1480.411884,10140.821405
1661.330511,459.657299,-2960.823768,9104.533087
1661.330828,-383.047749,-4219.173869,11399.171507
1661.331145,-306.438199,-2294.638420,12361.439231
1661.331463,1149.143247,518.144159,11769.274478
1661.331780,1838.629195,-0.000000,12213.398043
1661.332097,2834.553343,1184.329507,12213.398043
1661.332415,2757.943793,4811.338623,7476.080014
1661.332732,5286.058936,7994.224174,4885.359217
1661.333049,4673.182538,7254.018232,5625.565159
1661.333367,3524.039291,3256.906145,8734.430116
1661.333684,2911.162892,2220.617826,8882.471304
1661.334001,1608.800546,2368.659014,9178.553681
1661.334319,2221.676944,222.061783,12657.521608
1661.334636,2451.505594,-148.041188,13397.727550
1661.334953,4136.915689,1998.556043,10955.047942
1661.335271,4366.744339,4367.215058,9474.636058
1661.335588,4290.134789,5255.462188,10288.862594
1661.335905,3830.477490,4737.318029,9770.718434
1661.336223,3753.867940,5625.565159,9104.533087
1661.336540,3064.381992,5625.565159,9030.512492
1661.336857,1915.238745,4737.318029,8808.450710
1661.337174,1225.752797,3627.009116,9548.656652
1661.337492,1455.581446,2146.597232,10066.800811
1661.337809,842.705048,1184.329507,10066.800811
1661.338126,995.924147,222.061783,11843.295072
1661.338444,1915.238745,-222.061783,12509.480420
1661.338761,3140.991542,888.247130,11917.315666
1661.339078,3600.648841,3552.988522,10362.883188
1661.339396,4596.572988,5403.503377,9400.615463
1661.339713,4213.525239,6661.853478,7994.224174
1661.340030,4596.572988,8142.265362,6809.894666
1661.340348,4213.525239,9474.636058,5773.606348
1661.340665,3677.258390,8956.491898,5847.626942
1661.340982,3140.991542,5403.503377,7179.997637
1661.341300,1608.800546,2368.659014,8882.471304
1661.341617,459.657299,740.205942,10510.924376
1661.341934,-536.266849,-370.102971,11251.130318
1661.342252,-1225.752797,-444.123565,12065.356855
1661.342569,-1072.533697,1332.370696,12805.562797
1661.342886,-306.438199,3627.009116,12361.439231
1661.343204,383.047749,4885.359217,10436.903782
1661.343521,1149.143247,5699.585753,8586.388927
1661.343838,2604.724693,5995.668130,7772.162391
1661.344156,4290.134789,6217.729913,7254.018232
1661.344473,4979.620737,5625.565159,7328.038826
1661.344790,6205.373534,4515.256246,7846.182985
1661.345108,6358.592633,3330.926739,7698.141797
1661.345425,7737.564530,2960.823768,8142.265362
1661.345742,8120.612279,2072.576638,7402.059420
1661.346060,8197.221829,1258.350101,7846.182985
1661.346377,8273.831378,518.144159,8216.285956
1661.346694,7814.174080,1628.453072,8068.244768
1661.347011,7507.735880,1702.473667,7698.141797
1661.347329,7277.907231,1702.473667,8290.306550
1661.347646,6894.859482,1554.432478,9474.636058
1661.347963,6281.983084,2072.576638,9326.594869
1661.348281,5439.278036,2812.782580,8586.388927
1661.348598,5362.668486,3330.926739,9030.512492
1661.348915,6052.154434,2960.823768,10214.842000
1661.349233,5362.668486,2146.597232,10362.883188
1661.349550,5898.935335,1850.514855,10510.924376
1661.349867,5515.887586,2220.617826,9696.697840
1661.350185,5975.544884,2294.638420,9548.656652
1661.350502,6511.811733,1998.556043,8438.347739
1661.350819,6128.763984,2368.659014,7698.141797
1661.351137,5439.278036,2220.617826,7476.080014
1661.351454,3907.087040,1110.308913,7698.141797
1661.351771,2374.896044,814.226536,8364.327145
1661.352089,766.095498,-0.000000,9326.594869
1661.352406,-536.266849,-0.000000,9548.656652
1661.352723,-1225.752797,-740.205942,10362.883188
1661.353041,-2068.457845,-1480.411884,10881.027347
1661.353358,-2757.943793,-1406.391290,11251.130318
1661.353675,-2451.505594,-1702.473667,11251.130318
1661.353993,-2604.724693,-1258.350101,10955.047942
1661.354310,-2068.457845,-0.000000,10436.903782
1661.354627,-919.314598,1702.473667,8512.368333
1661.354945,-1072.533697,2812.782580,7772.162391
1661.355262,-459.657299,2294.638420,7476.080014
1661.355579,0.000000,1702.473667,8290.306550
1661.355896,153.219100,888.247130,9104.533087
1661.356214,0.000000,222.061783,10362.883188
1661.356531,0.000000,296.082377,11103.089130
1661.356848,383.047749,222.061783,11843.295072
1661.357166,612.876398,1480.411884,11547.212695
1661.357483,536.266849,2294.638420,10881.027347
1661.357800,1455.581446,3775.050304,9696.697840
1661.358118,2298.286494,4811.338623,7994.224174
1661.358435,3064.381992,5551.544565,6957.935855
1661.358752,3677.258390,4811.338623,6661.853478
1661.359070,3217.601092,4515.256246,6143.709319
1661.359387,3600.648841,2590.720797,7920.203579
1661.359704,3064.381992,1036.288319,9030.512492
1661.360022,2681.334243,-0.000000,10362.883188
1661.360339,2604.724693,-370.102971,11547.212695
1661.360656,2374.896044,888.247130,11843.295072
1661.360974,2451.505594,1998.556043,11325.150913
1661.361291,2451.505594,3923.091493,9696.697840
1661.361608,2911.162892,4663.297435,9844.739029
1661.361926,3217.601092,4811.338623,8956.491898
1661.362243,4060.306139,4811.338623,9252.574275
1661.362560,3907.087040,3182.885551,9030.512492
1661.362878,4749.792088,2442.679609,9474.636058
1661.363195,5209.449386,1702.473667,9400.615463
1661.363512,5745.716235,814.226536,9622.677246
1661.363830,6205.373534,962.267725,9548.656652
1661.364147,6588.421283,2294.638420,8142.265362
1661.364464,7124.688131,2516.700203,6735.874072
1661.364781,7048.078582,3034.844362,6735.874072
