#time,accel_x,accel_y,accel_z
2101.053327,919.314598,74.020594,9474.636058
2101.053644,1072.533697,370.102971,9326.594869
2101.053962,612.876398,-0.000000,9400.615463
2101.054279,842.705048,-0.000000,9400.615463
2101.054597,1072.533697,296.082377,9770.718434
2101.054915,689.485948,222.061783,9474.636058
2101.055232,995.924147,370.102971,9104.533087
2101.055550,842.705048,148.041188,9400.615463
2101.055868,842.705048,222.061783,9252.574275
2101.056185,919.314598,296.082377,9104.533087
2101.056503,689.485948,-0.000000,9400.615463
2101.056820,1072.533697,148.041188,9400.615463
2101.057138,766.095498,148.041188,9474.636058
2101.057456,766.095498,-0.000000,9400.615463
2101.057773,536.266849,296.082377,9622.677246
2101.058091,766.095498,222.061783,9474.636058
2101.058408,766.095498,222.061783,9474.636058
2101.058726,689.485948,148.041188,9474.636058
2101.059044,1149.143247,-0.000000,9104.533087
2101.059361,766.095498,-0.000000,9474.636058
2101.059679,1149.143247,222.061783,9252.574275
2101.059997,766.095498,-0.000000,9326.594869
2101.060314,689.485948,148.041188,9326.594869
2101.060632,766.095498,-0.000000,9474.636058
2101.060949,689.485948,148.041188,9474.636058
2101.061267,766.095498,148.041188,9400.615463
2101.061585,612.876398,222.061783,9474.636058
2101.061902,689.485948,222.061783,9400.615463
2101.062220,612.876398,370.102971,9548.656652
2101.062538,766.095498,296.082377,9474.636058
2101.062855,536.266849,296.082377,9474.636058
2101.063173,842.705048,296.082377,9400.615463
2101.063490,459.657299,296.082377,9474.636058
2101.063808,536.266849,-0.000000,9474.636058
2101.064126,766.095498,-0.000000,9474.636058
2101.064443,766.095498,-0.000000,9474.636058
2101.064761,689.485948,370.102971,9474.636058
2101.065078,919.314598,-0.000000,9622.677246
2101.065396,919.314598,-0.000000,9474.636058
2101.065714,766.095498,444.123565,9400.615463
2101.066031,383.047749,-0.000000,9474.636058
2101.066349,689.485948,148.041188,9474.636058
2101.066667,919.314598,296.082377,9548.656652
2101.066984,689.485948,222.061783,9548.656652
2101.067302,766.095498,222.061783,9474.636058
2101.067619,536.266849,296.082377,9474.636058
2101.067937,766.095498,148.041188,9474.636058
2101.068255,766.095498,148.041188,9252.574275
2101.068572,766.095498,-0.000000,9178.553681
2101.068890,536.266849,-74.020594,9178.553681
2101.069208,995.924147,370.102971,9474.636058
2101.069525,1225.752797,-0.000000,9622.677246
2101.069843,689.485948,148.041188,9400.615463
2101.070160,689.485948,370.102971,9474.636058
2101.070478,766.095498,222.061783,9326.594869
2101.070796,689.485948,296.082377,9400.615463
2101.071113,842.705048,222.061783,9474.636058
2101.071431,612.876398,222.061783,9474.636058
2101.071749,689.485948,148.041188,9474.636058
2101.072066,689.485948,222.061783,9400.615463
2101.072384,689.485948,370.102971,9548.656652
2101.072701,995.924147,296.082377,9400.615463
2101.073019,612.876398,296.082377,9326.594869
2101.073337,383.047749,222.061783,9400.615463
2101.073654,459.657299,370.102971,9326.594869
2101.073972,383.047749,222.061783,9474.636058
2101.074289,306.438199,370.102971,9474.636058
2101.074607,383.047749,296.082377,9474.636058
2101.074925,306.438199,444.123565,9474.636058
2101.075242,0.000000,666.185348,9548.656652
2101.075560,0.000000,740.205942,9474.636058
2101.075878,153.219100,592.164754,9474.636058
2101.076195,306.438199,888.247130,9326.594869
2101.076513,0.000000,592.164754,9474.636058
2101.076830,0.000000,666.185348,9696.697840
2101.077148,-306.438199,370.102971,9474.636058
2101.077466,0.000000,740.205942,9622.677246
2101.077783,-383.047749,814.226536,9548.656652
2101.078101,-383.047749,1036.288319,9548.656652
2101.078419,-229.828649,1258.350101,9622.677246
2101.078736,-229.828649,1258.350101,9548.656652
2101.079054,-1378.971896,1554.432478,9474.636058
2101.079371,-995.924147,1480.411884,9474.636058
2101.079689,-1608.800546,1258.350101,9326.594869
2101.080007,-2145.067394,1258.350101,9844.739029
2101.080324,-2604.724693,1184.329507,9992.780217
2101.080642,-3064.381992,740.205942,10066.800811
2101.080959,-3140.991542,1258.350101,10362.883188
2101.081277,-3524.039291,1332.370696,10288.862594
2101.081595,-3753.867940,1258.350101,10066.800811
2101.081912,-3447.429741,1332.370696,10510.924376
2101.082230,-3907.087040,1554.432478,9844.739029
2101.082548,-3370.820191,1628.453072,9844.739029
2101.082865,-3370.820191,1998.556043,9844.739029
2101.083183,-3064.381992,1924.535449,9474.636058
2101.083500,-3140.991542,2368.659014,9474.636058
2101.083818,-3064.381992,2590.720797,9252.574275
2101.084136,-2681.334243,3034.844362,9178.553681
2101.084453,-2374.896044,2960.823768,8734.430116
2101.084771,-2145.067394,3701.029710,8512.368333
2101.085089,-1455.581446,3849.070898,8216.285956
2101.085406,-1225.752797,3997.112087,7624.121203
2101.085724,-1302.362347,5107.421000,6661.853478
2101.086041,-1149.143247,4367.215058,7402.059420
2101.086359,-1149.143247,5033.400406,8364.327145
2101.086677,-612.876398,4737.318029,7550.100608
2101.086994,-1072.533697,5699.585753,6291.750507
2101.087312,-1608.800546,5181.441594,7550.100608
2101.087630,-2145.067394,6069.688724,7254.018232
2101.087947,-2834.553343,5403.503377,7105.977043
2101.088265,-3294.210641,6143.709319,7105.977043
2101.088582,-3600.648841,6069.688724,7550.100608
2101.088900,-4060.306139,6365.771101,7254.018232
2101.089218,-4060.306139,5995.668130,7994.224174
2101.089535,-3907.087040,5181.441594,9474.636058
2101.089853,-4826.401637,5551.544565,8734.430116
2101.090170,-4903.011187,5107.421000,8956.491898
2101.090488,-5286.058936,4885.359217,9326.594869
2101.090806,-4673.182538,4959.379811,9844.739029
2101.091123,-4826.401637,5477.523971,9326.594869
2101.091441,-4443.353888,5773.606348,8734.430116
2101.091759,-3524.039291,6217.729913,9104.533087
2101.092076,-3294.210641,5255.462188,9104.533087
2101.092394,-2987.772442,4219.173869,9622.677246
2101.092711,-4060.306139,2738.761985,10658.965565
2101.093029,-4596.572988,2368.659014,11547.212695
2101.093347,-4290.134789,2294.638420,11473.192101
2101.093664,-3983.696590,2294.638420,12139.377449
2101.093982,-2451.505594,2442.679609,12213.398043
2101.094300,-919.314598,3404.947333,11547.212695
2101.094617,-1072.533697,3256.906145,11399.171507
2101.094935,-612.876398,2590.720797,11621.233289
2101.095252,-766.095498,1850.514855,11769.274478
2101.095570,-919.314598,1480.411884,12435.459826
2101.095888,0.000000,1184.329507,13175.665768
2101.096205,536.266849,1554.432478,12435.459826
2101.096523,1225.752797,1924.535449,12287.418637
2101.096840,2068.457845,1554.432478,13323.706956
2101.097158,2298.286494,888.247130,12879.583391
2101.097476,2451.505594,740.205942,11991.336260
2101.097793,2757.943793,1036.288319,11621.233289
2101.098111,2911.162892,1332.370696,10955.047942
2101.098429,3217.601092,1480.411884,10288.862594
2101.098746,2911.162892,888.247130,10362.883188
2101.099064,2681.334243,-0.000000,10510.924376
2101.099381,2221.676944,-0.000000,10214.842000
2101.099699,1685.410096,-0.000000,10288.862594
2101.100017,1302.362347,-0.000000,11103.089130
2101.100334,995.924147,-370.102971,10881.027347
2101.100652,536.266849,-74.020594,10140.821405
2101.100970,306.438199,444.123565,8956.491898
2101.101287,153.219100,888.247130,8660.409521
2101.101605,919.314598,1406.391290,7476.080014
2101.101922,766.095498,1332.370696,6883.915261
2101.102240,0.000000,1480.411884,7105.977043
2101.102558,-1225.752797,1332.370696,7105.977043
2101.102875,-2374.896044,1036.288319,7179.997637
2101.103193,-2987.772442,518.144159,7994.224174
2101.103511,-3524.039291,-296.082377,8586.388927
2101.103828,-4060.306139,-222.061783,8364.327145
2101.104146,-3753.867940,-0.000000,8142.265362
2101.104463,-3140.991542,-0.000000,7402.059420
2101.104781,-2528.115143,962.267725,6587.832884
2101.105099,-2145.067394,814.226536,6809.894666
2101.105416,-2374.896044,1628.453072,5699.585753
2101.105734,-2451.505594,2368.659014,5181.441594
2101.106051,-2604.724693,2664.741391,5255.462188
2101.106369,-2681.334243,2294.638420,5329.482782
2101.106687,-3217.601092,1998.556043,6291.750507
2101.107004,-4366.744339,962.267725,7031.956449
2101.107322,-4443.353888,296.082377,7105.977043
2101.107640,-4366.744339,518.144159,7402.059420
2101.107957,-3983.696590,740.205942,8660.409521
2101.108275,-2987.772442,1480.411884,8364.327145
2101.108592,-2834.553343,2442.679609,7698.141797
2101.108910,-2451.505594,3182.885551,7698.141797
2101.109228,-2221.676944,4071.132681,7105.977043
2101.109545,-2451.505594,4589.276840,7402.059420
2101.109863,-2834.553343,4219.173869,8290.306550
2101.110181,-3677.258390,4071.132681,8586.388927
2101.110498,-4136.915689,3997.112087,9030.512492
2101.110816,-4060.306139,3552.988522,10584.944971
2101.111133,-3370.820191,3256.906145,10881.027347
2101.111451,-2757.943793,3552.988522,10732.986159
2101.111769,-2145.067394,3775.050304,9992.780217
2101.112086,-1685.410096,3997.112087,10288.862594
2101.112404,-919.314598,4737.318029,9918.759623
2101.112721,-383.047749,4811.338623,9474.636058
2101.113039,-459.657299,4663.297435,9770.718434
2101.113357,-766.095498,4885.359217,10362.883188
2101.113674,-306.438199,5329.482782,10510.924376
2101.113992,-689.485948,5329.482782,10881.027347
2101.114310,-229.828649,5403.503377,11473.192101
2101.114627,-536.266849,5107.421000,11695.253884
2101.114945,-536.266849,5329.482782,11029.068536
2101.115262,-1072.533697,5107.421000,10436.903782
2101.115580,-689.485948,4367.215058,11917.315666
2101.115897,-1072.533697,4441.235652,11695.253884
2101.116214,-612.876398,3997.112087,12805.562797
2101.116532,-1302.362347,4441.235652,13175.665768
2101.116849,-1991.848295,4293.194464,13619.789333
2101.117167,-2298.286494,3923.091493,13767.830521
2101.117484,-2298.286494,4515.256246,14285.974681
2101.117802,-1378.971896,4589.276840,13989.892304
2101.118119,-1455.581446,4367.215058,12953.603985
2101.118436,153.219100,5551.544565,11695.253884
2101.118754,1225.752797,5551.544565,9992.780217
2101.119071,1915.238745,5107.421000,9326.594869
2101.119389,2068.457845,3849.070898,9178.553681
2101.119706,1072.533697,3849.070898,9474.636058
2101.120023,-612.876398,3627.009116,9178.553681
2101.120341,-1685.410096,3182.885551,10436.903782
2101.120658,-3064.381992,2960.823768,11547.212695
2101.120976,-2834.553343,2220.617826,12953.603985
2101.121293,-3217.601092,1776.494261,12213.398043
2101.121610,-3447.429741,1554.432478,12361.439231
2101.121928,-2221.676944,296.082377,12879.583391
2101.122245,-919.314598,370.102971,10955.047942
2101.122563,-306.438199,814.226536,9104.533087
2101.122880,0.000000,1998.556043,8512.368333
2101.123197,383.047749,2368.659014,8068.244768
2101.123515,-306.438199,2368.659014,6513.812290
2101.123832,-229.828649,3330.926739,6069.688724
2101.124150,-1608.800546,2590.720797,6957.935855
2101.124467,-3600.648841,1702.473667,7105.977043
2101.124784,-4749.792088,370.102971,8808.450710
2101.125102,-5209.449386,-222.061783,9548.656652
2101.125419,-4596.572988,-296.082377,9474.636058
2101.125737,-4443.353888,-444.123565,9474.636058
2101.126054,-3447.429741,-1036.288319,8512.368333
2101.126372,-1915.238745,-1258.350101,9622.677246
2101.126689,-766.095498,-518.144159,7846.182985
2101.127006,-383.047749,-0.000000,7105.977043
2101.127324,-383.047749,1628.453072,6217.729913
2101.127641,-459.657299,1776.494261,5403.503377
2101.127959,-919.314598,2886.803174,3923.091493
2101.128276,-1608.800546,2146.597232,4515.256246
2101.128593,-2681.334243,1776.494261,4959.379811
2101.128911,-3140.991542,1184.329507,5181.441594
2101.129228,-4136.915689,888.247130,5921.647536
2101.129546,-4060.306139,-1850.514855,9326.594869
2101.129863,-3753.867940,-2220.617826,10288.862594
2101.130180,-2834.553343,-3108.864956,12213.398043
2101.130498,-2145.067394,-1924.535449,12213.398043
2101.130815,-1072.533697,-444.123565,10807.006753
2101.131133,919.314598,2590.720797,8660.409521
2101.131450,2681.334243,4885.359217,7772.162391
2101.131767,4596.572988,4959.379811,6587.832884
2101.132085,4979.620737,5995.668130,4589.276840
2101.132402,5745.716235,4959.379811,4589.276840
2101.132720,4903.011187,4441.235652,3701.029710
2101.133037,3600.648841,2886.803174,4219.173869
2101.133355,1378.971896,1332.370696,5181.441594
2101.133672,-1072.533697,-0.000000,6957.935855
2101.133989,-3370.820191,-1258.350101,9918.759623
2101.134307,-5669.106685,-2220.617826,13841.851115
2101.134624,-7048.078582,-1554.432478,15248.242405
2101.134942,-6435.202183,444.123565,16284.530724
2101.135259,-5515.887586,2886.803174,14211.954086
2101.135576,-4060.306139,3997.112087,13619.789333
2101.135894,-1225.752797,4811.338623,13471.748144
2101.136211,1302.362347,6143.709319,10140.821405
2101.136529,4136.915689,6735.874072,8734.430116
2101.136846,5669.106685,6883.915261,6883.915261
2101.137163,5286.058936,5255.462188,5329.482782
2101.137481,3983.696590,3478.967927,6143.709319
2101.137798,1302.362347,2812.782580,7402.059420
2101.138116,-1915.238745,2146.597232,8142.265362
2101.138433,-4673.182538,1702.473667,10140.821405
2101.138750,-6818.249932,296.082377,13545.768739
2101.139068,-7890.783629,-592.164754,14952.160028
2101.139385,-7431.126331,-1554.432478,17987.004391
2101.139703,-6358.592633,-1258.350101,17912.983796
2101.140020,-3217.601092,-296.082377,16728.654289
2101.140338,-229.828649,888.247130,15322.262999
2101.140655,3447.429741,2590.720797,13175.665768
2101.140972,5209.449386,3552.988522,10066.800811
2101.141290,7354.516781,4959.379811,8068.244768
2101.141607,7660.954980,6143.709319,5995.668130
2101.141925,6971.469032,5699.585753,4589.276840
2101.142242,5898.935335,3849.070898,6143.709319
2101.142559,3294.210641,2368.659014,5847.626942
2101.142877,1225.752797,370.102971,8586.388927
2101.143194,-1225.752797,-2738.761985,11177.109724
2101.143512,-3064.381992,-5847.626942,13841.851115
2101.143829,-2757.943793,-5403.503377,16654.633695
2101.144146,-2681.334243,-3627.009116,16062.468941
2101.144464,-842.705048,-1776.494261,13915.871710
2101.144781,612.876398,-1258.350101,13323.706956
2101.145099,2374.896044,-518.144159,13027.624579
2101.145416,5669.106685,740.205942,9474.636058
2101.145733,6358.592633,2590.720797,5699.585753
2101.146051,8427.050478,3182.885551,4441.235652
2101.146368,7737.564530,1184.329507,2960.823768
2101.146686,5592.497135,962.267725,1998.556043
2101.147003,4443.353888,-592.164754,4293.194464
2101.147320,1072.533697,-1406.391290,4663.297435
2101.147638,-689.485948,-3701.029710,6883.915261
2101.147955,-2298.286494,-5773.606348,10288.862594
2101.148273,-4136.915689,-7920.203579,13767.830521
2101.148590,-3830.477490,-6883.915261,14730.098246
2101.148908,-3217.601092,-5551.544565,14211.954086
2101.149225,-995.924147,-3478.967927,12065.356855
2101.149542,2145.067394,-1702.473667,9770.718434
2101.149860,4290.134789,148.041188,7772.162391
2101.150177,6665.030833,370.102971,4663.297435
2101.150495,8120.612279,1110.308913,888.247130
2101.150812,7967.393179,1554.432478,-1036.288319
2101.151129,7354.516781,-0.000000,-888.247130
2101.151447,4443.353888,-1776.494261,370.102971
2101.151764,1762.019645,-3775.050304,3330.926739
2101.152082,-2221.676944,-5255.462188,5551.544565
2101.152399,-6358.592633,-6587.832884,9696.697840
2101.152716,-7431.126331,-7476.080014,14137.933492
2101.153034,-6971.469032,-6217.729913,15914.427753
2101.153351,-6435.202183,-5551.544565,17172.777854
2101.153669,-4366.744339,-3849.070898,15544.324782
2101.153986,-1149.143247,-592.164754,13175.665768
2101.154303,3907.087040,1258.350101,10288.862594
2101.154621,7354.516781,3478.967927,6291.750507
2101.154938,10878.556072,5255.462188,3256.906145
2101.155256,10265.679673,4663.297435,-1110.308913
2101.155573,9346.365076,3923.091493,-740.205942
2101.155891,6052.154434,740.205942,-148.041188
2101.156208,2681.334243,-148.041188,4367.215058
2101.156525,-1532.190996,-592.164754,4515.256246
2101.156843,-6281.983084,-1702.473667,8586.388927
2101.157160,-8886.707777,-6513.812290,16062.468941
2101.157478,-9652.803275,-9326.594869,22650.301825
2101.157795,-9039.926876,-7698.141797,22502.260637
2101.158112,-6894.859482,-3108.864956,18209.066173
2101.158430,-2374.896044,1406.391290,15692.365970
2101.158747,2145.067394,4589.276840,14211.954086
2101.159065,6281.983084,8216.285956,9548.656652
2101.159382,9576.193725,10066.800811,5107.421000
2101.159699,9959.241474,10288.862594,2886.803174
2101.160017,9882.631924,8956.491898,-444.123565
2101.160334,6971.469032,7105.977043,666.185348
2101.160652,3677.258390,3108.864956,3849.070898
2101.160969,-229.828649,-740.205942,8438.347739
2101.161286,-3677.258390,-2664.741391,11029.068536
2101.161604,-6588.421283,-4145.153275,15840.407159
2101.161921,-8580.269578,-6439.791695,20577.725188
2101.162239,-8044.002729,-2960.823768,21762.054695
2101.162556,-5822.325785,-0.000000,20651.745782
2101.162874,-2451.505594,3256.906145,17320.819043
2101.163191,306.438199,5329.482782,15914.427753
2101.163508,4596.572988,6439.791695,13249.686362
2101.163826,7354.516781,9474.636058,9918.759623
2101.164143,10265.679673,8586.388927,5477.523971
2101.164461,10801.946522,8438.347739,3404.947333
2101.164778,8273.831378,6069.688724,1184.329507
2101.165095,6588.421283,3701.029710,2812.782580
2101.165413,3294.210641,518.144159,4737.318029
2101.165730,-919.314598,-370.102971,5329.482782
2101.166048,-4213.525239,-3627.009116,9918.759623
2101.166365,-7201.297681,-5255.462188,14434.015869
2101.166682,-8810.098227,-5181.441594,17468.860231
2101.167000,-8963.317327,-5403.503377,21317.931130
2101.167317,-7431.126331,-2368.659014,18653.189738
2101.167635,-4596.572988,-1184.329507,17987.004391
2101.167952,459.657299,1850.514855,14508.036463
2101.168269,4749.792088,1332.370696,13693.809927
2101.168587,8503.660028,4219.173869,6513.812290
2101.168904,10801.946522,5181.441594,-148.041188
2101.169222,11261.603821,6439.791695,-4367.215058
2101.169539,10342.289223,3849.070898,-3478.967927
2101.169857,7124.688131,1258.350101,-3701.029710
2101.170174,1072.533697,-1406.391290,-1406.391290
2101.170491,-4060.306139,-4589.276840,4293.194464
2101.170809,-7967.393179,-8068.244768,13619.789333
2101.171126,-10648.727422,-10066.800811,16802.674883
2101.171444,-11031.775171,-10510.924376,21317.931130
2101.171761,-11184.994271,-8586.388927,20725.766376
2101.172078,-6205.373534,-6069.688724,19393.395680
2101.172396,-1302.362347,-2146.597232,16062.468941
2101.172713,3753.867940,-148.041188,11473.192101
2101.173031,7967.393179,4219.173869,5255.462188
2101.173348,12640.575717,5329.482782,1924.535449
2101.173665,14249.376263,7624.121203,-5995.668130
2101.173983,13253.452115,5773.606348,-7105.977043
2101.174300,8963.317327,3182.885551,-6365.771101
2101.174618,4749.792088,-1184.329507,-2146.597232
2101.174935,76.609550,-3775.050304,814.226536
2101.175252,-3217.601092,-8142.265362,9474.636058
2101.175570,-7890.783629,-11917.315666,15914.427753
2101.175887,-10035.851024,-11029.068536,21317.931130
2101.176205,-8963.317327,-10510.924376,23020.404796
2101.176522,-5822.325785,-6513.812290,19689.478057
2101.176839,-1455.581446,-1998.556043,15618.345376
2101.177157,2834.553343,1776.494261,12065.356855
2101.177474,7890.783629,5847.626942,7698.141797
2101.177792,13100.233016,8290.306550,3404.947333
2101.178109,14172.766713,7772.162391,-3404.947333
2101.178427,14096.157163,8882.471304,-6143.709319
2101.178744,9806.022374,3923.091493,-1776.494261
2101.179061,6894.859482,148.041188,-1184.329507
2101.179379,1915.238745,-3182.885551,3108.864956
2101.179696,-1532.190996,-6143.709319,10436.903782
2101.180014,-5898.935335,-7624.121203,16136.489536
2101.180331,-9039.926876,-8586.388927,19837.519246
2101.180648,-8350.440928,-6883.915261,23686.590144
2101.180966,-7737.564530,-1702.473667,21095.869347
2101.181283,-5592.497135,-0.000000,18801.230927
2101.181601,-1915.238745,3182.885551,17098.757260
2101.181918,3140.991542,4737.318029,15396.283594
2101.182235,7354.516781,7254.018232,7328.038826
2101.182553,11108.384721,9252.574275,2072.576638
2101.182870,12104.308868,9030.512492,-3478.967927
2101.183188,11797.870669,8290.306550,-2220.617826
2101.183505,7660.954980,4885.359217,-222.061783
2101.183822,2911.162892,-518.144159,1924.535449
2101.184140,-1532.190996,-3108.864956,6883.915261
2101.184457,-6894.859482,-5107.421000,13915.871710
2101.184775,-10725.336972,-8734.430116,20281.642811
2101.185092,-14325.985813,-8512.368333,26277.310941
2101.185410,-13023.623466,-5033.400406,25537.104999
2101.185727,-10955.165621,1628.453072,20799.786970
2101.186044,-6741.640382,3182.885551,22354.219448
2101.186362,-1225.752797,5255.462188,18801.230927
2101.186679,3907.087040,8512.368333,11399.171507
2101.186997,9806.022374,11621.233289,5551.544565
2101.187314,12793.794817,10881.027347,-1184.329507
2101.187631,13483.280765,8216.285956,-4959.379811
2101.187949,10035.851024,6957.935855,-5773.606348
2101.188266,6588.421283,814.226536,1924.535449
2101.188584,1532.190996,-3478.967927,3256.906145
2101.188901,-3524.039291,-5329.482782,9030.512492
2101.189218,-8503.660028,-6957.935855,13619.789333
2101.189536,-10648.727422,-8512.368333,22354.219448
2101.189853,-11491.432470,-7624.121203,24722.878463
2101.190171,-10572.117872,-4071.132681,23242.466579
2101.190488,-7584.345430,222.061783,17616.901420
2101.190805,-2221.676944,4145.153275,16432.571912
2101.191123,3830.477490,4811.338623,12139.377449
2101.191440,9729.412825,7179.997637,7920.203579
2101.191758,13483.280765,9474.636058,666.185348
2101.192075,14096.157163,9844.739029,-6439.791695
2101.192393,13176.842566,7550.100608,-6365.771101
2101.192710,10112.460574,4219.173869,-3552.988522
2101.193027,6435.202183,-444.123565,666.185348
2101.193345,0.000000,-2738.761985,666.185348
2101.193662,-4136.915689,-8364.327145,9844.739029
2101.193980,-8580.269578,-11029.068536,16580.613101
2101.194297,-10265.679673,-11177.109724,23908.651927
2101.194614,-10112.460574,-10510.924376,23464.528361
2101.194932,-9269.755526,-3849.070898,20725.766376
2101.195249,-5515.887586,-296.082377,18431.127956
2101.195567,383.047749,3478.967927,17024.736666
2101.195884,5209.449386,5699.585753,10955.047942
2101.196201,11568.042020,6957.935855,3627.009116
2101.196519,14632.424012,9474.636058,-5107.421000
2101.196836,15245.300410,9474.636058,-10807.006753
2101.197154,13866.328514,6365.771101,-5995.668130
2101.197471,8963.317327,-296.082377,-4441.235652
2101.197788,4596.572988,-4737.318029,-370.102971
2101.198106,-2604.724693,-7031.956449,2812.782580
2101.198423,-7890.783629,-8734.430116,15766.386565
2101.198741,-10955.165621,-13619.789333,20725.766376
2101.199058,-12180.918418,-11843.295072,27313.599260
2101.199375,-12257.527968,-8956.491898,25167.002028
2101.199693,-11568.042020,-2738.761985,21317.931130
2101.200010,-7814.174080,-444.123565,18801.230927
2101.200328,-229.828649,4737.318029,14211.954086
2101.200645,5132.839837,10066.800811,7402.059420
2101.200963,10725.336972,11695.253884,0.000000
2101.201280,12563.966167,12213.398043,-6587.832884
2101.201597,11797.870669,9696.697840,-8808.450710
2101.201915,9806.022374,3256.906145,-2220.617826
2101.202232,5745.716235,-1850.514855,2146.597232
2101.202550,1302.362347,-4737.318029,4145.153275
2101.202867,-4749.792088,-7550.100608,10881.027347
2101.203184,-9116.536426,-10955.047942,20799.786970
2101.203502,-9959.241474,-12287.418637,27609.681637
2101.203819,-10418.898773,-7772.162391,25463.084405
2101.204137,-9346.365076,-2960.823768,22280.198854
2101.204454,-6435.202183,4515.256246,17024.736666
2101.204771,0.000000,6069.688724,15396.283594
2101.205089,6128.763984,9474.636058,9696.697840
2101.205406,11874.480219,10140.821405,6587.832884
2101.205724,15321.909960,10362.883188,-1480.411884
2101.206041,15858.176809,9992.780217,-7328.038826
2101.206358,13636.499864,7698.141797,-7105.977043
2101.206676,10265.679673,1924.535449,1776.494261
2101.206993,5132.839837,-1332.370696,1998.556043
2101.207311,-995.924147,-4293.194464,6883.915261
2101.207628,-6052.154434,-7476.080014,16580.613101
2101.207946,-10035.851024,-7179.997637,20799.786970
2101.208263,-9346.365076,-9844.739029,27313.599260
2101.208580,-11108.384721,-5181.441594,24278.754898
2101.208898,-9499.584175,-1628.453072,20059.581028
2101.209215,-4979.620737,3775.050304,17024.736666
2101.209533,459.657299,9030.512492,16802.674883
2101.209850,6358.592633,9030.512492,10881.027347
2101.210167,12334.137518,11769.274478,2960.823768
2101.210485,14709.033562,13397.727550,-5625.565159
2101.210802,13176.842566,9992.780217,-9326.594869
2101.211120,10725.336972,5477.523971,-5255.462188
2101.211437,7124.688131,-0.000000,-888.247130
2101.211754,459.657299,-2072.576638,0.000000
2101.212072,-5592.497135,-6661.853478,8216.285956
2101.212389,-10342.289223,-9844.739029,17246.798449
2101.212707,-12410.747068,-10510.924376,25167.002028
2101.213024,-12947.013916,-11251.130318,26203.290347
2101.213341,-13942.938064,-6587.832884,21539.992912
2101.213659,-11414.822920,-1628.453072,20799.786970
2101.213976,-7277.907231,1628.453072,18949.272115
2101.214294,-612.876398,9104.533087,13471.748144
2101.214611,6128.763984,9992.780217,7328.038826
2101.214929,10878.556072,13101.645173,-1850.514855
2101.215246,12334.137518,11547.212695,-9622.677246
2101.215563,12870.404366,10732.986159,-8216.285956
2101.215881,10035.851024,1406.391290,-888.247130
2101.216198,4443.353888,-3404.947333,-1406.391290
2101.216516,-612.876398,-8586.388927,3627.009116
2101.216833,-6894.859482,-11547.212695,12139.377449
2101.217150,-10265.679673,-14952.160028,23464.528361
2101.217468,-12410.747068,-13249.686362,28571.949361
2101.217785,-10878.556072,-7476.080014,23390.507767
2101.218103,-10035.851024,2146.597232,16654.633695
2101.218420,-6281.983084,3849.070898,17764.942608
2101.218738,-612.876398,7031.956449,16654.633695
2101.219055,5209.449386,8290.306550,8586.388927
2101.219372,12563.966167,9252.574275,2146.597232
2101.219690,14709.033562,8882.471304,-7550.100608
2101.220007,15551.738609,6291.750507,-8660.409521
2101.220325,15245.300410,4737.318029,-6143.709319
2101.220642,10495.508323,-0.000000,-444.123565
2101.220960,5975.544884,-3330.926739,2220.617826
2101.221277,689.485948,-9104.533087,8660.409521
2101.221594,-5975.544884,-10584.944971,14359.995275
2101.221912,-8886.707777,-11103.089130,23760.610738
2101.222229,-8656.879127,-10807.006753,27683.702231
2101.222547,-9269.755526,-5551.544565,20429.683999
2101.222864,-5056.230287,-1036.288319,18801.230927
2101.223182,-1685.410096,3552.988522,15840.407159
2101.223499,5056.230287,6587.832884,11103.089130
2101.223816,11568.042020,8142.265362,6661.853478
2101.224134,15628.348159,8142.265362,-1406.391290
2101.224451,16088.005458,9252.574275,-9252.574275
2101.224769,14785.643111,6883.915261,-8364.327145
2101.225086,11261.603821,-0.000000,-518.144159
2101.225404,5515.887586,-4589.276840,370.102971
2101.225721,1608.800546,-5625.565159,5107.421000
2101.226038,-4826.401637,-8882.471304,10584.944971
2101.226356,-8963.317327,-11325.150913,21169.889941
2101.226673,-11184.994271,-12287.418637,28275.866984
2101.226991,-10418.898773,-9548.656652,27683.702231
2101.227308,-12180.918418,-2516.700203,17616.901420
2101.227626,-8120.612279,1036.288319,22280.198854
2101.227943,-3753.867940,3775.050304,19541.436869
2101.228261,1838.629195,11177.109724,9770.718434
2101.228578,10418.898773,14211.954086,3330.926739
2101.228895,11721.261119,13545.768739,-5477.523971
2101.229213,12563.966167,9178.553681,-6365.771101
2101.229530,10418.898773,5995.668130,-5995.668130
2101.229848,5975.544884,-1702.473667,-222.061783
2101.230165,2068.457845,-7476.080014,3775.050304
2101.230483,-3830.477490,-7105.977043,6143.709319
2101.230800,-8197.221829,-9770.718434,14434.015869
2101.231117,-11797.870669,-13175.665768,23464.528361
2101.231435,-13100.233016,-10510.924376,28127.825796
2101.231752,-15858.176809,-4293.194464,19763.498651
2101.232070,-13023.623466,1998.556043,21391.951724
2101.232387,-11108.384721,5107.421000,18135.045579
2101.232705,-4060.306139,11695.253884,12953.603985
2101.233022,4596.572988,13175.665768,7031.956449
2101.233339,9576.193725,14508.036463,814.226536
2101.233657,12180.918418,8512.368333,-5477.523971
2101.233974,12257.527968,9770.718434,-7772.162391
2101.234292,11951.089769,1258.350101,444.123565
2101.234609,6894.859482,-2146.597232,3404.947333
2101.234927,2681.334243,-5107.421000,3701.029710
2101.235244,-2451.505594,-6513.812290,10732.986159
2101.235561,-9116.536426,-7105.977043,16432.571912
2101.235879,-7737.564530,-10807.006753,26055.249158
2101.236196,-9729.412825,-4219.173869,23168.445985
2101.236514,-9652.803275,-1628.453072,21465.972318
2101.236831,-7507.735880,4737.318029,17764.942608
2101.237149,-2068.457845,6513.812290,16432.571912
2101.237466,4596.572988,9548.656652,9474.636058
2101.237783,12640.575717,8290.306550,5329.482782
2101.238101,16854.100956,9030.512492,-2146.597232
2101.238418,17850.025103,8438.347739,-8512.368333
2101.238736,17313.758255,4737.318029,-5033.400406
2101.239053,13713.109414,-2516.700203,-296.082377
2101.239371,8503.660028,-4737.318029,4441.235652
2101.239688,2987.772442,-6291.750507,7254.018232
2101.240005,-3217.601092,-7328.038826,13397.727550
2101.240323,-7737.564530,-8216.285956,21095.869347
2101.240640,-7967.393179,-7772.162391,25981.228564
2101.240958,-6818.249932,-3775.050304,25389.063811
2101.241275,-8886.707777,-1628.453072,16580.613101
2101.241593,-4519.963438,962.267725,18579.169144
2101.241910,-612.876398,5033.400406,13841.851115
2101.242227,6588.421283,8734.430116,9400.615463
2101.242545,11951.089769,8068.244768,962.267725
2101.242862,12257.527968,7402.059420,-3775.050304
2101.243180,11338.213370,3404.947333,-7105.977043
2101.243497,8656.879127,518.144159,-3775.050304
2101.243815,5745.716235,-7105.977043,2220.617826
2101.244132,1378.971896,-8290.306550,5551.544565
2101.244450,-2528.115143,-9474.636058,9474.636058
2101.244767,-8350.440928,-9326.594869,16284.530724
2101.245084,-9959.241474,-13027.624579,24130.713709
2101.245402,-11568.042020,-9992.780217,25537.104999
2101.245719,-10495.508323,-4145.153275,17468.860231
2101.246037,-9806.022374,-0.000000,17542.880825
2101.246354,-7048.078582,5403.503377,10584.944971
2101.246672,-536.266849,11769.274478,11029.068536
2101.246989,4136.915689,11843.295072,4515.256246
2101.247306,8580.269578,8956.491898,0.000000
2101.247624,7431.126331,6809.894666,-6217.729913
2101.247941,8044.002729,3997.112087,-5773.606348
2101.248259,7967.393179,-3997.112087,5625.565159
2101.248576,3830.477490,-6809.894666,2368.659014
2101.248894,1455.581446,-8734.430116,4811.338623
2101.249211,-4213.525239,-10881.027347,11621.233289
2101.249528,-7737.564530,-9622.677246,18061.024985
2101.249846,-7584.345430,-9252.574275,22650.301825
2101.250163,-9729.412825,-5255.462188,21539.992912
2101.250481,-8427.050478,1554.432478,18949.272115
2101.250798,-6128.763984,7698.141797,12879.583391
2101.251116,766.095498,9474.636058,10140.821405
2101.251433,7048.078582,10732.986159,7476.080014
2101.251750,11951.089769,8808.450710,2960.823768
2101.252068,14325.985813,6439.791695,-5699.585753
2101.252385,14402.595362,5255.462188,-5477.523971
2101.252703,12640.575717,-444.123565,-2590.720797
2101.253020,9576.193725,-4145.153275,4737.318029
2101.253338,3907.087040,-4737.318029,4663.297435
2101.253655,-1149.143247,-5403.503377,9844.739029
2101.253972,-4673.182538,-8438.347739,19763.498651
2101.254290,-9193.145976,-6069.688724,22502.260637
2101.254607,-7660.954980,-6735.874072,29460.196492
2101.254925,-9959.241474,-1998.556043,21169.889941
2101.255242,-7277.907231,3775.050304,18727.210333
2101.255560,-919.314598,5477.523971,17468.860231
2101.255877,4060.306139,8660.409521,12805.562797
2101.256194,11951.089769,10881.027347,5107.421000
2101.256512,15628.348159,11769.274478,-2294.638420
2101.256829,16088.005458,8216.285956,-7698.141797
2101.257147,13330.061665,5033.400406,-5773.606348
2101.257464,9039.926876,-666.185348,592.164754
2101.257782,3753.867940,-6439.791695,3256.906145
2101.258099,0.000000,-7624.121203,9400.615463
2101.258416,-5286.058936,-5921.647536,12065.356855
2101.258734,-9652.803275,-9030.512492,21169.889941
2101.259051,-10648.727422,-11621.233289,27535.661042
2101.259369,-11031.775171,-6069.688724,25685.146187
2101.259686,-10572.117872,-2220.617826,18431.127956
2101.260004,-6588.421283,5403.503377,19837.519246
2101.260321,-2068.457845,8734.430116,14211.954086
2101.260639,4213.525239,13397.727550,6883.915261
2101.260956,9576.193725,11843.295072,3849.070898
2101.261273,9882.631924,7698.141797,-2664.741391
2101.261591,10725.336972,5107.421000,-5477.523971
2101.261908,7507.735880,2812.782580,-4515.256246
2101.262226,5362.668486,-6661.853478,4663.297435
2101.262543,383.047749,-5921.647536,4441.235652
2101.262861,-1302.362347,-4811.338623,6513.812290
2101.263178,-4519.963438,-8142.265362,14285.974681
2101.263495,-10725.336972,-10066.800811,19689.478057
2101.263813,-10495.508323,-10807.006753,25759.166782
2101.264130,-12563.966167,-1702.473667,16432.571912
2101.264448,-10342.289223,3478.967927,14804.118840
2101.264765,-6435.202183,5033.400406,15396.283594
2101.265083,-1072.533697,8882.471304,12953.603985
2101.265400,5515.887586,12509.480420,5699.585753
2101.265717,10801.946522,11325.150913,-592.164754
2101.266035,11874.480219,7105.977043,-4737.318029
2101.266352,12104.308868,3997.112087,-5551.544565
2101.266670,10878.556072,1184.329507,-1036.288319
2101.266987,6818.249932,-2072.576638,-1406.391290
2101.267305,3830.477490,-5625.565159,4737.318029
2101.267622,-3064.381992,-6069.688724,9992.780217
2101.267939,-5745.716235,-7920.203579,17838.963202
2101.268257,-8580.269578,-6365.771101,22650.301825
2101.268574,-10495.508323,-3182.885551,23538.548956
2101.268892,-9959.241474,-962.267725,18579.169144
2101.269209,-7507.735880,4737.318029,13915.871710
2101.269527,-1838.629195,6365.771101,13693.809927
2101.269844,4749.792088,8882.471304,7920.203579
2101.270161,11108.384721,8956.491898,1110.308913
2101.270479,14785.643111,8512.368333,-2886.803174
2101.270796,13176.842566,6883.915261,-5699.585753
2101.271114,11644.651570,666.185348,-1332.370696
2101.271431,7431.126331,-6365.771101,4959.379811
2101.271749,995.924147,-5773.606348,3404.947333
2101.272066,-1685.410096,-7105.977043,10362.883188
2101.272383,-8350.440928,-8512.368333,17172.777854
2101.272701,-10725.336972,-8660.409521,23686.590144
2101.273018,-11338.213370,-8142.265362,24796.899057
2101.273336,-11261.603821,-1480.411884,19985.560434
2101.273653,-8656.879127,1406.391290,19171.333898
2101.273971,-4673.182538,3478.967927,16728.654289
2101.274288,459.657299,8290.306550,11917.315666
2101.274605,7584.345430,10140.821405,7994.224174
2101.274923,10801.946522,9326.594869,2294.638420
2101.275240,11338.213370,2368.659014,962.267725
2101.275558,10265.679673,1702.473667,-1924.535449
2101.275875,7660.954980,-740.205942,1110.308913
2101.276193,6665.030833,-4885.359217,6661.853478
2101.276510,3140.991542,-6217.729913,6661.853478
2101.276828,383.047749,-6883.915261,12213.398043
2101.277145,-3830.477490,-6809.894666,18505.148550
2101.277462,-5822.325785,-7772.162391,21762.054695
2101.277780,-8580.269578,-4885.359217,18579.169144
2101.278097,-7814.174080,1036.288319,18061.024985
2101.278415,-4826.401637,6439.791695,14063.912898
2101.278732,-1685.410096,7402.059420,12805.562797
2101.279050,4060.306139,7179.997637,8956.491898
2101.279367,7507.735880,7105.977043,5477.523971
2101.279684,12027.699319,4071.132681,1850.514855
2101.280002,11184.994271,1554.432478,-3478.967927
2101.280319,10725.336972,-2664.741391,518.144159
2101.280637,9269.755526,-7402.059420,4959.379811
2101.280954,3447.429741,-4737.318029,1110.308913
2101.281272,2068.457845,-6365.771101,7698.141797
2101.281589,-2911.162892,-5847.626942,12879.583391
2101.281906,-6205.373534,-6291.750507,16802.674883
2101.282224,-7967.393179,-4145.153275,20133.601622
2101.282541,-9116.536426,-0.000000,19541.436869
2101.282859,-8197.221829,2516.700203,14359.995275
2101.283176,-4060.306139,6365.771101,11399.171507
2101.283494,76.609550,6365.771101,10881.027347
2101.283811,5209.449386,7476.080014,4367.215058
2101.284128,10648.727422,7254.018232,-740.205942
2101.284446,13023.623466,4145.153275,-1998.556043
2101.284763,11338.213370,1776.494261,-3256.906145
2101.285081,9499.584175,-1036.288319,518.144159
2101.285398,5975.544884,-2960.823768,518.144159
2101.285716,1072.533697,-5551.544565,3775.050304
2101.286033,-3677.258390,-6291.750507,10955.047942
2101.286350,-8886.707777,-5847.626942,16432.571912
2101.286668,-10418.898773,-6587.832884,21095.869347
2101.286985,-11261.603821,-3478.967927,20577.725188
2101.287303,-10955.165621,814.226536,14878.139434
2101.287620,-7814.174080,5699.585753,14878.139434
2101.287938,-3830.477490,7105.977043,13471.748144
2101.288255,2604.724693,13175.665768,5847.626942
2101.288572,7354.516781,10140.821405,1850.514855
2101.288890,9882.631924,6291.750507,1110.308913
2101.289207,9499.584175,2294.638420,-3034.844362
2101.289525,8886.707777,1184.329507,-592.164754
2101.289842,6128.763984,-4071.132681,5329.482782
2101.290160,2834.553343,-5773.606348,5477.523971
2101.290477,-1608.800546,-6365.771101,7402.059420
2101.290794,-5132.839837,-6069.688724,16654.633695
2101.291112,-9346.365076,-5995.668130,19911.539840
2101.291429,-8733.488677,-4145.153275,21391.951724
2101.291747,-9652.803275,-0.000000,18283.086767
2101.292064,-8197.221829,5847.626942,15174.221811
2101.292382,-4749.792088,7254.018232,12953.603985
2101.292699,0.000000,9474.636058,8956.491898
2101.293017,4903.011187,7105.977043,8290.306550
2101.293334,8733.488677,6291.750507,4737.318029
2101.293651,8886.707777,4071.132681,1258.350101
2101.293969,9039.926876,1480.411884,1480.411884
2101.294286,7737.564530,-2812.782580,3627.009116
2101.294604,4826.401637,-4737.318029,8068.244768
2101.294921,1838.629195,-5699.585753,9104.533087
2101.295239,-919.314598,-5403.503377,14359.995275
2101.295556,-5592.497135,-3627.009116,15914.427753
2101.295873,-6435.202183,-3627.009116,21021.848753
2101.296191,-8197.221829,-2294.638420,20429.683999
2101.296508,-7584.345430,370.102971,19171.333898
2101.296826,-5362.668486,5107.421000,15840.407159
2101.297143,-1225.752797,7550.100608,12805.562797
2101.297461,4136.915689,7772.162391,9104.533087
2101.297778,9499.584175,6883.915261,7105.977043
2101.298095,12334.137518,4145.153275,1998.556043
2101.298413,12717.185267,2516.700203,-2664.741391
2101.298730,11184.994271,-1924.535449,-666.185348
2101.299048,9806.022374,-3849.070898,2738.761985
2101.299365,6281.983084,-5699.585753,4885.359217
2101.299683,3217.601092,-3997.112087,5255.462188
2101.300000,-2911.162892,-5625.565159,11621.233289
2101.300317,-6741.640382,-4811.338623,17987.004391
2101.300635,-7967.393179,-5995.668130,20799.786970
2101.300952,-9499.584175,-1554.432478,21021.848753
2101.301270,-8733.488677,1258.350101,16876.695478
2101.301587,-5439.278036,4737.318029,12213.398043
2101.301905,536.266849,6661.853478,11177.109724
2101.302222,5056.230287,10214.842000,4885.359217
2101.302539,8963.317327,7772.162391,444.123565
2101.302857,11108.384721,3404.947333,0.000000
2101.303174,7890.783629,-1332.370696,-1480.411884
2101.303492,7048.078582,-3701.029710,814.226536
2101.303809,3600.648841,-5403.503377,3552.988522
2101.304127,-995.924147,-6957.935855,4811.338623
2101.304444,-3447.429741,-4885.359217,12509.480420
2101.304761,-6511.811733,-5625.565159,15618.345376
2101.305079,-9576.193725,-4515.256246,16876.695478
2101.305396,-8810.098227,-1628.453072,16876.695478
2101.305714,-7890.783629,370.102971,15470.304188
2101.306031,-7048.078582,4885.359217,9918.759623
2101.306349,-3217.601092,3775.050304,10214.842000
2101.306666,383.047749,5995.668130,7846.182985
2101.306983,5286.058936,4219.173869,6069.688724
2101.307301,7737.564530,4441.235652,3330.926739
2101.307618,6971.469032,1406.391290,-1406.391290
2101.307936,6358.592633,-592.164754,518.144159
2101.308253,5056.230287,-3775.050304,6217.729913
2101.308571,3064.381992,-4293.194464,5773.606348
2101.308888,-1225.752797,-4219.173869,5699.585753
2101.309206,-1685.410096,-5403.503377,13027.624579
2101.309523,-6435.202183,-5181.441594,16136.489536
2101.309840,-5592.497135,-5773.606348,19615.457463
2101.310158,-7660.954980,-2590.720797,16580.613101
2101.310475,-6128.763984,1554.432478,16062.468941
2101.310793,-2068.457845,6365.771101,13915.871710
2101.311110,3600.648841,8956.491898,10881.027347
2101.311428,8044.002729,6439.791695,5329.482782
2101.311745,11414.822920,6291.750507,3849.070898
2101.312062,12793.794817,3849.070898,-444.123565
2101.312380,11797.870669,-296.082377,-962.267725
2101.312697,12180.918418,-3701.029710,2738.761985
2101.313015,7124.688131,-5773.606348,3034.844362
2101.313332,3064.381992,-5551.544565,7031.956449
2101.313650,0.000000,-5033.400406,13545.768739
2101.313967,-3447.429741,-4441.235652,15988.448347
2101.314284,-6511.811733,-3108.864956,19911.539840
2101.314602,-7507.735880,-814.226536,21836.075289
2101.314919,-8197.221829,1628.453072,17320.819043
2101.315237,-4136.915689,4071.132681,15618.345376
2101.315554,-536.266849,4441.235652,13989.892304
2101.315872,4366.744339,5921.647536,9918.759623
2101.316189,8427.050478,3849.070898,7031.956449
2101.316506,10955.165621,2516.700203,5033.400406
2101.316824,10495.508323,-370.102971,1184.329507
2101.317141,8350.440928,-1480.411884,-148.041188
2101.317459,5515.887586,-3775.050304,3256.906145
2101.317776,1072.533697,-4885.359217,4219.173869
2101.318094,-2451.505594,-5107.421000,10140.821405
2101.318407,-5286.058936,-4293.194464,16136.489536
2101.318724,-9729.412825,-3997.112087,17616.901420
2101.319041,-10265.679673,-3701.029710,18875.251521
2101.319359,-7507.735880,-3034.844362,19985.560434
2101.319676,-7354.516781,2738.761985,14285.974681
2101.319993,-3447.429741,4441.235652,13841.851115
2101.320310,229.828649,6957.935855,9030.512492
2101.320628,4979.620737,7402.059420,6069.688724
2101.320945,8810.098227,5477.523971,5033.400406
2101.321262,8810.098227,4589.276840,814.226536
2101.321579,7201.297681,1332.370696,-2368.659014
2101.321897,6052.154434,222.061783,370.102971
2101.322214,2987.772442,-2368.659014,4885.359217
2101.322531,306.438199,-3256.906145,6291.750507
2101.322848,-3600.648841,-2072.576638,8808.450710
2101.323166,-6128.763984,-2590.720797,12731.542202
2101.323483,-8044.002729,-5255.462188,17542.880825
2101.323800,-6971.469032,-2738.761985,18727.210333
2101.324117,-7354.516781,296.082377,14211.954086
2101.324434,-4443.353888,4367.215058,11251.130318
2101.324752,-1225.752797,6217.729913,11473.192101
2101.325069,3064.381992,4589.276840,9474.636058
2101.325386,6665.030833,5181.441594,6439.791695
2101.325703,8886.707777,1850.514855,6069.688724
2101.326021,9882.631924,1998.556043,888.247130
2101.326338,10035.851024,1850.514855,-1332.370696
2101.326655,8580.269578,-1480.411884,0.000000
2101.326972,4903.011187,-4219.173869,4441.235652
2101.327290,612.876398,-5107.421000,8290.306550
2101.327607,-3983.696590,-4663.297435,12731.542202
2101.327924,-5592.497135,-5033.400406,16432.571912
2101.328241,-7354.516781,-1036.288319,17172.777854
2101.328559,-7201.297681,-962.267725,18949.272115
2101.328876,-6205.373534,1702.473667,16580.613101
2101.329193,-3370.820191,2886.803174,14137.933492
2101.329510,2451.505594,4293.194464,11991.336260
2101.329827,6358.592633,3997.112087,7772.162391
2101.330145,11261.603821,1924.535449,4515.256246
2101.330462,12104.308868,814.226536,1480.411884
2101.330779,11261.603821,-74.020594,-1702.473667
2101.331096,7354.516781,-740.205942,1184.329507
2101.331414,3983.696590,-3182.885551,3775.050304
2101.331731,0.000000,-3256.906145,7031.956449
2101.332048,-4443.353888,-2590.720797,12583.501014
2101.332365,-7584.345430,-3552.988522,18431.127956
2101.332683,-9729.412825,-1480.411884,18801.230927
2101.333000,-8580.269578,-1110.308913,18209.066173
2101.333317,-6665.030833,1998.556043,16432.571912
2101.333634,-3983.696590,3701.029710,13323.706956
2101.333952,-383.047749,3108.864956,13915.871710
2101.334269,2757.943793,2664.741391,9844.739029
2101.334586,6741.640382,1850.514855,9622.677246
2101.334903,9193.145976,1110.308913,6661.853478
2101.335220,9116.536426,-370.102971,3404.947333
2101.335538,7814.174080,-222.061783,1184.329507
2101.335855,5745.716235,-74.020594,3997.112087
2101.336172,2987.772442,-3701.029710,6661.853478
2101.336489,-2068.457845,-3182.885551,8882.471304
2101.336807,-3524.039291,-2590.720797,13397.727550
2101.337124,-6052.154434,-1554.432478,15914.427753
2101.337441,-6511.811733,-666.185348,16580.613101
2101.337758,-5975.544884,-1036.288319,16802.674883
2101.338076,-6971.469032,2442.679609,13545.768739
2101.338393,-2604.724693,2072.576638,15322.262999
2101.338710,-612.876398,2738.761985,11103.089130
2101.339027,3907.087040,2738.761985,10584.944971
2101.339345,8273.831378,3404.947333,8438.347739
2101.339662,9576.193725,3997.112087,2664.741391
2101.339979,9959.241474,2220.617826,-740.205942
2101.340296,8197.221829,-222.061783,1406.391290
2101.340613,5286.058936,-1036.288319,1110.308913
2101.340931,2221.676944,-2072.576638,5107.421000
2101.341248,-1915.238745,-592.164754,11029.068536
2101.341565,-4060.306139,-2442.679609,14804.118840
2101.341882,-7354.516781,-0.000000,14137.933492
2101.342200,-8656.879127,740.205942,16950.716072
2101.342517,-8656.879127,2664.741391,14730.098246
2101.342834,-5592.497135,4589.276840,11177.109724
2101.343151,-1378.971896,3627.009116,12879.583391
2101.343469,2604.724693,3478.967927,11177.109724
2101.343786,7201.297681,2516.700203,9104.533087
2101.344103,10035.851024,666.185348,3627.009116
2101.344420,10495.508323,-666.185348,888.247130
2101.344738,9576.193725,-2812.782580,0.000000
2101.345055,7124.688131,-3552.988522,2590.720797
2101.345372,2528.115143,-4367.215058,4515.256246
2101.345689,-1072.533697,-3108.864956,10288.862594
2101.346006,-4749.792088,-1184.329507,12583.501014
2101.346324,-5286.058936,-1036.288319,14656.077652
2101.346641,-6588.421283,1036.288319,14211.954086
2101.346958,-6818.249932,1036.288319,14285.974681
2101.347275,-4979.620737,3404.947333,11547.212695
2101.347593,-2834.553343,2738.761985,11917.315666
2101.347910,383.047749,1776.494261,11991.336260
2101.348227,3907.087040,148.041188,9696.697840
2101.348544,7507.735880,148.041188,8142.265362
2101.348862,8733.488677,296.082377,4811.338623
2101.349179,9116.536426,-1702.473667,2294.638420
2101.349496,7814.174080,-888.247130,1998.556043
2101.349813,4136.915689,-1258.350101,4959.379811
2101.350131,766.095498,-2146.597232,8956.491898
2101.350448,-2604.724693,-666.185348,11103.089130
2101.350765,-3370.820191,-740.205942,12953.603985
2101.351082,-6052.154434,296.082377,14063.912898
2101.351399,-5439.278036,-1036.288319,16654.633695
2101.351717,-6205.373534,222.061783,12731.542202
2101.352034,-4290.134789,962.267725,13027.624579
2101.352351,-306.438199,518.144159,14508.036463
2101.352668,2068.457845,1480.411884,11843.295072
2101.352986,7507.735880,888.247130,10214.842000
2101.353303,9806.022374,666.185348,4811.338623
2101.353620,10265.679673,-962.267725,1332.370696
2101.353937,9882.631924,-1776.494261,1406.391290
2101.354255,7507.735880,-3108.864956,2886.803174
2101.354572,3600.648841,-1924.535449,4515.256246
2101.354889,153.219100,-2442.679609,10140.821405
2101.355206,-3140.991542,-1110.308913,10955.047942
2101.355524,-4673.182538,-148.041188,14285.974681
2101.355841,-7354.516781,518.144159,15618.345376
2101.356158,-7354.516781,1184.329507,15766.386565
2101.356475,-5975.544884,3997.112087,11991.336260
2101.356792,-2834.553343,4367.215058,13767.830521
2101.357110,1225.752797,3627.009116,12287.418637
2101.357427,4749.792088,2368.659014,8956.491898
2101.357744,8656.879127,1110.308913,7476.080014
2101.358061,9806.022374,592.164754,2886.803174
2101.358379,9576.193725,1480.411884,296.082377
2101.358696,7737.564530,-0.000000,888.247130
2101.359013,3753.867940,-888.247130,2664.741391
2101.359330,-1225.752797,-1184.329507,7179.997637
2101.359648,-4290.134789,-0.000000,11103.089130
2101.359965,-8120.612279,222.061783,14582.057057
2101.360282,-9806.022374,-0.000000,16432.571912
2101.360599,-10495.508323,-0.000000,17616.901420
2101.360917,-9269.755526,1480.411884,13249.686362
2101.361234,-6435.202183,1776.494261,13249.686362
2101.361551,-3524.039291,888.247130,15322.262999
2101.361868,1072.533697,1480.411884,13249.686362
2101.362185,5286.058936,2220.617826,8660.409521
2101.362503,7814.174080,2220.617826,6217.729913
2101.362820,8963.317327,444.123565,3701.029710
2101.363137,8044.002729,3108.864956,-1184.329507
2101.363454,7124.688131,888.247130,1924.535449
2101.363772,3524.039291,-0.000000,5551.544565
2101.364089,-1302.362347,-888.247130,8586.388927
2101.364406,-3830.477490,-740.205942,11991.336260
2101.364723,-6818.249932,-74.020594,15248.242405
2101.365041,-7890.783629,-296.082377,16654.633695
2101.365358,-7967.393179,-0.000000,14804.118840
2101.365675,-6281.983084,2146.597232,13471.748144
2101.365992,-3064.381992,2664.741391,13619.789333
2101.366310,612.876398,3256.906145,12139.377449
2101.366627,5362.668486,1924.535449,11547.212695
2101.366944,8273.831378,1332.370696,7402.059420
2101.367261,10265.679673,1554.432478,4959.379811
2101.367578,9499.584175,814.226536,222.061783
2101.367896,8963.317327,1332.370696,1036.288319
2101.368213,6741.640382,2220.617826,3849.070898
2101.368530,2987.772442,-370.102971,7920.203579
2101.368847,-689.485948,-222.061783,11029.068536
2101.369165,-3447.429741,-814.226536,13989.892304
2101.369482,-5209.449386,-0.000000,15100.201217
2101.369799,-5898.935335,-74.020594,16210.510130
2101.370116,-4749.792088,1998.556043,13323.706956
2101.370434,-2221.676944,2664.741391,12805.562797
2101.370751,1991.848295,2442.679609,12657.521608
2101.371068,4136.915689,1480.411884,9992.780217
2101.371385,8656.879127,518.144159,8364.327145
2101.371703,10265.679673,-740.205942,4071.132681
2101.372020,10265.679673,-1184.329507,-592.164754
2101.372337,8273.831378,-296.082377,-1998.556043
2101.372654,3064.381992,-666.185348,814.226536
2101.372971,842.705048,-3256.906145,6143.709319
2101.373289,-5056.230287,-1480.411884,9696.697840
2101.373606,-8656.879127,-4071.132681,13471.748144
2101.373923,-11184.994271,-4145.153275,17764.942608
2101.374240,-11797.870669,-2886.803174,18801.230927
2101.374558,-11184.994271,-2812.782580,15618.345376
2101.374875,-9576.193725,-888.247130,13693.809927
2101.375192,-6281.983084,518.144159,16210.510130
2101.375509,-2374.896044,4145.153275,11029.068536
2101.375827,4673.182538,4441.235652,10584.944971
2101.376144,5898.935335,4293.194464,5773.606348
2101.376461,8580.269578,1332.370696,2886.803174
2101.376778,8120.612279,2072.576638,592.164754
2101.377096,7124.688131,444.123565,2368.659014
2101.377413,4136.915689,-814.226536,2220.617826
2101.377730,1302.362347,-2072.576638,5773.606348
2101.378047,-1378.971896,-1406.391290,11991.336260
2101.378364,-4749.792088,-962.267725,15174.221811
2101.378682,-4443.353888,-1776.494261,15766.386565
2101.378999,-6128.763984,1184.329507,11843.295072
2101.379316,-4290.134789,1998.556043,13693.809927
2101.379633,-1915.238745,962.267725,13915.871710
2101.379951,842.705048,1480.411884,11103.089130
2101.380268,5822.325785,-518.144159,10955.047942
2101.380585,10342.289223,-74.020594,9326.594869
2101.380902,12180.918418,-592.164754,4219.173869
2101.381220,13483.280765,-592.164754,-814.226536
2101.381537,12027.699319,518.144159,740.205942
2101.381854,9116.536426,-222.061783,2516.700203
2101.382171,5132.839837,-1628.453072,7698.141797
2101.382489,-153.219100,-1184.329507,9474.636058
2101.382806,-4366.744339,-1776.494261,13545.768739
2101.383123,-5515.887586,-222.061783,15692.365970
2101.383440,-5822.325785,296.082377,16062.468941
2101.383757,-5286.058936,-74.020594,14211.954086
2101.384075,-2528.115143,2368.659014,10510.924376
2101.384392,689.485948,3552.988522,11251.130318
2101.384709,3294.210641,3552.988522,11103.089130
2101.385026,7048.078582,-1036.288319,9992.780217
2101.385344,8044.002729,-444.123565,4071.132681
2101.385661,8350.440928,296.082377,2146.597232
2101.385978,7048.078582,-444.123565,1702.473667
2101.386295,4519.963438,-666.185348,1924.535449
2101.386613,1762.019645,-1406.391290,6513.812290
2101.386930,-2757.943793,1036.288319,9622.677246
2101.387247,-4673.182538,-1110.308913,13175.665768
2101.387564,-6818.249932,-148.041188,15248.242405
2101.387882,-6435.202183,-2886.803174,17542.880825
2101.388199,-7814.174080,-1702.473667,14582.057057
2101.388516,-5745.716235,1850.514855,11103.089130
2101.388833,-2145.067394,2368.659014,13397.727550
2101.389150,-459.657299,2368.659014,10362.883188
2101.389468,3600.648841,888.247130,9622.677246
2101.389785,5592.497135,-666.185348,8364.327145
2101.390102,6281.983084,-2664.741391,5551.544565
2101.390419,4903.011187,-2590.720797,2738.761985
2101.390737,3600.648841,-1776.494261,1110.308913
2101.391054,766.095498,-2220.617826,4219.173869
2101.391371,-1838.629195,-2664.741391,9104.533087
2101.391688,-5132.839837,-1850.514855,11695.253884
2101.392006,-7277.907231,-666.185348,15248.242405
2101.392323,-6971.469032,518.144159,17172.777854
2101.392640,-6894.859482,1480.411884,14582.057057
2101.392957,-5132.839837,2812.782580,12361.439231
2101.393275,-2987.772442,3701.029710,12657.521608
2101.393592,-1302.362347,2960.823768,11399.171507
2101.393909,3370.820191,1702.473667,11103.089130
2101.394226,7354.516781,2294.638420,8956.491898
2101.394543,10495.508323,2368.659014,4589.276840
2101.394861,10418.898773,2664.741391,-222.061783
2101.395178,8963.317327,1628.453072,222.061783
2101.395495,6358.592633,666.185348,3182.885551
2101.395812,2451.505594,-148.041188,6365.771101
2101.396130,-1302.362347,814.226536,9178.553681
2101.396447,-4290.134789,1628.453072,12361.439231
2101.396764,-6435.202183,888.247130,13989.892304
2101.397081,-5669.106685,-444.123565,15840.407159
2101.397399,-4749.792088,1406.391290,13915.871710
2101.397716,-2451.505594,1702.473667,13101.645173
2101.398033,306.438199,1998.556043,11621.233289
2101.398350,3677.258390,1332.370696,12213.398043
2101.398668,8273.831378,-0.000000,11547.212695
2101.398985,10495.508323,-296.082377,7994.224174
2101.399302,12104.308868,1406.391290,2960.823768
2101.399619,11874.480219,2442.679609,-592.164754
2101.399936,9269.755526,2368.659014,-592.164754
2101.400254,5745.716235,962.267725,4737.318029
2101.400571,536.266849,1776.494261,7994.224174
2101.400888,-4060.306139,592.164754,9326.594869
2101.401205,-7354.516781,518.144159,12731.542202
2101.401523,-7354.516781,-1702.473667,17024.736666
2101.401840,-8273.831378,-2220.617826,16580.613101
2101.402157,-7814.174080,-2516.700203,14878.139434
2101.402474,-5592.497135,-3775.050304,15766.386565
2101.402792,-3830.477490,-2886.803174,16728.654289
2101.403109,0.000000,-4737.318029,16506.592507
2101.403426,3217.601092,-3182.885551,11991.336260
2101.403743,5209.449386,740.205942,6513.812290
2101.404061,7201.297681,1850.514855,3478.967927
2101.404378,6281.983084,2516.700203,296.082377
2101.404695,3370.820191,2812.782580,1924.535449
2101.405012,766.095498,666.185348,6365.771101
2101.405329,-3064.381992,666.185348,9548.656652
2101.405647,-5056.230287,-1406.391290,12435.459826
2101.405964,-5745.716235,-2294.638420,14285.974681
2101.406281,-6358.592633,-2146.597232,12731.542202
2101.406598,-4290.134789,-2960.823768,11769.274478
2101.406916,-3907.087040,-2664.741391,11769.274478
2101.407233,-1378.971896,-3627.009116,14285.974681
2101.407550,459.657299,-3627.009116,12731.542202
2101.407867,3677.258390,-2590.720797,13027.624579
2101.408185,5286.058936,-2220.617826,8438.347739
2101.408502,5515.887586,444.123565,2146.597232
2101.408819,6818.249932,2812.782580,296.082377
2101.409136,4673.182538,2368.659014,2664.741391
2101.409454,3753.867940,1924.535449,4885.359217
2101.409771,1838.629195,1258.350101,7698.141797
2101.410088,-1532.190996,222.061783,9770.718434
2101.410405,-2068.457845,-1776.494261,12435.459826
2101.410722,-2298.286494,-2294.638420,13545.768739
2101.411040,-1532.190996,-0.000000,10214.842000
2101.411357,1455.581446,1258.350101,10362.883188
2101.411674,2451.505594,2294.638420,9474.636058
2101.411991,5592.497135,1110.308913,11251.130318
2101.412309,8120.612279,1036.288319,11103.089130
2101.412626,9499.584175,1702.473667,6883.915261
2101.412943,10572.117872,2220.617826,3034.844362
2101.413260,8580.269578,2886.803174,-518.144159
2101.413578,6971.469032,2960.823768,1406.391290
2101.413895,4749.792088,1110.308913,5551.544565
2101.414212,383.047749,2220.617826,6439.791695
2101.414529,-2451.505594,-518.144159,11177.109724
2101.414847,-6205.373534,666.185348,12657.521608
2101.415164,-6205.373534,-814.226536,15026.180623
2101.415481,-6205.373534,-370.102971,13471.748144
2101.415798,-6052.154434,-370.102971,13397.727550
2101.416115,-4903.011187,-370.102971,13175.665768
2101.416433,-2681.334243,592.164754,12287.418637
2101.416750,2068.457845,-148.041188,13619.789333
2101.417067,4519.963438,-1850.514855,11769.274478
2101.417384,5669.106685,-148.041188,6661.853478
2101.417702,6511.811733,1850.514855,2738.761985
2101.418019,4519.963438,3701.029710,148.041188
2101.418336,1149.143247,2294.638420,2664.741391
2101.418653,-1685.410096,1110.308913,6661.853478
2101.418971,-6128.763984,1406.391290,9474.636058
2101.419288,-8350.440928,-1110.308913,14508.036463
2101.419605,-9269.755526,-1258.350101,16432.571912
2101.419922,-8120.612279,-666.185348,15544.324782
2101.420240,-5286.058936,296.082377,15248.242405
2101.420557,-5209.449386,-0.000000,13841.851115
2101.420874,-2528.115143,-814.226536,13915.871710
2101.421191,919.314598,-1332.370696,14211.954086
2101.421509,3907.087040,-148.041188,12287.418637
2101.421826,7431.126331,666.185348,9844.739029
2101.422143,8350.440928,3108.864956,4589.276840
2101.422460,8120.612279,4663.297435,2146.597232
2101.422778,6588.421283,5329.482782,2812.782580
2101.423095,3370.820191,3478.967927,5403.503377
2101.423412,1455.581446,1480.411884,8142.265362
2101.423729,-2451.505594,740.205942,9030.512492
2101.424047,-3524.039291,-2294.638420,14285.974681
2101.424364,-3447.429741,-3108.864956,14211.954086
2101.424681,-1685.410096,-2812.782580,13767.830521
2101.424998,-383.047749,-2664.741391,13175.665768
2101.425316,612.876398,-1702.473667,13249.686362
2101.425633,2528.115143,-2442.679609,14211.954086
2101.425950,5898.935335,-3034.844362,13397.727550
2101.426267,8120.612279,-2664.741391,10807.006753
2101.426584,9882.631924,962.267725,5995.668130
2101.426902,10955.165621,3478.967927,1110.308913
2101.427219,9959.241474,4811.338623,0.000000
2101.427536,8656.879127,3330.926739,3478.967927
2101.427853,5592.497135,1924.535449,4737.318029
2101.428171,1608.800546,1036.288319,7254.018232
2101.428488,-2068.457845,-740.205942,8586.388927
2101.428805,-3524.039291,-2368.659014,13619.789333
2101.429122,-3294.210641,-2146.597232,13397.727550
2101.429440,-2911.162892,-1628.453072,12287.418637
2101.429757,-2528.115143,-1332.370696,12065.356855
2101.430074,-1072.533697,-1924.535449,13471.748144
2101.430391,1225.752797,-2442.679609,13249.686362
2101.430709,3907.087040,-3404.947333,10510.924376
2101.431026,5745.716235,-1628.453072,7105.977043
2101.431343,6511.811733,148.041188,3701.029710
2101.431660,7124.688131,2738.761985,1332.370696
2101.431978,5209.449386,3478.967927,1036.288319
2101.432295,2221.676944,3034.844362,2664.741391
2101.432612,-2528.115143,1258.350101,4441.235652
2101.432929,-5898.935335,-148.041188,8586.388927
2101.433247,-8886.707777,-2368.659014,11991.336260
2101.433564,-9806.022374,-2368.659014,13767.830521
2101.433881,-9806.022374,-1554.432478,12435.459826
2101.434198,-7967.393179,-2442.679609,14211.954086
2101.434516,-6128.763984,-2738.761985,14952.160028
2101.434833,-3830.477490,-4663.297435,15396.283594
2101.435150,-919.314598,-4219.173869,13915.871710
2101.435467,1532.190996,-2590.720797,10955.047942
2101.435784,3524.039291,222.061783,6661.853478
2101.436102,4366.744339,2738.761985,3256.906145
2101.436419,4443.353888,5551.544565,2368.659014
2101.436736,4290.134789,5699.585753,4293.194464
2101.437053,1608.800546,6217.729913,5329.482782
2101.437371,-919.314598,4737.318029,5773.606348
2101.437688,-1991.848295,2442.679609,8956.491898
2101.438005,-4443.353888,-0.000000,10066.800811
2101.438322,-5439.278036,-2516.700203,11621.233289
2101.438640,-4979.620737,-2516.700203,12435.459826
2101.438957,-3753.867940,-1628.453072,14137.933492
2101.439274,-919.314598,-2664.741391,15840.407159
2101.439591,1072.533697,-2146.597232,15470.304188
2101.439909,3294.210641,-1258.350101,14063.912898
2101.440226,5439.278036,1850.514855,10288.862594
2101.440543,6128.763984,3997.112087,6957.935855
2101.440860,7967.393179,6291.750507,5329.482782
2101.441178,7584.345430,7550.100608,3034.844362
2101.441495,6665.030833,7179.997637,3775.050304
2101.441812,4136.915689,5477.523971,5403.503377
2101.442129,1991.848295,3701.029710,7994.224174
2101.442447,0.000000,2368.659014,9252.574275
2101.442764,-2451.505594,-0.000000,11251.130318
2101.443081,-4136.915689,-444.123565,14063.912898
2101.443398,-3524.039291,-1110.308913,16284.530724
2101.443716,-2068.457845,-2146.597232,16358.551318
2101.444033,842.705048,-1332.370696,16580.613101
2101.444350,4826.401637,-1776.494261,13619.789333
2101.444667,6435.202183,518.144159,9770.718434
2101.444984,8656.879127,296.082377,7179.997637
2101.445302,8733.488677,2368.659014,5403.503377
2101.445619,8044.002729,3923.091493,4959.379811
2101.445936,6435.202183,4663.297435,5329.482782
2101.446253,3294.210641,4737.318029,5551.544565
2101.446571,229.828649,4367.215058,6291.750507
2101.446888,-4290.134789,2072.576638,8808.450710
2101.447205,-5669.106685,-666.185348,11473.192101
2101.447522,-8044.002729,-1554.432478,13027.624579
2101.447840,-7890.783629,-2368.659014,14508.036463
2101.448157,-6205.373534,-3330.926739,15692.365970
2101.448474,-4673.182538,-2590.720797,14063.912898
2101.448791,-1302.362347,-5625.565159,16580.613101
2101.449109,1225.752797,-4441.235652,12583.501014
2101.449426,3140.991542,-3923.091493,10807.006753
2101.449743,4826.401637,-518.144159,6957.935855
2101.450060,6281.983084,1332.370696,5773.606348
2101.450378,5362.668486,5033.400406,2738.761985
2101.450695,3677.258390,5255.462188,4145.153275
2101.451012,1072.533697,5033.400406,3478.967927
2101.451329,-612.876398,3552.988522,3627.009116
2101.451647,-2528.115143,296.082377,6365.771101
2101.451964,-4903.011187,-2146.597232,8142.265362
2101.452281,-5439.278036,-4737.318029,11251.130318
2101.452598,-5669.106685,-6069.688724,13915.871710
2101.452916,-5132.839837,-8956.491898,18135.045579
2101.453233,-3064.381992,-7846.182985,16136.489536
2101.453550,-1072.533697,-4959.379811,12509.480420
2101.453867,4749.792088,-2368.659014,11177.109724
2101.454185,6588.421283,-444.123565,7698.141797
2101.454502,9193.145976,3404.947333,2812.782580
2101.454819,9422.974625,3775.050304,518.144159
2101.455136,8350.440928,5033.400406,1184.329507
2101.455453,5898.935335,3552.988522,2072.576638
2101.455771,2834.553343,2960.823768,2146.597232
2101.456088,1149.143247,814.226536,5995.668130
2101.456405,-2298.286494,1110.308913,6883.915261
2101.456722,-4060.306139,-1554.432478,11621.233289
2101.457040,-5439.278036,-3552.988522,13027.624579
2101.457357,-4366.744339,-4811.338623,16654.633695
2101.457674,-2528.115143,-4145.153275,16062.468941
2101.457991,383.047749,-3775.050304,15026.180623
2101.458309,3830.477490,-2664.741391,10362.883188
2101.458626,7967.393179,-814.226536,7772.162391
2101.458943,10725.336972,-296.082377,6957.935855
2101.459260,10342.289223,740.205942,4885.359217
2101.459578,9193.145976,3775.050304,2294.638420
2101.459895,7660.954980,6217.729913,1776.494261
2101.460212,4673.182538,5921.647536,4885.359217
2101.460529,2068.457845,4145.153275,5477.523971
2101.460847,-3294.210641,2072.576638,7031.956449
2101.461164,-6818.249932,-0.000000,9548.656652
2101.461481,-7890.783629,-2812.782580,15026.180623
2101.461798,-8427.050478,-4737.318029,17098.757260
2101.462116,-7507.735880,-7624.121203,19837.519246
2101.462433,-6818.249932,-5181.441594,17987.004391
2101.462750,-2145.067394,-3997.112087,16580.613101
2101.463067,842.705048,-666.185348,12435.459826
2101.463385,4903.011187,-0.000000,10955.047942
2101.463702,5362.668486,2886.803174,6587.832884
2101.464019,6435.202183,4737.318029,5847.626942
2101.464336,5286.058936,5625.565159,5181.441594
2101.464653,3064.381992,6735.874072,3182.885551
2101.464971,2834.553343,5847.626942,5551.544565
2101.465288,-995.924147,6217.729913,5551.544565
2101.465605,-2681.334243,1850.514855,9474.636058
2101.465922,-6435.202183,1480.411884,10288.862594
2101.466240,-7660.954980,-0.000000,13397.727550
2101.466557,-7201.297681,-1110.308913,16654.633695
2101.466874,-6358.592633,-2886.803174,18431.127956
2101.467191,-4213.525239,-3775.050304,17764.942608
2101.467509,-1915.238745,-1258.350101,12287.418637
2101.467826,2911.162892,-0.000000,12287.418637
2101.468143,6435.202183,1554.432478,9178.553681
2101.468460,9193.145976,2886.803174,6883.915261
2101.468778,8810.098227,5551.544565,3627.009116
2101.469095,6971.469032,7328.038826,1184.329507
2101.469412,4979.620737,5329.482782,4441.235652
2101.469729,2834.553343,2664.741391,4959.379811
2101.470047,229.828649,2516.700203,5551.544565
2101.470364,-4826.401637,2960.823768,7772.162391
2101.470681,-6435.202183,1036.288319,12213.398043
2101.470998,-7354.516781,-2368.659014,15026.180623
2101.471316,-6205.373534,-2960.823768,18949.272115
2101.471633,-4826.401637,-3182.885551,17616.901420
2101.471950,-2834.553343,-4367.215058,14285.974681
2101.472267,2221.676944,-3182.885551,12509.480420
2101.472585,6818.249932,-2294.638420,10955.047942
2101.472902,8810.098227,-1850.514855,7920.203579
2101.473219,10265.679673,-296.082377,5033.400406
2101.473536,9193.145976,2368.659014,3923.091493
2101.473853,7124.688131,4441.235652,2368.659014
2101.474171,5209.449386,4663.297435,4219.173869
2101.474488,1838.629195,5329.482782,3849.070898
2101.474805,-1149.143247,4663.297435,5477.523971
2101.475122,-4213.525239,2590.720797,8956.491898
2101.475440,-5669.106685,-370.102971,12065.356855
2101.475757,-5822.325785,-2368.659014,14508.036463
2101.476074,-4443.353888,-4811.338623,16284.530724
2101.476391,-2451.505594,-6291.750507,15692.365970
2101.476709,-612.876398,-4441.235652,11177.109724
2101.477026,3677.258390,-3849.070898,10140.821405
2101.477343,5822.325785,-2738.761985,8290.306550
2101.477660,7814.174080,-1406.391290,6809.894666
2101.477978,7660.954980,2812.782580,4219.173869
2101.478295,5822.325785,3627.009116,1924.535449
2101.478612,3677.258390,4219.173869,2664.741391
2101.478929,1608.800546,3182.885551,4293.194464
2101.479247,-1991.848295,1628.453072,5107.421000
2101.479564,-4826.401637,1480.411884,5625.565159
2101.479881,-6741.640382,222.061783,9104.533087
2101.480198,-7201.297681,-2220.617826,12213.398043
2101.480516,-7124.688131,-3923.091493,15988.448347
2101.480833,-5286.058936,-4367.215058,16136.489536
2101.481150,-3524.039291,-4737.318029,14730.098246
2101.481467,-995.924147,-5181.441594,13767.830521
2101.481785,2221.676944,-4959.379811,11325.150913
2101.482102,5592.497135,-2886.803174,9400.615463
2101.482419,8427.050478,-888.247130,6365.771101
2101.482736,7967.393179,1480.411884,4959.379811
2101.483054,7354.516781,2960.823768,3701.029710
2101.483371,6588.421283,5255.462188,3478.967927
2101.483688,2374.896044,4885.359217,3701.029710
2101.484005,-612.876398,2886.803174,7179.997637
2101.484322,-5056.230287,1628.453072,9474.636058
2101.484640,-6435.202183,592.164754,13471.748144
2101.484957,-7431.126331,-1480.411884,15914.427753
2101.485274,-5898.935335,-3775.050304,18949.272115
2101.485591,-2451.505594,-4663.297435,18431.127956
2101.485909,76.609550,-2886.803174,14063.912898
2101.486226,4519.963438,-2294.638420,11695.253884
2101.486543,8503.660028,-1036.288319,9696.697840
2101.486860,10648.727422,-1258.350101,7772.162391
2101.487178,12410.747068,2220.617826,5551.544565
2101.487495,10648.727422,6291.750507,2664.741391
2101.487812,7584.345430,6217.729913,1776.494261
2101.488129,4443.353888,5921.647536,4589.276840
2101.488447,2451.505594,5329.482782,7179.997637
2101.488764,-2298.286494,4959.379811,7328.038826
2101.489081,-3983.696590,3478.967927,10140.821405
2101.489398,-6281.983084,1110.308913,12139.377449
2101.489716,-5975.544884,-2368.659014,15396.283594
2101.490033,-4213.525239,-5551.544565,16950.716072
2101.490350,-3370.820191,-6143.709319,14804.118840
2101.490667,-383.047749,-5181.441594,13175.665768
2101.490985,3447.429741,-4071.132681,12139.377449
2101.491302,5975.544884,-1628.453072,9030.512492
2101.491619,7124.688131,962.267725,5773.606348
2101.491936,6511.811733,2516.700203,5477.523971
2101.492254,4060.306139,5551.544565,3330.926739
2101.492571,3447.429741,5773.606348,3923.091493
2101.492888,1072.533697,4811.338623,5403.503377
2101.493205,-2374.896044,2294.638420,7476.080014
2101.493522,-5132.839837,814.226536,8660.409521
2101.493840,-7048.078582,-0.000000,10510.924376
2101.494157,-7201.297681,-592.164754,12805.562797
2101.494474,-6435.202183,-2516.700203,15322.262999
2101.494791,-5669.106685,-4663.297435,16062.468941
2101.495109,-3677.258390,-4441.235652,14656.077652
2101.495426,-612.876398,-3330.926739,13027.624579
2101.495743,2451.505594,-2886.803174,10658.965565
2101.496060,5898.935335,-2072.576638,8438.347739
2101.496378,7814.174080,1628.453072,4811.338623
2101.496695,7660.954980,3330.926739,3330.926739
2101.497012,5592.497135,3923.091493,2516.700203
2101.497329,4596.572988,2812.782580,4589.276840
2101.497647,2145.067394,2886.803174,5773.606348
2101.497964,-1225.752797,2516.700203,5995.668130
2101.498281,-4366.744339,1850.514855,8734.430116
2101.498598,-4903.011187,888.247130,11251.130318
2101.498916,-5286.058936,-518.144159,13101.645173
2101.499233,-3524.039291,-2294.638420,14063.912898
2101.499550,-2987.772442,-3849.070898,14434.015869
2101.499867,-459.657299,-5403.503377,13249.686362
2101.500185,2834.553343,-4885.359217,11103.089130
2101.500502,5898.935335,-2960.823768,9622.677246
2101.500819,8350.440928,-888.247130,5921.647536
2101.501136,9422.974625,2960.823768,3182.885551
2101.501454,7507.735880,4589.276840,2960.823768
2101.501771,5439.278036,5551.544565,4367.215058
2101.502088,3524.039291,4293.194464,5625.565159
2101.502405,689.485948,3997.112087,7402.059420
2101.502722,-2374.896044,1924.535449,9030.512492
2101.503040,-4290.134789,1258.350101,10732.986159
2101.503357,-4903.011187,-888.247130,12657.521608
2101.503674,-4060.306139,-3478.967927,15026.180623
2101.503991,-1685.410096,-3701.029710,15988.448347
2101.504309,0.000000,-4219.173869,13989.892304
2101.504626,2681.334243,-3034.844362,11547.212695
2101.504943,4903.011187,-2294.638420,9326.594869
2101.505260,6665.030833,-888.247130,8364.327145
2101.505578,7660.954980,1332.370696,7254.018232
2101.505895,6818.249932,4441.235652,4293.194464
2101.506212,4826.401637,5181.441594,5033.400406
2101.506529,3064.381992,4737.318029,7328.038826
2101.506847,1225.752797,3330.926739,8512.368333
2101.507164,-1838.629195,1332.370696,9030.512492
2101.507481,-4366.744339,148.041188,10584.944971
2101.507798,-5745.716235,222.061783,11621.233289
2101.508116,-5745.716235,-518.144159,13027.624579
2101.508433,-4136.915689,-2664.741391,16210.510130
2101.508750,-3753.867940,-3404.947333,14878.139434
2101.509067,-1532.190996,-3330.926739,14582.057057
2101.509385,0.000000,-2368.659014,12139.377449
2101.509702,2834.553343,-2220.617826,10214.842000
2101.510019,4673.182538,-666.185348,8216.285956
2101.510336,5898.935335,1924.535449,6291.750507
2101.510654,5669.106685,3627.009116,4737.318029
2101.510971,3600.648841,4071.132681,3627.009116
2101.511288,2911.162892,2738.761985,5995.668130
2101.511605,-306.438199,2516.700203,6661.853478
2101.511923,-2451.505594,1332.370696,8438.347739
2101.512240,-5209.449386,444.123565,10955.047942
2101.512557,-7354.516781,222.061783,12435.459826
2101.512874,-6588.421283,-1332.370696,15692.365970
2101.513191,-4673.182538,-2664.741391,16432.571912
2101.513509,-2068.457845,-3627.009116,16358.551318
2101.513826,689.485948,-3330.926739,12509.480420
2101.514143,4213.525239,-2590.720797,10362.883188
2101.514460,7431.126331,-0.000000,7698.141797
2101.514778,9499.584175,1628.453072,4737.318029
2101.515095,9806.022374,3997.112087,2072.576638
2101.515412,7814.174080,6291.750507,370.102971
2101.515729,5822.325785,6069.688724,1998.556043
2101.516047,4596.572988,4515.256246,5181.441594
2101.516364,1532.190996,2812.782580,6291.750507
2101.516681,-1991.848295,-0.000000,9178.553681
2101.516998,-4749.792088,-518.144159,10288.862594
2101.517316,-5362.668486,-1480.411884,12509.480420
2101.517633,-4060.306139,-4293.194464,14804.118840
2101.517950,-1685.410096,-5329.482782,15544.324782
2101.518267,-1302.362347,-2294.638420,12805.562797
2101.518585,2068.457845,-1036.288319,10658.965565
2101.518902,3524.039291,740.205942,6809.894666
2101.519219,5362.668486,1036.288319,6513.812290
2101.519536,4979.620737,2442.679609,4515.256246
2101.519853,2757.943793,3552.988522,4737.318029
2101.520171,1762.019645,3256.906145,4589.276840
2101.520488,0.000000,3701.029710,5329.482782
2101.520805,-229.828649,2368.659014,7550.100608
2101.521122,-2987.772442,-222.061783,8068.244768
2101.521440,-5898.935335,-1184.329507,9992.780217
2101.521757,-6435.202183,-1850.514855,12953.603985
2101.522074,-6818.249932,-1258.350101,13545.768739
2101.522391,-4596.572988,-3108.864956,15988.448347
2101.522709,-3600.648841,-3182.885551,15840.407159
2101.523026,-2451.505594,-2294.638420,12583.501014
2101.523343,0.000000,-0.000000,10658.965565
2101.523660,1991.848295,888.247130,9474.636058
2101.523978,3983.696590,2368.659014,8216.285956
2101.524295,4596.572988,2516.700203,6365.771101
2101.524612,3677.258390,2960.823768,5255.462188
2101.524929,3217.601092,2738.761985,7105.977043
2101.525246,2834.553343,1924.535449,7105.977043
2101.525564,1455.581446,-0.000000,7476.080014
2101.525881,-1302.362347,-0.000000,9400.615463
2101.526198,-3217.601092,-0.000000,11991.336260
2101.526515,-4136.915689,-1554.432478,13767.830521
2101.526833,-2987.772442,-1850.514855,16136.489536
2101.527150,-1378.971896,-2294.638420,16580.613101
2101.527467,306.438199,-888.247130,13767.830521
2101.527784,3370.820191,-814.226536,10288.862594
2101.528102,5975.544884,-296.082377,8882.471304
2101.528419,8120.612279,-0.000000,8142.265362
2101.528736,9652.803275,1258.350101,4959.379811
2101.529053,8656.879127,3034.844362,3330.926739
2101.529371,7277.907231,2664.741391,5329.482782
2101.529688,6281.983084,2294.638420,6513.812290
2101.530005,4060.306139,2738.761985,6217.729913
2101.530322,2451.505594,888.247130,9178.553681
2101.530639,-766.095498,-0.000000,10584.944971
2101.530957,-2374.896044,-0.000000,11769.274478
2101.531274,-2068.457845,-592.164754,13915.871710
2101.531591,-995.924147,-2368.659014,14285.974681
2101.531908,1378.971896,-2738.761985,13619.789333
2101.532226,2145.067394,-1702.473667,10807.006753
2101.532543,5056.230287,-296.082377,7772.162391
2101.532860,5515.887586,-370.102971,6661.853478
2101.533177,6435.202183,296.082377,6439.791695
2101.533495,4673.182538,1406.391290,5551.544565
2101.533812,2451.505594,2146.597232,5107.421000
2101.534129,306.438199,1258.350101,6143.709319
2101.534446,-1225.752797,592.164754,7624.121203
2101.534763,-2987.772442,-518.144159,8512.368333
2101.535081,-5209.449386,-1258.350101,9696.697840
2101.535398,-6435.202183,-2664.741391,11473.192101
2101.535715,-7048.078582,-1998.556043,12879.583391
2101.536032,-6205.373534,-3108.864956,14730.098246
2101.536350,-4673.182538,-1480.411884,13027.624579
2101.536667,-2681.334243,-740.205942,12657.521608
2101.536984,-1149.143247,-296.082377,10658.965565
2101.537301,1149.143247,888.247130,8216.285956
2101.537619,2221.676944,1776.494261,7254.018232
2101.537936,2987.772442,1998.556043,6661.853478
2101.538253,2987.772442,2738.761985,3775.050304
2101.538570,2451.505594,3108.864956,3923.091493
2101.538888,1991.848295,1480.411884,5033.400406
2101.539205,689.485948,592.164754,6365.771101
2101.539522,-459.657299,888.247130,7402.059420
2101.539839,-2681.334243,-74.020594,9992.780217
2101.540156,-4366.744339,-222.061783,11695.253884
2101.540474,-4903.011187,-370.102971,13471.748144
2101.540791,-4290.134789,-962.267725,15248.242405
2101.541108,-2298.286494,-222.061783,13545.768739
2101.541425,766.095498,1036.288319,10510.924376
2101.541743,3217.601092,1332.370696,8438.347739
2101.542060,5822.325785,740.205942,9252.574275
2101.542377,5898.935335,1110.308913,5625.565159
2101.542694,5592.497135,1184.329507,5773.606348
2101.543012,4519.963438,1036.288319,5995.668130
2101.543329,2528.115143,2294.638420,6809.894666
2101.543646,1455.581446,1184.329507,8956.491898
2101.543963,-536.266849,962.267725,8956.491898
2101.544280,-2911.162892,296.082377,10288.862594
2101.544598,-4060.306139,-148.041188,13249.686362
2101.544915,-3677.258390,-444.123565,15470.304188
2101.545232,-2834.553343,-1554.432478,14656.077652
2101.545549,0.000000,-1332.370696,14804.118840
2101.545867,1685.410096,-444.123565,11695.253884
2101.546184,4596.572988,148.041188,10140.821405
2101.546501,7354.516781,148.041188,8956.491898
2101.546818,7431.126331,1776.494261,7105.977043
2101.547136,8427.050478,2664.741391,6883.915261
2101.547453,6971.469032,2738.761985,6735.874072
2101.547770,5132.839837,1776.494261,7402.059420
2101.548087,3370.820191,1332.370696,7624.121203
2101.548405,995.924147,148.041188,8364.327145
2101.548722,-842.705048,-518.144159,9696.697840
2101.549039,-3064.381992,-1480.411884,12287.418637
2101.549356,-3830.477490,-1406.391290,13545.768739
2101.549673,-3370.820191,-1776.494261,14582.057057
2101.549991,-1838.629195,-2072.576638,14804.118840
2101.550308,-689.485948,-1628.453072,13175.665768
2101.550625,1608.800546,-222.061783,11251.130318
2101.550942,3447.429741,1702.473667,7994.224174
2101.551260,4903.011187,1850.514855,6957.935855
2101.551577,5209.449386,1406.391290,6143.709319
2101.551894,4366.744339,1258.350101,5181.441594
2101.552211,3064.381992,2220.617826,3849.070898
2101.552529,1378.971896,2220.617826,4737.318029
2101.552846,153.219100,370.102971,6661.853478
2101.553163,-1455.581446,-148.041188,7698.141797
2101.553480,-4060.306139,-888.247130,9178.553681
2101.553798,-5592.497135,-2368.659014,11325.150913
2101.554115,-6971.469032,-3478.967927,13619.789333
2101.554432,-6128.763984,-3034.844362,14878.139434
2101.554749,-4519.963438,-2294.638420,13693.809927
2101.555066,-2911.162892,-592.164754,10807.006753
2101.555384,-1072.533697,-1258.350101,10066.800811
2101.555701,1225.752797,-444.123565,8290.306550
2101.556018,3217.601092,740.205942,6661.853478
2101.556335,4673.182538,1184.329507,5181.441594
2101.556653,4519.963438,2072.576638,3552.988522
2101.556970,3677.258390,1702.473667,3256.906145
2101.557287,2528.115143,888.247130,5107.421000
2101.557604,383.047749,-74.020594,5477.523971
2101.557922,-1532.190996,-1184.329507,8808.450710
2101.558239,-3140.991542,-1480.411884,11769.274478
2101.558556,-3600.648841,-1776.494261,13693.809927
2101.558873,-2911.162892,-1406.391290,14582.057057
2101.559190,-1685.410096,-1036.288319,14063.912898
2101.559508,1378.971896,-0.000000,12953.603985
2101.559825,4060.306139,1332.370696,9548.656652
2101.560142,7737.564530,2294.638420,7994.224174
2101.560459,9346.365076,2368.659014,6291.750507
2101.560777,10112.460574,2812.782580,4293.194464
2101.561094,9499.584175,2812.782580,4367.215058
2101.561411,7354.516781,2960.823768,4071.132681
2101.561728,5975.544884,1776.494261,6291.750507
2101.562046,2298.286494,1776.494261,7772.162391
2101.562363,153.219100,1110.308913,9252.574275
2101.562680,-3217.601092,148.041188,10732.986159
2101.562997,-3447.429741,-1628.453072,14730.098246
2101.563315,-4290.134789,-1702.473667,14730.098246
2101.563632,-3370.820191,-1776.494261,14285.974681
2101.563949,-2528.115143,-888.247130,14359.995275
2101.564266,-995.924147,-888.247130,12435.459826
2101.564583,612.876398,-814.226536,11399.171507
2101.564901,1762.019645,-222.061783,10658.965565
2101.565218,1915.238745,888.247130,9474.636058
2101.565535,1838.629195,2516.700203,6661.853478
2101.565852,1838.629195,1924.535449,6809.894666
2101.566170,153.219100,1406.391290,6809.894666
2101.566487,-689.485948,-370.102971,7698.141797
2101.566804,-2757.943793,-518.144159,8364.327145
2101.567121,-4290.134789,-1258.350101,10584.944971
2101.567439,-4903.011187,-1850.514855,12287.418637
2101.567756,-4903.011187,-1332.370696,13619.789333
2101.568073,-3600.648841,-1258.350101,14582.057057
2101.568390,-2451.505594,-1036.288319,14582.057057
2101.568707,-459.657299,-518.144159,13989.892304
2101.569025,2145.067394,222.061783,11177.109724
2101.569342,3830.477490,1036.288319,9326.594869
2101.569659,5362.668486,1332.370696,7624.121203
2101.569976,5898.935335,2368.659014,5699.585753
2101.570294,5745.716235,3775.050304,3849.070898
2101.570611,5439.278036,3478.967927,4441.235652
2101.570928,4290.134789,2220.617826,4811.338623
2101.571245,2528.115143,2220.617826,5921.647536
2101.571563,229.828649,370.102971,8956.491898
2101.571880,-2221.676944,-1480.411884,11029.068536
2101.572197,-3294.210641,-2368.659014,13397.727550
2101.572514,-2911.162892,-1776.494261,14211.954086
2101.572832,-1685.410096,-592.164754,13249.686362
2101.573149,766.095498,888.247130,11251.130318
2101.573466,2834.553343,1406.391290,9696.697840
2101.573783,4979.620737,888.247130,8142.265362
2101.574100,6741.640382,1776.494261,6143.709319
2101.574418,7354.516781,1406.391290,5033.400406
2101.574735,6818.249932,1036.288319,4589.276840
2101.575052,4213.525239,962.267725,4071.132681
2101.575369,1685.410096,370.102971,4959.379811
2101.575687,-306.438199,518.144159,6217.729913
2101.576004,-2145.067394,-0.000000,8216.285956
2101.576321,-4366.744339,-740.205942,9696.697840
2101.576638,-5132.839837,-1110.308913,12435.459826
2101.576956,-5209.449386,-2368.659014,13767.830521
2101.577273,-4519.963438,-3404.947333,14952.160028
2101.577590,-2604.724693,-3775.050304,15618.345376
2101.577907,-459.657299,-2590.720797,13027.624579
2101.578225,2145.067394,-222.061783,9992.780217
2101.578542,4673.182538,222.061783,8808.450710
2101.578859,6511.811733,1776.494261,8142.265362
2101.579176,6665.030833,2960.823768,4145.153275
2101.579493,4979.620737,3404.947333,2442.679609
2101.579811,2911.162892,2442.679609,4737.318029
2101.580128,0.000000,962.267725,5921.647536
2101.580445,-1915.238745,-1036.288319,7476.080014
2101.580762,-4136.915689,-1776.494261,9252.574275
2101.581080,-6205.373534,-2442.679609,12361.439231
2101.581397,-6205.373534,-2812.782580,14359.995275
2101.581714,-5056.230287,-3034.844362,15618.345376
2101.582031,-2834.553343,-2812.782580,16950.716072
2101.582349,-842.705048,-2442.679609,15692.365970
2101.582666,1072.533697,-814.226536,12731.542202
2101.582983,4903.011187,888.247130,10066.800811
2101.583300,7201.297681,3256.906145,6661.853478
2101.583617,8273.831378,3627.009116,4737.318029
2101.583935,7737.564530,4663.297435,2886.803174
2101.584252,6205.373534,4663.297435,2886.803174
2101.584569,4443.353888,3627.009116,3849.070898
2101.584886,2145.067394,2072.576638,5403.503377
2101.585204,-306.438199,-592.164754,8142.265362
2101.585521,-3447.429741,-2146.597232,10214.842000
2101.585838,-5132.839837,-4441.235652,14285.974681
2101.586155,-5439.278036,-4737.318029,15988.448347
2101.586473,-3753.867940,-5477.523971,18431.127956
2101.586790,-1915.238745,-3997.112087,16506.592507
2101.587107,1149.143247,-2072.576638,14804.118840
2101.587424,4596.572988,296.082377,10732.986159
2101.587742,7277.907231,3478.967927,7402.059420
2101.588059,9652.803275,4293.194464,4959.379811
2101.588376,10189.070123,5995.668130,2812.782580
2101.588693,9193.145976,5477.523971,2220.617826
2101.589010,7354.516781,4219.173869,2886.803174
2101.589328,5822.325785,2294.638420,4885.359217
2101.589645,3217.601092,666.185348,7476.080014
2101.589962,459.657299,-1998.556043,9622.677246
2101.590279,-1149.143247,-3997.112087,13619.789333
2101.590597,-2681.334243,-3404.947333,14359.995275
2101.590914,-306.438199,-4219.173869,16654.633695
2101.591231,766.095498,-3404.947333,14582.057057
2101.591548,4519.963438,-3330.926739,14656.077652
2101.591866,4596.572988,-2146.597232,10436.903782
2101.592183,6741.640382,-1258.350101,8734.430116
2101.592500,7277.907231,-222.061783,7179.997637
2101.592817,7048.078582,1924.535449,4367.215058
2101.593134,5515.887586,1702.473667,4293.194464
2101.593452,3447.429741,1628.453072,4959.379811
2101.593769,1455.581446,-592.164754,7550.100608
2101.594086,-536.266849,-1998.556043,8882.471304
2101.594403,-1149.143247,-4589.276840,11177.109724
2101.594721,-2374.896044,-5477.523971,13027.624579
2101.595038,-1608.800546,-7550.100608,16358.551318
2101.595355,-1532.190996,-8290.306550,14730.098246
2101.595672,-153.219100,-8808.450710,15618.345376
2101.595990,1532.190996,-7476.080014,15322.262999
2101.596307,3064.381992,-4959.379811,10510.924376
2101.596624,5439.278036,-1924.535449,6735.874072
2101.596941,5669.106685,222.061783,4885.359217
2101.597259,5898.935335,518.144159,2738.761985
2101.597576,3830.477490,962.267725,1332.370696
2101.597893,2681.334243,-1184.329507,4293.194464
2101.598210,1149.143247,-3552.988522,6069.688724
2101.598527,0.000000,-3923.091493,8142.265362
2101.598845,76.609550,-6069.688724,10955.047942
2101.599162,76.609550,-8216.285956,13545.768739
2101.599479,459.657299,-8068.244768,15322.262999
2101.599796,2604.724693,-6217.729913,15248.242405
2101.600114,5056.230287,-5033.400406,14952.160028
2101.600431,7277.907231,-2886.803174,10584.944971
2101.600748,10035.851024,-1776.494261,7105.977043
2101.601065,12104.308868,1554.432478,3627.009116
2101.601383,12563.966167,2072.576638,1332.370696
2101.601700,11338.213370,3552.988522,-1480.411884
2101.602017,8886.707777,3256.906145,-666.185348
2101.602334,6128.763984,888.247130,1480.411884
2101.602651,2374.896044,-1998.556043,4293.194464
2101.602969,-306.438199,-5255.462188,9474.636058
2101.603286,-2145.067394,-7772.162391,13693.809927
2101.603603,-2528.115143,-7476.080014,14878.139434
2101.603920,-919.314598,-7105.977043,15692.365970
2101.604238,0.000000,-5551.544565,16432.571912
2101.604555,1838.629195,-4145.153275,15692.365970
2101.604872,2987.772442,-1628.453072,11621.233289
2101.605189,5822.325785,-666.185348,9622.677246
2101.605507,6741.640382,1702.473667,7105.977043
2101.605824,7354.516781,5033.400406,2960.823768
2101.606141,7431.126331,6809.894666,-592.164754
2101.606458,5132.839837,5773.606348,0.000000
2101.606776,3907.087040,2368.659014,3849.070898
2101.607093,0.000000,-1036.288319,5699.585753
2101.607410,-2145.067394,-4737.318029,11325.150913
2101.607727,-4213.525239,-7772.162391,14434.015869
2101.608044,-4596.572988,-7994.224174,16876.695478
2101.608362,-3830.477490,-6883.915261,18579.169144
2101.608679,-2221.676944,-4145.153275,17468.860231
2101.608996,-459.657299,-1628.453072,14730.098246
2101.609313,1608.800546,888.247130,14137.933492
2101.609631,3907.087040,666.185348,12509.480420
2101.609948,4826.401637,3849.070898,8290.306550
2101.610265,6665.030833,5477.523971,6291.750507
2101.610582,6588.421283,6809.894666,2886.803174
2101.610900,6511.811733,5033.400406,3478.967927
2101.611217,5439.278036,2664.741391,5329.482782
2101.611534,3370.820191,-444.123565,8512.368333
2101.611851,1225.752797,-3552.988522,11325.150913
2101.612169,0.000000,-4589.276840,13175.665768
2101.612486,-383.047749,-5477.523971,13323.706956
2101.612803,-995.924147,-4071.132681,13619.789333
2101.613120,-2145.067394,-4737.318029,14508.036463
2101.613437,-2757.943793,-4737.318029,15544.324782
2101.613755,-2221.676944,-3478.967927,15248.242405
2101.614072,-459.657299,-888.247130,14359.995275
2101.614389,1532.190996,148.041188,12583.501014
2101.614706,3217.601092,2442.679609,9844.739029
2101.615024,4903.011187,1406.391290,7254.018232
2101.615341,5745.716235,1776.494261,6291.750507
2101.615658,7354.516781,1332.370696,5921.647536
2101.615975,7201.297681,1924.535449,4885.359217
2101.616293,6894.859482,962.267725,4737.318029
2101.616610,5975.544884,-888.247130,6069.688724
2101.616927,4060.306139,-2812.782580,7105.977043
2101.617244,1378.971896,-3997.112087,9030.512492
2101.617561,-306.438199,-4959.379811,10955.047942
2101.617879,-536.266849,-5255.462188,12731.542202
2101.618196,383.047749,-5255.462188,13989.892304
2101.618513,1302.362347,-5329.482782,14359.995275
2101.618830,2451.505594,-3182.885551,10214.842000
2101.619148,5822.325785,-740.205942,7772.162391
2101.619465,8656.879127,148.041188,6587.832884
2101.619782,10342.289223,1110.308913,5255.462188
2101.620099,10112.460574,2368.659014,3701.029710
2101.620417,8656.879127,3034.844362,2738.761985
2101.620734,7890.783629,740.205942,4737.318029
2101.621051,5898.935335,-2072.576638,7105.977043
2101.621369,4213.525239,-4589.276840,8882.471304
2101.621686,1532.190996,-5033.400406,8808.450710
2101.622003,842.705048,-6439.791695,11473.192101
2101.622320,1225.752797,-8142.265362,13249.686362
2101.622638,1685.410096,-7476.080014,12879.583391
2101.622955,1915.238745,-6735.874072,11325.150913
2101.623272,919.314598,-3775.050304,9252.574275
2101.623590,2451.505594,-2368.659014,7772.162391
2101.623907,2221.676944,-1480.411884,7105.977043
2101.624224,1378.971896,-1110.308913,7994.224174
2101.624541,76.609550,-1036.288319,8068.244768
2101.624859,-1149.143247,-3034.844362,8660.409521
2101.625176,-306.438199,-5181.441594,10362.883188
2101.625493,-153.219100,-7031.956449,10658.965565
2101.625811,919.314598,-7846.182985,11473.192101
2101.626128,1762.019645,-7624.121203,10881.027347
2101.626445,2145.067394,-6365.771101,10214.842000
2101.626762,2374.896044,-3997.112087,9474.636058
2101.627080,2298.286494,-2516.700203,9474.636058
2101.627397,1225.752797,-1184.329507,8808.450710
2101.627714,612.876398,-814.226536,9178.553681
2101.628032,1378.971896,444.123565,9326.594869
2101.628349,1608.800546,1332.370696,8512.368333
2101.628666,2374.896044,1036.288319,7920.203579
2101.628983,4136.915689,-1110.308913,8290.306550
2101.629301,4979.620737,-3330.926739,8364.327145
2101.629618,5745.716235,-4737.318029,8586.388927
2101.629935,6665.030833,-5699.585753,9326.594869
2101.630253,6971.469032,-4219.173869,8660.409521
2101.630570,7201.297681,-1480.411884,9104.533087
2101.630887,6665.030833,1184.329507,9474.636058
2101.631204,5745.716235,3330.926739,8882.471304
2101.631522,4903.011187,3330.926739,8882.471304
2101.631839,3983.696590,2960.823768,9474.636058
2101.632156,4060.306139,2368.659014,10140.821405
2101.632473,4060.306139,2072.576638,8142.265362
2101.632791,4290.134789,666.185348,7476.080014
2101.633108,4826.401637,-592.164754,7772.162391
2101.633425,4519.963438,-2516.700203,8734.430116
2101.633743,3677.258390,-4441.235652,9474.636058
2101.634060,2834.553343,-5033.400406,10732.986159
2101.634377,2145.067394,-4071.132681,12657.521608
2101.634694,1455.581446,-2960.823768,13249.686362
2101.635012,842.705048,-1110.308913,12435.459826
2101.635329,76.609550,666.185348,11251.130318
2101.635646,306.438199,814.226536,10955.047942
2101.635964,229.828649,962.267725,10066.800811
2101.636281,383.047749,1110.308913,9696.697840
2101.636598,766.095498,1554.432478,8734.430116
2101.636915,536.266849,1628.453072,8586.388927
2101.637233,1149.143247,444.123565,8734.430116
2101.637550,1302.362347,-1850.514855,10140.821405
2101.637867,1532.190996,-4071.132681,10658.965565
2101.638185,1149.143247,-4885.359217,11251.130318
2101.638502,1608.800546,-5403.503377,12139.377449
2101.638819,2374.896044,-5477.523971,12065.356855
2101.639136,2374.896044,-3552.988522,10510.924376
2101.639454,2834.553343,-1258.350101,9400.615463
2101.639771,2987.772442,370.102971,9252.574275
2101.640088,2987.772442,962.267725,9030.512492
2101.640406,2911.162892,2220.617826,8808.450710
2101.640723,3294.210641,3256.906145,8216.285956
2101.641040,3217.601092,2220.617826,9030.512492
2101.641357,3140.991542,-888.247130,9622.677246
2101.641675,3370.820191,-2738.761985,9252.574275
2101.641992,3217.601092,-3997.112087,8882.471304
2101.642309,4519.963438,-5107.421000,9252.574275
2101.642627,4903.011187,-6069.688724,9104.533087
2101.642944,4903.011187,-5477.523971,9104.533087
2101.643261,4136.915689,-4145.153275,8956.491898
2101.643578,3447.429741,-3182.885551,9474.636058
2101.643896,2987.772442,-2368.659014,10214.842000
2101.644213,2528.115143,-1406.391290,9474.636058
2101.644530,2221.676944,-666.185348,9548.656652
2101.644848,842.705048,-962.267725,9622.677246
2101.645165,1838.629195,-1554.432478,9992.780217
2101.645482,2604.724693,-1554.432478,8808.450710
2101.645799,3217.601092,-1924.535449,8438.347739
2101.646117,3064.381992,-3034.844362,8290.306550
2101.646434,3447.429741,-4071.132681,8142.265362
2101.646751,3677.258390,-3849.070898,8364.327145
2101.647069,3677.258390,-3552.988522,8586.388927
2101.647386,3140.991542,-3404.947333,9252.574275
2101.647703,3140.991542,-2886.803174,8734.430116
2101.648020,3217.601092,-2294.638420,8734.430116
2101.648338,3140.991542,-1776.494261,8586.388927
2101.648655,2987.772442,-1406.391290,8808.450710
2101.648972,2987.772442,-592.164754,8808.450710
2101.649290,2987.772442,-0.000000,8364.327145
2101.649607,2987.772442,592.164754,7920.203579
2101.649924,2374.896044,814.226536,7328.038826
2101.650241,1838.629195,-0.000000,7476.080014
2101.650559,1685.410096,-666.185348,7476.080014
2101.650876,1915.238745,-1258.350101,8586.388927
2101.651193,2068.457845,-2220.617826,8586.388927
2101.651510,1762.019645,-2886.803174,8956.491898
2101.651828,1378.971896,-3701.029710,9474.636058
2101.652145,1225.752797,-3923.091493,9844.739029
2101.652462,1149.143247,-2812.782580,10140.821405
2101.652780,1072.533697,-1554.432478,10214.842000
2101.653097,1685.410096,-0.000000,10140.821405
2101.653414,1149.143247,1702.473667,9548.656652
2101.653731,1149.143247,2072.576638,8808.450710
2101.654049,995.924147,2294.638420,8808.450710
2101.654366,536.266849,1406.391290,8956.491898
2101.654683,383.047749,814.226536,8438.347739
2101.655001,306.438199,-0.000000,8734.430116
2101.655318,153.219100,-1850.514855,9400.615463
2101.655635,0.000000,-2294.638420,10140.821405
2101.655952,306.438199,-3034.844362,10881.027347
2101.656270,383.047749,-2960.823768,10955.047942
2101.656587,689.485948,-2294.638420,12361.439231
2101.656904,0.000000,-1258.350101,11473.192101
2101.657222,0.000000,518.144159,10807.006753
2101.657539,689.485948,2294.638420,10510.924376
2101.657856,1455.581446,3034.844362,9918.759623
2101.658173,2451.505594,3108.864956,9252.574275
2101.658491,3370.820191,3404.947333,8734.430116
2101.658808,4136.915689,3034.844362,8364.327145
2101.659125,4749.792088,1924.535449,8290.306550
2101.659443,5362.668486,-148.041188,8882.471304
2101.659760,4443.353888,-814.226536,8808.450710
2101.660077,5056.230287,-740.205942,8882.471304
2101.660394,4979.620737,-666.185348,8808.450710
2101.660712,5515.887586,-666.185348,9474.636058
2101.661029,4979.620737,-444.123565,9770.718434
2101.661346,4903.011187,-0.000000,9326.594869
2101.661664,4903.011187,370.102971,9104.533087
2101.661981,5056.230287,592.164754,9326.594869
2101.662298,5362.668486,370.102971,9326.594869
2101.662615,5592.497135,740.205942,8586.388927
2101.662933,5745.716235,-0.000000,8364.327145
2101.663250,6358.592633,-0.000000,8660.409521
2101.663567,6128.763984,-444.123565,8882.471304
2101.663885,5975.544884,-666.185348,9252.574275
2101.664202,5056.230287,-1036.288319,9696.697840
2101.664519,4136.915689,-1924.535449,10066.800811
2101.664836,3370.820191,-2294.638420,10881.027347
2101.665154,2834.553343,-2886.803174,10807.006753
2101.665471,2068.457845,-3256.906145,10807.006753
2101.665788,1608.800546,-3701.029710,11103.089130
2101.666106,1378.971896,-4589.276840,10955.047942
2101.666423,1532.190996,-5477.523971,11251.130318
2101.666740,1378.971896,-5995.668130,11621.233289
2101.667057,1072.533697,-6513.812290,11769.274478
2101.667375,1378.971896,-6143.709319,12065.356855
2101.667692,1302.362347,-5773.606348,11769.274478
2101.668009,1838.629195,-5551.544565,11843.295072
2101.668326,2298.286494,-4885.359217,11399.171507
2101.668644,2757.943793,-4663.297435,10732.986159
2101.668961,3447.429741,-4737.318029,10362.883188
2101.669278,4366.744339,-4811.338623,9548.656652
2101.669596,4903.011187,-5255.462188,9326.594869
2101.669913,5515.887586,-5403.503377,8882.471304
2101.670230,5132.839837,-5107.421000,7772.162391
2101.670547,5132.839837,-5477.523971,7994.224174
2101.670865,4826.401637,-5995.668130,8512.368333
2101.671182,3600.648841,-6143.709319,9104.533087
2101.671499,3064.381992,-6735.874072,10140.821405
2101.671817,2374.896044,-6513.812290,10732.986159
2101.672134,4136.915689,-5403.503377,10732.986159
2101.672451,4519.963438,-3775.050304,9474.636058
2101.672768,4903.011187,-2886.803174,8290.306550
2101.673086,5439.278036,-2368.659014,7105.977043
2101.673403,5209.449386,-1702.473667,6735.874072
2101.673720,6052.154434,-2516.700203,7402.059420
2101.674038,6511.811733,-1998.556043,7105.977043
2101.674355,6358.592633,-1628.453072,6513.812290
2101.674672,6511.811733,-962.267725,6439.791695
2101.674989,6052.154434,-518.144159,5181.441594
2101.675307,5362.668486,-1332.370696,4811.338623
2101.675624,4673.182538,-2886.803174,6143.709319
2101.675941,3217.601092,-3923.091493,7550.100608
2101.676259,2911.162892,-3849.070898,8586.388927
2101.676576,2757.943793,-3701.029710,9104.533087
2101.676893,2068.457845,-1850.514855,7920.203579
2101.677210,1838.629195,-740.205942,7772.162391
2101.677528,842.705048,-0.000000,7179.997637
2101.677845,459.657299,-740.205942,8290.306550
2101.678162,-306.438199,-1184.329507,8882.471304
2101.678480,-612.876398,-666.185348,9178.553681
2101.678797,229.828649,-370.102971,8068.244768
2101.679114,153.219100,-296.082377,7994.224174
2101.679431,919.314598,-1110.308913,8882.471304
2101.679749,229.828649,-2072.576638,8512.368333
2101.680066,0.000000,-2072.576638,9252.574275
2101.680383,612.876398,-1628.453072,10658.965565
2101.680701,1072.533697,-74.020594,10807.006753
2101.681018,1991.848295,1036.288319,10584.944971
2101.681335,2221.676944,1480.411884,9918.759623
2101.681652,2145.067394,1702.473667,9622.677246
2101.681970,2528.115143,1480.411884,10140.821405
2101.682287,2757.943793,2294.638420,9918.759623
2101.682604,2528.115143,2368.659014,10584.944971
2101.682922,2987.772442,2072.576638,10732.986159
2101.683239,2757.943793,1036.288319,10807.006753
2101.683556,2451.505594,222.061783,11547.212695
2101.683873,1685.410096,-666.185348,11695.253884
2101.684191,2298.286494,-592.164754,11695.253884
2101.684508,2987.772442,148.041188,11843.295072
2101.684825,2681.334243,222.061783,12731.542202
2101.685143,2374.896044,370.102971,12287.418637
2101.685460,1608.800546,1036.288319,11621.233289
2101.685777,1455.581446,444.123565,12361.439231
2101.686094,1072.533697,1110.308913,11621.233289
2101.686412,1072.533697,1702.473667,12139.377449
2101.686729,995.924147,1776.494261,11991.336260
2101.687046,1991.848295,444.123565,12065.356855
2101.687363,2451.505594,-222.061783,12213.398043
2101.687681,3524.039291,-1406.391290,12509.480420
2101.687998,3753.867940,-1184.329507,9770.718434
2101.688315,5056.230287,-1998.556043,10288.862594
2101.688633,5286.058936,-3330.926739,11325.150913
2101.688950,5286.058936,-2738.761985,10658.965565
2101.689267,4979.620737,-1480.411884,8734.430116
2101.689584,3907.087040,-740.205942,8364.327145
2101.689902,3753.867940,-1110.308913,9474.636058
2101.690219,3064.381992,-1258.350101,8808.450710
2101.690536,2834.553343,-1702.473667,8734.430116
2101.690854,1762.019645,-1998.556043,9400.615463
2101.691171,1532.190996,-2960.823768,9918.759623
2101.691488,2451.505594,-3997.112087,9622.677246
2101.691805,2451.505594,-4071.132681,9474.636058
2101.692123,2451.505594,-4219.173869,10066.800811
2101.692440,2604.724693,-4367.215058,9844.739029
2101.692757,3830.477490,-4293.194464,9696.697840
2101.693075,4903.011187,-3923.091493,9104.533087
2101.693392,5286.058936,-3034.844362,8512.368333
2101.693709,5439.278036,-2812.782580,7698.141797
2101.694026,6281.983084,-3256.906145,7328.038826
2101.694344,6665.030833,-3108.864956,5625.565159
2101.694661,6205.373534,-2590.720797,4145.153275
2101.694978,5515.887586,-2368.659014,4885.359217
2101.695296,4673.182538,-3256.906145,4885.359217
2101.695613,3524.039291,-4145.153275,6217.729913
2101.695930,1608.800546,-4515.256246,6291.750507
2101.696247,459.657299,-5477.523971,8438.347739
2101.696565,-459.657299,-5847.626942,8512.368333
2101.696882,-842.705048,-6661.853478,9918.759623
2101.697199,-689.485948,-6735.874072,10214.842000
2101.697517,0.000000,-6587.832884,10732.986159
2101.697834,1685.410096,-6291.750507,10881.027347
2101.698151,3217.601092,-5773.606348,10732.986159
2101.698468,4366.744339,-4441.235652,8438.347739
2101.698786,4826.401637,-3775.050304,7105.977043
2101.699103,5209.449386,-2442.679609,6439.791695
2101.699420,4979.620737,-1480.411884,5551.544565
2101.699738,4213.525239,-0.000000,4589.276840
2101.700055,3064.381992,-222.061783,4811.338623
2101.700372,1838.629195,-1036.288319,6143.709319
2101.700689,536.266849,-2590.720797,7624.121203
2101.701007,-689.485948,-3552.988522,9400.615463
2101.701324,-1455.581446,-5255.462188,11695.253884
2101.701641,-1532.190996,-5921.647536,13545.768739
2101.701959,-995.924147,-6365.771101,14063.912898
2101.702276,536.266849,-5773.606348,14211.954086
2101.702593,3140.991542,-3775.050304,14434.015869
2101.702910,5515.887586,-2146.597232,12657.521608
2101.703228,7201.297681,-296.082377,9770.718434
2101.703545,8733.488677,666.185348,9326.594869
2101.703862,8273.831378,2072.576638,6439.791695
2101.704180,8427.050478,2886.803174,5329.482782
2101.704497,8273.831378,3552.988522,5551.544565
2101.704814,7124.688131,3552.988522,5625.565159
2101.705131,6052.154434,2146.597232,6365.771101
2101.705449,3677.258390,888.247130,7846.182985
2101.705766,2757.943793,-1480.411884,11029.068536
2101.706083,1532.190996,-3552.988522,12805.562797
2101.706400,1225.752797,-4737.318029,15026.180623
2101.706718,1149.143247,-5921.647536,16432.571912
2101.707035,2451.505594,-4959.379811,16580.613101
2101.707352,4596.572988,-3701.029710,15470.304188
2101.707670,5592.497135,-1924.535449,13767.830521
2101.707987,7354.516781,370.102971,12287.418637
2101.708304,7890.783629,2664.741391,7846.182985
2101.708621,7890.783629,4071.132681,5921.647536
2101.708939,7277.907231,4737.318029,3997.112087
2101.709256,5822.325785,4737.318029,3849.070898
2101.709573,4213.525239,4367.215058,2960.823768
2101.709891,1685.410096,2294.638420,3997.112087
2101.710208,-1608.800546,-740.205942,7179.997637
2101.710525,-3830.477490,-3997.112087,11991.336260
2101.710842,-6205.373534,-6069.688724,14285.974681
2101.711160,-6052.154434,-8142.265362,17468.860231
2101.711477,-5286.058936,-6143.709319,18283.086767
2101.711794,-2681.334243,-6143.709319,18209.066173
2101.712112,-229.828649,-4145.153275,15618.345376
2101.712429,3294.210641,-3849.070898,13027.624579
2101.712746,4979.620737,-740.205942,9474.636058
2101.713063,7354.516781,1554.432478,5995.668130
2101.713381,8044.002729,4737.318029,2442.679609
2101.713698,8120.612279,6365.771101,-1480.411884
2101.714015,6741.640382,7031.956449,-1332.370696
2101.714333,2911.162892,4737.318029,74.020594
2101.714650,-459.657299,1924.535449,2294.638420
2101.714967,-4519.963438,-1036.288319,5403.503377
2101.715284,-7354.516781,-4589.276840,10288.862594
2101.715602,-9039.926876,-8512.368333,15174.221811
2101.715919,-8963.317327,-10510.924376,18357.107362
2101.716236,-7431.126331,-11399.171507,20281.642811
2101.716554,-3600.648841,-11029.068536,20873.807564
2101.716871,459.657299,-8512.368333,18727.210333
2101.717188,4136.915689,-6069.688724,15766.386565
2101.717505,8810.098227,-1554.432478,11917.315666
2101.717823,11568.042020,1702.473667,6809.894666
2101.718140,12870.404366,5625.565159,814.226536
2101.718458,12793.794817,8438.347739,-2368.659014
2101.718775,11721.261119,9400.615463,-4737.318029
2101.719092,8886.707777,9030.512492,-5033.400406
2101.719410,5056.230287,6291.750507,-3108.864956
2101.719727,-459.657299,1036.288319,2146.597232
2101.720045,-5592.497135,-3701.029710,7105.977043
2101.720362,-9806.022374,-8142.265362,12805.562797
2101.720679,-12027.699319,-11399.171507,19023.292709
2101.720997,-10801.946522,-12139.377449,22946.384202
2101.721314,-7584.345430,-10807.006753,24278.754898
2101.721632,-2987.772442,-8660.409521,24278.754898
2101.721949,1608.800546,-5033.400406,20577.725188
2101.722266,6818.249932,-1850.514855,16580.613101
2101.722584,10112.460574,1184.329507,10584.944971
2101.722901,13559.890315,4737.318029,4441.235652
2101.723219,15398.519510,9178.553681,-1036.288319
2101.723536,15015.471761,12879.583391,-7105.977043
2101.723854,13100.233016,14878.139434,-9030.512492
2101.724171,9806.022374,14211.954086,-9474.636058
2101.724488,3677.258390,8512.368333,-4515.256246
2101.724806,-4136.915689,2368.659014,2590.720797
2101.725123,-10878.556072,-3552.988522,8216.285956
2101.725441,-16471.053207,-9474.636058,16358.551318
2101.725758,-17237.148705,-14359.995275,26647.413912
2101.726075,-15628.348159,-17987.004391,29978.340651
2101.726393,-14402.595362,-14063.912898,24722.878463
2101.726710,-6281.983084,-10066.800811,29090.093521
2101.727028,-919.314598,-4811.338623,24500.816680
2101.727345,6128.763984,1924.535449,18209.066173
2101.727662,11951.089769,7105.977043,10288.862594
2101.727980,15015.471761,10881.027347,5403.503377
2101.728297,17313.758255,17912.983796,-2812.782580
2101.728615,17390.367805,21910.095883,-11843.295072
2101.728932,17160.539155,20873.807564,-10362.883188
2101.729250,12180.918418,18135.045579,-14137.933492
2101.729567,5439.278036,12361.439231,-6217.729913
2101.729884,-4290.134789,3034.844362,1036.288319
2101.730202,-12563.966167,-6291.750507,10510.924376
2101.730519,-19841.873398,-13619.789333,17468.860231
2101.730837,-20301.530697,-17172.777854,30792.567187
2101.731154,-18386.291952,-20429.683999,32124.937883
2101.731471,-18003.244203,-14656.077652,25981.228564
2101.731789,-10418.898773,-12509.480420,31310.711347
2101.732106,-4749.792088,-5181.441594,27905.764013
2101.732424,4366.744339,3478.967927,21836.075289
2101.732741,10648.727422,9104.533087,11251.130318
2101.733058,14402.595362,13175.665768,3404.947333
2101.733376,18079.853753,19911.539840,-7031.956449
2101.733693,16777.491406,22798.343014,-8068.244768
2101.734011,18079.853753,20947.828159,-13249.686362
2101.734328,14249.376263,18949.272115,-18209.066173
2101.734646,7814.174080,15322.262999,-6957.935855
2101.734963,-3064.381992,2220.617826,-518.144159
2101.735280,-11031.775171,-11177.109724,6365.771101
2101.735598,-19228.997000,-14656.077652,15248.242405
2101.735915,-18922.558801,-20503.704593,29016.072926
2101.736233,-20224.921147,-22058.137072,24796.899057
2101.736550,-16624.272307,-20355.663405,28868.031738
2101.736867,-11951.089769,-19393.395680,32346.999665
2101.737185,-6665.030833,-9104.533087,25981.228564
2101.737502,4673.182538,-2368.659014,22798.343014
2101.737820,11184.994271,4663.297435,15174.221811
2101.738137,15245.300410,13323.706956,3478.967927
2101.738454,17160.539155,20133.601622,-7698.141797
2101.738772,22753.036291,22946.384202,-5773.606348
2101.739089,22523.207641,25389.063811,-14137.933492
2101.739407,21297.454844,23020.404796,-19541.436869
2101.739724,11261.603821,15692.365970,-13619.789333
2101.740042,2834.553343,2664.741391,962.267725
2101.740359,-8120.612279,-7772.162391,3775.050304
2101.740676,-13253.452115,-17172.777854,17320.819043
2101.740994,-16011.395908,-22132.157666,24722.878463
2101.741311,-20071.702048,-23760.610738,25241.022622
2101.741629,-18156.463303,-24648.857869,27239.578666
2101.741946,-14402.595362,-20799.786970,29756.278868
2101.742263,-5669.106685,-14063.912898,30274.423028
2101.742581,2757.943793,-4441.235652,25241.022622
2101.742898,7890.783629,2368.659014,16210.510130
2101.743216,13023.623466,10955.047942,5255.462188
2101.743533,15398.519510,17024.736666,-3182.885551
2101.743850,21374.064394,16062.468941,-1850.514855
2101.744168,21833.721693,24500.816680,-14508.036463
2101.744485,21910.331243,27461.640448,-21391.951724
2101.744803,13253.452115,21243.910535,-18949.272115
2101.745120,4979.620737,8216.285956,-4811.338623
2101.745438,-3907.087040,-4441.235652,3108.864956
2101.745755,-12640.575717,-12139.377449,12139.377449
2101.746072,-18003.244203,-16210.510130,18209.066173
2101.746390,-22293.378992,-19615.457463,22206.178260
2101.746707,-22293.378992,-25611.125593,30422.464216
2101.747025,-20378.140247,-26129.269753,36714.214723
2101.747342,-14632.424012,-21243.910535,32050.917289
2101.747659,-6588.421283,-12657.521608,29608.237680
2101.747977,1149.143247,-2590.720797,24870.919651
2101.748294,9882.631924,7550.100608,11473.192101
2101.748612,13176.842566,17246.798449,-370.102971
2101.748929,20454.749797,15988.448347,6587.832884
2101.749246,24744.884585,27313.599260,-12213.398043
2101.749564,27732.657028,32124.937883,-22280.198854
2101.749881,25740.808733,28719.990550,-20355.663405
2101.750199,16930.710506,21095.869347,-17098.757260
2101.750516,4749.792088,5181.441594,-8586.388927
2101.750834,-2834.553343,-5033.400406,13619.789333
2101.751151,-13406.671215,-11547.212695,15322.262999
2101.751468,-19841.873398,-16506.592507,18653.189738
2101.751786,-22523.207641,-22724.322419,26795.455100
2101.752103,-25127.932334,-25611.125593,34789.679274
2101.752421,-24438.446386,-27239.578666,39675.038491
2101.752738,-17543.586904,-21836.075289,32865.143825
2101.753055,-8273.831378,-7402.059420,30200.402434
2101.753373,1455.581446,3034.844362,25241.022622
2101.753690,9806.022374,10658.965565,11843.295072
2101.754008,12947.013916,16580.613101,3330.926739
2101.754325,23672.350888,19319.375086,4959.379811
2101.754642,28422.142976,27979.784608,-15914.427753
2101.754960,30643.819920,30496.484810,-22428.240043
2101.755277,29035.019374,26277.310941,-18949.272115
2101.755595,18999.168350,21762.054695,-20059.581028
2101.755912,7354.516781,8290.306550,-15396.283594
2101.756230,-1685.410096,-2442.679609,18505.148550
2101.756547,-12410.747068,-8586.388927,13915.871710
2101.756864,-19841.873398,-17246.798449,14211.954086
2101.757182,-24055.398637,-21910.095883,23982.672521
2101.757499,-30107.553071,-24574.837274,32421.020260
2101.757817,-26813.342430,-30126.381839,37528.441259
2101.758134,-20071.702048,-27387.619854,33975.452738
2101.758451,-15321.909960,-12435.459826,26425.352129
2101.758769,-6588.421283,-3108.864956,24870.919651
2101.759086,4673.182538,2812.782580,17394.839637
2101.759404,11951.089769,9992.780217,1332.370696
2101.759721,17543.586904,21836.075289,4515.256246
2101.760038,26813.342430,27905.764013,-10955.047942
2101.760356,28575.362075,33605.349767,-30718.546593
2101.760673,29111.628924,31384.731941,-19541.436869
2101.760991,21910.331243,22428.240043,-12731.542202
2101.761308,8273.831378,12805.562797,-17098.757260
2101.761626,-2604.724693,-4737.318029,4589.276840
2101.761943,-9729.412825,-8068.244768,19023.292709
2101.762260,-17696.806004,-19171.333898,18949.272115
2101.762578,-20837.797546,-22132.157666,24130.713709
2101.762895,-24438.446386,-23834.631332,30200.402434
2101.763213,-24208.617737,-28868.031738,37602.461854
2101.763530,-18999.168350,-26129.269753,31384.731941
2101.763847,-11108.384721,-14656.077652,23908.651927
2101.764165,-3830.477490,-3923.091493,24278.754898
2101.764482,3370.820191,814.226536,21243.910535
2101.764800,13330.061665,13397.727550,-3256.906145
2101.765117,18999.168350,22058.137072,-4515.256246
2101.765434,22293.378992,23834.631332,-9030.512492
2101.765752,26123.856482,29016.072926,-25981.228564
2101.766069,23672.350888,29608.237680,-21984.116477
2101.766387,18769.339701,19911.539840,-5033.400406
2101.766704,4213.525239,6957.935855,-9030.512492
2101.767022,-2604.724693,-3997.112087,5551.544565
2101.767339,-10955.165621,-8808.450710,21021.848753
2101.767656,-14938.862211,-19615.457463,24722.878463
2101.767974,-19458.825649,-23168.445985,23168.445985
2101.768291,-19305.606550,-22428.240043,30792.567187
2101.768609,-17237.148705,-24648.857869,35159.782245
2101.768926,-11338.213370,-19763.498651,27683.702231
2101.769243,-4596.572988,-7698.141797,25611.125593
2101.769561,4366.744339,-4071.132681,23686.590144
2101.769878,8350.440928,5329.482782,6661.853478
2101.770196,15321.909960,13841.851115,-2368.659014
2101.770513,21603.893044,21317.931130,-3849.070898
2101.770830,23902.179538,25759.166782,-15026.180623
2101.771148,25510.980083,29904.320057,-23464.528361
2101.771465,17466.977354,24574.837274,-20355.663405
2101.771783,9039.926876,10658.965565,-2442.679609
2101.772100,-2834.553343,-0.000000,1184.329507
2101.772418,-8273.831378,-6883.915261,10288.862594
2101.772735,-15398.519510,-15988.448347,21095.869347
2101.773052,-20454.749797,-19171.333898,23686.590144
2101.773370,-19918.482948,-22798.343014,29386.175897
2101.773687,-18922.558801,-24278.754898,35529.885216
2101.774005,-14172.766713,-20577.725188,31902.876100
2101.774322,-5745.716235,-10436.903782,26351.331535
2101.774639,2681.334243,-5403.503377,27757.722825
2101.774957,8810.098227,2812.782580,15174.221811
2101.775274,13406.671215,12065.356855,3404.947333
2101.775592,17466.977354,15618.345376,2960.823768
2101.775909,21910.331243,22502.260637,-10881.027347
2101.776226,23902.179538,28942.052332,-20207.622217
2101.776544,22216.769442,31162.670158,-20133.601622
2101.776861,13559.890315,21317.931130,-15396.283594
2101.777179,4749.792088,5625.565159,-4145.153275
2101.777496,-2987.772442,-1110.308913,4589.276840
2101.777814,-12487.356617,-11843.295072,15026.180623
2101.778131,-18769.339701,-18061.024985,19023.292709
2101.778448,-23289.303139,-22132.157666,23464.528361
2101.778766,-23595.741338,-28794.011144,36196.070564
2101.779083,-22446.598091,-27239.578666,40267.203245
2101.779401,-15628.348159,-20355.663405,31976.896694
2101.779718,-7277.907231,-10881.027347,23538.548956
2101.780035,2451.505594,-814.226536,24204.734303
2101.780353,8350.440928,-962.267725,21465.972318
2101.780670,11568.042020,13693.809927,-370.102971
2101.780988,19152.387450,19023.292709,-1110.308913
2101.781305,26353.685131,28275.866984,-13249.686362
2101.781622,27579.437928,31828.855506,-27313.599260
2101.781940,25664.199183,27535.661042,-21317.931130
2101.782257,16241.224558,23094.425390,-16580.613101
2101.782575,4213.525239,5995.668130,-12953.603985
2101.782892,-3294.210641,-5403.503377,15544.324782
2101.783210,-13023.623466,-10584.944971,15914.427753
2101.783527,-18386.291952,-18505.148550,16802.674883
2101.783844,-23902.179538,-24204.734303,24574.837274
2101.784162,-26047.246932,-28275.866984,34493.596897
2101.784479,-22599.817191,-30348.443622,40489.265027
2101.784797,-14249.376263,-24352.775492,32346.999665
2101.785114,-9269.755526,-10955.047942,22798.343014
2101.785431,1685.410096,-222.061783,24796.899057
2101.785749,6665.030833,-444.123565,21317.931130
2101.786066,13330.061665,10288.862594,-3182.885551
2101.786384,19688.654299,21021.848753,1702.473667
2101.786701,26966.561530,27387.619854,-13915.871710
2101.787018,29954.333972,31976.896694,-27239.578666
2101.787336,27502.828378,32643.082042,-25685.146187
2101.787653,21986.940793,25907.207970,-14730.098246
2101.787971,8427.050478,7698.141797,-16802.674883
2101.788288,-2604.724693,-7402.059420,12509.480420
2101.788606,-10572.117872,-12139.377449,18357.107362
2101.788923,-18539.511052,-23242.466579,20355.663405
2101.789240,-22829.645840,-23242.466579,26943.496289
2101.789558,-25357.760984,-26721.434506,33161.226202
2101.789875,-22906.255390,-27165.558071,39897.100274
2101.790193,-16854.100956,-24722.878463,33753.390955
2101.790510,-11184.994271,-10658.965565,25389.063811
2101.790827,-2528.115143,-1406.391290,24352.775492
2101.791145,5439.278036,-740.205942,21688.034101
2101.791462,13176.842566,10732.986159,222.061783
2101.791780,19075.777900,16654.633695,4071.132681
2101.792097,27962.485677,23094.425390,-9696.697840
2101.792414,28805.190725,31458.752535,-26721.434506
2101.792732,30873.648569,31162.670158,-20503.704593
2101.793049,21450.673944,23982.672521,-15840.407159
2101.793367,10648.727422,10732.986159,-13175.665768
2101.793684,-2757.943793,-4885.359217,3701.029710
2101.794002,-11108.384721,-8660.409521,20725.766376
2101.794319,-16700.881856,-21762.054695,22872.363608
2101.794636,-21757.112143,-20133.601622,25241.022622
2101.794954,-22140.159892,-21169.889941,30126.381839
2101.795271,-19918.482948,-22872.363608,36640.194129
2101.795589,-17007.320056,-20207.622217,29238.134709
2101.795906,-9116.536426,-13693.809927,25611.125593
2101.796223,-2145.067394,-5921.647536,26943.496289
2101.796541,3447.429741,-1776.494261,19615.457463
2101.796858,10725.336972,14359.995275,74.020594
2101.797176,16624.272307,18801.230927,-1702.473667
2101.797493,23442.522239,23982.672521,-9548.656652
2101.797810,25817.418283,31902.876100,-23908.651927
2101.798128,24744.884585,31532.773129,-21688.034101
2101.798445,16164.615008,24722.878463,-13471.748144
2101.798763,7354.516781,5255.462188,-666.185348
2101.799080,-5056.230287,-4737.318029,2812.782580
2101.799398,-11721.261119,-14656.077652,20947.828159
2101.799715,-19535.435199,-23686.590144,20207.622217
2101.800032,-24361.836836,-22354.219448,25167.002028
2101.800350,-21067.626195,-23242.466579,35011.741057
2101.800667,-21757.112143,-19763.498651,31384.731941
2101.800985,-13559.890315,-16876.695478,28868.031738
2101.801302,-6358.592633,-11177.109724,25537.104999
2101.801619,0.000000,-3182.885551,24500.816680
2101.801937,6128.763984,-444.123565,10510.924376
2101.802254,12870.404366,13841.851115,-296.082377
2101.802572,19305.606550,18801.230927,0.000000
2101.802889,24744.884585,24722.878463,-10288.862594
2101.803206,24974.713235,33161.226202,-24574.837274
2101.803524,23059.474490,28127.825796,-17172.777854
2101.803841,11338.213370,21095.869347,-12435.459826
2101.804159,4826.401637,2072.576638,1110.308913
2101.804476,-9269.755526,-4959.379811,5403.503377
2101.804794,-13023.623466,-14804.118840,23242.466579
2101.805111,-22369.988542,-22650.301825,20207.622217
2101.805428,-22523.207641,-24648.857869,27905.764013
2101.805746,-18156.463303,-21984.116477,37454.420665
2101.806063,-13866.328514,-17172.777854,31532.773129
2101.806381,-6511.811733,-12657.521608,23612.569550
2101.806698,612.876398,-5995.668130,24648.857869
2101.807015,4213.525239,-7328.038826,26055.249158
2101.807333,8886.707777,2368.659014,5921.647536
2101.807650,13559.890315,12065.356855,0.000000
2101.807968,23289.303139,18653.189738,-296.082377
2101.808285,26660.123330,29164.114115,-18209.066173
2101.808602,26736.732880,35307.823433,-26203.290347
2101.808920,21986.940793,30126.381839,-16358.551318
2101.809237,11184.994271,15248.242405,-14434.015869
2101.809555,612.876398,-518.144159,296.082377
2101.809872,-9039.926876,-10584.944971,11547.212695
2101.810190,-18462.901502,-17838.963202,15322.262999
2101.810507,-21757.112143,-22946.384202,21910.095883
2101.810824,-21910.331243,-23834.631332,31014.628970
2101.811142,-21220.845295,-21762.054695,34789.679274
2101.811459,-12410.747068,-18875.251521,31976.896694
2101.811777,-9499.584175,-10732.986159,24648.857869
2101.812094,842.705048,-7624.121203,26869.475695
2101.812411,5132.839837,-7105.977043,24056.693115
2101.812729,10035.851024,4441.235652,2294.638420
2101.813046,15321.909960,13619.789333,3552.988522
2101.813364,23059.474490,16136.489536,-2368.659014
2101.813681,28115.704777,32198.958477,-20059.581028
2101.813998,30260.772171,35751.946999,-22206.178260
2101.814316,23978.789087,29534.217086,-21317.931130
2101.814633,10495.508323,16876.695478,-18061.024985
2101.814951,-536.266849,-2442.679609,148.041188
2101.815268,-12640.575717,-12065.356855,12213.398043
2101.815586,-17926.634653,-20355.663405,19911.539840
2101.815903,-25204.541884,-24574.837274,22576.281231
2101.816220,-27579.437928,-25241.022622,29016.072926
2101.816538,-23289.303139,-25685.146187,41451.532752
2101.816855,-18769.339701,-22946.384202,35233.802839
2101.817173,-12257.527968,-16284.530724,29534.217086
2101.817490,-8044.002729,-8882.471304,23094.425390
2101.817807,2221.676944,-5329.482782,21317.931130
2101.818125,7354.516781,-1036.288319,18949.272115
2101.818442,11261.603821,11103.089130,1406.391290
2101.818760,22293.378992,23464.528361,-2368.659014
2101.819077,30797.039020,32272.979071,-18209.066173
2101.819394,32022.791816,35455.864622,-25907.207970
2101.819712,27349.609279,31828.855506,-21614.013506
2101.820029,16700.881856,20947.828159,-17764.942608
2101.820347,1378.971896,-0.000000,-11695.253884
2101.820664,-6052.154434,-12213.398043,16062.468941
2101.820981,-16547.662757,-19023.292709,21391.951724
2101.821299,-20684.578446,-22650.301825,18949.272115
2101.821616,-22753.036291,-23686.590144,27091.537477
2101.821934,-23978.789087,-22280.198854,38120.606013
2101.822251,-21144.235745,-22650.301825,35677.926404
2101.822568,-14096.157163,-19467.416275,30422.464216
2101.822886,-10572.117872,-12139.377449,22872.363608
2101.823203,-612.876398,-5107.421000,23242.466579
2101.823521,5286.058936,444.123565,17987.004391
2101.823838,14325.985813,14359.995275,3627.009116
2101.824155,23289.303139,24352.775492,-2960.823768
2101.824473,32022.791816,32791.123231,-18209.066173
