#time,accel_x,accel_y,accel_z
1513.347683,459.657299,-1702.473667,7550.100608
1513.348001,0.000000,-1480.411884,7994.224174
1513.348318,153.219100,-814.226536,8364.327145
1513.348635,-306.438199,-444.123565,7846.182985
1513.348952,0.000000,-0.000000,7624.121203
1513.349270,0.000000,-0.000000,7105.977043
1513.349587,0.000000,-222.061783,7624.121203
1513.349904,76.609550,-370.102971,7920.203579
1513.350222,153.219100,-148.041188,8364.327145
1513.350539,-536.266849,-518.144159,8660.409521
1513.350856,-1302.362347,-222.061783,9622.677246
1513.351174,-1762.019645,-296.082377,9770.718434
1513.351491,-1991.848295,-148.041188,9770.718434
1513.351808,-1762.019645,296.082377,10066.800811
1513.352125,-1608.800546,444.123565,10214.842000
1513.352443,-1455.581446,370.102971,10066.800811
1513.352760,-1378.971896,370.102971,9918.759623
1513.353077,-1915.238745,-0.000000,10140.821405
1513.353395,-1608.800546,-0.000000,10362.883188
1513.353712,-1991.848295,-74.020594,10732.986159
1513.354029,-2145.067394,-148.041188,11621.233289
1513.354347,-2068.457845,-1184.329507,12583.501014
1513.354664,-2528.115143,-518.144159,12213.398043
1513.354981,-1608.800546,-296.082377,12361.439231
1513.355298,-1685.410096,814.226536,11103.089130
1513.355616,-689.485948,1332.370696,10362.883188
1513.355933,76.609550,962.267725,9992.780217
1513.356250,-306.438199,1332.370696,9622.677246
1513.356568,-153.219100,1258.350101,9474.636058
1513.356885,-612.876398,814.226536,9252.574275
1513.357202,-766.095498,-0.000000,9548.656652
1513.357520,-1532.190996,-148.041188,10066.800811
1513.357837,-2451.505594,-222.061783,9770.718434
1513.358154,-2681.334243,-666.185348,10066.800811
1513.358471,-2604.724693,-666.185348,10066.800811
1513.358789,-2145.067394,-444.123565,9696.697840
1513.359106,-2145.067394,-518.144159,9474.636058
1513.359423,-1838.629195,-592.164754,9622.677246
1513.359741,-1762.019645,-1036.288319,9696.697840
1513.360058,-1762.019645,-962.267725,9918.759623
1513.360375,-1685.410096,-740.205942,9474.636058
1513.360693,-1532.190996,-518.144159,9474.636058
1513.361010,-1608.800546,-148.041188,9178.553681
1513.361327,-1378.971896,-740.205942,9326.594869
1513.361644,-1532.190996,-2146.597232,9548.656652
1513.361962,-1225.752797,-2886.803174,9992.780217
1513.362279,-689.485948,-4219.173869,9918.759623
1513.362596,-689.485948,-4737.318029,10658.965565
1513.362914,-1149.143247,-5181.441594,10732.986159
1513.363231,-766.095498,-5181.441594,10955.047942
1513.363548,-536.266849,-5255.462188,10955.047942
1513.363866,-919.314598,-4959.379811,10955.047942
1513.364183,-1225.752797,-4737.318029,10658.965565
1513.364500,-1608.800546,-4515.256246,9992.780217
1513.364817,-1302.362347,-4515.256246,10288.862594
1513.365135,-1838.629195,-5181.441594,10658.965565
1513.365452,-1838.629195,-5403.503377,10140.821405
1513.365769,-1532.190996,-5699.585753,10436.903782
1513.366087,-459.657299,-5403.503377,11251.130318
1513.366404,1149.143247,-4959.379811,11547.212695
1513.366721,1915.238745,-3997.112087,10658.965565
1513.367039,2451.505594,-2812.782580,9474.636058
1513.367356,2374.896044,-2516.700203,8882.471304
1513.367673,1685.410096,-1554.432478,7031.956449
1513.367990,1302.362347,-444.123565,5699.585753
1513.368308,383.047749,-370.102971,4589.276840
1513.368625,-689.485948,-1628.453072,6069.688724
1513.368942,-1685.410096,-3478.967927,7254.018232
1513.369260,-3217.601092,-5107.421000,8216.285956
1513.369577,-4443.353888,-5699.585753,8734.430116
1513.369894,-5822.325785,-6513.812290,9474.636058
1513.370212,-6818.249932,-5921.647536,9474.636058
1513.370529,-7354.516781,-4737.318029,9474.636058
1513.370846,-7737.564530,-4145.153275,9770.718434
1513.371163,-7354.516781,-3701.029710,9918.759623
1513.371481,-6741.640382,-3404.947333,9474.636058
1513.371798,-6665.030833,-2590.720797,9104.533087
1513.372115,-5745.716235,-2886.803174,9252.574275
1513.372433,-4903.011187,-3330.926739,9696.697840
1513.372750,-3677.258390,-2886.803174,8808.450710
1513.373067,-2145.067394,-2442.679609,7920.203579
1513.373385,-536.266849,-2664.741391,7920.203579
1513.373702,1149.143247,-2812.782580,8512.368333
1513.374019,2374.896044,-3034.844362,8882.471304
1513.374336,3217.601092,-2516.700203,8290.306550
1513.374654,3064.381992,-1554.432478,7624.121203
1513.374971,3294.210641,-1554.432478,8290.306550
1513.375288,3524.039291,-1702.473667,9104.533087
1513.375606,3753.867940,-1554.432478,9400.615463
1513.375923,4979.620737,-814.226536,10658.965565
1513.376240,5669.106685,148.041188,10732.986159
1513.376558,6741.640382,888.247130,10066.800811
1513.376875,7354.516781,2368.659014,9252.574275
1513.377192,7814.174080,3552.988522,7846.182985
1513.377509,7737.564530,3849.070898,7105.977043
1513.377827,6741.640382,4145.153275,6365.771101
1513.378144,6665.030833,3849.070898,7254.018232
1513.378461,5439.278036,2960.823768,9252.574275
1513.378779,4903.011187,2146.597232,11399.171507
1513.379096,4060.306139,1628.453072,12139.377449
1513.379413,3294.210641,2368.659014,12213.398043
1513.379731,2911.162892,4145.153275,11473.192101
1513.380048,2681.334243,6143.709319,8882.471304
1513.380365,2757.943793,7550.100608,7031.956449
1513.380682,2528.115143,7624.121203,6513.812290
1513.381000,1302.362347,7031.956449,6661.853478
1513.381317,689.485948,4663.297435,7846.182985
1513.381634,-766.095498,3108.864956,9030.512492
1513.381952,-1685.410096,1628.453072,10881.027347
1513.382269,-2604.724693,814.226536,11843.295072
1513.382586,-2834.553343,1258.350101,11769.274478
1513.382904,-3447.429741,2220.617826,10807.006753
1513.383221,-3217.601092,3182.885551,9696.697840
1513.383538,-3677.258390,4515.256246,8660.409521
1513.383855,-3907.087040,4811.338623,8438.347739
1513.384173,-4519.963438,3701.029710,9474.636058
1513.384490,-6052.154434,1776.494261,11325.150913
1513.384807,-6971.469032,-222.061783,13027.624579
1513.385124,-7431.126331,-1628.453072,14730.098246
1513.385441,-7354.516781,-1554.432478,15026.180623
1513.385759,-6435.202183,-592.164754,15100.201217
1513.386076,-5056.230287,962.267725,13989.892304
1513.386393,-3524.039291,2220.617826,12065.356855
1513.386710,-1225.752797,2590.720797,10362.883188
1513.387027,153.219100,1702.473667,10066.800811
1513.387345,383.047749,518.144159,9918.759623
1513.387662,689.485948,-1110.308913,10214.842000
1513.387979,919.314598,-2368.659014,11177.109724
1513.388296,919.314598,-3182.885551,12213.398043
1513.388614,1149.143247,-2886.803174,12361.439231
1513.388931,1532.190996,-2146.597232,11695.253884
1513.389248,1915.238745,-1258.350101,10881.027347
1513.389565,2987.772442,-444.123565,9326.594869
1513.389882,3524.039291,-666.185348,8660.409521
1513.390200,4213.525239,-1702.473667,8660.409521
1513.390517,3907.087040,-2590.720797,8734.430116
1513.390834,3983.696590,-4071.132681,9400.615463
1513.391151,3907.087040,-4515.256246,10510.924376
1513.391468,3983.696590,-3997.112087,10288.862594
1513.391786,4136.915689,-3034.844362,9252.574275
1513.392103,4366.744339,-2368.659014,8734.430116
1513.392420,4519.963438,-1776.494261,7994.224174
1513.392737,4903.011187,-1554.432478,6735.874072
1513.393055,4749.792088,-1258.350101,6217.729913
1513.393372,4060.306139,-2590.720797,5995.668130
1513.393689,3830.477490,-3478.967927,6143.709319
1513.394006,2987.772442,-4071.132681,6809.894666
1513.394323,2221.676944,-4515.256246,7105.977043
1513.394641,1455.581446,-5329.482782,7772.162391
1513.394958,689.485948,-4811.338623,8660.409521
1513.395275,306.438199,-3849.070898,8216.285956
1513.395592,229.828649,-3627.009116,8142.265362
1513.395910,0.000000,-2812.782580,7328.038826
1513.396227,689.485948,-2664.741391,7402.059420
1513.396544,842.705048,-1998.556043,7105.977043
1513.396861,766.095498,-1924.535449,6513.812290
1513.397178,919.314598,-1554.432478,6587.832884
1513.397496,842.705048,-1554.432478,6809.894666
1513.397813,229.828649,-1036.288319,7105.977043
1513.398130,383.047749,-1554.432478,7994.224174
1513.398447,-459.657299,-1258.350101,7772.162391
1513.398764,-612.876398,-1332.370696,8586.388927
1513.399082,-842.705048,-592.164754,8216.285956
1513.399399,-536.266849,-666.185348,7920.203579
1513.399716,-383.047749,222.061783,7920.203579
1513.400033,-536.266849,814.226536,7772.162391
1513.400351,153.219100,1628.453072,7920.203579
1513.400668,229.828649,1998.556043,7846.182985
1513.400985,-383.047749,2146.597232,8290.306550
1513.401302,-306.438199,1924.535449,8882.471304
1513.401619,-306.438199,2812.782580,8142.265362
1513.401937,-612.876398,2886.803174,8586.388927
1513.402254,-459.657299,2516.700203,9178.553681
1513.402571,-383.047749,2442.679609,9030.512492
1513.402888,0.000000,2664.741391,9326.594869
1513.403205,-612.876398,3108.864956,9474.636058
1513.403523,-995.924147,2960.823768,10362.883188
1513.403840,-1225.752797,3330.926739,10436.903782
1513.404157,-2145.067394,3701.029710,10214.842000
1513.404474,-2068.457845,4071.132681,10881.027347
1513.404792,-2451.505594,3627.009116,10881.027347
1513.405109,-2374.896044,3404.947333,11325.150913
1513.405426,-1378.971896,3182.885551,12065.356855
1513.405743,-1608.800546,3108.864956,12879.583391
1513.406060,-842.705048,2516.700203,12731.542202
1513.406378,-229.828649,3034.844362,12435.459826
1513.406695,0.000000,3182.885551,12287.418637
1513.407012,1225.752797,3256.906145,11769.274478
1513.407329,1608.800546,3330.926739,11399.171507
1513.407646,2221.676944,3849.070898,11399.171507
1513.407964,2145.067394,3701.029710,11695.253884
1513.408281,2528.115143,3182.885551,11621.233289
1513.408598,2451.505594,2072.576638,12583.501014
1513.408915,2298.286494,1776.494261,12805.562797
1513.409233,2451.505594,2220.617826,12435.459826
1513.409550,3294.210641,2590.720797,12139.377449
1513.409867,3907.087040,3182.885551,11399.171507
1513.410184,4519.963438,2442.679609,11103.089130
1513.410501,5056.230287,3552.988522,10436.903782
1513.410819,4979.620737,2590.720797,10288.862594
1513.411136,4903.011187,1776.494261,10066.800811
1513.411453,4519.963438,1036.288319,9992.780217
1513.411770,4443.353888,1776.494261,9696.697840
1513.412087,3830.477490,1184.329507,10066.800811
1513.412405,3524.039291,592.164754,10362.883188
1513.412722,3830.477490,370.102971,9622.677246
1513.413039,3600.648841,888.247130,8956.491898
1513.413356,3370.820191,814.226536,8660.409521
1513.413674,2834.553343,-74.020594,8808.450710
1513.413991,2221.676944,-666.185348,7772.162391
1513.414308,1072.533697,-962.267725,7698.141797
1513.414625,153.219100,-1184.329507,8142.265362
1513.414942,-689.485948,-1628.453072,8586.388927
1513.415260,-995.924147,-1776.494261,8586.388927
1513.415577,-1149.143247,-2368.659014,9030.512492
1513.415894,-1608.800546,-2516.700203,9474.636058
1513.416211,-1225.752797,-2146.597232,8586.388927
1513.416528,-919.314598,-2072.576638,7550.100608
1513.416846,-612.876398,-1776.494261,7105.977043
1513.417163,-383.047749,-1184.329507,6587.832884
1513.417480,-306.438199,-1554.432478,6143.709319
1513.417797,-842.705048,-1332.370696,6439.791695
1513.418115,-842.705048,-1480.411884,6957.935855
1513.418432,-1225.752797,-1702.473667,7254.018232
1513.418749,-1838.629195,-2146.597232,8290.306550
1513.419066,-1762.019645,-2368.659014,8364.327145
1513.419383,-1302.362347,-1850.514855,8142.265362
1513.419701,-612.876398,-1184.329507,7624.121203
1513.420018,76.609550,-592.164754,6957.935855
1513.420335,612.876398,-0.000000,6809.894666
1513.420652,1072.533697,592.164754,6735.874072
1513.420969,1302.362347,518.144159,7031.956449
1513.421287,995.924147,222.061783,7846.182985
1513.421604,995.924147,518.144159,8512.368333
1513.421921,919.314598,740.205942,8438.347739
1513.422238,1455.581446,1184.329507,9178.553681
1513.422556,1608.800546,1184.329507,9252.574275
1513.422873,2145.067394,1258.350101,9030.512492
1513.423190,2681.334243,962.267725,8660.409521
1513.423507,3064.381992,1702.473667,8956.491898
1513.423824,2681.334243,1628.453072,8734.430116
1513.424142,2834.553343,1850.514855,8882.471304
1513.424459,2298.286494,1480.411884,9326.594869
1513.424776,1762.019645,1554.432478,9844.739029
1513.425093,1532.190996,1184.329507,10436.903782
1513.425410,1225.752797,1480.411884,10732.986159
1513.425728,1302.362347,1628.453072,11029.068536
1513.426045,1762.019645,1850.514855,11473.192101
1513.426362,1838.629195,1554.432478,11251.130318
1513.426679,2068.457845,1036.288319,11325.150913
1513.426997,1991.848295,1776.494261,11621.233289
1513.427314,1762.019645,1776.494261,11251.130318
1513.427631,1532.190996,2294.638420,10955.047942
1513.427948,842.705048,1702.473667,11029.068536
1513.428265,612.876398,1924.535449,11621.233289
1513.428583,229.828649,1850.514855,11843.295072
1513.428900,153.219100,1628.453072,12361.439231
1513.429217,0.000000,1850.514855,11917.315666
1513.429534,76.609550,1924.535449,11547.212695
1513.429851,153.219100,2368.659014,10955.047942
1513.430169,459.657299,2664.741391,10362.883188
1513.430486,536.266849,2812.782580,10066.800811
1513.430803,536.266849,3034.844362,9622.677246
1513.431120,306.438199,2886.803174,10140.821405
1513.431438,306.438199,2220.617826,10362.883188
1513.431755,-229.828649,1850.514855,10584.944971
1513.432072,-229.828649,1776.494261,10510.924376
1513.432389,76.609550,1776.494261,10436.903782
1513.432706,0.000000,2442.679609,9696.697840
1513.433024,459.657299,2220.617826,9400.615463
1513.433341,536.266849,2368.659014,8882.471304
1513.433658,919.314598,2294.638420,8438.347739
1513.433975,1149.143247,1702.473667,8290.306550
1513.434292,383.047749,1258.350101,8438.347739
1513.434610,76.609550,592.164754,8216.285956
1513.434927,-229.828649,-0.000000,8438.347739
1513.435244,-689.485948,-444.123565,8956.491898
1513.435561,-689.485948,-1332.370696,9400.615463
1513.435879,-612.876398,-1184.329507,9548.656652
1513.436196,0.000000,-1036.288319,9474.636058
1513.436513,306.438199,-814.226536,9104.533087
1513.436830,689.485948,-814.226536,8734.430116
1513.437147,1302.362347,-888.247130,8438.347739
1513.437465,1225.752797,-518.144159,8216.285956
1513.437782,1072.533697,-1110.308913,8216.285956
1513.438099,1149.143247,-1332.370696,8364.327145
1513.438416,766.095498,-1258.350101,8734.430116
1513.438734,1455.581446,-2294.638420,9474.636058
1513.439051,1302.362347,-2442.679609,9104.533087
1513.439368,1149.143247,-2516.700203,9400.615463
1513.439685,1991.848295,-2146.597232,8956.491898
1513.440002,2221.676944,-1480.411884,8068.244768
1513.440320,2451.505594,-1702.473667,8216.285956
1513.440637,2604.724693,-1406.391290,7994.224174
1513.440954,2374.896044,-1258.350101,7994.224174
1513.441271,1838.629195,-1332.370696,8068.244768
1513.441588,1225.752797,-1554.432478,9104.533087
1513.441906,1302.362347,-1776.494261,9030.512492
1513.442223,1225.752797,-1776.494261,8956.491898
1513.442540,842.705048,-1924.535449,9252.574275
1513.442857,1838.629195,-1776.494261,9030.512492
1513.443175,1762.019645,-1258.350101,8882.471304
1513.443492,1838.629195,-740.205942,8586.388927
1513.443809,1838.629195,-888.247130,8216.285956
1513.444126,1608.800546,-814.226536,8290.306550
1513.444443,1762.019645,-666.185348,8142.265362
1513.444761,919.314598,-370.102971,8290.306550
1513.445078,383.047749,-296.082377,8586.388927
1513.445395,383.047749,-148.041188,9178.553681
1513.445712,383.047749,-74.020594,9622.677246
1513.446029,306.438199,-296.082377,10214.842000
1513.446347,536.266849,-148.041188,10140.821405
1513.446664,536.266849,-222.061783,10140.821405
1513.446981,1072.533697,-0.000000,9992.780217
1513.447298,1455.581446,-148.041188,9918.759623
1513.447616,1149.143247,518.144159,9844.739029
1513.447933,612.876398,518.144159,9918.759623
1513.448250,536.266849,814.226536,10362.883188
1513.448567,459.657299,962.267725,10362.883188
1513.448884,153.219100,814.226536,10807.006753
1513.449202,76.609550,-0.000000,11251.130318
1513.449519,0.000000,518.144159,10807.006753
1513.449836,306.438199,740.205942,10584.944971
1513.450153,766.095498,962.267725,10584.944971
1513.450470,1072.533697,592.164754,10066.800811
1513.450788,536.266849,1332.370696,9844.739029
1513.451105,689.485948,1628.453072,9918.759623
1513.451422,76.609550,1332.370696,10436.903782
1513.451739,-229.828649,1184.329507,10658.965565
1513.452057,-536.266849,1110.308913,10807.006753
1513.452374,-919.314598,962.267725,10584.944971
1513.452691,-842.705048,814.226536,10584.944971
1513.453008,-842.705048,962.267725,10362.883188
1513.453325,-536.266849,1110.308913,9992.780217
1513.453643,-229.828649,1184.329507,9474.636058
1513.453960,-383.047749,1332.370696,9326.594869
1513.454277,-612.876398,1628.453072,8734.430116
1513.454594,-842.705048,1702.473667,8882.471304
1513.454911,-1302.362347,1480.411884,8734.430116
1513.455229,-2298.286494,962.267725,9400.615463
1513.455546,-1608.800546,814.226536,9474.636058
1513.455863,-1532.190996,814.226536,9844.739029
1513.456180,-766.095498,962.267725,9770.718434
1513.456498,0.000000,740.205942,9474.636058
1513.456815,306.438199,222.061783,9178.553681
1513.457132,689.485948,296.082377,8808.450710
1513.457449,919.314598,518.144159,8586.388927
1513.457766,1149.143247,592.164754,8438.347739
1513.458084,919.314598,-0.000000,8734.430116
1513.458401,766.095498,-148.041188,9030.512492
1513.458718,536.266849,-592.164754,9400.615463
1513.459035,612.876398,-1332.370696,9770.718434
1513.459352,689.485948,-1850.514855,9992.780217
1513.459670,1072.533697,-2220.617826,9622.677246
1513.459987,1455.581446,-2220.617826,9474.636058
1513.460304,1915.238745,-2368.659014,9400.615463
1513.460621,2068.457845,-2146.597232,9252.574275
1513.460939,2451.505594,-1850.514855,9030.512492
1513.461256,2681.334243,-1702.473667,8734.430116
1513.461573,2298.286494,-1406.391290,8660.409521
1513.461890,2145.067394,-1850.514855,8956.491898
1513.462207,1762.019645,-1850.514855,9326.594869
1513.462525,1838.629195,-2220.617826,9252.574275
1513.462842,1838.629195,-2220.617826,9104.533087
1513.463159,1762.019645,-2072.576638,8586.388927
1513.463476,1915.238745,-1850.514855,8364.327145
1513.463793,1991.848295,-1998.556043,8290.306550
1513.464111,1225.752797,-1850.514855,8142.265362
1513.464428,1532.190996,-1628.453072,8142.265362
1513.464745,306.438199,-1628.453072,8068.244768
1513.465062,153.219100,-1406.391290,8438.347739
1513.465380,-306.438199,-1332.370696,8734.430116
1513.465697,-919.314598,-1480.411884,8734.430116
1513.466014,-995.924147,-1406.391290,9104.533087
1513.466331,-536.266849,-1258.350101,9252.574275
1513.466648,0.000000,-888.247130,9178.553681
1513.466966,383.047749,-666.185348,8734.430116
1513.467283,1072.533697,-74.020594,8586.388927
1513.467600,612.876398,222.061783,8216.285956
1513.467917,842.705048,-74.020594,8216.285956
1513.468234,459.657299,-0.000000,8290.306550
1513.468552,612.876398,296.082377,8734.430116
1513.468869,0.000000,-0.000000,8882.471304
1513.469186,0.000000,-222.061783,9622.677246
1513.469503,-229.828649,-518.144159,10140.821405
1513.469821,0.000000,-296.082377,10140.821405
1513.470138,766.095498,-296.082377,10066.800811
1513.470455,766.095498,444.123565,10140.821405
1513.470772,842.705048,740.205942,10214.842000
1513.471089,1532.190996,1702.473667,9696.697840
1513.471407,1302.362347,1554.432478,9844.739029
1513.471724,1302.362347,1702.473667,10066.800811
1513.472041,1302.362347,1850.514855,10288.862594
1513.472358,1532.190996,1776.494261,10510.924376
1513.472675,1455.581446,1628.453072,10881.027347
1513.472993,1608.800546,1480.411884,10584.944971
1513.473310,1915.238745,1332.370696,10510.924376
1513.473627,1685.410096,1406.391290,10214.842000
1513.473944,1608.800546,1628.453072,9770.718434
1513.474262,1378.971896,1702.473667,9696.697840
1513.474579,995.924147,2590.720797,9844.739029
1513.474896,306.438199,1998.556043,10066.800811
1513.475213,-459.657299,1554.432478,9918.759623
1513.475530,-842.705048,1332.370696,10732.986159
1513.475848,-1149.143247,1036.288319,10510.924376
1513.476165,-1072.533697,1406.391290,11103.089130
1513.476482,-612.876398,1184.329507,10807.006753
1513.476799,-306.438199,1184.329507,10732.986159
1513.477116,76.609550,1702.473667,9918.759623
1513.477434,383.047749,1554.432478,9252.574275
1513.477751,612.876398,1628.453072,8956.491898
1513.478068,919.314598,1924.535449,8734.430116
1513.478385,306.438199,1628.453072,8882.471304
1513.478703,306.438199,1184.329507,9104.533087
1513.479020,-153.219100,518.144159,9548.656652
1513.479337,0.000000,-74.020594,9696.697840
1513.479654,0.000000,-0.000000,9770.718434
1513.479971,306.438199,-148.041188,9770.718434
1513.480289,306.438199,-148.041188,9326.594869
1513.480606,459.657299,-222.061783,9252.574275
1513.480923,689.485948,592.164754,8808.450710
1513.481240,766.095498,666.185348,8660.409521
1513.481558,1072.533697,222.061783,8586.388927
1513.481875,536.266849,-148.041188,9252.574275
1513.482192,1225.752797,-74.020594,9548.656652
1513.482509,536.266849,-370.102971,9474.636058
1513.482826,766.095498,-592.164754,9622.677246
1513.483144,919.314598,-444.123565,9400.615463
1513.483461,1532.190996,-444.123565,8956.491898
1513.483778,2221.676944,-222.061783,8734.430116
1513.484095,1455.581446,-444.123565,8290.306550
1513.484412,1991.848295,-518.144159,8142.265362
1513.484730,1302.362347,-518.144159,8216.285956
1513.485047,1072.533697,-814.226536,8216.285956
1513.485364,76.609550,-1110.308913,9178.553681
1513.485682,306.438199,-1628.453072,9474.636058
1513.485999,153.219100,-1628.453072,9474.636058
1513.486316,383.047749,-1776.494261,9474.636058
1513.486634,995.924147,-1480.411884,9252.574275
1513.486951,1532.190996,-1110.308913,8882.471304
1513.487268,1685.410096,-444.123565,8364.327145
1513.487586,1532.190996,-222.061783,8068.244768
1513.487903,1685.410096,-444.123565,7994.224174
1513.488220,1455.581446,-296.082377,7994.224174
1513.488538,1302.362347,-296.082377,8438.347739
1513.488855,842.705048,-148.041188,9178.553681
1513.489172,842.705048,-370.102971,9252.574275
1513.489490,383.047749,-148.041188,9474.636058
1513.489807,766.095498,-0.000000,9400.615463
1513.490124,536.266849,148.041188,8808.450710
1513.490442,1149.143247,444.123565,9030.512492
1513.490759,689.485948,-0.000000,9178.553681
1513.491076,766.095498,370.102971,9030.512492
1513.491394,995.924147,740.205942,9474.636058
1513.491711,689.485948,962.267725,9622.677246
1513.492028,306.438199,962.267725,9770.718434
1513.492346,306.438199,1702.473667,9918.759623
1513.492663,612.876398,1554.432478,9992.780217
1513.492980,76.609550,1110.308913,9918.759623
1513.493298,766.095498,1184.329507,9992.780217
1513.493615,1149.143247,1850.514855,9474.636058
1513.493932,995.924147,1480.411884,9548.656652
1513.494250,919.314598,1406.391290,9622.677246
1513.494567,689.485948,1258.350101,9918.759623
1513.494884,459.657299,1554.432478,9844.739029
1513.495202,0.000000,1850.514855,10066.800811
1513.495519,153.219100,1998.556043,10362.883188
1513.495836,153.219100,1628.453072,10288.862594
1513.496154,229.828649,1776.494261,10881.027347
1513.496471,383.047749,1628.453072,10510.924376
1513.496788,1455.581446,1628.453072,10510.924376
1513.497106,1532.190996,1480.411884,10066.800811
1513.497423,1915.238745,1776.494261,9992.780217
1513.497740,1915.238745,2072.576638,9770.718434
1513.498058,1685.410096,1776.494261,9474.636058
1513.498375,1608.800546,1702.473667,9918.759623
1513.498692,1455.581446,1924.535449,10140.821405
1513.499010,1455.581446,1554.432478,10066.800811
1513.499327,1149.143247,1406.391290,10214.842000
1513.499644,1455.581446,1184.329507,10436.903782
1513.499962,1225.752797,1184.329507,10066.800811
1513.500279,1302.362347,1258.350101,9770.718434
1513.500596,1378.971896,1258.350101,9622.677246
1513.500914,1455.581446,1110.308913,9622.677246
1513.501231,1378.971896,1406.391290,9696.697840
1513.501548,1225.752797,1184.329507,9474.636058
1513.501866,1072.533697,1184.329507,9770.718434
1513.502183,766.095498,1036.288319,9696.697840
1513.502500,459.657299,962.267725,9474.636058
1513.502818,689.485948,888.247130,9474.636058
1513.503135,689.485948,740.205942,9400.615463
1513.503452,842.705048,296.082377,9178.553681
1513.503770,919.314598,370.102971,8956.491898
1513.504087,842.705048,296.082377,8882.471304
1513.504404,689.485948,222.061783,8882.471304
1513.504722,459.657299,296.082377,8956.491898
1513.505039,383.047749,370.102971,8882.471304
1513.505356,0.000000,370.102971,8808.450710
1513.505674,153.219100,370.102971,8512.368333
1513.505991,0.000000,370.102971,8956.491898
1513.506308,153.219100,-0.000000,8956.491898
1513.506626,229.828649,-0.000000,8882.471304
1513.506943,536.266849,-370.102971,9030.512492
1513.507260,842.705048,-370.102971,8956.491898
1513.507578,1149.143247,-222.061783,8586.388927
1513.507895,995.924147,296.082377,8512.368333
1513.508212,1455.581446,296.082377,8364.327145
1513.508530,1302.362347,666.185348,8290.306550
1513.508847,1302.362347,296.082377,8364.327145
1513.509164,1378.971896,-222.061783,8142.265362
1513.509482,1915.238745,-296.082377,8882.471304
1513.509799,995.924147,-444.123565,9178.553681
1513.510116,1149.143247,-888.247130,9326.594869
1513.510434,1225.752797,-814.226536,9326.594869
1513.510751,1149.143247,-962.267725,9326.594869
1513.511068,1532.190996,-962.267725,9622.677246
1513.511386,1378.971896,-370.102971,9326.594869
1513.511703,1685.410096,-0.000000,9326.594869
1513.512020,1455.581446,-74.020594,9104.533087
1513.512338,1378.971896,-296.082377,9548.656652
1513.512655,1455.581446,-592.164754,9400.615463
1513.512972,1149.143247,-296.082377,9474.636058
1513.513290,919.314598,-444.123565,9474.636058
1513.513607,1302.362347,-148.041188,9474.636058
1513.513924,1838.629195,-148.041188,9326.594869
1513.514242,1072.533697,-74.020594,9178.553681
1513.514559,995.924147,-148.041188,8882.471304
1513.514876,536.266849,-148.041188,9030.512492
1513.515194,306.438199,-0.000000,8956.491898
1513.515511,0.000000,148.041188,9400.615463
1513.515828,-459.657299,-0.000000,9474.636058
1513.516146,-383.047749,-0.000000,9992.780217
1513.516463,-536.266849,-0.000000,10214.842000
1513.516780,0.000000,222.061783,10288.862594
1513.517098,76.609550,222.061783,10214.842000
1513.517415,229.828649,666.185348,10066.800811
1513.517732,919.314598,1184.329507,9622.677246
1513.518050,1149.143247,1332.370696,9474.636058
1513.518367,995.924147,1406.391290,9178.553681
1513.518684,1225.752797,1258.350101,8734.430116
1513.519002,919.314598,1480.411884,9178.553681
1513.519319,995.924147,962.267725,9104.533087
1513.519636,995.924147,518.144159,9918.759623
1513.519954,766.095498,-222.061783,10510.924376
1513.520271,995.924147,-148.041188,10584.944971
1513.520588,1072.533697,-0.000000,10288.862594
1513.520906,1225.752797,-0.000000,10066.800811
1513.521223,1378.971896,444.123565,10214.842000
1513.521540,1762.019645,1110.308913,9844.739029
1513.521858,1608.800546,1184.329507,9548.656652
1513.522175,1455.581446,1036.288319,9696.697840
1513.522492,1225.752797,370.102971,10288.862594
1513.522810,1072.533697,370.102971,10214.842000
1513.523127,1378.971896,-0.000000,10288.862594
1513.523444,919.314598,-0.000000,10658.965565
1513.523762,919.314598,-0.000000,9918.759623
1513.524079,842.705048,666.185348,9548.656652
1513.524396,1072.533697,592.164754,9326.594869
1513.524714,919.314598,962.267725,9178.553681
1513.525031,689.485948,666.185348,9178.553681
1513.525348,76.609550,592.164754,8956.491898
1513.525666,-306.438199,296.082377,9400.615463
1513.525983,-689.485948,-0.000000,9474.636058
1513.526300,-919.314598,-0.000000,9844.739029
1513.526618,-919.314598,370.102971,9844.739029
1513.526935,-766.095498,666.185348,9548.656652
1513.527252,76.609550,518.144159,9696.697840
1513.527570,536.266849,666.185348,9400.615463
1513.527887,766.095498,1184.329507,8364.327145
1513.528204,1072.533697,1332.370696,7994.224174
1513.528522,1225.752797,1332.370696,8068.244768
1513.528839,919.314598,1036.288319,8216.285956
1513.529156,689.485948,1110.308913,7920.203579
1513.529474,383.047749,370.102971,8364.327145
1513.529791,76.609550,148.041188,8882.471304
1513.530108,459.657299,-666.185348,8956.491898
1513.530426,536.266849,-444.123565,9252.574275
1513.530743,766.095498,-444.123565,9326.594869
1513.531060,383.047749,-444.123565,9030.512492
1513.531378,842.705048,-592.164754,9326.594869
1513.531695,995.924147,-74.020594,9252.574275
1513.532012,1302.362347,-148.041188,8956.491898
1513.532330,1378.971896,-222.061783,9474.636058
1513.532647,1302.362347,-148.041188,9770.718434
1513.532965,1838.629195,-74.020594,9400.615463
1513.533282,1762.019645,-74.020594,9474.636058
1513.533599,2298.286494,-592.164754,9696.697840
1513.533917,2451.505594,-592.164754,9474.636058
1513.534234,1915.238745,-444.123565,9104.533087
1513.534551,1838.629195,-592.164754,8586.388927
1513.534869,1455.581446,-888.247130,9400.615463
1513.535186,1072.533697,-1332.370696,9548.656652
1513.535503,459.657299,-1036.288319,9696.697840
1513.535821,0.000000,-1628.453072,10140.821405
1513.536138,-536.266849,-1258.350101,10362.883188
1513.536455,-842.705048,-1406.391290,10807.006753
1513.536773,-153.219100,-1406.391290,10732.986159
1513.537090,-229.828649,-1036.288319,10510.924376
1513.537407,76.609550,-1110.308913,10066.800811
1513.537725,459.657299,-1036.288319,10362.883188
1513.538042,919.314598,-814.226536,9474.636058
1513.538359,1149.143247,-74.020594,8956.491898
1513.538677,995.924147,-518.144159,8734.430116
1513.538994,612.876398,-222.061783,8808.450710
1513.539311,689.485948,-296.082377,8956.491898
1513.539629,0.000000,-296.082377,8734.430116
1513.539946,0.000000,-740.205942,9252.574275
1513.540263,-536.266849,-592.164754,9696.697840
1513.540581,-459.657299,-666.185348,9326.594869
1513.540898,-153.219100,-592.164754,9474.636058
1513.541215,-383.047749,-1036.288319,9770.718434
1513.541533,-153.219100,-518.144159,9548.656652
1513.541850,-153.219100,-0.000000,9326.594869
1513.542167,306.438199,-0.000000,9770.718434
1513.542485,0.000000,-0.000000,9770.718434
1513.542802,0.000000,296.082377,9770.718434
1513.543119,536.266849,222.061783,9696.697840
1513.543437,536.266849,222.061783,9474.636058
1513.543754,1149.143247,222.061783,9474.636058
1513.544071,1685.410096,-0.000000,9252.574275
1513.544389,1915.238745,-0.000000,8882.471304
1513.544706,1608.800546,148.041188,9030.512492
1513.545023,1762.019645,-0.000000,8586.388927
1513.545341,1455.581446,222.061783,8882.471304
1513.545658,1378.971896,592.164754,8882.471304
1513.545975,612.876398,-0.000000,8882.471304
1513.546293,229.828649,-0.000000,9252.574275
1513.546610,76.609550,-222.061783,9770.718434
1513.546927,-153.219100,-222.061783,9844.739029
1513.547245,153.219100,-74.020594,9918.759623
1513.547562,1072.533697,-370.102971,9918.759623
1513.547879,842.705048,-74.020594,9844.739029
1513.548197,1072.533697,444.123565,9252.574275
1513.548514,1378.971896,888.247130,8882.471304
1513.548831,1608.800546,1332.370696,8438.347739
1513.549149,1149.143247,1332.370696,8586.388927
1513.549466,995.924147,1480.411884,8660.409521
1513.549783,995.924147,962.267725,8956.491898
1513.550101,536.266849,148.041188,9326.594869
1513.550418,842.705048,-148.041188,9474.636058
1513.550735,76.609550,222.061783,9178.553681
1513.551053,536.266849,518.144159,9252.574275
1513.551370,842.705048,888.247130,8808.450710
1513.551687,689.485948,1406.391290,8586.388927
1513.552005,306.438199,1850.514855,8882.471304
1513.552322,383.047749,1702.473667,8882.471304
1513.552639,383.047749,1628.453072,9252.574275
1513.552957,76.609550,1406.391290,9030.512492
1513.553274,0.000000,1110.308913,9474.636058
1513.553591,383.047749,222.061783,10214.842000
1513.553909,76.609550,74.020594,10214.842000
1513.554226,689.485948,444.123565,10066.800811
1513.554543,1072.533697,740.205942,9770.718434
1513.554861,1149.143247,888.247130,9622.677246
1513.555178,919.314598,518.144159,9400.615463
1513.555495,1072.533697,518.144159,9178.553681
1513.555813,536.266849,666.185348,9326.594869
1513.556130,383.047749,370.102971,9770.718434
1513.556447,76.609550,518.144159,10066.800811
1513.556765,612.876398,-222.061783,10732.986159
1513.557082,0.000000,-592.164754,10807.006753
1513.557399,76.609550,-962.267725,10881.027347
1513.557717,612.876398,-888.247130,11473.192101
1513.558034,1302.362347,-444.123565,10658.965565
1513.558351,1302.362347,148.041188,10066.800811
1513.558669,1455.581446,-0.000000,9770.718434
1513.558986,1149.143247,518.144159,9844.739029
1513.559303,919.314598,370.102971,9696.697840
1513.559621,842.705048,-0.000000,10066.800811
1513.559938,459.657299,-0.000000,10214.842000
1513.560255,459.657299,-518.144159,10584.944971
1513.560573,459.657299,-666.185348,10214.842000
1513.560890,689.485948,-1036.288319,10510.924376
1513.561207,919.314598,-518.144159,10140.821405
1513.561525,995.924147,-74.020594,9474.636058
1513.561842,1378.971896,592.164754,8808.450710
1513.562159,1455.581446,444.123565,8586.388927
1513.562477,1149.143247,518.144159,8734.430116
1513.562794,1378.971896,148.041188,8734.430116
1513.563111,536.266849,518.144159,9030.512492
1513.563429,919.314598,148.041188,9252.574275
1513.563746,612.876398,-0.000000,9326.594869
1513.564063,842.705048,-148.041188,9252.574275
1513.564381,1149.143247,-148.041188,9326.594869
1513.564698,1378.971896,-0.000000,8142.265362
1513.565015,1532.190996,296.082377,7846.182985
1513.565333,1838.629195,592.164754,7920.203579
1513.565650,1685.410096,-0.000000,7994.224174
1513.565967,1225.752797,-0.000000,7550.100608
1513.566285,1072.533697,370.102971,7846.182985
1513.566602,689.485948,296.082377,8660.409521
1513.566919,459.657299,-0.000000,8290.306550
1513.567237,766.095498,-444.123565,8882.471304
1513.567554,689.485948,-518.144159,9178.553681
1513.567871,919.314598,-74.020594,9178.553681
1513.568189,1149.143247,-0.000000,8660.409521
1513.568506,1149.143247,370.102971,8660.409521
1513.568823,1302.362347,370.102971,8438.347739
1513.569141,229.828649,518.144159,8660.409521
1513.569458,-229.828649,592.164754,9030.512492
1513.569775,-689.485948,-0.000000,9992.780217
1513.570093,-919.314598,-222.061783,10214.842000
1513.570410,-536.266849,-296.082377,10510.924376
1513.570727,-229.828649,-370.102971,10362.883188
1513.571045,-153.219100,-0.000000,10066.800811
1513.571362,536.266849,518.144159,9696.697840
1513.571679,842.705048,1184.329507,9252.574275
1513.571997,1455.581446,1480.411884,8660.409521
1513.572314,1149.143247,1702.473667,8734.430116
1513.572631,842.705048,1480.411884,8956.491898
1513.572949,1225.752797,740.205942,9474.636058
1513.573266,612.876398,666.185348,10288.862594
1513.573583,153.219100,888.247130,9918.759623
1513.573901,459.657299,666.185348,10066.800811
1513.574218,766.095498,1036.288319,10214.842000
1513.574535,1302.362347,592.164754,9918.759623
1513.574853,1149.143247,740.205942,9474.636058
1513.575170,842.705048,1258.350101,9622.677246
1513.575487,995.924147,1332.370696,9474.636058
1513.575805,842.705048,1480.411884,9622.677246
1513.576122,766.095498,962.267725,9770.718434
1513.576439,0.000000,1184.329507,10362.883188
1513.576757,383.047749,1406.391290,9992.780217
1513.577074,459.657299,1036.288319,10214.842000
1513.577391,995.924147,962.267725,10288.862594
1513.577709,1455.581446,1258.350101,10140.821405
1513.578026,1685.410096,1258.350101,9770.718434
1513.578343,2068.457845,1110.308913,9178.553681
1513.578661,2374.896044,1110.308913,9326.594869
1513.578978,2145.067394,962.267725,9252.574275
1513.579295,1532.190996,1332.370696,9622.677246
1513.579613,842.705048,740.205942,9992.780217
1513.579930,995.924147,666.185348,10066.800811
1513.580247,919.314598,370.102971,10881.027347
1513.580565,919.314598,148.041188,10436.903782
1513.580882,842.705048,296.082377,10066.800811
1513.581199,1455.581446,-0.000000,9992.780217
1513.581517,1685.410096,222.061783,9918.759623
1513.581834,2068.457845,518.144159,9696.697840
1513.582151,2221.676944,444.123565,9474.636058
1513.582469,2068.457845,592.164754,9030.512492
1513.582786,1838.629195,740.205942,9548.656652
1513.583103,1838.629195,814.226536,9548.656652
1513.583421,1455.581446,444.123565,9252.574275
1513.583738,1762.019645,296.082377,9252.574275
1513.584055,1762.019645,518.144159,8956.491898
1513.584373,1762.019645,370.102971,8882.471304
1513.584690,1685.410096,-0.000000,8512.368333
1513.585007,1378.971896,-74.020594,8364.327145
1513.585325,612.876398,-592.164754,8512.368333
1513.585642,459.657299,-222.061783,8660.409521
1513.585959,-229.828649,-444.123565,9252.574275
1513.586277,-766.095498,-0.000000,8882.471304
1513.586594,-1149.143247,-0.000000,9252.574275
1513.586903,-1378.971896,-0.000000,9252.574275
1513.587221,-1225.752797,-0.000000,9474.636058
1513.587538,-766.095498,-370.102971,9400.615463
1513.587855,0.000000,-0.000000,9030.512492
1513.588172,153.219100,-296.082377,8808.450710
1513.588489,229.828649,222.061783,8290.306550
1513.588807,919.314598,296.082377,8142.265362
1513.589124,383.047749,148.041188,8068.244768
1513.589441,153.219100,-0.000000,8142.265362
1513.589758,459.657299,148.041188,8882.471304
1513.590075,76.609550,-74.020594,9178.553681
1513.590392,0.000000,-370.102971,9252.574275
1513.590710,0.000000,-592.164754,9400.615463
1513.591027,0.000000,-592.164754,9178.553681
1513.591344,229.828649,-518.144159,9178.553681
1513.591661,766.095498,-296.082377,9104.533087
1513.591978,995.924147,-0.000000,9326.594869
1513.592296,919.314598,-74.020594,9622.677246
1513.592613,919.314598,148.041188,9918.759623
1513.592930,1608.800546,148.041188,10214.842000
1513.593247,1149.143247,222.061783,10140.821405
1513.593564,1378.971896,592.164754,9844.739029
1513.593881,1991.848295,740.205942,9770.718434
1513.594199,1991.848295,814.226536,9474.636058
1513.594516,2374.896044,296.082377,9474.636058
1513.594833,2451.505594,592.164754,9030.512492
1513.595150,2528.115143,222.061783,9252.574275
1513.595467,2145.067394,-0.000000,9252.574275
1513.595784,1608.800546,296.082377,9178.553681
1513.596102,1532.190996,-0.000000,9400.615463
1513.596419,689.485948,296.082377,9696.697840
1513.596736,229.828649,222.061783,10066.800811
1513.597053,0.000000,-0.000000,9992.780217
1513.597370,0.000000,148.041188,10288.862594
1513.597688,306.438199,-74.020594,10436.903782
1513.598005,229.828649,-0.000000,10436.903782
1513.598322,766.095498,740.205942,9696.697840
1513.598639,612.876398,814.226536,9770.718434
1513.598956,612.876398,1184.329507,9622.677246
1513.599273,689.485948,888.247130,9770.718434
1513.599591,689.485948,1036.288319,9474.636058
1513.599908,229.828649,962.267725,9622.677246
1513.600225,76.609550,592.164754,9844.739029
1513.600542,76.609550,148.041188,9622.677246
1513.600859,306.438199,444.123565,9770.718434
1513.601177,383.047749,-0.000000,9474.636058
1513.601494,0.000000,-0.000000,9474.636058
1513.601811,76.609550,-0.000000,9474.636058
1513.602128,383.047749,148.041188,9548.656652
1513.602445,383.047749,222.061783,9622.677246
1513.602762,383.047749,222.061783,9696.697840
1513.603080,76.609550,444.123565,9770.718434
1513.603397,459.657299,592.164754,9696.697840
1513.603714,459.657299,592.164754,9474.636058
1513.604031,1072.533697,888.247130,9844.739029
1513.604348,1455.581446,814.226536,9178.553681
1513.604665,1915.238745,518.144159,9030.512492
1513.604983,1915.238745,592.164754,8882.471304
1513.605300,2221.676944,222.061783,8586.388927
1513.605617,1991.848295,-0.000000,8512.368333
1513.605934,1838.629195,148.041188,8512.368333
1513.606251,1455.581446,444.123565,8512.368333
1513.606569,1762.019645,-74.020594,9326.594869
1513.606886,612.876398,-148.041188,9030.512492
1513.607203,766.095498,-148.041188,9474.636058
1513.607520,383.047749,-370.102971,9474.636058
1513.607837,689.485948,-740.205942,9548.656652
1513.608154,766.095498,-962.267725,9844.739029
1513.608472,766.095498,-592.164754,9474.636058
1513.608789,919.314598,-296.082377,9252.574275
1513.609106,995.924147,-148.041188,9104.533087
1513.609423,995.924147,-222.061783,9104.533087
1513.609740,536.266849,-0.000000,9104.533087
1513.610058,383.047749,-74.020594,9474.636058
1513.610375,612.876398,-296.082377,9474.636058
1513.610692,153.219100,-666.185348,9474.636058
1513.611009,-229.828649,-666.185348,9400.615463
1513.611326,0.000000,-740.205942,8956.491898
1513.611643,0.000000,-740.205942,9104.533087
1513.611961,0.000000,-592.164754,9474.636058
1513.612278,0.000000,-296.082377,9326.594869
1513.612595,-536.266849,-296.082377,9474.636058
1513.612912,-306.438199,-296.082377,9918.759623
1513.613229,-459.657299,-0.000000,9844.739029
1513.613546,0.000000,-0.000000,9770.718434
1513.613864,229.828649,296.082377,9918.759623
1513.614181,-153.219100,-0.000000,10066.800811
1513.614498,766.095498,148.041188,9548.656652
1513.614815,1149.143247,592.164754,9326.594869
1513.615132,1455.581446,444.123565,8956.491898
1513.615450,1532.190996,370.102971,9030.512492
1513.615767,1762.019645,296.082377,8882.471304
1513.616084,766.095498,444.123565,8734.430116
1513.616401,383.047749,370.102971,8956.491898
1513.616718,0.000000,296.082377,9326.594869
1513.617035,0.000000,-0.000000,9770.718434
1513.617353,-153.219100,-370.102971,9770.718434
1513.617670,-153.219100,-148.041188,10066.800811
1513.617987,0.000000,-148.041188,10362.883188
1513.618304,383.047749,-0.000000,10214.842000
1513.618621,689.485948,-0.000000,10066.800811
1513.618939,1302.362347,518.144159,9622.677246
1513.619256,1149.143247,592.164754,9548.656652
1513.619573,1072.533697,814.226536,9030.512492
1513.619890,995.924147,888.247130,9030.512492
1513.620207,1149.143247,888.247130,9104.533087
1513.620524,919.314598,-0.000000,9326.594869
1513.620842,766.095498,-74.020594,9696.697840
1513.621159,689.485948,-296.082377,9696.697840
1513.621476,612.876398,-222.061783,9622.677246
1513.621793,612.876398,-148.041188,9770.718434
1513.622110,459.657299,148.041188,9844.739029
1513.622427,383.047749,518.144159,9400.615463
1513.622745,153.219100,518.144159,9696.697840
1513.623062,0.000000,518.144159,9844.739029
1513.623379,383.047749,666.185348,9918.759623
1513.623696,536.266849,666.185348,9770.718434
1513.624013,229.828649,222.061783,10066.800811
1513.624331,536.266849,148.041188,9622.677246
1513.624648,919.314598,-0.000000,9474.636058
1513.624965,1455.581446,-0.000000,9400.615463
1513.625282,1608.800546,518.144159,8734.430116
1513.625599,1608.800546,740.205942,8216.285956
1513.625916,1532.190996,740.205942,8512.368333
1513.626234,1149.143247,592.164754,8364.327145
1513.626551,306.438199,592.164754,8956.491898
1513.626868,-229.828649,-0.000000,8956.491898
1513.627185,-689.485948,-0.000000,9918.759623
1513.627502,-612.876398,-148.041188,9992.780217
1513.627820,-229.828649,-592.164754,10214.842000
1513.628137,153.219100,-444.123565,10584.944971
1513.628454,766.095498,-222.061783,10140.821405
1513.628771,1149.143247,-0.000000,9622.677246
1513.629088,1608.800546,592.164754,8882.471304
1513.629405,1532.190996,592.164754,8734.430116
1513.629723,1378.971896,518.144159,8586.388927
1513.630040,1685.410096,666.185348,8586.388927
1513.630357,1302.362347,-0.000000,8734.430116
1513.630674,1072.533697,-296.082377,9252.574275
1513.630991,995.924147,-888.247130,9844.739029
1513.631308,1072.533697,-1110.308913,9474.636058
1513.631626,919.314598,-888.247130,9844.739029
1513.631943,995.924147,-740.205942,9770.718434
1513.632260,995.924147,-518.144159,9992.780217
1513.632577,1072.533697,-148.041188,9548.656652
1513.632894,612.876398,-0.000000,9400.615463
1513.633212,919.314598,222.061783,9474.636058
1513.633529,612.876398,296.082377,9770.718434
1513.633846,612.876398,-74.020594,9326.594869
1513.634163,689.485948,296.082377,9696.697840
1513.634480,1072.533697,-0.000000,9474.636058
1513.634797,1149.143247,-0.000000,9326.594869
1513.635115,1455.581446,-0.000000,8956.491898
1513.635432,1608.800546,-0.000000,8660.409521
1513.635749,1532.190996,-0.000000,8734.430116
1513.636066,612.876398,-0.000000,8512.368333
1513.636383,229.828649,-0.000000,9104.533087
1513.636701,-383.047749,-0.000000,9030.512492
1513.637018,-612.876398,296.082377,9474.636058
1513.637335,-1072.533697,222.061783,9622.677246
1513.637652,-689.485948,222.061783,9844.739029
1513.637969,-383.047749,592.164754,9622.677246
1513.638286,0.000000,666.185348,9474.636058
1513.638604,842.705048,592.164754,9252.574275
1513.638921,1149.143247,888.247130,8586.388927
1513.639238,1225.752797,1036.288319,8956.491898
1513.639555,1455.581446,1036.288319,8808.450710
1513.639872,1532.190996,666.185348,9030.512492
1513.640190,1225.752797,962.267725,9030.512492
1513.640507,1225.752797,888.247130,9474.636058
1513.640824,919.314598,592.164754,9770.718434
1513.641141,995.924147,592.164754,9622.677246
1513.641458,1072.533697,666.185348,9400.615463
1513.641775,842.705048,814.226536,9474.636058
1513.642093,1455.581446,518.144159,9400.615463
1513.642410,995.924147,296.082377,9400.615463
1513.642727,995.924147,-0.000000,9696.697840
1513.643044,919.314598,-0.000000,10214.842000
1513.643361,766.095498,222.061783,10288.862594
1513.643678,919.314598,-0.000000,10510.924376
1513.643996,689.485948,370.102971,10288.862594
1513.644313,919.314598,296.082377,10066.800811
1513.644630,1225.752797,814.226536,9548.656652
1513.644947,1455.581446,888.247130,9474.636058
1513.645264,1838.629195,1036.288319,9252.574275
1513.645582,1225.752797,962.267725,9104.533087
1513.645899,1608.800546,962.267725,9400.615463
1513.646216,842.705048,666.185348,9326.594869
1513.646533,459.657299,518.144159,9252.574275
1513.646850,0.000000,666.185348,9474.636058
1513.647167,-383.047749,666.185348,9622.677246
1513.647485,-689.485948,444.123565,9918.759623
1513.647802,-536.266849,444.123565,9770.718434
1513.648119,-459.657299,222.061783,9918.759623
1513.648436,-153.219100,296.082377,9770.718434
1513.648753,76.609550,296.082377,9474.636058
1513.649071,459.657299,370.102971,9474.636058
1513.649388,306.438199,740.205942,8882.471304
1513.649705,612.876398,740.205942,9030.512492
1513.650022,306.438199,814.226536,9030.512492
1513.650339,229.828649,1036.288319,8882.471304
1513.650656,153.219100,518.144159,9326.594869
1513.650974,0.000000,222.061783,9474.636058
1513.651291,0.000000,-0.000000,9548.656652
1513.651608,-153.219100,-148.041188,9474.636058
1513.651925,229.828649,-74.020594,9770.718434
1513.652242,766.095498,-296.082377,9548.656652
1513.652559,306.438199,-222.061783,9770.718434
1513.652877,919.314598,222.061783,9548.656652
1513.653194,1149.143247,518.144159,9696.697840
1513.653511,1608.800546,148.041188,9622.677246
1513.653828,1685.410096,444.123565,9548.656652
1513.654145,1838.629195,518.144159,9252.574275
1513.654463,1991.848295,296.082377,9326.594869
1513.654780,2068.457845,-0.000000,9474.636058
1513.655097,1915.238745,-0.000000,9474.636058
1513.655414,2374.896044,-74.020594,9178.553681
1513.655731,2451.505594,-74.020594,8956.491898
1513.656048,2221.676944,-222.061783,9104.533087
1513.656366,1762.019645,-0.000000,9104.533087
1513.656683,1302.362347,-74.020594,8586.388927
1513.657000,1072.533697,444.123565,9252.574275
1513.657317,689.485948,370.102971,9252.574275
1513.657634,459.657299,222.061783,9696.697840
1513.657952,766.095498,222.061783,9844.739029
1513.658269,689.485948,-0.000000,9992.780217
1513.658586,766.095498,148.041188,9770.718434
1513.658903,995.924147,444.123565,9474.636058
1513.659220,1225.752797,962.267725,8956.491898
1513.659537,1685.410096,1110.308913,8364.327145
1513.659855,1149.143247,1036.288319,8216.285956
1513.660172,1072.533697,1406.391290,8364.327145
1513.660489,842.705048,1110.308913,8512.368333
1513.660806,383.047749,888.247130,8586.388927
1513.661123,229.828649,296.082377,9178.553681
1513.661440,229.828649,-0.000000,9622.677246
1513.661758,306.438199,-0.000000,9252.574275
1513.662075,-229.828649,-0.000000,9474.636058
1513.662392,-153.219100,-0.000000,9474.636058
1513.662709,76.609550,666.185348,9622.677246
1513.663026,76.609550,592.164754,9474.636058
1513.663344,383.047749,814.226536,9474.636058
1513.663661,536.266849,740.205942,9474.636058
1513.663978,536.266849,592.164754,9622.677246
1513.664295,1072.533697,370.102971,9474.636058
1513.664612,1455.581446,370.102971,9474.636058
1513.664929,1225.752797,222.061783,9548.656652
1513.665247,1378.971896,370.102971,9622.677246
1513.665564,1608.800546,370.102971,9548.656652
1513.665881,1838.629195,222.061783,9474.636058
1513.666198,1378.971896,518.144159,9474.636058
1513.666515,1455.581446,148.041188,9548.656652
1513.666833,1149.143247,148.041188,9474.636058
1513.667150,689.485948,296.082377,9844.739029
1513.667467,536.266849,74.020594,9992.780217
1513.667784,536.266849,-0.000000,10510.924376
1513.668101,842.705048,-0.000000,10140.821405
1513.668418,536.266849,-0.000000,10214.842000
1513.668736,1072.533697,-0.000000,10140.821405
1513.669053,1149.143247,370.102971,9770.718434
1513.669370,1455.581446,666.185348,9252.574275
1513.669687,1302.362347,888.247130,9030.512492
1513.670004,1072.533697,518.144159,9178.553681
1513.670321,766.095498,518.144159,9474.636058
1513.670639,536.266849,296.082377,9326.594869
1513.670956,383.047749,-0.000000,9770.718434
1513.671273,0.000000,-0.000000,10066.800811
1513.671590,76.609550,-296.082377,9844.739029
1513.671907,306.438199,-0.000000,9622.677246
1513.672225,306.438199,-0.000000,9474.636058
1513.672542,459.657299,-0.000000,9400.615463
1513.672859,383.047749,148.041188,9178.553681
1513.673176,1072.533697,370.102971,8882.471304
1513.673493,1072.533697,518.144159,9104.533087
1513.673810,919.314598,370.102971,9474.636058
1513.674128,1302.362347,592.164754,9326.594869
1513.674445,1149.143247,592.164754,8734.430116
1513.674762,1225.752797,296.082377,8956.491898
1513.675079,1149.143247,148.041188,9104.533087
1513.675396,1378.971896,-74.020594,8882.471304
1513.675714,1072.533697,-222.061783,9178.553681
1513.676031,1225.752797,-370.102971,9400.615463
1513.676348,766.095498,-518.144159,9474.636058
1513.676665,306.438199,-370.102971,9474.636058
1513.676982,0.000000,-222.061783,9622.677246
1513.677299,-459.657299,-74.020594,9696.697840
1513.677617,383.047749,296.082377,10066.800811
1513.677934,383.047749,-0.000000,9622.677246
1513.678251,842.705048,-0.000000,9474.636058
1513.678568,1225.752797,-222.061783,9474.636058
1513.678885,1608.800546,-0.000000,9474.636058
1513.679202,1838.629195,444.123565,9178.553681
1513.679520,1685.410096,296.082377,8660.409521
1513.679837,1455.581446,518.144159,8512.368333
1513.680154,1455.581446,666.185348,8882.471304
1513.680471,1225.752797,518.144159,8586.388927
1513.680788,1072.533697,222.061783,9252.574275
1513.681106,306.438199,-0.000000,9326.594869
1513.681423,0.000000,-148.041188,9400.615463
1513.681740,-229.828649,-74.020594,9474.636058
1513.682057,-229.828649,-0.000000,9474.636058
1513.682374,0.000000,370.102971,9474.636058
1513.682691,0.000000,444.123565,9252.574275
1513.683009,0.000000,740.205942,9400.615463
1513.683326,76.609550,740.205942,9326.594869
1513.683643,459.657299,370.102971,9252.574275
1513.683960,229.828649,370.102971,9252.574275
1513.684277,766.095498,592.164754,9326.594869
1513.684595,306.438199,370.102971,9252.574275
1513.684912,459.657299,444.123565,9104.533087
1513.685229,919.314598,296.082377,9104.533087
1513.685546,689.485948,148.041188,9326.594869
1513.685863,612.876398,222.061783,9104.533087
1513.686180,229.828649,148.041188,9178.553681
1513.686498,0.000000,-0.000000,9474.636058
1513.686815,0.000000,-0.000000,9770.718434
1513.687132,-383.047749,-0.000000,9918.759623
1513.687449,0.000000,-74.020594,10066.800811
1513.687766,-153.219100,-370.102971,10436.903782
1513.688083,306.438199,-370.102971,10362.883188
1513.688401,612.876398,-222.061783,10362.883188
1513.688718,995.924147,-74.020594,10140.821405
1513.689035,1455.581446,296.082377,9992.780217
1513.689353,2221.676944,518.144159,9474.636058
1513.689670,2221.676944,592.164754,9178.553681
1513.689987,2221.676944,370.102971,9178.553681
1513.690305,1915.238745,74.020594,9178.553681
1513.690622,2145.067394,74.020594,9400.615463
1513.690939,2068.457845,-148.041188,9622.677246
1513.691257,1378.971896,-444.123565,9992.780217
1513.691574,1072.533697,-592.164754,10214.842000
1513.691891,1072.533697,-814.226536,10140.821405
1513.692209,919.314598,-592.164754,10214.842000
1513.692526,919.314598,-518.144159,9918.759623
1513.692843,1455.581446,-518.144159,9770.718434
1513.693160,612.876398,-74.020594,9918.759623
1513.693478,612.876398,-148.041188,9548.656652
1513.693795,1149.143247,-0.000000,9326.594869
1513.694112,1149.143247,-0.000000,9474.636058
1513.694430,1532.190996,592.164754,9252.574275
1513.694747,1149.143247,592.164754,8660.409521
1513.695064,1455.581446,666.185348,8586.388927
1513.695382,1149.143247,444.123565,8512.368333
1513.695699,1149.143247,-0.000000,8216.285956
1513.696016,995.924147,222.061783,8438.347739
1513.696334,612.876398,-74.020594,8438.347739
1513.696651,0.000000,-0.000000,9030.512492
1513.696968,0.000000,-148.041188,8956.491898
1513.697286,-306.438199,-148.041188,9178.553681
1513.697603,-383.047749,-74.020594,9696.697840
1513.697920,-689.485948,-444.123565,9548.656652
1513.698237,-536.266849,-148.041188,9474.636058
1513.698555,-383.047749,-74.020594,9400.615463
1513.698872,153.219100,-0.000000,9178.553681
1513.699189,383.047749,-0.000000,9474.636058
1513.699507,842.705048,74.020594,9178.553681
1513.699824,1302.362347,222.061783,8586.388927
1513.700141,995.924147,222.061783,8882.471304
1513.700459,1072.533697,444.123565,8808.450710
1513.700776,1225.752797,296.082377,8956.491898
1513.701093,1072.533697,-0.000000,8808.450710
1513.701411,919.314598,-0.000000,9326.594869
1513.701728,842.705048,-148.041188,9474.636058
1513.702045,612.876398,-592.164754,9474.636058
1513.702363,689.485948,-296.082377,9104.533087
1513.702680,153.219100,-222.061783,9474.636058
1513.702997,153.219100,-222.061783,9844.739029
1513.703314,383.047749,-0.000000,9844.739029
1513.703632,0.000000,-0.000000,10510.924376
1513.703949,306.438199,-0.000000,10362.883188
1513.704266,229.828649,222.061783,10362.883188
1513.704584,612.876398,222.061783,10140.821405
1513.704901,766.095498,592.164754,9696.697840
1513.705218,995.924147,518.144159,9474.636058
1513.705536,1302.362347,592.164754,9178.553681
1513.705853,1225.752797,592.164754,9400.615463
1513.706170,995.924147,518.144159,9178.553681
1513.706488,842.705048,148.041188,9178.553681
1513.706805,536.266849,222.061783,9474.636058
1513.707122,306.438199,-0.000000,9104.533087
1513.707439,76.609550,-0.000000,9178.553681
1513.707757,-306.438199,-148.041188,9474.636058
1513.708074,-383.047749,-370.102971,9844.739029
1513.708391,-919.314598,-74.020594,9918.759623
1513.708709,-459.657299,-74.020594,10362.883188
1513.709026,-383.047749,-296.082377,10362.883188
1513.709343,-229.828649,-74.020594,10362.883188
1513.709661,153.219100,222.061783,10140.821405
1513.709978,536.266849,740.205942,9992.780217
1513.710295,919.314598,1110.308913,9770.718434
1513.710613,1072.533697,1406.391290,9400.615463
1513.710930,1378.971896,814.226536,9474.636058
1513.711247,1762.019645,962.267725,9178.553681
1513.711565,1915.238745,222.061783,9474.636058
1513.711882,1915.238745,296.082377,9474.636058
1513.712199,2298.286494,148.041188,9252.574275
1513.712516,2068.457845,-0.000000,9252.574275
1513.712834,1685.410096,370.102971,9326.594869
1513.713151,1378.971896,-0.000000,9400.615463
1513.713468,1455.581446,296.082377,9474.636058
1513.713786,1225.752797,148.041188,9622.677246
1513.714103,766.095498,148.041188,9918.759623
1513.714420,995.924147,-0.000000,9770.718434
1513.714738,1302.362347,148.041188,9622.677246
1513.715055,1225.752797,-74.020594,9770.718434
1513.715372,995.924147,-0.000000,9400.615463
1513.715690,612.876398,-148.041188,9400.615463
1513.716007,1455.581446,148.041188,9252.574275
1513.716324,1608.800546,296.082377,8734.430116
1513.716642,1225.752797,222.061783,8808.450710
1513.716959,612.876398,296.082377,8512.368333
1513.717276,536.266849,370.102971,8216.285956
1513.717593,306.438199,518.144159,8290.306550
1513.717911,0.000000,222.061783,8660.409521
1513.718228,-306.438199,-74.020594,9326.594869
1513.718545,-229.828649,-0.000000,9252.574275
1513.718863,-1149.143247,-0.000000,9770.718434
1513.719180,-995.924147,-74.020594,9696.697840
1513.719497,-689.485948,296.082377,9696.697840
1513.719815,-536.266849,888.247130,9400.615463
1513.720132,306.438199,962.267725,8882.471304
1513.720449,-229.828649,1036.288319,9104.533087
1513.720767,0.000000,814.226536,9252.574275
1513.721084,536.266849,740.205942,8808.450710
1513.721401,612.876398,444.123565,9252.574275
1513.721719,689.485948,296.082377,9548.656652
1513.722036,1072.533697,592.164754,9400.615463
1513.722353,1302.362347,666.185348,8734.430116
1513.722670,1532.190996,1036.288319,8660.409521
1513.722988,1532.190996,1110.308913,8586.388927
1513.723305,1225.752797,814.226536,8882.471304
1513.723622,1532.190996,518.144159,9104.533087
1513.723940,1302.362347,444.123565,9326.594869
1513.724257,1608.800546,-0.000000,9696.697840
1513.724574,1608.800546,-0.000000,10066.800811
1513.724892,919.314598,296.082377,9918.759623
1513.725209,1532.190996,296.082377,10140.821405
1513.725526,1225.752797,296.082377,10140.821405
1513.725844,1225.752797,222.061783,9844.739029
1513.726161,1532.190996,370.102971,9548.656652
1513.726478,1762.019645,666.185348,9474.636058
1513.726795,1378.971896,666.185348,9622.677246
1513.727113,1302.362347,962.267725,9474.636058
1513.727430,1378.971896,962.267725,9400.615463
1513.727747,919.314598,518.144159,9622.677246
1513.728065,766.095498,148.041188,9992.780217
1513.728382,383.047749,518.144159,9992.780217
1513.728699,383.047749,148.041188,9992.780217
1513.729017,306.438199,-74.020594,10140.821405
1513.729334,689.485948,-148.041188,10288.862594
1513.729651,229.828649,-0.000000,10066.800811
1513.729969,229.828649,-0.000000,9622.677246
1513.730286,76.609550,-0.000000,9474.636058
1513.730603,0.000000,148.041188,9622.677246
1513.730921,-153.219100,148.041188,9474.636058
1513.731238,-153.219100,-0.000000,9770.718434
1513.731555,0.000000,-74.020594,9770.718434
1513.731872,0.000000,-74.020594,9918.759623
1513.732190,306.438199,-222.061783,9622.677246
1513.732507,229.828649,-222.061783,9770.718434
1513.732824,612.876398,-0.000000,9326.594869
1513.733142,689.485948,148.041188,9030.512492
1513.733459,689.485948,444.123565,9104.533087
1513.733776,1225.752797,666.185348,8808.450710
1513.734094,1532.190996,740.205942,9178.553681
1513.734411,995.924147,370.102971,9178.553681
1513.734728,995.924147,370.102971,9326.594869
1513.735046,1225.752797,148.041188,9326.594869
1513.735363,1302.362347,222.061783,8882.471304
1513.735680,1378.971896,-74.020594,8734.430116
1513.735998,1455.581446,148.041188,8882.471304
1513.736315,1685.410096,-0.000000,9104.533087
1513.736632,1378.971896,-0.000000,8882.471304
1513.736949,1378.971896,-148.041188,9178.553681
1513.737267,995.924147,148.041188,8956.491898
1513.737584,612.876398,518.144159,9178.553681
1513.737901,689.485948,-0.000000,9030.512492
1513.738219,612.876398,-0.000000,9178.553681
1513.738536,536.266849,-222.061783,9400.615463
1513.738853,995.924147,-0.000000,9326.594869
1513.739171,1149.143247,74.020594,9474.636058
1513.739488,1838.629195,222.061783,9252.574275
1513.739805,1685.410096,444.123565,9104.533087
1513.740123,1302.362347,444.123565,8808.450710
1513.740440,1532.190996,592.164754,8734.430116
1513.740757,1685.410096,814.226536,8512.368333
1513.741075,1225.752797,444.123565,8734.430116
1513.741392,1149.143247,74.020594,9030.512492
1513.741709,995.924147,-74.020594,9548.656652
1513.742026,536.266849,-444.123565,9622.677246
1513.742344,383.047749,-370.102971,9622.677246
1513.742661,536.266849,-74.020594,9696.697840
1513.742978,536.266849,-0.000000,9770.718434
1513.743296,229.828649,148.041188,9548.656652
1513.743613,459.657299,592.164754,9696.697840
1513.743930,536.266849,888.247130,9474.636058
1513.744248,689.485948,962.267725,9844.739029
1513.744565,842.705048,962.267725,9548.656652
1513.744882,536.266849,962.267725,9548.656652
1513.745200,842.705048,888.247130,9326.594869
1513.745517,766.095498,1036.288319,9178.553681
1513.745834,995.924147,814.226536,9252.574275
1513.746151,919.314598,1036.288319,9252.574275
1513.746469,842.705048,814.226536,9104.533087
1513.746786,842.705048,666.185348,9474.636058
1513.747103,459.657299,296.082377,9770.718434
1513.747421,0.000000,-0.000000,9622.677246
1513.747738,-153.219100,296.082377,9992.780217
1513.748055,-306.438199,592.164754,10140.821405
1513.748373,-612.876398,518.144159,10288.862594
1513.748690,-383.047749,444.123565,10658.965565
1513.749007,0.000000,-0.000000,10510.924376
1513.749325,306.438199,222.061783,10362.883188
1513.749642,842.705048,370.102971,10214.842000
1513.749959,1149.143247,666.185348,9696.697840
1513.750277,1225.752797,1110.308913,9474.636058
1513.750594,1838.629195,888.247130,9474.636058
1513.750911,1532.190996,740.205942,9400.615463
1513.751228,1378.971896,740.205942,9178.553681
1513.751546,1378.971896,296.082377,9400.615463
1513.751863,919.314598,-0.000000,9622.677246
1513.752180,612.876398,-148.041188,10066.800811
1513.752498,229.828649,-518.144159,9844.739029
1513.752815,153.219100,-518.144159,10066.800811
1513.753132,459.657299,-444.123565,9992.780217
1513.753450,383.047749,-0.000000,10288.862594
1513.753767,306.438199,-0.000000,10510.924376
1513.754084,459.657299,296.082377,9548.656652
1513.754402,536.266849,222.061783,9622.677246
1513.754719,995.924147,296.082377,9992.780217
1513.755036,919.314598,370.102971,9474.636058
1513.755354,1149.143247,-0.000000,9252.574275
1513.755671,1378.971896,296.082377,8660.409521
1513.755988,1608.800546,-0.000000,8808.450710
1513.756305,1762.019645,-148.041188,8660.409521
1513.756623,1762.019645,-74.020594,8290.306550
1513.756940,1455.581446,-222.061783,8290.306550
1513.757257,689.485948,-222.061783,8364.327145
1513.757575,459.657299,-74.020594,8438.347739
1513.757892,153.219100,-0.000000,8438.347739
1513.758209,-383.047749,-296.082377,9178.553681
1513.758527,-766.095498,-370.102971,9400.615463
1513.758844,-536.266849,-518.144159,9474.636058
1513.759161,-306.438199,-814.226536,9770.718434
1513.759479,229.828649,-666.185348,10066.800811
1513.759796,459.657299,-370.102971,9622.677246
1513.760113,919.314598,148.041188,9326.594869
1513.760431,1991.848295,444.123565,8660.409521
1513.760748,1991.848295,740.205942,8512.368333
1513.761065,2451.505594,962.267725,8364.327145
1513.761382,2145.067394,888.247130,8364.327145
1513.761700,2068.457845,148.041188,8364.327145
1513.762017,1915.238745,-74.020594,8882.471304
1513.762334,1991.848295,-592.164754,8956.491898
1513.762652,1455.581446,-592.164754,8882.471304
1513.762969,1455.581446,-592.164754,9178.553681
1513.763286,1225.752797,-518.144159,9400.615463
1513.763604,919.314598,-296.082377,9474.636058
1513.763921,536.266849,-0.000000,9474.636058
1513.764238,153.219100,-0.000000,9992.780217
1513.764556,153.219100,-74.020594,10214.842000
1513.764873,0.000000,-0.000000,10288.862594
1513.765190,76.609550,-74.020594,10066.800811
1513.765507,229.828649,148.041188,9992.780217
1513.765825,612.876398,74.020594,9992.780217
1513.766142,306.438199,444.123565,9622.677246
1513.766459,766.095498,296.082377,9474.636058
1513.766777,842.705048,-0.000000,9474.636058
1513.767094,842.705048,148.041188,9474.636058
1513.767411,1072.533697,296.082377,9474.636058
1513.767729,459.657299,518.144159,9400.615463
1513.768046,229.828649,444.123565,9400.615463
1513.768363,0.000000,-0.000000,9252.574275
1513.768681,0.000000,-0.000000,9474.636058
1513.768998,76.609550,-0.000000,9844.739029
1513.769315,0.000000,-222.061783,10214.842000
1513.769633,153.219100,148.041188,10140.821405
1513.769950,612.876398,296.082377,9918.759623
1513.770267,919.314598,518.144159,9474.636058
1513.770584,1149.143247,962.267725,9548.656652
1513.770902,1455.581446,962.267725,9178.553681
1513.771219,1302.362347,1258.350101,8956.491898
1513.771536,1149.143247,1332.370696,9030.512492
1513.771854,1378.971896,962.267725,9326.594869
1513.772171,1532.190996,592.164754,9548.656652
1513.772488,1072.533697,592.164754,9696.697840
1513.772806,919.314598,444.123565,9696.697840
1513.773123,766.095498,148.041188,9474.636058
1513.773440,1302.362347,-0.000000,9770.718434
1513.773758,919.314598,-0.000000,9622.677246
1513.774075,689.485948,222.061783,9622.677246
1513.774392,689.485948,-0.000000,9844.739029
1513.774710,229.828649,222.061783,9992.780217
1513.775027,306.438199,444.123565,10140.821405
1513.775344,842.705048,666.185348,9696.697840
1513.775661,689.485948,148.041188,9474.636058
1513.775979,1225.752797,518.144159,9400.615463
1513.776296,1532.190996,370.102971,9252.574275
1513.776613,1762.019645,148.041188,9104.533087
1513.776931,1685.410096,148.041188,8808.450710
1513.777248,1455.581446,222.061783,8734.430116
1513.777565,919.314598,370.102971,8660.409521
1513.777883,612.876398,370.102971,8734.430116
1513.778200,306.438199,-0.000000,9326.594869
1513.778517,-383.047749,-74.020594,9474.636058
1513.778835,-919.314598,-222.061783,9474.636058
1513.779152,-766.095498,-370.102971,9844.739029
1513.779469,-919.314598,-592.164754,9992.780217
1513.779787,-306.438199,-518.144159,10066.800811
1513.780104,-306.438199,-222.061783,9696.697840
1513.780421,306.438199,-0.000000,9178.553681
1513.780738,459.657299,222.061783,8956.491898
1513.781056,306.438199,296.082377,8882.471304
1513.781373,536.266849,148.041188,9104.533087
1513.781690,842.705048,148.041188,8660.409521
1513.782008,1072.533697,-0.000000,9178.553681
1513.782325,995.924147,148.041188,9770.718434
1513.782642,1225.752797,-222.061783,9252.574275
1513.782960,1455.581446,-222.061783,9030.512492
1513.783277,1378.971896,-148.041188,8808.450710
1513.783594,1532.190996,-296.082377,9030.512492
1513.783912,995.924147,-296.082377,9104.533087
1513.784229,1225.752797,-148.041188,9104.533087
1513.784546,1225.752797,-222.061783,9252.574275
1513.784863,766.095498,-0.000000,9622.677246
1513.785181,766.095498,-74.020594,9844.739029
1513.785498,1149.143247,-0.000000,9844.739029
1513.785815,1072.533697,-0.000000,9400.615463
1513.786133,842.705048,148.041188,9400.615463
1513.786450,1149.143247,148.041188,9400.615463
1513.786767,995.924147,148.041188,9178.553681
1513.787085,1302.362347,222.061783,9400.615463
1513.787402,919.314598,148.041188,9474.636058
1513.787719,459.657299,222.061783,9474.636058
1513.788037,459.657299,296.082377,9178.553681
1513.788354,153.219100,518.144159,9474.636058
1513.788671,-153.219100,-0.000000,9104.533087
1513.788989,0.000000,444.123565,9326.594869
1513.789306,-306.438199,296.082377,9622.677246
1513.789623,-153.219100,-0.000000,9770.718434
1513.789940,0.000000,-74.020594,9844.739029
1513.790258,0.000000,-222.061783,9474.636058
1513.790575,76.609550,148.041188,9548.656652
1513.790892,306.438199,296.082377,9474.636058
1513.791210,536.266849,222.061783,9178.553681
1513.791527,536.266849,444.123565,9400.615463
1513.791844,76.609550,592.164754,9326.594869
1513.792162,383.047749,888.247130,9474.636058
1513.792479,306.438199,296.082377,9622.677246
1513.792796,229.828649,222.061783,9770.718434
1513.793114,919.314598,296.082377,9696.697840
1513.793431,842.705048,444.123565,9474.636058
1513.793748,1072.533697,592.164754,9622.677246
1513.794065,1149.143247,814.226536,9474.636058
1513.794383,1378.971896,962.267725,9474.636058
1513.794700,1915.238745,888.247130,9474.636058
1513.795017,1608.800546,814.226536,9622.677246
1513.795335,1838.629195,1184.329507,9474.636058
1513.795652,1915.238745,1036.288319,9326.594869
1513.795969,1838.629195,666.185348,9252.574275
1513.796287,1838.629195,-0.000000,9622.677246
1513.796604,1762.019645,222.061783,9326.594869
1513.796921,1608.800546,148.041188,9474.636058
1513.797239,1608.800546,-0.000000,9474.636058
1513.797556,1532.190996,148.041188,9474.636058
1513.797873,689.485948,-0.000000,9178.553681
1513.798191,995.924147,518.144159,9326.594869
1513.798508,383.047749,518.144159,9326.594869
1513.798825,0.000000,518.144159,9474.636058
1513.799142,0.000000,444.123565,9696.697840
1513.799460,0.000000,-0.000000,9844.739029
1513.799777,229.828649,-148.041188,9918.759623
1513.800094,306.438199,-370.102971,9918.759623
1513.800412,459.657299,-0.000000,9622.677246
1513.800729,1149.143247,148.041188,9548.656652
1513.801046,1149.143247,666.185348,9104.533087
1513.801364,536.266849,1110.308913,8586.388927
1513.801681,919.314598,962.267725,8512.368333
1513.801998,459.657299,592.164754,8512.368333
1513.802316,153.219100,-370.102971,9104.533087
1513.802633,0.000000,-370.102971,9474.636058
1513.802950,0.000000,-740.205942,9770.718434
1513.803267,0.000000,-592.164754,9918.759623
1513.803585,229.828649,-518.144159,9770.718434
1513.803902,612.876398,-296.082377,9474.636058
1513.804219,459.657299,148.041188,9474.636058
1513.804537,1225.752797,962.267725,9178.553681
1513.804854,995.924147,740.205942,8956.491898
1513.805171,1378.971896,1110.308913,8956.491898
1513.805489,1762.019645,1036.288319,8956.491898
1513.805806,1838.629195,814.226536,9178.553681
1513.806123,1762.019645,-0.000000,9400.615463
1513.806441,1685.410096,-74.020594,9548.656652
1513.806758,1915.238745,-0.000000,9400.615463
1513.807075,1915.238745,-0.000000,9326.594869
1513.807393,1838.629195,-0.000000,9252.574275
1513.807710,1762.019645,296.082377,9030.512492
1513.808027,1608.800546,-0.000000,8956.491898
1513.808344,1302.362347,-0.000000,8956.491898
1513.808662,919.314598,-74.020594,9178.553681
1513.808979,383.047749,-148.041188,9474.636058
1513.809296,306.438199,-148.041188,9844.739029
1513.809614,306.438199,-0.000000,9918.759623
1513.809931,995.924147,-74.020594,10066.800811
1513.810248,1302.362347,-0.000000,10066.800811
1513.810566,1762.019645,740.205942,9474.636058
1513.810883,1378.971896,666.185348,9104.533087
1513.811200,1302.362347,1036.288319,8660.409521
1513.811518,1532.190996,740.205942,8512.368333
1513.811835,612.876398,592.164754,8808.450710
1513.812152,0.000000,370.102971,9178.553681
1513.812469,-612.876398,-0.000000,9844.739029
1513.812787,-919.314598,-222.061783,10288.862594
1513.813104,-1302.362347,-296.082377,9918.759623
1513.813421,-995.924147,-0.000000,10140.821405
1513.813739,-1378.971896,-0.000000,9992.780217
1513.814056,-842.705048,222.061783,9918.759623
1513.814373,-459.657299,444.123565,9474.636058
1513.814691,-306.438199,370.102971,9622.677246
1513.815008,-153.219100,666.185348,9696.697840
1513.815325,0.000000,962.267725,9770.718434
1513.815643,229.828649,1036.288319,9918.759623
1513.815960,689.485948,962.267725,9622.677246
1513.816277,689.485948,370.102971,9474.636058
1513.816595,1149.143247,518.144159,9178.553681
1513.816912,1225.752797,518.144159,9252.574275
1513.817229,1302.362347,518.144159,8956.491898
1513.817546,1685.410096,-0.000000,8956.491898
1513.817864,995.924147,-0.000000,9030.512492
1513.818181,766.095498,148.041188,9252.574275
1513.818498,306.438199,-0.000000,9400.615463
1513.818816,0.000000,-0.000000,9548.656652
1513.819133,0.000000,-74.020594,10362.883188
1513.819450,306.438199,-0.000000,9918.759623
1513.819768,306.438199,-296.082377,10288.862594
1513.820085,1072.533697,-0.000000,10362.883188
1513.820402,1608.800546,-0.000000,9992.780217
1513.820720,2221.676944,370.102971,9474.636058
1513.821037,2681.334243,814.226536,8956.491898
1513.821354,2911.162892,1036.288319,8216.285956
1513.821671,2834.553343,1406.391290,8290.306550
1513.821989,2604.724693,1258.350101,7920.203579
1513.822306,2374.896044,740.205942,8290.306550
1513.822623,2068.457845,222.061783,9252.574275
1513.822941,1608.800546,-444.123565,9474.636058
1513.823258,1608.800546,-592.164754,9622.677246
1513.823575,1225.752797,-0.000000,9918.759623
1513.823893,1225.752797,-370.102971,9474.636058
1513.824210,1455.581446,74.020594,9548.656652
1513.824527,919.314598,444.123565,9178.553681
1513.824845,1149.143247,814.226536,9326.594869
1513.825162,689.485948,592.164754,9104.533087
1513.825479,612.876398,592.164754,9474.636058
1513.825797,612.876398,444.123565,9474.636058
1513.826114,536.266849,444.123565,9326.594869
1513.826431,229.828649,222.061783,9696.697840
1513.826748,1072.533697,-0.000000,9548.656652
1513.827066,766.095498,-0.000000,9104.533087
1513.827383,995.924147,-74.020594,9104.533087
1513.827700,689.485948,-0.000000,8956.491898
1513.828018,229.828649,-0.000000,9104.533087
1513.828335,0.000000,148.041188,8956.491898
1513.828652,-383.047749,296.082377,9104.533087
1513.828970,-842.705048,-0.000000,9548.656652
1513.829287,-919.314598,-148.041188,9844.739029
1513.829604,-1532.190996,-370.102971,10066.800811
1513.829922,-689.485948,-740.205942,10510.924376
1513.830239,-153.219100,-148.041188,10066.800811
1513.830556,383.047749,-0.000000,9918.759623
1513.830873,919.314598,370.102971,9252.574275
1513.831191,995.924147,-0.000000,9030.512492
1513.831508,1225.752797,444.123565,8586.388927
1513.831825,1072.533697,518.144159,8808.450710
1513.832143,1072.533697,518.144159,9252.574275
1513.832460,842.705048,296.082377,9474.636058
1513.832777,689.485948,-0.000000,9918.759623
1513.833095,995.924147,-74.020594,10362.883188
1513.833412,995.924147,-74.020594,10140.821405
1513.833729,1532.190996,-0.000000,9844.739029
1513.834047,1608.800546,-0.000000,9474.636058
1513.834364,1455.581446,-0.000000,9178.553681
1513.834681,1685.410096,592.164754,9252.574275
1513.834999,1455.581446,666.185348,9104.533087
1513.835316,1608.800546,222.061783,9474.636058
1513.835633,1455.581446,370.102971,9548.656652
1513.835950,1302.362347,222.061783,9696.697840
1513.836268,1225.752797,-0.000000,9474.636058
1513.836585,1149.143247,-0.000000,9622.677246
1513.836902,1072.533697,-0.000000,9252.574275
1513.837220,1072.533697,-0.000000,9030.512492
1513.837537,1149.143247,-222.061783,9326.594869
1513.837854,1072.533697,-0.000000,9326.594869
1513.838172,383.047749,148.041188,9252.574275
1513.838489,229.828649,296.082377,9474.636058
1513.838806,0.000000,296.082377,9474.636058
1513.839124,-459.657299,-148.041188,9770.718434
1513.839441,-842.705048,-0.000000,9844.739029
1513.839758,-459.657299,-0.000000,10140.821405
1513.840075,153.219100,-0.000000,9696.697840
1513.840393,76.609550,-0.000000,9622.677246
1513.840710,842.705048,444.123565,9400.615463
1513.841027,766.095498,-0.000000,8808.450710
1513.841345,1072.533697,148.041188,8586.388927
1513.841662,842.705048,444.123565,8956.491898
1513.841979,766.095498,370.102971,8734.430116
1513.842297,0.000000,444.123565,9400.615463
1513.842614,-76.609550,148.041188,9326.594869
1513.842931,-229.828649,-296.082377,9770.718434
1513.843249,0.000000,-222.061783,9696.697840
1513.843566,76.609550,-444.123565,9474.636058
1513.843883,383.047749,-148.041188,9400.615463
1513.844200,536.266849,-0.000000,8956.491898
1513.844518,536.266849,-0.000000,8956.491898
1513.844835,842.705048,-0.000000,9326.594869
1513.845152,1072.533697,444.123565,9474.636058
1513.845470,766.095498,370.102971,9474.636058
1513.845787,995.924147,740.205942,9474.636058
1513.846104,919.314598,444.123565,9622.677246
1513.846422,766.095498,370.102971,9030.512492
1513.846739,1149.143247,444.123565,8956.491898
1513.847056,1378.971896,222.061783,9178.553681
1513.847374,1455.581446,-0.000000,9030.512492
1513.847691,1149.143247,-0.000000,9030.512492
1513.848008,919.314598,-0.000000,9622.677246
1513.848326,995.924147,-0.000000,9474.636058
1513.848643,612.876398,518.144159,9474.636058
1513.848960,76.609550,666.185348,9474.636058
1513.849277,229.828649,444.123565,9474.636058
1513.849595,0.000000,666.185348,9474.636058
1513.849912,612.876398,444.123565,9400.615463
1513.850229,842.705048,-0.000000,9474.636058
1513.850547,1072.533697,-0.000000,9696.697840
1513.850864,1532.190996,-0.000000,9770.718434
1513.851181,1532.190996,296.082377,9548.656652
1513.851499,1455.581446,370.102971,9400.615463
1513.851816,1685.410096,592.164754,9474.636058
1513.852133,919.314598,370.102971,9252.574275
1513.852451,842.705048,444.123565,9326.594869
1513.852768,919.314598,-0.000000,9474.636058
1513.853085,689.485948,-0.000000,9696.697840
1513.853402,229.828649,-370.102971,9844.739029
1513.853720,306.438199,-518.144159,9770.718434
1513.854037,-153.219100,-148.041188,9696.697840
1513.854354,383.047749,-0.000000,9770.718434
1513.854672,306.438199,222.061783,9770.718434
1513.854989,689.485948,148.041188,9474.636058
1513.855306,383.047749,370.102971,9696.697840
1513.855624,536.266849,222.061783,9770.718434
1513.855941,612.876398,370.102971,9474.636058
1513.856258,459.657299,370.102971,9474.636058
1513.856576,459.657299,222.061783,9474.636058
1513.856893,766.095498,74.020594,9400.615463
1513.857210,919.314598,-74.020594,9696.697840
1513.857528,995.924147,-0.000000,9326.594869
1513.857845,766.095498,-0.000000,9252.574275
1513.858162,995.924147,222.061783,9178.553681
1513.858479,919.314598,666.185348,9252.574275
1513.858797,459.657299,370.102971,8882.471304
1513.859114,459.657299,-0.000000,9104.533087
1513.859431,459.657299,148.041188,9400.615463
1513.859749,229.828649,-0.000000,9474.636058
1513.860066,306.438199,-0.000000,9400.615463
1513.860383,536.266849,-222.061783,9696.697840
1513.860701,842.705048,-296.082377,9844.739029
1513.861018,1455.581446,-0.000000,9400.615463
1513.861335,1608.800546,444.123565,9178.553681
1513.861653,1991.848295,148.041188,8882.471304
1513.861970,1455.581446,518.144159,8586.388927
1513.862287,1149.143247,296.082377,9030.512492
1513.862604,1072.533697,370.102971,9178.553681
1513.862922,842.705048,-74.020594,9548.656652
1513.863239,689.485948,-296.082377,9770.718434
1513.863556,536.266849,-0.000000,9770.718434
1513.863874,536.266849,-370.102971,9696.697840
1513.864191,689.485948,-148.041188,9474.636058
1513.864508,689.485948,222.061783,9474.636058
1513.864826,842.705048,518.144159,9400.615463
1513.865143,995.924147,740.205942,9030.512492
1513.865460,842.705048,518.144159,9474.636058
1513.865778,766.095498,370.102971,9474.636058
1513.866095,459.657299,222.061783,9622.677246
1513.866412,766.095498,592.164754,9326.594869
1513.866730,919.314598,518.144159,9400.615463
1513.867047,1072.533697,296.082377,9252.574275
1513.867364,1072.533697,370.102971,9252.574275
1513.867681,612.876398,-0.000000,9030.512492
1513.867999,842.705048,-0.000000,9326.594869
1513.868316,306.438199,148.041188,8956.491898
1513.868633,306.438199,444.123565,9104.533087
1513.868951,0.000000,296.082377,9104.533087
1513.869268,-383.047749,370.102971,9474.636058
1513.869585,-383.047749,444.123565,9548.656652
1513.869903,-229.828649,296.082377,9770.718434
1513.870220,0.000000,296.082377,9548.656652
1513.870537,229.828649,-0.000000,9844.739029
1513.870855,766.095498,-0.000000,9622.677246
1513.871172,689.485948,666.185348,9622.677246
1513.871489,919.314598,592.164754,9030.512492
1513.871806,1149.143247,888.247130,9104.533087
1513.872124,1149.143247,962.267725,8882.471304
1513.872441,1225.752797,962.267725,9326.594869
1513.872758,1225.752797,814.226536,9400.615463
1513.873076,1302.362347,-0.000000,9770.718434
1513.873393,1149.143247,-0.000000,9696.697840
1513.873710,1685.410096,296.082377,9844.739029
1513.874028,1302.362347,-0.000000,9252.574275
1513.874345,1378.971896,518.144159,9474.636058
1513.874662,1455.581446,740.205942,9178.553681
1513.874980,1378.971896,962.267725,9326.594869
1513.875297,1532.190996,740.205942,9474.636058
1513.875614,1072.533697,888.247130,9770.718434
1513.875932,1532.190996,888.247130,9696.697840
1513.876249,1378.971896,962.267725,9326.594869
1513.876566,1378.971896,592.164754,9400.615463
1513.876883,1378.971896,740.205942,9548.656652
1513.877201,1378.971896,814.226536,9622.677246
1513.877518,919.314598,666.185348,9178.553681
1513.877835,919.314598,666.185348,9400.615463
1513.878153,612.876398,296.082377,9474.636058
1513.878470,766.095498,-74.020594,9770.718434
1513.878787,0.000000,-0.000000,9326.594869
1513.879105,-383.047749,222.061783,9400.615463
1513.879422,-842.705048,-0.000000,9548.656652
1513.879739,-842.705048,-0.000000,9474.636058
1513.880057,-1149.143247,-296.082377,9770.718434
1513.880374,-766.095498,-370.102971,10140.821405
1513.880691,-383.047749,-0.000000,10066.800811
1513.881008,0.000000,-0.000000,9622.677246
1513.881326,306.438199,518.144159,9474.636058
1513.881643,383.047749,444.123565,9178.553681
1513.881960,459.657299,518.144159,8956.491898
1513.882278,536.266849,518.144159,8956.491898
1513.882595,919.314598,370.102971,9104.533087
1513.882912,1072.533697,444.123565,9474.636058
1513.883230,995.924147,-444.123565,9474.636058
1513.883547,919.314598,-148.041188,9474.636058
1513.883864,1302.362347,-592.164754,9622.677246
1513.884182,1072.533697,-222.061783,9400.615463
1513.884499,842.705048,-0.000000,9474.636058
1513.884816,1149.143247,296.082377,9030.512492
1513.885134,1455.581446,518.144159,9104.533087
1513.885451,1378.971896,444.123565,8808.450710
1513.885768,1532.190996,222.061783,9474.636058
1513.886085,1149.143247,296.082377,9622.677246
1513.886403,1532.190996,296.082377,9474.636058
1513.886720,1455.581446,-0.000000,9400.615463
1513.887037,1608.800546,222.061783,9400.615463
1513.887355,1302.362347,-0.000000,9474.636058
1513.887672,1532.190996,222.061783,9474.636058
1513.887989,1455.581446,74.020594,9474.636058
1513.888307,1532.190996,-370.102971,9400.615463
1513.888624,1378.971896,222.061783,9252.574275
1513.888941,995.924147,222.061783,9622.677246
1513.889259,383.047749,370.102971,9030.512492
1513.889576,306.438199,-74.020594,9326.594869
1513.889893,0.000000,74.020594,9400.615463
1513.890210,153.219100,370.102971,9178.553681
1513.890528,229.828649,-296.082377,9696.697840
1513.890845,536.266849,-296.082377,9696.697840
1513.891162,766.095498,-222.061783,9548.656652
1513.891480,919.314598,-148.041188,9178.553681
1513.891797,842.705048,-0.000000,8882.471304
1513.892114,919.314598,-0.000000,8956.491898
1513.892432,536.266849,-0.000000,9252.574275
1513.892749,612.876398,222.061783,8956.491898
1513.893066,229.828649,148.041188,9548.656652
1513.893384,0.000000,-0.000000,9992.780217
1513.893701,229.828649,-74.020594,9770.718434
1513.894018,306.438199,-0.000000,9548.656652
1513.894336,536.266849,444.123565,9474.636058
1513.894653,842.705048,444.123565,9400.615463
1513.894970,766.095498,370.102971,9474.636058
1513.895287,1149.143247,888.247130,9400.615463
1513.895605,1455.581446,814.226536,9474.636058
1513.895922,1378.971896,592.164754,9474.636058
1513.896239,1532.190996,518.144159,9326.594869
1513.896557,1455.581446,740.205942,9474.636058
1513.896874,1532.190996,666.185348,9252.574275
1513.897191,1532.190996,518.144159,9178.553681
1513.897509,1455.581446,370.102971,9178.553681
1513.897826,1302.362347,296.082377,9252.574275
1513.898143,1149.143247,444.123565,9178.553681
1513.898461,842.705048,444.123565,9178.553681
1513.898778,459.657299,444.123565,9474.636058
1513.899095,153.219100,370.102971,9400.615463
1513.899413,459.657299,444.123565,9622.677246
1513.899730,-612.876398,148.041188,9918.759623
1513.900047,-383.047749,518.144159,9844.739029
1513.900364,-383.047749,370.102971,10066.800811
1513.900682,-383.047749,-0.000000,10066.800811
1513.900999,459.657299,-74.020594,10362.883188
1513.901316,0.000000,370.102971,9696.697840
1513.901634,383.047749,888.247130,9400.615463
1513.901951,383.047749,1184.329507,9178.553681
1513.902268,459.657299,888.247130,9030.512492
1513.902586,153.219100,592.164754,9030.512492
1513.902903,306.438199,592.164754,9030.512492
1513.903220,536.266849,370.102971,9326.594869
1513.903538,459.657299,-74.020594,9844.739029
1513.903855,612.876398,-74.020594,9770.718434
1513.904172,536.266849,-444.123565,9844.739029
1513.904489,919.314598,-0.000000,9696.697840
1513.904807,1149.143247,-0.000000,9474.636058
1513.905124,1149.143247,518.144159,9326.594869
1513.905441,1532.190996,592.164754,9474.636058
1513.905759,1762.019645,740.205942,9252.574275
1513.906076,1838.629195,666.185348,9474.636058
1513.906393,1378.971896,444.123565,9548.656652
1513.906711,1762.019645,444.123565,9548.656652
1513.907028,1685.410096,518.144159,9474.636058
1513.907345,1915.238745,148.041188,9474.636058
1513.907663,1915.238745,-222.061783,9400.615463
1513.907980,1838.629195,-518.144159,9400.615463
1513.908297,1838.629195,-444.123565,9326.594869
1513.908615,1608.800546,-666.185348,9326.594869
1513.908932,1072.533697,-296.082377,9030.512492
1513.909249,919.314598,-0.000000,9252.574275
1513.909566,459.657299,-370.102971,9252.574275
1513.909884,76.609550,-222.061783,9400.615463
1513.910201,76.609550,-370.102971,9474.636058
1513.910518,0.000000,-0.000000,9474.636058
1513.910836,306.438199,-148.041188,9474.636058
1513.911153,459.657299,-0.000000,9622.677246
1513.911470,459.657299,-148.041188,9326.594869
1513.911788,536.266849,-0.000000,9252.574275
1513.912105,383.047749,296.082377,8882.471304
1513.912422,76.609550,222.061783,8956.491898
1513.912740,0.000000,666.185348,9030.512492
1513.913057,229.828649,518.144159,9104.533087
1513.913374,0.000000,-0.000000,9770.718434
1513.913692,-153.219100,-370.102971,9696.697840
1513.914009,-229.828649,-148.041188,9770.718434
1513.914326,0.000000,-0.000000,9474.636058
1513.914643,842.705048,222.061783,9400.615463
1513.914961,229.828649,-296.082377,9104.533087
1513.915278,306.438199,-0.000000,9030.512492
1513.915595,995.924147,444.123565,9104.533087
1513.915913,995.924147,592.164754,9178.553681
1513.916230,766.095498,-0.000000,9326.594869
1513.916547,1378.971896,296.082377,9474.636058
1513.916865,1149.143247,296.082377,9104.533087
1513.917182,1532.190996,148.041188,9474.636058
1513.917499,1532.190996,-0.000000,9548.656652
1513.917817,1532.190996,-0.000000,9326.594869
1513.918134,1991.848295,444.123565,9252.574275
1513.918451,1532.190996,222.061783,9474.636058
1513.918768,1838.629195,370.102971,9548.656652
1513.919086,1149.143247,444.123565,9548.656652
1513.919403,919.314598,444.123565,9474.636058
1513.919720,612.876398,444.123565,9474.636058
1513.920038,689.485948,-0.000000,9770.718434
1513.920355,612.876398,-0.000000,9844.739029
1513.920672,995.924147,-0.000000,9918.759623
1513.920990,1072.533697,-148.041188,9992.780217
1513.921307,1302.362347,-0.000000,9770.718434
1513.921624,1225.752797,222.061783,9474.636058
1513.921942,1149.143247,666.185348,9030.512492
1513.922259,689.485948,814.226536,8882.471304
1513.922576,919.314598,518.144159,9178.553681
1513.922894,459.657299,592.164754,9252.574275
1513.923211,229.828649,370.102971,9400.615463
1513.923528,0.000000,-0.000000,9770.718434
1513.923845,0.000000,-74.020594,9992.780217
1513.924163,-306.438199,-222.061783,9770.718434
1513.924480,-383.047749,-0.000000,9622.677246
1513.924797,0.000000,-0.000000,9548.656652
1513.925115,0.000000,370.102971,9622.677246
1513.925432,0.000000,814.226536,9474.636058
1513.925749,229.828649,814.226536,9178.553681
1513.926067,153.219100,962.267725,9252.574275
1513.926384,459.657299,962.267725,9474.636058
1513.926701,766.095498,518.144159,9178.553681
1513.927019,612.876398,814.226536,9326.594869
1513.927336,842.705048,518.144159,9104.533087
1513.927653,1225.752797,148.041188,9178.553681
1513.927971,766.095498,-0.000000,9030.512492
1513.928288,689.485948,-222.061783,9400.615463
1513.928605,766.095498,-0.000000,9474.636058
1513.928922,1149.143247,-74.020594,9474.636058
1513.929240,766.095498,-0.000000,9474.636058
1513.929557,842.705048,-0.000000,9622.677246
1513.929874,459.657299,-0.000000,9992.780217
1513.930192,612.876398,-0.000000,9622.677246
1513.930509,459.657299,148.041188,9770.718434
1513.930826,919.314598,-0.000000,9622.677246
1513.931144,1455.581446,-0.000000,9622.677246
1513.931461,1532.190996,-0.000000,9474.636058
1513.931778,1915.238745,148.041188,9400.615463
1513.932096,1532.190996,222.061783,9252.574275
1513.932413,1455.581446,370.102971,8734.430116
1513.932730,1072.533697,222.061783,9326.594869
1513.933047,689.485948,-0.000000,9474.636058
1513.933365,766.095498,-148.041188,9326.594869
1513.933682,536.266849,-444.123565,9696.697840
1513.933999,229.828649,-592.164754,10140.821405
1513.934317,229.828649,-296.082377,9992.780217
1513.934634,459.657299,-222.061783,9844.739029
1513.934951,-76.609550,-0.000000,9696.697840
1513.935269,383.047749,296.082377,9474.636058
1513.935586,383.047749,740.205942,9178.553681
1513.935903,612.876398,888.247130,9252.574275
1513.936221,995.924147,592.164754,9474.636058
1513.936538,995.924147,592.164754,9548.656652
1513.936855,1072.533697,444.123565,9326.594869
1513.937173,1225.752797,444.123565,9474.636058
1513.937490,1072.533697,-0.000000,9326.594869
1513.937807,1378.971896,148.041188,8734.430116
1513.938124,1378.971896,370.102971,8734.430116
1513.938442,1149.143247,370.102971,8734.430116
1513.938759,919.314598,148.041188,8882.471304
1513.939076,459.657299,296.082377,9252.574275
1513.939394,-153.219100,-0.000000,9474.636058
1513.939711,229.828649,370.102971,9400.615463
1513.940028,0.000000,296.082377,9474.636058
1513.940346,-229.828649,-0.000000,9770.718434
1513.940663,76.609550,-0.000000,9622.677246
1513.940980,689.485948,592.164754,9770.718434
1513.941298,766.095498,-0.000000,9622.677246
1513.941615,1149.143247,370.102971,9770.718434
1513.941932,1378.971896,444.123565,9326.594869
1513.942250,1302.362347,592.164754,8882.471304
1513.942567,1455.581446,592.164754,9178.553681
1513.942884,1225.752797,444.123565,9252.574275
1513.943201,1072.533697,444.123565,9326.594869
1513.943519,995.924147,222.061783,9178.553681
1513.943836,842.705048,-296.082377,9770.718434
1513.944153,1225.752797,-518.144159,9770.718434
1513.944471,689.485948,-296.082377,9622.677246
1513.944788,536.266849,-222.061783,9326.594869
1513.945105,536.266849,-148.041188,9474.636058
1513.945423,689.485948,-0.000000,9474.636058
1513.945740,459.657299,370.102971,9474.636058
1513.946057,153.219100,666.185348,9474.636058
1513.946375,383.047749,814.226536,9622.677246
1513.946692,459.657299,666.185348,9770.718434
1513.947009,536.266849,814.226536,9474.636058
1513.947327,383.047749,962.267725,9770.718434
1513.947644,383.047749,740.205942,9030.512492
1513.947961,995.924147,592.164754,9030.512492
1513.948278,612.876398,666.185348,8956.491898
1513.948596,689.485948,518.144159,9252.574275
1513.948913,536.266849,592.164754,9326.594869
1513.949230,0.000000,444.123565,9474.636058
1513.949548,-229.828649,148.041188,9548.656652
1513.949865,-383.047749,222.061783,9696.697840
1513.950182,-612.876398,962.267725,9844.739029
1513.950500,-306.438199,666.185348,9622.677246
1513.950817,0.000000,740.205942,9474.636058
1513.951134,76.609550,370.102971,9548.656652
1513.951452,459.657299,222.061783,9474.636058
1513.951769,689.485948,518.144159,9548.656652
1513.952086,995.924147,592.164754,9400.615463
1513.952403,1072.533697,370.102971,9104.533087
1513.952721,995.924147,444.123565,9030.512492
1513.953038,1225.752797,370.102971,9252.574275
1513.953355,1378.971896,222.061783,9252.574275
1513.953673,1225.752797,148.041188,9252.574275
1513.953990,1149.143247,-0.000000,9770.718434
1513.954307,995.924147,-444.123565,9918.759623
1513.954625,1072.533697,-148.041188,9770.718434
1513.954942,1455.581446,-222.061783,9696.697840
1513.955259,1225.752797,-74.020594,9844.739029
1513.955577,1072.533697,296.082377,9548.656652
1513.955894,1302.362347,444.123565,9474.636058
1513.956211,1532.190996,370.102971,9474.636058
1513.956529,1685.410096,444.123565,9474.636058
1513.956846,1532.190996,518.144159,9400.615463
1513.957163,1915.238745,592.164754,9474.636058
1513.957480,1378.971896,-0.000000,9252.574275
1513.957798,1685.410096,-0.000000,9030.512492
1513.958115,1302.362347,-222.061783,9178.553681
1513.958432,1072.533697,148.041188,9474.636058
1513.958750,1072.533697,148.041188,9030.512492
1513.959067,842.705048,-0.000000,9400.615463
1513.959384,612.876398,370.102971,9326.594869
1513.959702,153.219100,370.102971,9400.615463
1513.960019,0.000000,296.082377,9400.615463
1513.960336,-229.828649,-74.020594,9474.636058
1513.960654,0.000000,-0.000000,9548.656652
1513.960971,383.047749,-0.000000,9474.636058
1513.961288,229.828649,-0.000000,9548.656652
1513.961606,459.657299,-0.000000,9474.636058
1513.961923,766.095498,222.061783,9252.574275
1513.962240,995.924147,296.082377,8882.471304
1513.962557,919.314598,518.144159,8808.450710
1513.962875,995.924147,370.102971,8586.388927
1513.963192,766.095498,148.041188,8956.491898
1513.963509,536.266849,222.061783,9104.533087
1513.963827,536.266849,-370.102971,9178.553681
1513.964144,536.266849,-888.247130,9548.656652
1513.964461,612.876398,-444.123565,9992.780217
1513.964779,536.266849,-296.082377,9548.656652
1513.965096,689.485948,-74.020594,9622.677246
1513.965413,919.314598,-74.020594,9474.636058
1513.965731,1225.752797,222.061783,9770.718434
1513.966048,1455.581446,592.164754,9252.574275
1513.966365,995.924147,222.061783,9474.636058
1513.966682,1762.019645,592.164754,9474.636058
1513.967000,1991.848295,740.205942,9400.615463
1513.967317,2145.067394,592.164754,9400.615463
1513.967634,1991.848295,370.102971,9178.553681
1513.967952,1915.238745,222.061783,9104.533087
1513.968269,1915.238745,370.102971,9178.553681
1513.968586,1685.410096,518.144159,8882.471304
1513.968904,1225.752797,444.123565,9104.533087
1513.969221,842.705048,-0.000000,9400.615463
1513.969538,383.047749,148.041188,9326.594869
1513.969856,76.609550,-0.000000,9474.636058
1513.970173,-153.219100,296.082377,9252.574275
1513.970490,-612.876398,-0.000000,9696.697840
1513.970808,-689.485948,592.164754,9696.697840
1513.971125,-536.266849,-0.000000,9844.739029
1513.971442,0.000000,222.061783,10214.842000
1513.971759,0.000000,370.102971,9918.759623
1513.972077,383.047749,666.185348,9622.677246
1513.972394,536.266849,740.205942,9104.533087
1513.972711,689.485948,962.267725,8882.471304
1513.973029,459.657299,666.185348,9178.553681
1513.973346,459.657299,962.267725,9030.512492
1513.973663,459.657299,888.247130,8882.471304
1513.973981,536.266849,444.123565,9030.512492
1513.974298,229.828649,-0.000000,9474.636058
1513.974615,76.609550,-148.041188,9548.656652
1513.974933,0.000000,74.020594,9474.636058
1513.975250,0.000000,-74.020594,9548.656652
1513.975567,0.000000,-0.000000,9992.780217
1513.975885,-153.219100,222.061783,9918.759623
1513.976202,76.609550,666.185348,9696.697840
1513.976519,612.876398,518.144159,9918.759623
1513.976836,536.266849,444.123565,10066.800811
1513.977154,919.314598,444.123565,9770.718434
1513.977471,995.924147,666.185348,9696.697840
1513.977788,1685.410096,592.164754,9326.594869
1513.978106,1838.629195,370.102971,9326.594869
1513.978423,2145.067394,592.164754,9252.574275
1513.978740,2298.286494,444.123565,8956.491898
1513.979058,2374.896044,-0.000000,8734.430116
1513.979375,2374.896044,222.061783,8808.450710
1513.979692,1225.752797,-74.020594,9252.574275
1513.980010,1225.752797,-74.020594,8882.471304
1513.980327,459.657299,-148.041188,9474.636058
1513.980644,306.438199,-296.082377,9844.739029
1513.980961,0.000000,-148.041188,9844.739029
1513.981279,306.438199,-148.041188,10066.800811
1513.981596,383.047749,-0.000000,10288.862594
1513.981913,766.095498,-74.020594,9992.780217
1513.982231,383.047749,222.061783,9918.759623
1513.982548,1378.971896,666.185348,9178.553681
1513.982865,1378.971896,962.267725,9030.512492
1513.983183,1532.190996,888.247130,8956.491898
1513.983500,1532.190996,370.102971,8956.491898
1513.983817,995.924147,518.144159,9030.512492
1513.984135,995.924147,-0.000000,9178.553681
1513.984452,842.705048,-370.102971,9326.594869
1513.984769,612.876398,-370.102971,9474.636058
1513.985087,842.705048,-222.061783,9104.533087
1513.985404,383.047749,-370.102971,9030.512492
1513.985721,306.438199,-0.000000,8808.450710
1513.986038,76.609550,222.061783,9252.574275
1513.986356,76.609550,-0.000000,9326.594869
1513.986673,-306.438199,-296.082377,9548.656652
1513.986990,76.609550,-74.020594,9770.718434
1513.987308,0.000000,-0.000000,10214.842000
1513.987625,459.657299,-370.102971,9696.697840
1513.987942,842.705048,-148.041188,9696.697840
1513.988260,919.314598,148.041188,9548.656652
1513.988577,919.314598,74.020594,9104.533087
1513.988894,1072.533697,518.144159,8808.450710
1513.989212,1225.752797,370.102971,8660.409521
1513.989529,1072.533697,296.082377,8734.430116
1513.989846,919.314598,296.082377,9104.533087
1513.990163,536.266849,222.061783,9030.512492
1513.990481,306.438199,-370.102971,9104.533087
1513.990798,-153.219100,-444.123565,9622.677246
1513.991115,0.000000,-518.144159,10066.800811
1513.991432,0.000000,-370.102971,9992.780217
1513.991749,459.657299,-148.041188,9622.677246
1513.992067,612.876398,-0.000000,9770.718434
1513.992384,1072.533697,-0.000000,9474.636058
1513.992701,1378.971896,296.082377,9474.636058
1513.993018,1149.143247,814.226536,8882.471304
1513.993336,1225.752797,518.144159,9178.553681
1513.993653,995.924147,518.144159,9104.533087
1513.993970,1072.533697,592.164754,9104.533087
1513.994287,1378.971896,222.061783,9474.636058
1513.994604,919.314598,-74.020594,9844.739029
1513.994922,1072.533697,222.061783,9474.636058
1513.995239,1072.533697,-0.000000,9474.636058
1513.995556,842.705048,148.041188,9622.677246
1513.995873,1225.752797,-222.061783,9326.594869
1513.996191,612.876398,370.102971,9326.594869
1513.996508,612.876398,518.144159,9622.677246
1513.996825,612.876398,444.123565,9622.677246
1513.997142,1072.533697,148.041188,9622.677246
1513.997460,1149.143247,370.102971,9696.697840
1513.997777,689.485948,592.164754,9474.636058
1513.998094,1455.581446,592.164754,9178.553681
1513.998411,1378.971896,222.061783,9030.512492
1513.998728,1302.362347,148.041188,9400.615463
1513.999046,1302.362347,-0.000000,9326.594869
1513.999363,1072.533697,-0.000000,8882.471304
1513.999680,995.924147,-0.000000,9326.594869
1513.999997,459.657299,148.041188,9548.656652
1514.000315,0.000000,222.061783,9844.739029
1514.000632,0.000000,444.123565,9548.656652
1514.000949,76.609550,370.102971,9622.677246
1514.001266,0.000000,370.102971,9696.697840
1514.001583,153.219100,296.082377,9844.739029
1514.001901,536.266849,-0.000000,10066.800811
1514.002218,842.705048,148.041188,9770.718434
1514.002535,1149.143247,666.185348,9548.656652
1514.002852,1455.581446,1110.308913,9030.512492
1514.003170,1685.410096,1184.329507,8734.430116
1514.003487,1608.800546,1110.308913,8660.409521
1514.003804,995.924147,666.185348,8734.430116
1514.004121,689.485948,592.164754,9400.615463
1514.004438,919.314598,296.082377,9178.553681
1514.004756,919.314598,222.061783,9474.636058
1514.005073,536.266849,-148.041188,9474.636058
1514.005390,153.219100,-222.061783,9474.636058
1514.005707,306.438199,-296.082377,9474.636058
1514.006025,153.219100,-74.020594,9474.636058
1514.006342,76.609550,-0.000000,9326.594869
1514.006659,153.219100,370.102971,9326.594869
1514.006976,76.609550,444.123565,9474.636058
1514.007293,0.000000,222.061783,9548.656652
1514.007611,76.609550,222.061783,9696.697840
1514.007928,229.828649,518.144159,9252.574275
1514.008245,383.047749,370.102971,9178.553681
1514.008562,229.828649,148.041188,9252.574275
1514.008880,459.657299,-0.000000,9252.574275
1514.009197,306.438199,-222.061783,9326.594869
1514.009514,76.609550,-0.000000,9326.594869
1514.009831,0.000000,-0.000000,9548.656652
1514.010148,0.000000,296.082377,9400.615463
1514.010466,-459.657299,-0.000000,9918.759623
1514.010783,-153.219100,-74.020594,9992.780217
1514.011100,-459.657299,-296.082377,9844.739029
1514.011417,229.828649,-0.000000,9992.780217
1514.011735,383.047749,-74.020594,9844.739029
1514.012052,1149.143247,-222.061783,9770.718434
1514.012369,1532.190996,-74.020594,9696.697840
1514.012686,1991.848295,148.041188,9474.636058
1514.013003,2068.457845,518.144159,8808.450710
1514.013321,2374.896044,888.247130,9104.533087
1514.013638,2374.896044,444.123565,9104.533087
1514.013955,2374.896044,-0.000000,8438.347739
1514.014272,1838.629195,-148.041188,9474.636058
1514.014590,1685.410096,-148.041188,9622.677246
1514.014907,1302.362347,-296.082377,9770.718434
1514.015224,1302.362347,-148.041188,9622.677246
1514.015541,1762.019645,-74.020594,9770.718434
1514.015859,1225.752797,-148.041188,9844.739029
1514.016176,1225.752797,-74.020594,9918.759623
1514.016493,1532.190996,-0.000000,9474.636058
1514.016810,1915.238745,-0.000000,9622.677246
1514.017127,1762.019645,222.061783,9252.574275
1514.017445,1302.362347,222.061783,9400.615463
1514.017762,1302.362347,370.102971,9326.594869
1514.018079,1532.190996,444.123565,9030.512492
1514.018396,1378.971896,370.102971,8586.388927
1514.018714,1072.533697,-0.000000,8586.388927
1514.019031,1225.752797,222.061783,8882.471304
1514.019348,919.314598,-0.000000,8734.430116
1514.019665,459.657299,74.020594,8660.409521
1514.019982,0.000000,148.041188,9030.512492
1514.020300,-306.438199,222.061783,9252.574275
1514.020617,-689.485948,444.123565,9178.553681
1514.020934,-1149.143247,296.082377,9696.697840
1514.021251,-1378.971896,-74.020594,9918.759623
1514.021569,-1302.362347,-0.000000,9770.718434
1514.021886,-689.485948,-0.000000,9474.636058
1514.022203,-229.828649,370.102971,9474.636058
1514.022520,229.828649,518.144159,9474.636058
1514.022837,536.266849,1036.288319,8808.450710
1514.023155,919.314598,962.267725,8586.388927
1514.023472,1302.362347,1184.329507,8808.450710
1514.023789,842.705048,740.205942,8512.368333
1514.024106,1302.362347,814.226536,8882.471304
1514.024424,766.095498,592.164754,9178.553681
1514.024741,1532.190996,74.020594,9400.615463
1514.025058,612.876398,-0.000000,9696.697840
1514.025375,612.876398,-74.020594,9770.718434
1514.025692,689.485948,148.041188,9696.697840
1514.026010,919.314598,518.144159,9844.739029
1514.026327,689.485948,814.226536,10214.842000
1514.026644,689.485948,740.205942,9622.677246
1514.026961,1149.143247,666.185348,9918.759623
1514.027279,1378.971896,1036.288319,9770.718434
1514.027596,1532.190996,962.267725,9918.759623
1514.027913,1915.238745,740.205942,9696.697840
1514.028230,1838.629195,740.205942,9474.636058
1514.028547,2145.067394,666.185348,9474.636058
1514.028865,2145.067394,444.123565,9400.615463
1514.029182,2145.067394,444.123565,9252.574275
1514.029499,1991.848295,-0.000000,9178.553681
1514.029816,1149.143247,148.041188,9252.574275
1514.030134,919.314598,296.082377,9474.636058
1514.030451,383.047749,74.020594,9474.636058
1514.030768,0.000000,-74.020594,9844.739029
1514.031085,-383.047749,-296.082377,10140.821405
1514.031403,-842.705048,-296.082377,10140.821405
1514.031720,-842.705048,-222.061783,10436.903782
1514.032037,-612.876398,-370.102971,10658.965565
1514.032354,-306.438199,-148.041188,9992.780217
1514.032671,0.000000,-0.000000,10066.800811
1514.032989,0.000000,370.102971,9622.677246
1514.033306,612.876398,666.185348,9178.553681
1514.033623,689.485948,518.144159,9326.594869
1514.033940,306.438199,666.185348,9030.512492
1514.034258,689.485948,592.164754,9030.512492
1514.034575,612.876398,296.082377,9474.636058
1514.034892,383.047749,-0.000000,9474.636058
1514.035209,689.485948,-74.020594,9326.594869
1514.035526,459.657299,-296.082377,9548.656652
1514.035844,842.705048,-592.164754,9548.656652
1514.036161,383.047749,-518.144159,9326.594869
1514.036478,689.485948,-222.061783,9474.636058
1514.036795,995.924147,-0.000000,9548.656652
1514.037113,1225.752797,-148.041188,9696.697840
1514.037430,1225.752797,-0.000000,9474.636058
1514.037747,1225.752797,444.123565,9548.656652
1514.038064,1991.848295,592.164754,8956.491898
1514.038381,2145.067394,740.205942,8586.388927
1514.038699,1838.629195,370.102971,8734.430116
1514.039016,2298.286494,370.102971,8586.388927
1514.039333,2298.286494,740.205942,8512.368333
1514.039650,1991.848295,370.102971,8364.327145
1514.039968,1608.800546,-0.000000,8586.388927
1514.040285,1149.143247,-0.000000,8660.409521
1514.040602,536.266849,-0.000000,8660.409521
1514.040919,153.219100,-296.082377,9252.574275
1514.041236,-383.047749,-74.020594,9474.636058
1514.041554,-383.047749,148.041188,9474.636058
1514.041871,-459.657299,444.123565,9474.636058
1514.042188,0.000000,-222.061783,9474.636058
1514.042505,76.609550,222.061783,9252.574275
1514.042823,306.438199,296.082377,9326.594869
1514.043140,459.657299,296.082377,9326.594869
1514.043457,536.266849,740.205942,8660.409521
1514.043774,459.657299,888.247130,8882.471304
1514.044091,536.266849,962.267725,8882.471304
1514.044409,689.485948,518.144159,9030.512492
1514.044726,229.828649,-0.000000,9252.574275
1514.045043,153.219100,-222.061783,9770.718434
1514.045360,-76.609550,-222.061783,9844.739029
1514.045678,153.219100,-0.000000,9844.739029
1514.045995,383.047749,-0.000000,9622.677246
1514.046312,153.219100,-0.000000,9548.656652
1514.046629,76.609550,148.041188,9548.656652
1514.046946,306.438199,666.185348,9696.697840
1514.047264,536.266849,592.164754,9992.780217
1514.047581,842.705048,518.144159,9918.759623
1514.047898,919.314598,518.144159,9918.759623
1514.048215,1149.143247,666.185348,9992.780217
1514.048533,1302.362347,962.267725,10066.800811
1514.048850,1302.362347,814.226536,9622.677246
1514.049167,1915.238745,518.144159,9252.574275
1514.049484,1838.629195,296.082377,9474.636058
1514.049802,1685.410096,222.061783,9548.656652
1514.050119,1532.190996,148.041188,9622.677246
1514.050436,1455.581446,222.061783,9992.780217
1514.050753,842.705048,222.061783,9622.677246
1514.051070,612.876398,296.082377,9548.656652
1514.051388,536.266849,370.102971,9548.656652
1514.051705,536.266849,148.041188,9992.780217
1514.052022,842.705048,296.082377,10066.800811
1514.052339,919.314598,370.102971,9622.677246
1514.052657,1072.533697,296.082377,9622.677246
1514.052974,1149.143247,592.164754,9474.636058
1514.053291,1532.190996,592.164754,8956.491898
1514.053608,1608.800546,740.205942,8660.409521
1514.053925,1608.800546,814.226536,8660.409521
1514.054243,1225.752797,740.205942,8882.471304
1514.054560,995.924147,444.123565,8882.471304
1514.054877,612.876398,148.041188,8882.471304
1514.055194,612.876398,-0.000000,9918.759623
1514.055512,0.000000,-296.082377,9770.718434
1514.055829,0.000000,-0.000000,9474.636058
1514.056146,0.000000,-370.102971,9474.636058
1514.056463,0.000000,-296.082377,9770.718434
1514.056780,0.000000,-74.020594,9696.697840
1514.057098,76.609550,-222.061783,9622.677246
1514.057415,153.219100,296.082377,9474.636058
1514.057732,536.266849,814.226536,9474.636058
1514.058049,842.705048,740.205942,9474.636058
1514.058367,995.924147,1036.288319,9178.553681
1514.058684,995.924147,814.226536,8660.409521
1514.059001,995.924147,-0.000000,8882.471304
1514.059318,1149.143247,-74.020594,8882.471304
1514.059635,1072.533697,-222.061783,8882.471304
1514.059953,919.314598,-518.144159,9400.615463
1514.060270,459.657299,-444.123565,9400.615463
1514.060587,383.047749,-74.020594,9104.533087
1514.060904,76.609550,-296.082377,9178.553681
1514.061222,76.609550,-296.082377,9474.636058
1514.061539,0.000000,-296.082377,9326.594869
1514.061856,459.657299,-222.061783,9474.636058
1514.062173,536.266849,-296.082377,9548.656652
1514.062490,383.047749,-296.082377,9770.718434
1514.062808,919.314598,-370.102971,9474.636058
1514.063125,1378.971896,-296.082377,9770.718434
1514.063442,1685.410096,-0.000000,9252.574275
1514.063759,1991.848295,444.123565,8882.471304
1514.064077,1532.190996,222.061783,8734.430116
1514.064394,2068.457845,-0.000000,8660.409521
1514.064711,1455.581446,-296.082377,9030.512492
1514.065028,842.705048,-592.164754,9326.594869
1514.065346,766.095498,-518.144159,9844.739029
1514.065663,766.095498,-296.082377,9696.697840
1514.065980,766.095498,-148.041188,9844.739029
1514.066297,536.266849,-296.082377,9844.739029
1514.066614,459.657299,-74.020594,9992.780217
1514.066932,229.828649,370.102971,9622.677246
1514.067249,689.485948,222.061783,9474.636058
1514.067566,1302.362347,592.164754,9770.718434
1514.067883,842.705048,666.185348,9622.677246
1514.068201,1072.533697,740.205942,9474.636058
1514.068518,1455.581446,740.205942,9178.553681
1514.068835,1225.752797,740.205942,8882.471304
1514.069152,1685.410096,296.082377,9400.615463
1514.069469,1378.971896,592.164754,8882.471304
1514.069787,1149.143247,518.144159,8586.388927
1514.070104,995.924147,370.102971,9178.553681
1514.070421,306.438199,222.061783,9252.574275
1514.070738,229.828649,-0.000000,8882.471304
1514.071056,0.000000,148.041188,9104.533087
1514.071373,-229.828649,222.061783,9474.636058
1514.071690,-536.266849,148.041188,9844.739029
1514.072007,-612.876398,296.082377,9918.759623
1514.072324,0.000000,740.205942,10436.903782
1514.072642,306.438199,740.205942,10066.800811
1514.072959,536.266849,666.185348,9844.739029
1514.073276,995.924147,1332.370696,9252.574275
1514.073593,1608.800546,1554.432478,8808.450710
1514.073911,1838.629195,1036.288319,8586.388927
1514.074228,1685.410096,1110.308913,8512.368333
1514.074545,1225.752797,888.247130,8808.450710
1514.074862,1455.581446,444.123565,8956.491898
1514.075179,1378.971896,-0.000000,9548.656652
1514.075497,766.095498,-148.041188,9918.759623
1514.075814,383.047749,-74.020594,10066.800811
1514.076131,306.438199,-0.000000,9696.697840
1514.076448,229.828649,-0.000000,9770.718434
1514.076766,229.828649,-0.000000,10214.842000
1514.077083,229.828649,370.102971,9992.780217
1514.077400,76.609550,148.041188,9992.780217
1514.077717,536.266849,518.144159,9992.780217
1514.078034,1072.533697,444.123565,9844.739029
1514.078352,383.047749,296.082377,9548.656652
1514.078669,766.095498,518.144159,9104.533087
1514.078986,1149.143247,592.164754,9104.533087
1514.079303,1072.533697,370.102971,9030.512492
1514.079621,1072.533697,-0.000000,9104.533087
1514.079938,842.705048,-222.061783,8956.491898
1514.080255,536.266849,-444.123565,8956.491898
1514.080572,153.219100,-148.041188,8882.471304
1514.080890,0.000000,-296.082377,9030.512492
1514.081207,-536.266849,-296.082377,9178.553681
1514.081524,-919.314598,-296.082377,9326.594869
1514.081841,-1072.533697,-0.000000,9622.677246
1514.082158,-689.485948,-74.020594,9918.759623
1514.082476,-306.438199,-0.000000,10066.800811
1514.082793,-229.828649,-74.020594,9918.759623
1514.083110,459.657299,222.061783,9178.553681
1514.083427,995.924147,592.164754,9252.574275
1514.083745,1532.190996,740.205942,8734.430116
1514.084062,1685.410096,666.185348,8808.450710
1514.084379,1378.971896,518.144159,8956.491898
1514.084696,1762.019645,518.144159,8660.409521
1514.085013,1685.410096,-74.020594,9030.512492
1514.085331,1608.800546,-518.144159,9548.656652
1514.085648,1072.533697,-740.205942,9474.636058
1514.085965,1302.362347,-740.205942,9844.739029
1514.086282,1149.143247,-962.267725,9844.739029
1514.086600,995.924147,-888.247130,9844.739029
1514.086917,995.924147,-740.205942,10288.862594
1514.087234,1072.533697,-0.000000,9770.718434
1514.087551,1378.971896,222.061783,9770.718434
1514.087868,1608.800546,296.082377,9696.697840
1514.088186,1685.410096,-0.000000,9622.677246
1514.088503,1762.019645,-0.000000,9400.615463
1514.088820,2068.457845,-222.061783,9474.636058
1514.089137,1915.238745,-222.061783,9622.677246
1514.089455,1838.629195,-222.061783,9474.636058
1514.089772,1532.190996,-74.020594,9474.636058
1514.090089,1302.362347,-74.020594,9474.636058
1514.090406,1225.752797,-0.000000,9696.697840
1514.090723,536.266849,-0.000000,9326.594869
1514.091041,229.828649,370.102971,9252.574275
1514.091358,-229.828649,370.102971,9252.574275
1514.091675,-459.657299,148.041188,9400.615463
1514.091993,-459.657299,370.102971,9474.636058
1514.092310,-536.266849,74.020594,9622.677246
1514.092627,-306.438199,592.164754,9548.656652
1514.092945,-153.219100,888.247130,9474.636058
1514.093262,0.000000,444.123565,9178.553681
1514.093579,76.609550,1258.350101,8660.409521
1514.093897,306.438199,1258.350101,8586.388927
1514.094214,229.828649,962.267725,8438.347739
1514.094531,383.047749,888.247130,8660.409521
1514.094849,383.047749,518.144159,8808.450710
1514.095166,0.000000,666.185348,9178.553681
1514.095483,0.000000,148.041188,9474.636058
1514.095801,0.000000,296.082377,9696.697840
1514.096118,0.000000,518.144159,9770.718434
1514.096435,-612.876398,-0.000000,9548.656652
1514.096753,0.000000,740.205942,9622.677246
1514.097070,536.266849,666.185348,9474.636058
1514.097387,766.095498,814.226536,9548.656652
1514.097705,1608.800546,1036.288319,9474.636058
1514.098022,1455.581446,1110.308913,9474.636058
1514.098339,1685.410096,962.267725,9400.615463
1514.098657,2221.676944,740.205942,9178.553681
1514.098974,2068.457845,1036.288319,9252.574275
1514.099291,1915.238745,740.205942,9104.533087
1514.099609,2068.457845,370.102971,9622.677246
1514.099926,1838.629195,370.102971,9400.615463
1514.100243,1838.629195,296.082377,9548.656652
1514.100561,1378.971896,370.102971,9696.697840
1514.100878,766.095498,518.144159,9918.759623
1514.101195,612.876398,222.061783,10066.800811
1514.101513,229.828649,296.082377,9696.697840
1514.101830,0.000000,444.123565,9918.759623
1514.102147,-153.219100,222.061783,10288.862594
1514.102465,0.000000,-0.000000,10288.862594
1514.102782,0.000000,148.041188,9918.759623
1514.103099,306.438199,-0.000000,10140.821405
1514.103417,383.047749,518.144159,9622.677246
1514.103734,383.047749,666.185348,9252.574275
1514.104051,689.485948,814.226536,8882.471304
1514.104369,536.266849,888.247130,8734.430116
1514.104686,536.266849,740.205942,8882.471304
1514.105003,306.438199,370.102971,9252.574275
1514.105321,153.219100,222.061783,9474.636058
1514.105638,383.047749,-666.185348,9474.636058
1514.105955,0.000000,-148.041188,9622.677246
1514.106273,0.000000,-0.000000,9992.780217
1514.106590,-153.219100,-74.020594,9622.677246
1514.106907,0.000000,148.041188,9770.718434
1514.107225,153.219100,-0.000000,9918.759623
1514.107542,689.485948,148.041188,9770.718434
1514.107859,842.705048,444.123565,9326.594869
1514.108177,842.705048,444.123565,9326.594869
1514.108494,1608.800546,-74.020594,9918.759623
1514.108811,1455.581446,-0.000000,9474.636058
1514.109129,1302.362347,-0.000000,9178.553681
1514.109446,1838.629195,-0.000000,9252.574275
1514.109763,1685.410096,-0.000000,9400.615463
1514.110081,1838.629195,-740.205942,9178.553681
1514.110398,1532.190996,-370.102971,9474.636058
1514.110715,1225.752797,-592.164754,9696.697840
1514.111033,919.314598,-444.123565,9400.615463
1514.111350,689.485948,-444.123565,9252.574275
1514.111667,383.047749,-444.123565,9696.697840
1514.111985,306.438199,-518.144159,9770.718434
1514.112302,383.047749,-592.164754,9696.697840
1514.112619,766.095498,-370.102971,9548.656652
1514.112937,842.705048,-222.061783,9622.677246
1514.113254,1225.752797,-74.020594,9622.677246
1514.113571,1685.410096,-0.000000,9178.553681
1514.113889,1762.019645,148.041188,8808.450710
1514.114206,1608.800546,148.041188,8364.327145
1514.114523,1532.190996,444.123565,8438.347739
1514.114841,1149.143247,666.185348,8438.347739
1514.115158,1225.752797,296.082377,8364.327145
1514.115475,842.705048,-74.020594,8660.409521
1514.115793,766.095498,-148.041188,9178.553681
1514.116110,459.657299,-444.123565,9104.533087
1514.116427,76.609550,-148.041188,9326.594869
1514.116745,153.219100,-0.000000,9474.636058
1514.117062,0.000000,222.061783,9178.553681
1514.117379,76.609550,740.205942,9030.512492
1514.117697,689.485948,592.164754,9178.553681
1514.118014,306.438199,888.247130,9400.615463
1514.118331,612.876398,666.185348,9178.553681
1514.118649,1302.362347,1036.288319,9178.553681
1514.118966,1378.971896,962.267725,9104.533087
1514.119283,1302.362347,-0.000000,8956.491898
1514.119601,1378.971896,222.061783,9326.594869
1514.119918,1455.581446,-0.000000,9178.553681
1514.120235,1532.190996,296.082377,9030.512492
1514.120553,1378.971896,-0.000000,9474.636058
1514.120870,919.314598,-0.000000,9474.636058
1514.121187,842.705048,296.082377,9770.718434
1514.121505,536.266849,370.102971,9548.656652
1514.121822,306.438199,296.082377,9696.697840
1514.122139,306.438199,222.061783,9992.780217
1514.122457,76.609550,222.061783,9696.697840
1514.122774,0.000000,370.102971,10362.883188
1514.123091,383.047749,-0.000000,10510.924376
1514.123409,842.705048,370.102971,10510.924376
1514.123726,1149.143247,1110.308913,10214.842000
1514.124043,1225.752797,1110.308913,9844.739029
1514.124361,1532.190996,1184.329507,9400.615463
1514.124678,1608.800546,1036.288319,9252.574275
1514.124995,1302.362347,888.247130,9178.553681
1514.125313,1608.800546,592.164754,9474.636058
1514.125630,1302.362347,444.123565,9474.636058
1514.125947,689.485948,222.061783,9918.759623
1514.126265,766.095498,222.061783,9770.718434
1514.126582,536.266849,444.123565,9548.656652
1514.126899,383.047749,148.041188,9622.677246
1514.127217,0.000000,518.144159,9696.697840
1514.127534,0.000000,370.102971,9770.718434
1514.127851,0.000000,518.144159,9622.677246
1514.128169,76.609550,740.205942,9548.656652
1514.128486,76.609550,592.164754,9474.636058
1514.128803,612.876398,1110.308913,9474.636058
1514.129121,536.266849,962.267725,9474.636058
1514.129438,612.876398,444.123565,9104.533087
1514.129755,689.485948,370.102971,9474.636058
1514.130073,766.095498,592.164754,9252.574275
1514.130390,766.095498,444.123565,9326.594869
1514.130707,612.876398,222.061783,9252.574275
1514.131025,536.266849,148.041188,9252.574275
1514.131342,76.609550,222.061783,9178.553681
1514.131659,153.219100,-0.000000,9104.533087
1514.131977,0.000000,-222.061783,9400.615463
1514.132294,0.000000,-296.082377,9474.636058
1514.132611,0.000000,-148.041188,9696.697840
1514.132929,0.000000,-370.102971,10510.924376
1514.133246,536.266849,-444.123565,9770.718434
1514.133563,689.485948,-0.000000,9770.718434
1514.133881,1149.143247,222.061783,9474.636058
1514.134198,1608.800546,222.061783,8956.491898
1514.134515,1608.800546,-0.000000,8956.491898
1514.134833,1608.800546,148.041188,9178.553681
1514.135150,1532.190996,296.082377,9104.533087
1514.135467,1455.581446,-74.020594,9326.594869
1514.135785,1072.533697,-518.144159,9622.677246
1514.136102,919.314598,-888.247130,9770.718434
1514.136419,995.924147,-444.123565,9474.636058
1514.136737,995.924147,-444.123565,9474.636058
1514.137054,919.314598,-444.123565,9474.636058
1514.137371,459.657299,-74.020594,9400.615463
1514.137688,536.266849,-0.000000,9400.615463
1514.138006,1072.533697,296.082377,9178.553681
1514.138323,1685.410096,444.123565,9178.553681
1514.138640,1378.971896,296.082377,9326.594869
1514.138958,1378.971896,370.102971,9104.533087
1514.139275,1302.362347,518.144159,9178.553681
1514.139592,1378.971896,222.061783,8956.491898
1514.139910,1378.971896,-0.000000,9030.512492
1514.140227,995.924147,-0.000000,8660.409521
1514.140544,1072.533697,-0.000000,8734.430116
1514.140862,689.485948,-222.061783,8956.491898
1514.141179,153.219100,-74.020594,9474.636058
1514.141496,-306.438199,-222.061783,9104.533087
1514.141814,-536.266849,-0.000000,9252.574275
1514.142131,-919.314598,-0.000000,9474.636058
1514.142448,-306.438199,-74.020594,9548.656652
1514.142766,-842.705048,-148.041188,9770.718434
1514.143083,-383.047749,-0.000000,9844.739029
1514.143400,-229.828649,-0.000000,9844.739029
1514.143718,0.000000,-0.000000,9770.718434
1514.144035,689.485948,962.267725,9548.656652
1514.144352,1225.752797,666.185348,9178.553681
1514.144670,995.924147,888.247130,9030.512492
1514.144987,1302.362347,592.164754,8956.491898
1514.145304,1455.581446,1036.288319,9030.512492
1514.145622,1225.752797,518.144159,9178.553681
1514.145939,1149.143247,148.041188,9696.697840
1514.146256,919.314598,222.061783,9844.739029
1514.146574,995.924147,148.041188,10066.800811
1514.146891,842.705048,-0.000000,9844.739029
1514.147208,1072.533697,-0.000000,10066.800811
1514.147526,689.485948,444.123565,9770.718434
1514.147843,536.266849,592.164754,9918.759623
1514.148160,919.314598,888.247130,10066.800811
1514.148478,919.314598,888.247130,10066.800811
1514.148795,1302.362347,1110.308913,9918.759623
1514.149112,1378.971896,1184.329507,9400.615463
1514.149430,1685.410096,1332.370696,9252.574275
1514.149747,1608.800546,814.226536,9474.636058
1514.150064,1762.019645,518.144159,9400.615463
1514.150382,1532.190996,740.205942,9696.697840
1514.150699,1608.800546,222.061783,9474.636058
1514.151016,995.924147,148.041188,9548.656652
1514.151334,536.266849,-0.000000,9548.656652
1514.151651,612.876398,296.082377,9548.656652
1514.151968,0.000000,-0.000000,9474.636058
1514.152286,-306.438199,148.041188,9474.636058
1514.152603,-153.219100,-0.000000,9474.636058
1514.152920,-306.438199,-74.020594,9474.636058
1514.153238,0.000000,-0.000000,9844.739029
1514.153555,229.828649,-148.041188,9992.780217
1514.153872,459.657299,222.061783,9622.677246
1514.154190,919.314598,296.082377,9030.512492
1514.154507,919.314598,444.123565,8808.450710
1514.154824,1149.143247,296.082377,8142.265362
1514.155142,1225.752797,740.205942,8142.265362
1514.155459,1149.143247,740.205942,8438.347739
1514.155776,1072.533697,518.144159,8956.491898
1514.156094,612.876398,-0.000000,9252.574275
1514.156411,919.314598,-370.102971,9622.677246
1514.156728,919.314598,-518.144159,9400.615463
1514.157046,306.438199,-444.123565,9622.677246
1514.157363,766.095498,-148.041188,9622.677246
1514.157680,689.485948,-148.041188,9326.594869
1514.157998,766.095498,-0.000000,9622.677246
1514.158315,1072.533697,222.061783,9474.636058
1514.158632,1072.533697,148.041188,9326.594869
1514.158950,1378.971896,-0.000000,9548.656652
1514.159267,1302.362347,-0.000000,9400.615463
1514.159584,1225.752797,-0.000000,9178.553681
1514.159902,1608.800546,-74.020594,9326.594869
1514.160219,1685.410096,-222.061783,9178.553681
1514.160536,1838.629195,-296.082377,9178.553681
1514.160854,1991.848295,-370.102971,9178.553681
1514.161171,1378.971896,-148.041188,9252.574275
