#time,accel_x,accel_y,accel_z
961.864472,995.924147,666.185348,6365.771101
961.864791,689.485948,-0.000000,6809.894666
961.865109,0.000000,-222.061783,7550.100608
961.865428,-689.485948,-666.185348,8142.265362
961.865747,-612.876398,-814.226536,8364.327145
961.866066,-1302.362347,-0.000000,8586.388927
961.866385,-1149.143247,148.041188,8882.471304
961.866704,-1302.362347,888.247130,8660.409521
961.867023,-1302.362347,888.247130,8586.388927
961.867342,-1532.190996,444.123565,8808.450710
961.867660,-1455.581446,592.164754,8808.450710
961.867979,-1608.800546,-74.020594,9474.636058
961.868298,-1915.238745,-1110.308913,10066.800811
961.868617,-2221.676944,-1628.453072,10658.965565
961.868936,-2757.943793,-1628.453072,10881.027347
961.869255,-2145.067394,-962.267725,11103.089130
961.869574,-2451.505594,-370.102971,11251.130318
961.869893,-1991.848295,-148.041188,11029.068536
961.870212,-1685.410096,-0.000000,11325.150913
961.870530,-1378.971896,-74.020594,11399.171507
961.870849,-1378.971896,-666.185348,11177.109724
961.871168,-1225.752797,-814.226536,11177.109724
961.871487,-1072.533697,-1036.288319,11473.192101
961.871806,-766.095498,-1110.308913,11029.068536
961.872125,-229.828649,-814.226536,10362.883188
961.872444,76.609550,-1036.288319,9992.780217
961.872763,689.485948,-222.061783,9326.594869
961.873082,1225.752797,-0.000000,8882.471304
961.873400,1685.410096,-296.082377,8586.388927
961.873719,1072.533697,444.123565,8660.409521
961.874038,842.705048,296.082377,8438.347739
961.874357,459.657299,370.102971,8216.285956
961.874676,0.000000,518.144159,7920.203579
961.874995,153.219100,296.082377,7994.224174
961.875314,-689.485948,666.185348,7328.038826
961.875633,-1149.143247,370.102971,7550.100608
961.875952,-1915.238745,-0.000000,7179.997637
961.876270,-2451.505594,-222.061783,8142.265362
961.876589,-3140.991542,-592.164754,8216.285956
961.876908,-3753.867940,-666.185348,8660.409521
961.877227,-4136.915689,-962.267725,9178.553681
961.877546,-4903.011187,-1332.370696,9178.553681
961.877865,-4749.792088,-1776.494261,9252.574275
961.878184,-5362.668486,-2072.576638,9696.697840
961.878503,-5439.278036,-2368.659014,9326.594869
961.878821,-5669.106685,-3627.009116,9918.759623
961.879140,-5362.668486,-4219.173869,10510.924376
961.879459,-4826.401637,-4959.379811,11177.109724
961.879778,-4979.620737,-4663.297435,11399.171507
961.880097,-4136.915689,-4515.256246,11547.212695
961.880416,-3907.087040,-4071.132681,11399.171507
961.880735,-3217.601092,-3701.029710,11325.150913
961.881054,-2374.896044,-4145.153275,10732.986159
961.881373,-1915.238745,-4367.215058,10881.027347
961.881691,-1378.971896,-5107.421000,10362.883188
961.882010,-689.485948,-5329.482782,11251.130318
961.882329,-842.705048,-5699.585753,11769.274478
961.882648,-383.047749,-5995.668130,12213.398043
961.882967,229.828649,-5181.441594,12435.459826
961.883286,995.924147,-4441.235652,12657.521608
961.883605,1762.019645,-3330.926739,12361.439231
961.883924,2374.896044,-2146.597232,11473.192101
961.884243,2681.334243,-888.247130,9992.780217
961.884561,2834.553343,-592.164754,8512.368333
961.884880,2451.505594,-296.082377,7105.977043
961.885199,1455.581446,-666.185348,5773.606348
961.885518,76.609550,-1702.473667,5477.523971
961.885837,-1608.800546,-3627.009116,6661.853478
961.886156,-3294.210641,-5329.482782,8734.430116
961.886475,-4826.401637,-6143.709319,9992.780217
961.886794,-6052.154434,-5699.585753,11547.212695
961.887112,-6971.469032,-4737.318029,11843.295072
961.887431,-7277.907231,-3404.947333,11917.315666
961.887750,-7584.345430,-1776.494261,11103.089130
961.888069,-7660.954980,-814.226536,9696.697840
961.888388,-7201.297681,-1332.370696,8142.265362
961.888707,-7431.126331,-1036.288319,7550.100608
961.889026,-6665.030833,-1998.556043,7476.080014
961.889345,-6511.811733,-3256.906145,7031.956449
961.889664,-5975.544884,-4515.256246,7920.203579
961.889982,-4903.011187,-5181.441594,8956.491898
961.890301,-3370.820191,-4959.379811,9548.656652
961.890620,-1838.629195,-4737.318029,10140.821405
961.890939,229.828649,-2516.700203,10658.965565
961.891258,1608.800546,-888.247130,9622.677246
961.891577,3370.820191,1110.308913,8142.265362
961.891896,4749.792088,2442.679609,6735.874072
961.892215,5515.887586,2886.803174,5107.421000
961.892534,6588.421283,2812.782580,3849.070898
961.892852,6971.469032,1406.391290,3997.112087
961.893171,6818.249932,-0.000000,4811.338623
961.893490,6741.640382,-1480.411884,7328.038826
961.893809,6281.983084,-1924.535449,9030.512492
961.894128,6511.811733,-1036.288319,9622.677246
961.894447,6358.592633,518.144159,10288.862594
961.894766,6511.811733,3108.864956,9178.553681
961.895085,6435.202183,4811.338623,8142.265362
961.895404,6281.983084,6735.874072,7105.977043
961.895722,5286.058936,6661.853478,7105.977043
961.896041,4060.306139,5551.544565,7550.100608
961.896360,2528.115143,4885.359217,7031.956449
961.896679,1302.362347,4219.173869,6661.853478
961.896998,-229.828649,3108.864956,7031.956449
961.897317,-995.924147,2368.659014,7179.997637
961.897636,-1225.752797,1628.453072,8512.368333
961.897955,-1991.848295,1628.453072,9696.697840
961.898273,-2681.334243,740.205942,11029.068536
961.898592,-3447.429741,518.144159,12583.501014
961.898911,-3830.477490,1480.411884,13175.665768
961.899230,-4366.744339,2442.679609,12139.377449
961.899549,-4903.011187,3256.906145,11103.089130
961.899868,-4749.792088,3404.947333,11029.068536
961.900187,-4290.134789,2738.761985,11695.253884
961.900506,-3677.258390,2146.597232,11399.171507
961.900825,-3064.381992,1258.350101,12583.501014
961.901144,-2528.115143,296.082377,13619.789333
961.901463,-1149.143247,-518.144159,13175.665768
961.901782,-536.266849,-1480.411884,12509.480420
961.902101,306.438199,-2220.617826,11399.171507
961.902420,383.047749,-1702.473667,10732.986159
961.902739,0.000000,-1850.514855,10288.862594
961.903058,-229.828649,-2072.576638,11177.109724
961.903377,-1608.800546,-2516.700203,12213.398043
961.903696,-1915.238745,-3627.009116,13471.748144
961.904015,-2604.724693,-3108.864956,14211.954086
961.904334,-2221.676944,-2368.659014,14878.139434
961.904653,-1378.971896,-2368.659014,14434.015869
961.904973,0.000000,-1332.370696,13471.748144
961.905292,1838.629195,-296.082377,11843.295072
961.905611,3217.601092,592.164754,8808.450710
961.905930,4826.401637,444.123565,7254.018232
961.906249,4903.011187,-1110.308913,5995.668130
961.906568,4903.011187,-2294.638420,5255.462188
961.906887,3677.258390,-3627.009116,6143.709319
961.907206,3064.381992,-3997.112087,7328.038826
961.907525,1991.848295,-2590.720797,8808.450710
961.907844,1225.752797,-1628.453072,9844.739029
961.908163,689.485948,-1036.288319,9918.759623
961.908482,766.095498,148.041188,9252.574275
961.908801,1225.752797,814.226536,8364.327145
961.909120,1685.410096,-0.000000,7624.121203
961.909439,1149.143247,-518.144159,5773.606348
961.909758,2374.896044,-1110.308913,5033.400406
961.910077,2145.067394,-1258.350101,3997.112087
961.910396,2681.334243,-1110.308913,3849.070898
961.910715,2221.676944,-1480.411884,3552.988522
961.911034,1072.533697,-888.247130,4737.318029
961.911353,919.314598,-962.267725,5033.400406
961.911672,-919.314598,148.041188,5477.523971
961.911991,-1378.971896,-148.041188,7476.080014
961.912310,-2604.724693,-0.000000,8364.327145
961.912629,-2068.457845,-666.185348,9770.718434
961.912948,-2757.943793,-1110.308913,9548.656652
961.913267,-2145.067394,-1110.308913,9992.780217
961.913586,-1685.410096,-962.267725,9326.594869
961.913905,-689.485948,-148.041188,8438.347739
961.914224,-612.876398,296.082377,6883.915261
961.914543,0.000000,1110.308913,6291.750507
961.914862,612.876398,1332.370696,5477.523971
961.915181,689.485948,1554.432478,4959.379811
961.915500,76.609550,1110.308913,5995.668130
961.915819,-459.657299,740.205942,7254.018232
961.916138,-842.705048,-370.102971,8364.327145
961.916457,-2068.457845,-518.144159,10214.842000
961.916776,-2068.457845,-1480.411884,12509.480420
961.917095,-2298.286494,-1184.329507,12731.542202
961.917414,-2145.067394,-370.102971,12879.583391
961.917733,-919.314598,518.144159,13471.748144
961.918052,-383.047749,1850.514855,12731.542202
961.918371,383.047749,2738.761985,11473.192101
961.918690,2374.896044,3849.070898,10362.883188
961.919009,2834.553343,3923.091493,9474.636058
961.919328,3907.087040,3108.864956,8438.347739
961.919647,3907.087040,2516.700203,8512.368333
961.919966,4366.744339,1406.391290,8808.450710
961.920285,3677.258390,518.144159,9030.512492
961.920604,2757.943793,-148.041188,10288.862594
961.920923,2068.457845,-518.144159,12139.377449
961.921242,919.314598,-592.164754,12953.603985
961.921561,0.000000,-0.000000,13545.768739
961.921880,-689.485948,814.226536,14211.954086
961.922199,-919.314598,1702.473667,13989.892304
961.922518,-1149.143247,1998.556043,13101.645173
961.922837,-995.924147,2368.659014,12509.480420
961.923156,-612.876398,2442.679609,10955.047942
961.923475,306.438199,2960.823768,9622.677246
961.923794,766.095498,2368.659014,8290.306550
961.924113,1302.362347,1480.411884,8216.285956
961.924432,536.266849,814.226536,7698.141797
961.924751,383.047749,740.205942,7846.182985
961.925070,0.000000,1184.329507,8660.409521
961.925389,-536.266849,1406.391290,9622.677246
961.925708,-1149.143247,1036.288319,10362.883188
961.926027,-2451.505594,1332.370696,10436.903782
961.926346,-3140.991542,888.247130,11325.150913
961.926665,-2681.334243,1628.453072,11029.068536
961.926984,-2604.724693,2072.576638,10362.883188
961.927303,-1378.971896,1850.514855,9400.615463
961.927622,-689.485948,2812.782580,7920.203579
961.927941,919.314598,1702.473667,6957.935855
961.928260,2221.676944,1110.308913,5403.503377
961.928579,3447.429741,666.185348,6069.688724
961.928899,4213.525239,-0.000000,5403.503377
961.929218,4060.306139,-222.061783,5773.606348
961.929537,3600.648841,-888.247130,7031.956449
961.929856,2911.162892,962.267725,7698.141797
961.930175,2834.553343,-0.000000,8438.347739
961.930494,2145.067394,-370.102971,8512.368333
961.930813,1532.190996,-592.164754,10658.965565
961.931132,919.314598,-148.041188,9770.718434
961.931451,1378.971896,296.082377,9400.615463
961.931770,1685.410096,-518.144159,8956.491898
961.932089,1991.848295,-814.226536,8808.450710
961.932408,2451.505594,-2220.617826,8068.244768
961.932727,2681.334243,-2738.761985,7920.203579
961.933046,2451.505594,-2664.741391,8290.306550
961.933365,2681.334243,-2368.659014,7550.100608
961.933684,1915.238745,-2146.597232,7624.121203
961.934003,995.924147,-1850.514855,8290.306550
961.934322,76.609550,-2442.679609,9770.718434
961.934641,-1455.581446,-1924.535449,9696.697840
961.934960,-1225.752797,-1406.391290,10510.924376
961.935279,-2145.067394,-74.020594,10584.944971
961.935598,-2221.676944,-0.000000,11769.274478
961.935917,-2068.457845,-518.144159,11695.253884
961.936236,-1378.971896,444.123565,10584.944971
961.936555,-689.485948,888.247130,8956.491898
961.936874,306.438199,666.185348,7624.121203
961.937193,306.438199,1110.308913,7402.059420
961.937512,995.924147,1036.288319,7105.977043
961.937831,1072.533697,1628.453072,7031.956449
961.938150,842.705048,1776.494261,7402.059420
961.938469,689.485948,1998.556043,8438.347739
961.938788,306.438199,2516.700203,8956.491898
961.939107,383.047749,3256.906145,9696.697840
961.939426,306.438199,3775.050304,10436.903782
961.939745,0.000000,4515.256246,9992.780217
961.940064,1072.533697,5033.400406,10066.800811
961.940383,1608.800546,4293.194464,9992.780217
961.940702,1762.019645,4293.194464,9622.677246
961.941021,2757.943793,3997.112087,8438.347739
961.941340,3064.381992,4219.173869,7402.059420
961.941659,3600.648841,3404.947333,7328.038826
961.941978,2834.553343,2812.782580,7698.141797
961.942297,2987.772442,1850.514855,8734.430116
961.942616,2221.676944,2072.576638,9400.615463
961.942935,1915.238745,2442.679609,9474.636058
961.943254,1762.019645,2368.659014,10584.944971
961.943573,766.095498,1924.535449,11103.089130
961.943892,536.266849,1628.453072,12065.356855
961.944211,0.000000,1924.535449,12065.356855
961.944530,76.609550,2072.576638,11621.233289
961.944849,459.657299,2294.638420,11473.192101
961.945168,612.876398,2368.659014,10732.986159
961.945487,995.924147,2220.617826,9770.718434
961.945806,689.485948,962.267725,9178.553681
961.946125,1532.190996,814.226536,9252.574275
961.946444,1072.533697,296.082377,9400.615463
961.946763,612.876398,-0.000000,9474.636058
961.947082,229.828649,-148.041188,9696.697840
961.947401,-306.438199,-0.000000,10807.006753
961.947720,-383.047749,-0.000000,10955.047942
961.948039,-842.705048,296.082377,10807.006753
961.948358,-919.314598,888.247130,11251.130318
961.948677,-2068.457845,888.247130,11103.089130
961.948996,-1532.190996,888.247130,10732.986159
961.949315,-842.705048,1110.308913,9844.739029
961.949634,-383.047749,1036.288319,9252.574275
961.949953,-459.657299,148.041188,8142.265362
961.950272,0.000000,-296.082377,7624.121203
961.950591,842.705048,-1036.288319,7698.141797
961.950910,459.657299,-740.205942,7254.018232
961.951229,536.266849,-1110.308913,7254.018232
961.951548,306.438199,-1480.411884,7846.182985
961.951867,-536.266849,-1332.370696,8734.430116
961.952186,-612.876398,-1406.391290,8882.471304
961.952506,-919.314598,-1554.432478,9104.533087
961.952825,-919.314598,-1702.473667,10584.944971
961.953144,-306.438199,-1628.453072,10658.965565
961.953463,-536.266849,-1036.288319,9992.780217
961.953782,842.705048,-962.267725,9622.677246
961.954101,1532.190996,-0.000000,7994.224174
961.954420,2145.067394,222.061783,6587.832884
961.954739,3140.991542,-1184.329507,5847.626942
961.955058,2604.724693,-1184.329507,5625.565159
961.955377,3217.601092,-888.247130,5403.503377
961.955696,2757.943793,-1406.391290,6217.729913
961.956015,1915.238745,-1480.411884,7476.080014
961.956334,1072.533697,-1110.308913,8660.409521
961.956653,612.876398,-1110.308913,8956.491898
961.956972,153.219100,-444.123565,9696.697840
961.957291,459.657299,666.185348,9844.739029
961.957610,383.047749,1406.391290,9326.594869
961.957929,229.828649,1776.494261,9178.553681
961.958248,1532.190996,2368.659014,8068.244768
961.958567,1532.190996,2590.720797,7476.080014
961.958886,2374.896044,2368.659014,6439.791695
961.959205,2528.115143,1998.556043,6069.688724
961.959524,2221.676944,1850.514855,6143.709319
961.959843,1915.238745,1776.494261,6809.894666
961.960162,1072.533697,1406.391290,7550.100608
961.960481,766.095498,1258.350101,8586.388927
961.960800,153.219100,1924.535449,9474.636058
961.961119,-383.047749,1776.494261,10436.903782
961.961438,-766.095498,2294.638420,10658.965565
961.961757,-1149.143247,2590.720797,11177.109724
961.962076,-766.095498,2738.761985,11547.212695
961.962395,-536.266849,2516.700203,11103.089130
961.962714,-153.219100,2368.659014,10436.903782
961.963033,383.047749,2368.659014,9844.739029
961.963352,919.314598,2294.638420,9178.553681
961.963671,1378.971896,1332.370696,8956.491898
961.963990,1302.362347,1184.329507,9474.636058
961.964309,1225.752797,518.144159,9844.739029
961.964628,689.485948,-74.020594,10881.027347
961.964947,76.609550,-0.000000,11843.295072
961.965266,0.000000,-74.020594,12731.542202
961.965585,-536.266849,740.205942,12879.583391
961.965904,-919.314598,888.247130,13027.624579
961.966223,-1072.533697,1258.350101,13101.645173
961.966542,-995.924147,1258.350101,12805.562797
961.966861,-842.705048,1776.494261,12361.439231
961.967180,76.609550,1998.556043,11473.192101
961.967499,689.485948,1776.494261,10807.006753
961.967818,1149.143247,1110.308913,9992.780217
961.968137,1225.752797,666.185348,9622.677246
961.968456,1455.581446,444.123565,9474.636058
961.968775,1149.143247,148.041188,9178.553681
961.969094,766.095498,-0.000000,9252.574275
961.969413,306.438199,-370.102971,10288.862594
961.969732,-689.485948,-74.020594,10807.006753
961.970051,-689.485948,-370.102971,11029.068536
961.970370,-1225.752797,-0.000000,11029.068536
961.970689,-1149.143247,370.102971,11621.233289
961.971008,-995.924147,444.123565,10807.006753
961.971327,-153.219100,1036.288319,9770.718434
961.971646,0.000000,296.082377,9252.574275
961.971965,612.876398,740.205942,7550.100608
961.972284,1608.800546,148.041188,6365.771101
961.972603,1838.629195,-370.102971,5995.668130
961.972922,1608.800546,-814.226536,5921.647536
961.973241,1225.752797,-1776.494261,6143.709319
961.973560,383.047749,-2368.659014,7031.956449
961.973879,-536.266849,-2738.761985,8586.388927
961.974198,-689.485948,-2664.741391,9474.636058
961.974517,-1532.190996,-1628.453072,9770.718434
961.974836,-1838.629195,-888.247130,9548.656652
961.975155,-1532.190996,-222.061783,9178.553681
961.975474,-612.876398,-444.123565,9030.512492
961.975793,-459.657299,-518.144159,8290.306550
961.976112,612.876398,-666.185348,7402.059420
961.976432,842.705048,-814.226536,6291.750507
961.976751,1685.410096,-1332.370696,5477.523971
961.977070,2374.896044,-1554.432478,5699.585753
961.977389,1915.238745,-1702.473667,5329.482782
961.977708,1302.362347,-1628.453072,5551.544565
961.978027,536.266849,-1480.411884,6365.771101
961.978346,0.000000,-1110.308913,7550.100608
961.978665,-766.095498,-1258.350101,8438.347739
961.978984,-1762.019645,-1480.411884,9844.739029
961.979303,-2145.067394,-1184.329507,10658.965565
961.979622,-2068.457845,-740.205942,10807.006753
961.979941,-1532.190996,-296.082377,10807.006753
961.980260,-919.314598,74.020594,9844.739029
961.980579,536.266849,740.205942,9030.512492
961.980898,1991.848295,814.226536,7550.100608
961.981217,2068.457845,814.226536,6365.771101
961.981536,3600.648841,148.041188,6513.812290
961.981855,2681.334243,518.144159,5995.668130
961.982174,3064.381992,-148.041188,6809.894666
961.982493,1991.848295,-1776.494261,8364.327145
961.982812,766.095498,-1110.308913,10288.862594
961.983131,76.609550,-1184.329507,11843.295072
961.983450,-995.924147,74.020594,10658.965565
961.983769,-1072.533697,-0.000000,12805.562797
961.984088,-1225.752797,518.144159,13027.624579
961.984407,-1378.971896,1110.308913,11917.315666
961.984726,-612.876398,814.226536,11103.089130
961.985045,229.828649,1480.411884,11103.089130
961.985364,766.095498,1554.432478,10362.883188
961.985683,1685.410096,962.267725,9104.533087
961.986002,1685.410096,1036.288319,9474.636058
961.986321,1915.238745,222.061783,9178.553681
961.986640,1149.143247,1036.288319,8586.388927
961.986959,1149.143247,148.041188,9252.574275
961.987278,0.000000,592.164754,10436.903782
961.987597,-842.705048,148.041188,12065.356855
961.987916,-1762.019645,592.164754,12657.521608
961.988235,-1838.629195,1036.288319,12879.583391
961.988554,-2221.676944,1998.556043,12583.501014
961.988873,-1915.238745,1850.514855,12657.521608
961.989192,-1302.362347,2072.576638,11695.253884
961.989511,-383.047749,2146.597232,10881.027347
961.989830,383.047749,1998.556043,9474.636058
961.990149,1072.533697,1702.473667,8512.368333
961.990468,2528.115143,1258.350101,8142.265362
961.990787,2451.505594,888.247130,7476.080014
961.991106,2451.505594,592.164754,7698.141797
961.991425,1838.629195,296.082377,8216.285956
961.991744,1532.190996,-0.000000,9252.574275
961.992063,689.485948,-0.000000,9918.759623
961.992382,0.000000,370.102971,10436.903782
961.992701,-229.828649,1036.288319,10658.965565
961.993020,-153.219100,1554.432478,10732.986159
961.993339,153.219100,1332.370696,9992.780217
961.993658,1225.752797,592.164754,9844.739029
961.993977,919.314598,296.082377,8586.388927
961.994296,1685.410096,-148.041188,7328.038826
961.994615,2068.457845,-518.144159,6809.894666
961.994934,2298.286494,-1258.350101,6587.832884
961.995253,2374.896044,-1850.514855,6069.688724
961.995572,1915.238745,-2072.576638,6587.832884
961.995891,1302.362347,-2294.638420,7179.997637
961.996210,153.219100,-2294.638420,8364.327145
961.996529,-229.828649,-2220.617826,8956.491898
961.996847,-1762.019645,-2072.576638,9918.759623
961.997166,-2221.676944,-1924.535449,10510.924376
961.997485,-2374.896044,-1628.453072,10584.944971
961.997804,-2068.457845,-1406.391290,10066.800811
961.998123,-1149.143247,-1110.308913,8956.491898
961.998442,-306.438199,-370.102971,8068.244768
961.998761,153.219100,-1036.288319,7328.038826
961.999080,995.924147,-1332.370696,6513.812290
961.999398,1225.752797,-1258.350101,6217.729913
961.999717,1838.629195,-1406.391290,6365.771101
962.000036,995.924147,-1480.411884,6735.874072
962.000355,689.485948,-888.247130,7476.080014
962.000674,0.000000,-592.164754,8882.471304
962.000993,-689.485948,-370.102971,9548.656652
962.001312,-766.095498,-0.000000,9992.780217
962.001631,-1149.143247,962.267725,10214.842000
962.001949,-1225.752797,814.226536,10584.944971
962.002268,-383.047749,518.144159,10288.862594
962.002587,306.438199,666.185348,9474.636058
962.002906,842.705048,296.082377,8660.409521
962.003225,995.924147,592.164754,7550.100608
962.003544,1838.629195,-296.082377,7920.203579
962.003863,1915.238745,-74.020594,7179.997637
962.004182,2298.286494,-518.144159,7550.100608
962.004500,1378.971896,-444.123565,7994.224174
962.004819,612.876398,-0.000000,8882.471304
962.005138,229.828649,-0.000000,9696.697840
962.005457,-229.828649,370.102971,11029.068536
962.005776,-766.095498,370.102971,12139.377449
962.006095,-919.314598,1332.370696,11547.212695
962.006414,-766.095498,740.205942,12213.398043
962.006733,-383.047749,1924.535449,11399.171507
962.007051,383.047749,1776.494261,10807.006753
962.007370,459.657299,2368.659014,9474.636058
962.007689,1608.800546,1702.473667,9030.512492
962.008008,1685.410096,1480.411884,8512.368333
962.008327,2221.676944,1036.288319,8808.450710
962.008646,1532.190996,1036.288319,8734.430116
962.008965,1608.800546,962.267725,8956.491898
962.009284,536.266849,888.247130,9992.780217
962.009602,306.438199,814.226536,11251.130318
962.009921,-229.828649,1036.288319,11325.150913
962.010240,0.000000,1702.473667,11843.295072
962.010559,-766.095498,2368.659014,11843.295072
962.010878,-383.047749,2442.679609,11547.212695
962.011197,0.000000,2664.741391,10732.986159
962.011516,536.266849,2590.720797,9770.718434
962.011835,1072.533697,2146.597232,8734.430116
962.012153,1685.410096,1850.514855,8216.285956
962.012472,2145.067394,1628.453072,7772.162391
962.012791,2145.067394,1036.288319,7846.182985
962.013110,1685.410096,592.164754,7624.121203
962.013429,1149.143247,-296.082377,8142.265362
962.013748,689.485948,-222.061783,9400.615463
962.014067,0.000000,-296.082377,9992.780217
962.014386,-459.657299,-0.000000,10510.924376
962.014704,-842.705048,370.102971,11103.089130
962.015023,-842.705048,444.123565,11103.089130
962.015342,-766.095498,518.144159,10881.027347
962.015661,153.219100,666.185348,9844.739029
962.015980,612.876398,370.102971,9030.512492
962.016299,1225.752797,518.144159,7920.203579
962.016618,1991.848295,-370.102971,7031.956449
962.016937,2298.286494,-666.185348,7105.977043
962.017255,2298.286494,-888.247130,7105.977043
962.017574,2374.896044,-1258.350101,7254.018232
962.017893,2068.457845,-962.267725,7920.203579
962.018212,1532.190996,-444.123565,8956.491898
962.018531,919.314598,-592.164754,9474.636058
962.018850,0.000000,-518.144159,9992.780217
962.019169,-306.438199,-518.144159,10881.027347
962.019488,-306.438199,296.082377,10288.862594
962.019806,0.000000,592.164754,9918.759623
962.020125,306.438199,666.185348,9178.553681
962.020444,1302.362347,962.267725,8216.285956
962.020763,1532.190996,814.226536,6735.874072
962.021082,1991.848295,222.061783,6513.812290
962.021401,1991.848295,-0.000000,6217.729913
962.021720,1915.238745,-74.020594,6439.791695
962.022039,1532.190996,-296.082377,6883.915261
962.022357,689.485948,-296.082377,8068.244768
962.022676,-306.438199,-740.205942,9104.533087
962.022995,-766.095498,-370.102971,9918.759623
962.023314,-1302.362347,-74.020594,10584.944971
962.023633,-1378.971896,296.082377,11621.233289
962.023952,-1302.362347,1110.308913,10807.006753
962.024271,-766.095498,1628.453072,10436.903782
962.024590,0.000000,1776.494261,9770.718434
962.024908,689.485948,1702.473667,8808.450710
962.025227,1302.362347,1332.370696,7698.141797
962.025546,1915.238745,1184.329507,7550.100608
962.025865,2451.505594,1036.288319,7328.038826
962.026184,2145.067394,740.205942,7772.162391
962.026503,1838.629195,814.226536,8142.265362
962.026822,1378.971896,666.185348,8734.430116
962.027141,842.705048,962.267725,9992.780217
962.027459,153.219100,1110.308913,10807.006753
962.027778,-229.828649,1332.370696,11621.233289
962.028097,-612.876398,1628.453072,12139.377449
962.028416,-766.095498,1480.411884,12065.356855
962.028735,0.000000,1998.556043,11695.253884
962.029054,689.485948,2442.679609,10881.027347
962.029373,1302.362347,2590.720797,9622.677246
962.029692,1915.238745,2146.597232,8734.430116
962.030010,2374.896044,1702.473667,8586.388927
962.030329,2451.505594,1702.473667,8068.244768
962.030648,2298.286494,1332.370696,7846.182985
962.030967,1302.362347,518.144159,8216.285956
962.031286,995.924147,962.267725,9326.594869
962.031605,0.000000,592.164754,10362.883188
962.031924,-1072.533697,592.164754,11103.089130
962.032243,-1532.190996,296.082377,11917.315666
962.032561,-1991.848295,1406.391290,12065.356855
962.032880,-1762.019645,1702.473667,11547.212695
962.033199,-1072.533697,2294.638420,10881.027347
962.033518,-153.219100,2368.659014,10214.842000
962.033837,76.609550,2146.597232,8882.471304
962.034156,766.095498,1332.370696,7994.224174
962.034475,1685.410096,888.247130,7994.224174
962.034794,1915.238745,370.102971,7846.182985
962.035112,1991.848295,518.144159,7550.100608
962.035431,1838.629195,148.041188,7624.121203
962.035750,1608.800546,-444.123565,8882.471304
962.036069,766.095498,-222.061783,9622.677246
962.036388,459.657299,-0.000000,9992.780217
962.036707,-229.828649,740.205942,10066.800811
962.037026,-536.266849,814.226536,10732.986159
962.037345,-459.657299,-0.000000,10732.986159
962.037663,-229.828649,-74.020594,10140.821405
962.037982,383.047749,444.123565,9400.615463
962.038301,689.485948,370.102971,8068.244768
962.038620,1762.019645,-148.041188,7179.997637
962.038939,2528.115143,-444.123565,7105.977043
962.039258,2528.115143,-370.102971,6809.894666
962.039577,2145.067394,-370.102971,6587.832884
962.039896,1455.581446,-666.185348,7179.997637
962.040214,842.705048,-666.185348,8438.347739
962.040533,153.219100,-370.102971,9400.615463
962.040852,-229.828649,-148.041188,9474.636058
962.041171,-1149.143247,74.020594,10362.883188
962.041490,-1378.971896,296.082377,10584.944971
962.041809,-1072.533697,222.061783,10584.944971
962.042128,-842.705048,518.144159,10066.800811
962.042447,0.000000,592.164754,9030.512492
962.042766,612.876398,814.226536,7698.141797
962.043084,1455.581446,148.041188,7105.977043
962.043403,1608.800546,-0.000000,7105.977043
962.043722,2145.067394,148.041188,6809.894666
962.044041,1915.238745,-74.020594,6957.935855
962.044360,1378.971896,-0.000000,7328.038826
962.044679,1149.143247,-0.000000,8364.327145
962.044998,306.438199,-0.000000,9474.636058
962.045317,-459.657299,-0.000000,10066.800811
962.045635,-612.876398,296.082377,10807.006753
962.045954,-995.924147,814.226536,11325.150913
962.046273,-842.705048,740.205942,11251.130318
962.046592,0.000000,814.226536,10584.944971
962.046911,612.876398,1110.308913,9992.780217
962.047230,1225.752797,1258.350101,8956.491898
962.047549,1762.019645,1184.329507,7994.224174
962.047868,2451.505594,666.185348,7698.141797
962.048186,2221.676944,814.226536,7846.182985
962.048505,2145.067394,592.164754,7698.141797
962.048824,1378.971896,222.061783,8734.430116
962.049143,995.924147,370.102971,10066.800811
962.049462,0.000000,-0.000000,10881.027347
962.049781,-919.314598,444.123565,11325.150913
962.050100,-1532.190996,1110.308913,11843.295072
962.050419,-1685.410096,1554.432478,11991.336260
962.050737,-1532.190996,1332.370696,11547.212695
962.051056,-612.876398,1628.453072,11103.089130
962.051375,-689.485948,1184.329507,10288.862594
962.051694,-229.828649,1184.329507,9326.594869
962.052013,306.438199,740.205942,8956.491898
962.052332,766.095498,518.144159,9252.574275
962.052651,1149.143247,444.123565,8512.368333
962.052970,1072.533697,296.082377,8734.430116
962.053288,689.485948,518.144159,9104.533087
962.053607,153.219100,740.205942,9770.718434
962.053926,459.657299,1184.329507,10140.821405
962.054245,229.828649,1184.329507,10732.986159
962.054564,-383.047749,1258.350101,11177.109724
962.054883,-229.828649,1406.391290,11251.130318
962.055202,306.438199,740.205942,10584.944971
962.055521,689.485948,1184.329507,9992.780217
962.055839,766.095498,1036.288319,9326.594869
962.056158,1302.362347,962.267725,8216.285956
962.056477,1762.019645,518.144159,7476.080014
962.056796,1991.848295,444.123565,7476.080014
962.057115,1991.848295,-74.020594,7402.059420
962.057434,1455.581446,-444.123565,7550.100608
962.057753,919.314598,-444.123565,8586.388927
962.058072,-153.219100,-444.123565,9400.615463
962.058390,-842.705048,-666.185348,10140.821405
962.058709,-919.314598,-444.123565,10436.903782
962.059028,-1225.752797,-0.000000,10436.903782
962.059347,-1455.581446,148.041188,10214.842000
962.059666,-229.828649,222.061783,9696.697840
962.059985,0.000000,-0.000000,9104.533087
962.060304,306.438199,222.061783,8290.306550
962.060623,383.047749,-0.000000,7624.121203
962.060941,919.314598,-518.144159,7476.080014
962.061260,842.705048,-518.144159,7254.018232
962.061579,919.314598,-1258.350101,7179.997637
962.061898,612.876398,-1554.432478,8216.285956
962.062217,0.000000,-1406.391290,8734.430116
962.062536,-612.876398,-1036.288319,9326.594869
962.062855,-536.266849,-740.205942,9548.656652
962.063174,-919.314598,-0.000000,10066.800811
962.063492,-995.924147,666.185348,9844.739029
962.063811,-919.314598,592.164754,9918.759623
962.064130,-612.876398,222.061783,9918.759623
962.064449,0.000000,518.144159,9696.697840
962.064768,306.438199,518.144159,8216.285956
962.065087,1302.362347,222.061783,7550.100608
962.065406,1762.019645,-148.041188,7179.997637
962.065725,2221.676944,-222.061783,7476.080014
962.066043,1455.581446,-518.144159,7328.038826
962.066362,1532.190996,-740.205942,7550.100608
962.066681,612.876398,-666.185348,8956.491898
962.067000,0.000000,-1184.329507,9992.780217
962.067319,-306.438199,-1036.288319,10288.862594
962.067638,-919.314598,-222.061783,10955.047942
962.067957,-842.705048,222.061783,11103.089130
962.068276,-383.047749,296.082377,11029.068536
962.068594,-459.657299,518.144159,10584.944971
962.068913,229.828649,888.247130,9844.739029
962.069232,536.266849,888.247130,8882.471304
962.069551,1762.019645,814.226536,7846.182985
962.069870,1991.848295,222.061783,7772.162391
962.070189,2068.457845,-444.123565,7994.224174
962.070508,1608.800546,-444.123565,8216.285956
962.070827,995.924147,-518.144159,8808.450710
962.071145,612.876398,-296.082377,9992.780217
962.071464,229.828649,-0.000000,10658.965565
962.071783,-459.657299,222.061783,10955.047942
962.072102,-842.705048,592.164754,11029.068536
962.072421,-383.047749,1110.308913,11325.150913
962.072740,-153.219100,1036.288319,10584.944971
962.073059,0.000000,888.247130,9918.759623
962.073378,153.219100,962.267725,9622.677246
962.073696,842.705048,666.185348,9252.574275
962.074015,1378.971896,370.102971,7920.203579
962.074334,1532.190996,518.144159,7846.182985
962.074653,1685.410096,444.123565,7846.182985
962.074972,1302.362347,-0.000000,7846.182985
962.075291,1149.143247,-74.020594,8364.327145
962.075610,153.219100,-0.000000,9474.636058
962.075929,0.000000,148.041188,10140.821405
962.076247,-383.047749,-0.000000,10955.047942
962.076566,-919.314598,370.102971,11251.130318
962.076885,-919.314598,592.164754,11103.089130
962.077204,-612.876398,888.247130,10362.883188
962.077523,0.000000,1036.288319,9844.739029
962.077842,383.047749,962.267725,8882.471304
962.078161,1302.362347,666.185348,8216.285956
962.078480,1532.190996,-74.020594,7624.121203
962.078798,2068.457845,-296.082377,7476.080014
962.079117,1991.848295,-518.144159,7772.162391
962.079436,1915.238745,-666.185348,8068.244768
962.079755,1532.190996,-592.164754,8364.327145
962.080074,766.095498,-444.123565,9400.615463
962.080393,229.828649,-0.000000,9992.780217
962.080712,229.828649,148.041188,10140.821405
962.081031,0.000000,518.144159,10140.821405
962.081349,-306.438199,888.247130,10584.944971
962.081668,0.000000,444.123565,9992.780217
962.081987,0.000000,296.082377,9474.636058
962.082306,1149.143247,370.102971,9030.512492
962.082625,689.485948,444.123565,7994.224174
962.082944,1378.971896,-0.000000,7328.038826
962.083263,1149.143247,-222.061783,7698.141797
962.083582,842.705048,-518.144159,7402.059420
962.083900,842.705048,-1110.308913,7402.059420
962.084219,-76.609550,-814.226536,8882.471304
962.084538,-612.876398,-592.164754,9696.697840
962.084857,-1378.971896,-814.226536,10140.821405
962.085176,-2068.457845,-666.185348,10807.006753
962.085495,-1838.629195,-592.164754,10881.027347
962.085814,-1608.800546,222.061783,10510.924376
962.086133,-995.924147,222.061783,9992.780217
962.086451,-383.047749,666.185348,9326.594869
962.086770,536.266849,888.247130,8734.430116
962.087089,1149.143247,666.185348,7402.059420
962.087408,1685.410096,-0.000000,7105.977043
962.087727,2221.676944,-74.020594,7254.018232
962.088046,1991.848295,-222.061783,7402.059420
962.088365,1762.019645,-222.061783,8216.285956
962.088684,995.924147,-444.123565,8956.491898
962.089002,459.657299,-518.144159,9696.697840
962.089321,76.609550,-296.082377,10584.944971
962.089640,-459.657299,-0.000000,10807.006753
962.089959,-459.657299,518.144159,11177.109724
962.090278,-306.438199,962.267725,11029.068536
962.090597,153.219100,1184.329507,10510.924376
962.090916,612.876398,1258.350101,9770.718434
962.091235,1685.410096,1702.473667,8956.491898
962.091553,1685.410096,1036.288319,7846.182985
962.091872,2451.505594,740.205942,7550.100608
962.092191,2145.067394,444.123565,7698.141797
962.092510,1685.410096,-0.000000,7476.080014
962.092829,1532.190996,-296.082377,8512.368333
962.093148,153.219100,-444.123565,9474.636058
962.093467,-459.657299,-296.082377,10288.862594
962.093786,-1225.752797,-592.164754,10881.027347
962.094104,-1608.800546,-74.020594,11621.233289
962.094423,-1762.019645,444.123565,11843.295072
962.094742,-1838.629195,1184.329507,11325.150913
962.095061,-919.314598,1406.391290,10732.986159
962.095380,-459.657299,1406.391290,10066.800811
962.095699,766.095498,1924.535449,8956.491898
962.096018,995.924147,1332.370696,7698.141797
962.096337,1532.190996,592.164754,7550.100608
962.096655,2068.457845,296.082377,7476.080014
962.096975,1915.238745,-0.000000,7476.080014
962.097294,1608.800546,-370.102971,8068.244768
962.097613,1149.143247,-370.102971,8956.491898
962.097932,766.095498,-0.000000,9770.718434
962.098251,383.047749,296.082377,10288.862594
962.098570,76.609550,518.144159,10510.924376
962.098889,-536.266849,1332.370696,10732.986159
962.099208,-306.438199,1258.350101,10584.944971
962.099527,459.657299,1554.432478,9992.780217
962.099846,842.705048,1850.514855,9400.615463
962.100165,919.314598,1776.494261,8660.409521
962.100484,2145.067394,1036.288319,7920.203579
962.100803,2604.724693,666.185348,7179.997637
962.101122,2604.724693,444.123565,7105.977043
962.101441,2451.505594,296.082377,7179.997637
962.101760,1991.848295,-0.000000,7550.100608
962.102079,1455.581446,222.061783,9030.512492
962.102398,536.266849,370.102971,9548.656652
962.102717,0.000000,740.205942,10362.883188
962.103036,-459.657299,1110.308913,10658.965565
962.103355,-689.485948,1184.329507,11029.068536
962.103674,-766.095498,1258.350101,10658.965565
962.103993,-612.876398,1332.370696,10362.883188
962.104312,0.000000,1184.329507,9548.656652
962.104631,919.314598,888.247130,8808.450710
962.104950,1532.190996,-0.000000,8068.244768
962.105269,1608.800546,148.041188,7994.224174
962.105588,1225.752797,-74.020594,7772.162391
962.105907,1378.971896,-370.102971,7846.182985
962.106226,1455.581446,-518.144159,8586.388927
962.106545,689.485948,-222.061783,9548.656652
962.106864,0.000000,-148.041188,10066.800811
962.107183,-536.266849,296.082377,10288.862594
962.107502,-919.314598,370.102971,10807.006753
962.107821,-919.314598,666.185348,10881.027347
962.108140,-536.266849,370.102971,10510.924376
962.108459,0.000000,444.123565,9918.759623
962.108778,459.657299,592.164754,9178.553681
962.109097,1225.752797,666.185348,8216.285956
962.109416,1608.800546,-0.000000,7031.956449
962.109735,1991.848295,148.041188,6883.915261
962.110054,2221.676944,222.061783,6883.915261
962.110373,1762.019645,-0.000000,7105.977043
962.110692,1455.581446,-0.000000,7920.203579
962.111011,842.705048,-148.041188,9548.656652
962.111330,-383.047749,148.041188,10362.883188
962.111649,-766.095498,444.123565,10288.862594
962.111968,-995.924147,1480.411884,10955.047942
962.112287,-995.924147,1554.432478,11177.109724
962.112606,-383.047749,1850.514855,10584.944971
962.112925,229.828649,1850.514855,9918.759623
962.113244,842.705048,2072.576638,9252.574275
962.113563,1608.800546,1628.453072,8290.306550
962.113882,2298.286494,962.267725,7550.100608
962.114201,2221.676944,740.205942,7550.100608
962.114520,2298.286494,518.144159,7476.080014
962.114839,1608.800546,444.123565,7772.162391
962.115158,995.924147,-0.000000,8586.388927
962.115477,153.219100,-0.000000,9844.739029
962.115796,-306.438199,-222.061783,10362.883188
962.116115,-842.705048,-74.020594,10807.006753
962.116434,-919.314598,296.082377,11621.233289
962.116753,-919.314598,296.082377,11547.212695
962.117072,-919.314598,518.144159,11325.150913
962.117391,-536.266849,518.144159,10881.027347
962.117710,766.095498,1036.288319,9474.636058
962.118029,1149.143247,1110.308913,8586.388927
962.118348,1685.410096,518.144159,7772.162391
962.118667,2068.457845,370.102971,7624.121203
962.118986,1991.848295,592.164754,7254.018232
962.119305,1532.190996,222.061783,7476.080014
962.119624,995.924147,370.102971,8660.409521
962.119943,612.876398,74.020594,9696.697840
962.120262,0.000000,222.061783,10214.842000
962.120581,-766.095498,444.123565,10955.047942
962.120900,-1072.533697,888.247130,11547.212695
962.121219,-383.047749,1110.308913,11473.192101
962.121538,-536.266849,1702.473667,10362.883188
962.121857,76.609550,1628.453072,9696.697840
962.122176,536.266849,1924.535449,8956.491898
962.122495,1225.752797,1628.453072,7698.141797
962.122814,1838.629195,962.267725,7328.038826
962.123133,2145.067394,740.205942,7105.977043
962.123452,2068.457845,518.144159,7402.059420
962.123771,1915.238745,-0.000000,7698.141797
962.124090,1302.362347,222.061783,8512.368333
962.124409,1378.971896,222.061783,9770.718434
962.124728,229.828649,370.102971,10140.821405
962.125047,0.000000,740.205942,10288.862594
962.125366,-383.047749,1110.308913,10658.965565
962.125685,-459.657299,1036.288319,10510.924376
962.126005,-229.828649,814.226536,10140.821405
962.126324,229.828649,1184.329507,9474.636058
962.126643,842.705048,1628.453072,8586.388927
962.126962,1302.362347,888.247130,7550.100608
962.127281,1762.019645,296.082377,7698.141797
962.127600,1532.190996,-0.000000,7254.018232
962.127919,1608.800546,-0.000000,7550.100608
962.128238,995.924147,-518.144159,8142.265362
962.128557,383.047749,-518.144159,9252.574275
962.128876,0.000000,-370.102971,10658.965565
962.129195,-842.705048,-592.164754,10584.944971
962.129514,-1072.533697,-74.020594,11029.068536
962.129833,-1302.362347,518.144159,11103.089130
962.130152,-536.266849,592.164754,10807.006753
962.130471,-306.438199,1036.288319,10510.924376
962.130790,153.219100,740.205942,9548.656652
962.131109,1225.752797,1184.329507,8512.368333
962.131428,1378.971896,518.144159,7846.182985
962.131747,2145.067394,-0.000000,7920.203579
962.132066,1838.629195,-296.082377,7920.203579
962.132385,1608.800546,-666.185348,7920.203579
962.132704,1149.143247,-962.267725,8660.409521
962.133023,612.876398,-592.164754,9400.615463
962.133342,0.000000,-444.123565,9992.780217
962.133661,-153.219100,-0.000000,10584.944971
962.133980,-766.095498,444.123565,10510.924376
962.134299,-766.095498,1332.370696,10658.965565
962.134618,-536.266849,962.267725,10510.924376
962.134937,0.000000,666.185348,10214.842000
962.135256,383.047749,1184.329507,9696.697840
962.135575,842.705048,814.226536,8734.430116
962.135894,1302.362347,518.144159,8290.306550
962.136213,1149.143247,-0.000000,7698.141797
962.136532,1915.238745,-0.000000,7624.121203
962.136851,1302.362347,-444.123565,7624.121203
962.137170,995.924147,-148.041188,7846.182985
962.137489,76.609550,-0.000000,9104.533087
962.137808,-689.485948,-0.000000,9918.759623
962.138127,-1072.533697,-0.000000,10732.986159
962.138446,-1915.238745,370.102971,11251.130318
962.138765,-2221.676944,814.226536,11177.109724
962.139084,-1608.800546,962.267725,10881.027347
962.139403,-995.924147,1110.308913,10510.924376
962.139722,0.000000,1480.411884,9474.636058
962.140041,536.266849,962.267725,8512.368333
962.140360,1685.410096,740.205942,7624.121203
962.140679,2145.067394,592.164754,7328.038826
962.140998,2451.505594,370.102971,7105.977043
962.141317,2451.505594,-0.000000,7179.997637
962.141636,1838.629195,-74.020594,8068.244768
962.141955,1302.362347,-0.000000,9252.574275
962.142274,1302.362347,666.185348,9696.697840
962.142593,459.657299,518.144159,9992.780217
962.142912,-306.438199,1184.329507,10436.903782
962.143231,-612.876398,1406.391290,10510.924376
962.143550,0.000000,1480.411884,9992.780217
962.143869,306.438199,592.164754,9474.636058
962.144188,459.657299,1332.370696,9178.553681
962.144507,842.705048,888.247130,8438.347739
962.144826,995.924147,222.061783,7920.203579
962.145145,1378.971896,-222.061783,7920.203579
962.145464,1149.143247,-0.000000,7698.141797
962.145783,1072.533697,-0.000000,7698.141797
962.146102,306.438199,-222.061783,8660.409521
962.146421,-612.876398,74.020594,9474.636058
962.146740,-842.705048,-370.102971,10288.862594
962.147059,-1455.581446,-74.020594,10732.986159
962.147378,-1915.238745,-0.000000,11251.130318
962.147697,-1685.410096,444.123565,11177.109724
962.148016,-1302.362347,296.082377,10658.965565
962.148335,-842.705048,444.123565,10066.800811
962.148654,-306.438199,814.226536,9400.615463
962.148973,612.876398,444.123565,8438.347739
962.149292,1302.362347,-0.000000,8068.244768
962.149611,2374.896044,-592.164754,8068.244768
962.149930,1991.848295,-814.226536,8068.244768
962.150249,1685.410096,-888.247130,8660.409521
962.150568,1302.362347,-666.185348,9104.533087
962.150887,919.314598,-518.144159,9696.697840
962.151206,459.657299,-444.123565,10658.965565
962.151525,306.438199,-0.000000,10288.862594
962.151844,229.828649,444.123565,10510.924376
962.152163,0.000000,592.164754,10658.965565
962.152482,536.266849,592.164754,10066.800811
962.152801,689.485948,888.247130,9622.677246
962.153120,1302.362347,888.247130,8586.388927
962.153439,1532.190996,-0.000000,8142.265362
962.153758,1532.190996,-74.020594,7920.203579
962.154077,1378.971896,-222.061783,7550.100608
962.154396,766.095498,-370.102971,7550.100608
962.154716,612.876398,-444.123565,7994.224174
962.155035,76.609550,-592.164754,8808.450710
962.155354,-612.876398,-444.123565,9474.636058
962.155673,-842.705048,-296.082377,10140.821405
962.155992,-1378.971896,-0.000000,10732.986159
962.156311,-1455.581446,592.164754,11251.130318
962.156630,-1455.581446,296.082377,10658.965565
962.156949,-919.314598,592.164754,10066.800811
962.157268,-383.047749,740.205942,9548.656652
962.157587,459.657299,666.185348,8290.306550
962.157906,1149.143247,296.082377,7402.059420
962.158225,1378.971896,-74.020594,7031.956449
962.158544,1532.190996,-296.082377,7254.018232
962.158863,2068.457845,-666.185348,7772.162391
962.159182,995.924147,-1110.308913,8290.306550
962.159501,842.705048,-1036.288319,9326.594869
962.159820,153.219100,-518.144159,10214.842000
962.160139,0.000000,-0.000000,10288.862594
962.160458,-229.828649,444.123565,10510.924376
962.160777,76.609550,1110.308913,10658.965565
962.161096,229.828649,1184.329507,10584.944971
962.161415,1072.533697,1184.329507,9770.718434
962.161734,1532.190996,1110.308913,9178.553681
962.162053,2374.896044,1554.432478,8438.347739
962.162372,2528.115143,740.205942,7476.080014
962.162691,2757.943793,222.061783,7179.997637
962.163010,2681.334243,148.041188,7328.038826
962.163329,2068.457845,-74.020594,7698.141797
962.163648,1302.362347,-222.061783,8216.285956
962.163967,536.266849,-444.123565,9474.636058
962.164286,-306.438199,-296.082377,10288.862594
962.164605,-1072.533697,-370.102971,10881.027347
962.164924,-1455.581446,296.082377,11103.089130
962.165243,-1762.019645,592.164754,11399.171507
962.165562,-1072.533697,1110.308913,10881.027347
962.165881,-919.314598,1406.391290,10658.965565
962.166200,0.000000,1480.411884,9474.636058
962.166519,383.047749,1332.370696,8364.327145
962.166838,919.314598,740.205942,7772.162391
962.167157,1302.362347,444.123565,7698.141797
962.167476,1455.581446,-0.000000,7698.141797
962.167795,1225.752797,-370.102971,7994.224174
962.168114,229.828649,-962.267725,8808.450710
962.168433,-153.219100,-592.164754,9548.656652
962.168752,-919.314598,-296.082377,10732.986159
962.169071,-1302.362347,-370.102971,10881.027347
962.169390,-1302.362347,-0.000000,11399.171507
962.169709,-1532.190996,592.164754,11251.130318
962.170028,-919.314598,740.205942,11103.089130
962.170347,-153.219100,814.226536,10288.862594
962.170666,383.047749,814.226536,9474.636058
962.170985,1302.362347,740.205942,8438.347739
962.171304,1915.238745,592.164754,7846.182985
962.171623,2374.896044,370.102971,7476.080014
962.171942,2451.505594,296.082377,7105.977043
962.172261,2451.505594,-0.000000,7105.977043
962.172580,1991.848295,-148.041188,7994.224174
962.172899,1072.533697,-222.061783,9548.656652
962.173218,383.047749,-370.102971,10362.883188
962.173537,-536.266849,-518.144159,10658.965565
962.173856,-459.657299,-74.020594,11029.068536
962.174175,-536.266849,-0.000000,11251.130318
962.174494,-842.705048,370.102971,10658.965565
962.174813,0.000000,518.144159,9844.739029
962.175132,459.657299,740.205942,9178.553681
962.175451,1149.143247,888.247130,8142.265362
962.175770,1762.019645,-0.000000,7402.059420
962.176089,2145.067394,-0.000000,7179.997637
962.176408,2221.676944,-0.000000,7254.018232
962.176727,2145.067394,-370.102971,7476.080014
962.177046,995.924147,-370.102971,8142.265362
962.177365,536.266849,-74.020594,9326.594869
962.177684,-306.438199,148.041188,9696.697840
962.178003,-919.314598,-0.000000,10436.903782
962.178322,-1225.752797,592.164754,10881.027347
962.178641,-1455.581446,1036.288319,10732.986159
962.178960,-1225.752797,740.205942,10510.924376
962.179279,-766.095498,1036.288319,10066.800811
962.179598,-306.438199,888.247130,9252.574275
962.179917,536.266849,740.205942,8438.347739
962.180236,1149.143247,148.041188,7476.080014
962.180555,1149.143247,-0.000000,7550.100608
962.180874,1608.800546,-148.041188,7328.038826
962.181193,1532.190996,-444.123565,7402.059420
962.181512,1072.533697,-148.041188,8364.327145
962.181831,612.876398,-148.041188,9400.615463
962.182150,0.000000,-0.000000,9770.718434
962.182469,-459.657299,444.123565,10288.862594
962.182788,-1149.143247,814.226536,10658.965565
962.183107,-612.876398,962.267725,10807.006753
962.183426,-306.438199,962.267725,10288.862594
962.183746,229.828649,1110.308913,9770.718434
962.184065,1149.143247,1036.288319,9104.533087
962.184384,1608.800546,888.247130,8364.327145
962.184703,2374.896044,222.061783,7772.162391
962.185022,2528.115143,592.164754,7846.182985
962.185341,2451.505594,148.041188,7920.203579
962.185660,2451.505594,-0.000000,8068.244768
962.185979,2145.067394,-74.020594,9030.512492
962.186298,1685.410096,-0.000000,9622.677246
962.186617,842.705048,370.102971,9918.759623
962.186936,459.657299,1110.308913,10362.883188
962.187255,306.438199,1258.350101,10436.903782
962.187574,0.000000,1554.432478,10658.965565
962.187893,0.000000,962.267725,10066.800811
962.188212,76.609550,1406.391290,9992.780217
962.188531,459.657299,1480.411884,8808.450710
962.188850,1072.533697,1258.350101,8438.347739
962.189169,1302.362347,296.082377,8290.306550
962.189488,842.705048,370.102971,8142.265362
962.189807,766.095498,370.102971,7994.224174
962.190126,229.828649,-74.020594,8586.388927
962.190445,0.000000,-0.000000,9474.636058
962.190764,-612.876398,-0.000000,9696.697840
962.191083,-1378.971896,296.082377,10510.924376
962.191402,-1532.190996,740.205942,10955.047942
962.191721,-1455.581446,1406.391290,10955.047942
962.192040,-689.485948,1554.432478,10362.883188
962.192359,-229.828649,1850.514855,10066.800811
962.192678,229.828649,1924.535449,9548.656652
962.192997,689.485948,1776.494261,8512.368333
962.193316,1302.362347,962.267725,7698.141797
962.193635,1838.629195,148.041188,7698.141797
962.193954,2451.505594,370.102971,7994.224174
962.194273,1915.238745,-148.041188,8364.327145
962.194592,2068.457845,-370.102971,8586.388927
962.194911,1302.362347,-740.205942,9326.594869
962.195230,919.314598,-0.000000,10214.842000
962.195549,383.047749,296.082377,10436.903782
962.195868,0.000000,592.164754,10436.903782
962.196187,0.000000,1036.288319,10362.883188
962.196506,0.000000,1110.308913,10288.862594
962.196825,153.219100,888.247130,9770.718434
962.197144,459.657299,666.185348,9548.656652
962.197463,1149.143247,592.164754,8808.450710
962.197782,1072.533697,-370.102971,8586.388927
962.198101,1378.971896,-370.102971,8290.306550
962.198420,1149.143247,-444.123565,8068.244768
962.198739,842.705048,-370.102971,8142.265362
962.199058,229.828649,-444.123565,8660.409521
962.199376,0.000000,-74.020594,9474.636058
962.199695,-689.485948,-370.102971,10066.800811
962.200014,-1532.190996,-148.041188,10584.944971
962.200333,-1302.362347,296.082377,10955.047942
962.200652,-1378.971896,444.123565,11029.068536
962.200971,-1608.800546,740.205942,10732.986159
962.201290,-383.047749,1480.411884,9992.780217
962.201609,76.609550,1702.473667,8882.471304
962.201928,1072.533697,1628.453072,7846.182985
962.202247,1302.362347,814.226536,6883.915261
962.202566,1915.238745,370.102971,7031.956449
962.202885,1838.629195,-148.041188,7328.038826
962.203204,1608.800546,-296.082377,7624.121203
962.203523,1225.752797,-444.123565,8660.409521
962.203842,1455.581446,-222.061783,8956.491898
962.204161,689.485948,-0.000000,9696.697840
962.204480,0.000000,740.205942,9844.739029
962.204799,0.000000,1184.329507,9844.739029
962.205118,229.828649,1480.411884,9992.780217
962.205437,306.438199,1776.494261,9770.718434
962.205756,1378.971896,1850.514855,9178.553681
962.206075,1762.019645,1850.514855,8660.409521
962.206394,2221.676944,1850.514855,7920.203579
962.206713,2451.505594,814.226536,7994.224174
962.207032,2145.067394,814.226536,8216.285956
962.207351,1838.629195,74.020594,7920.203579
962.207670,1991.848295,-0.000000,8142.265362
962.207989,919.314598,-148.041188,8956.491898
962.208308,0.000000,-74.020594,10066.800811
962.208626,-383.047749,-222.061783,10658.965565
962.208945,-919.314598,-0.000000,10881.027347
962.209264,-1302.362347,518.144159,11251.130318
962.209583,-1072.533697,962.267725,11325.150913
962.209902,-1455.581446,814.226536,10881.027347
962.210221,-842.705048,1258.350101,10362.883188
962.210540,76.609550,1258.350101,9178.553681
962.210859,612.876398,1258.350101,8586.388927
962.211178,1072.533697,666.185348,7920.203579
962.211497,1378.971896,592.164754,7624.121203
962.211816,1378.971896,222.061783,7920.203579
962.212135,1072.533697,-148.041188,8512.368333
962.212454,766.095498,-370.102971,9474.636058
962.212773,76.609550,-296.082377,10362.883188
962.213092,76.609550,-0.000000,10436.903782
962.213411,-459.657299,518.144159,11251.130318
962.213730,-689.485948,814.226536,11325.150913
962.214049,-459.657299,1628.453072,11029.068536
962.214368,76.609550,1702.473667,10214.842000
962.214687,536.266849,2072.576638,9548.656652
962.215006,1225.752797,2146.597232,8882.471304
962.215325,1762.019645,1554.432478,7698.141797
962.215644,2145.067394,814.226536,7179.997637
962.215963,2298.286494,518.144159,7550.100608
962.216282,1915.238745,-0.000000,7476.080014
962.216601,1302.362347,-518.144159,7846.182985
962.216920,612.876398,-296.082377,8734.430116
962.217239,-306.438199,-518.144159,9548.656652
962.217558,-842.705048,-666.185348,10584.944971
962.217876,-1455.581446,-296.082377,11029.068536
962.218195,-1378.971896,148.041188,11769.274478
962.218514,-1608.800546,592.164754,11251.130318
962.218833,-612.876398,740.205942,10807.006753
962.219152,-306.438199,518.144159,10214.842000
962.219471,153.219100,888.247130,9030.512492
962.219790,1378.971896,-0.000000,8068.244768
962.220109,1608.800546,-296.082377,7624.121203
962.220428,2298.286494,-814.226536,7254.018232
962.220747,2221.676944,-740.205942,7105.977043
962.221066,1455.581446,-740.205942,7624.121203
962.221385,1149.143247,-888.247130,8734.430116
962.221704,459.657299,-666.185348,9400.615463
962.222023,-306.438199,-444.123565,10140.821405
962.222342,-842.705048,-0.000000,10288.862594
962.222661,-1455.581446,444.123565,10510.924376
962.222980,-995.924147,962.267725,10362.883188
962.223299,-919.314598,1110.308913,10214.842000
962.223618,-306.438199,740.205942,9326.594869
962.223937,229.828649,740.205942,8660.409521
962.224256,995.924147,370.102971,7772.162391
962.224575,1302.362347,518.144159,7254.018232
962.224894,1915.238745,444.123565,7254.018232
962.225213,1838.629195,370.102971,7179.997637
962.225532,1685.410096,148.041188,7550.100608
962.225851,919.314598,222.061783,8142.265362
962.226170,459.657299,296.082377,9178.553681
962.226489,0.000000,370.102971,9474.636058
962.226807,-536.266849,962.267725,9770.718434
962.227126,-612.876398,814.226536,10066.800811
962.227445,-689.485948,1036.288319,10066.800811
962.227764,-76.609550,1110.308913,9844.739029
962.228083,0.000000,1110.308913,9400.615463
962.228402,229.828649,1110.308913,9178.553681
962.228721,612.876398,666.185348,8290.306550
962.229040,1302.362347,370.102971,8364.327145
962.229359,1455.581446,-148.041188,8586.388927
962.229678,689.485948,-444.123565,8586.388927
962.229997,1149.143247,-148.041188,8882.471304
962.230316,766.095498,-148.041188,9696.697840
962.230635,153.219100,148.041188,10214.842000
962.230954,-153.219100,296.082377,10584.944971
962.231273,-306.438199,666.185348,11029.068536
962.231592,-306.438199,1184.329507,11103.089130
962.231911,-383.047749,1258.350101,10807.006753
962.232230,306.438199,962.267725,10362.883188
962.232549,0.000000,1406.391290,9696.697840
962.232868,995.924147,1110.308913,8956.491898
962.233187,536.266849,148.041188,8512.368333
962.233506,995.924147,-0.000000,8364.327145
962.233825,536.266849,-444.123565,8586.388927
962.234144,383.047749,-518.144159,8734.430116
962.234463,306.438199,-666.185348,9326.594869
962.234782,0.000000,-74.020594,9844.739029
962.235101,-612.876398,296.082377,10362.883188
962.235420,-919.314598,222.061783,10807.006753
962.235739,-1072.533697,740.205942,10881.027347
962.236057,-995.924147,1184.329507,11029.068536
962.236376,-229.828649,1554.432478,10288.862594
962.236695,229.828649,1702.473667,9548.656652
962.237014,995.924147,1998.556043,8734.430116
962.237333,1455.581446,1258.350101,7994.224174
962.237652,1915.238745,444.123565,7402.059420
962.237971,2298.286494,222.061783,7476.080014
962.238290,1915.238745,-296.082377,7550.100608
962.238609,1838.629195,-666.185348,7846.182985
962.238928,1072.533697,-592.164754,8956.491898
962.239247,612.876398,-666.185348,9696.697840
962.239566,76.609550,-444.123565,10436.903782
962.239885,0.000000,-740.205942,10436.903782
962.240204,-766.095498,148.041188,10510.924376
962.240523,-612.876398,444.123565,10510.924376
962.240842,-459.657299,518.144159,9992.780217
962.241161,76.609550,666.185348,9474.636058
962.241480,306.438199,740.205942,8660.409521
962.241799,459.657299,444.123565,7920.203579
962.242118,842.705048,-148.041188,7624.121203
962.242437,766.095498,-666.185348,7698.141797
962.242756,689.485948,-814.226536,7994.224174
962.243075,0.000000,-1258.350101,8216.285956
962.243394,-229.828649,-1184.329507,9252.574275
962.243713,-536.266849,-1258.350101,10066.800811
962.244032,-842.705048,-1036.288319,10362.883188
962.244351,-1149.143247,-370.102971,10881.027347
962.244670,-995.924147,296.082377,10510.924376
962.244989,-766.095498,888.247130,10066.800811
962.245307,0.000000,1258.350101,9548.656652
962.245626,842.705048,1554.432478,9030.512492
962.245945,1915.238745,1480.411884,8068.244768
962.246264,2528.115143,1332.370696,7105.977043
962.246583,2911.162892,518.144159,6735.874072
962.246902,2911.162892,74.020594,7105.977043
962.247221,2681.334243,-74.020594,7105.977043
962.247540,2068.457845,-592.164754,7254.018232
962.247859,1455.581446,-518.144159,8882.471304
962.248178,689.485948,-222.061783,9696.697840
962.248497,76.609550,-222.061783,10362.883188
962.248816,0.000000,-74.020594,10881.027347
962.249135,-612.876398,370.102971,10955.047942
962.249454,-612.876398,740.205942,10881.027347
962.249773,-229.828649,740.205942,10214.842000
962.250092,76.609550,814.226536,9474.636058
962.250411,689.485948,1036.288319,8512.368333
962.250730,1225.752797,814.226536,7846.182985
962.251049,1532.190996,-0.000000,7476.080014
962.251368,1685.410096,-148.041188,7550.100608
962.251687,1838.629195,-74.020594,7698.141797
962.252006,383.047749,-592.164754,8216.285956
962.252325,0.000000,-444.123565,9178.553681
962.252644,-766.095498,-222.061783,9992.780217
962.252963,-1378.971896,-148.041188,10807.006753
962.253282,-1762.019645,296.082377,11547.212695
962.253601,-1991.848295,1332.370696,11399.171507
962.253920,-1685.410096,1628.453072,11325.150913
962.254238,-919.314598,1628.453072,10881.027347
962.254557,-153.219100,2146.597232,10140.821405
962.254876,995.924147,1924.535449,9104.533087
962.255195,1455.581446,1850.514855,8142.265362
962.255514,1838.629195,592.164754,8068.244768
962.255833,2451.505594,592.164754,7994.224174
962.256152,2374.896044,444.123565,8068.244768
962.256471,1915.238745,296.082377,7994.224174
962.256790,1991.848295,-0.000000,8808.450710
962.257109,1302.362347,148.041188,9844.739029
962.257428,689.485948,148.041188,10510.924376
962.257747,-229.828649,222.061783,10955.047942
962.258066,0.000000,666.185348,11251.130318
962.258385,0.000000,740.205942,11251.130318
962.258704,0.000000,740.205942,10584.944971
962.259023,383.047749,814.226536,9696.697840
962.259342,995.924147,814.226536,9030.512492
962.259661,1532.190996,592.164754,8438.347739
962.259980,2221.676944,-370.102971,7698.141797
962.260299,1915.238745,-1184.329507,8512.368333
962.260618,1302.362347,-1036.288319,8956.491898
962.260937,536.266849,-444.123565,8142.265362
962.261256,306.438199,-740.205942,9326.594869
962.261575,-459.657299,-1258.350101,10955.047942
962.261894,-1378.971896,-1332.370696,11399.171507
962.262213,-2145.067394,-0.000000,10658.965565
962.262532,-1991.848295,814.226536,10584.944971
962.262851,-1302.362347,962.267725,10510.924376
962.263170,-689.485948,666.185348,10140.821405
962.263488,-306.438199,814.226536,9178.553681
962.263807,153.219100,296.082377,8512.368333
962.264126,842.705048,-444.123565,7550.100608
962.264445,1762.019645,-444.123565,7476.080014
962.264764,1915.238745,-0.000000,7476.080014
962.265083,1455.581446,222.061783,7031.956449
962.265402,1072.533697,-370.102971,7772.162391
962.265721,1072.533697,-592.164754,9030.512492
962.266040,995.924147,-74.020594,9474.636058
962.266359,536.266849,666.185348,9326.594869
962.266678,229.828649,1036.288319,9770.718434
962.266997,383.047749,962.267725,10584.944971
962.267316,689.485948,1258.350101,9770.718434
962.267635,1149.143247,1480.411884,8956.491898
962.267954,1762.019645,1554.432478,8438.347739
962.268273,2068.457845,962.267725,7402.059420
962.268592,2834.553343,444.123565,7179.997637
962.268911,2681.334243,148.041188,7105.977043
962.269230,2681.334243,-0.000000,6957.935855
962.269549,2298.286494,-148.041188,7179.997637
962.269868,1532.190996,-592.164754,8068.244768
962.270187,995.924147,-370.102971,9252.574275
962.270506,306.438199,148.041188,9474.636058
962.270825,-459.657299,370.102971,9918.759623
962.271144,-1072.533697,518.144159,10881.027347
962.271463,-1378.971896,1036.288319,10955.047942
962.271782,-1072.533697,1110.308913,10881.027347
962.272101,-919.314598,1332.370696,10436.903782
962.272420,-153.219100,1702.473667,9622.677246
962.272738,459.657299,1406.391290,8586.388927
962.273057,1072.533697,666.185348,8142.265362
962.273376,919.314598,296.082377,8808.450710
962.273695,766.095498,-0.000000,8660.409521
962.274014,842.705048,-0.000000,8290.306550
962.274333,536.266849,148.041188,9104.533087
962.274652,0.000000,-0.000000,10066.800811
962.274971,-689.485948,-0.000000,10584.944971
962.275290,-1072.533697,222.061783,11103.089130
962.275609,-1149.143247,1110.308913,10955.047942
962.275928,-1532.190996,1184.329507,11251.130318
962.276247,-842.705048,1628.453072,10807.006753
962.276566,0.000000,1628.453072,10066.800811
962.276885,383.047749,1554.432478,9104.533087
962.277204,1532.190996,1332.370696,8438.347739
962.277523,1532.190996,370.102971,8364.327145
962.277842,1608.800546,-0.000000,8142.265362
962.278161,1685.410096,-444.123565,8734.430116
962.278480,1072.533697,-666.185348,9030.512492
962.278799,612.876398,-444.123565,9770.718434
962.279118,459.657299,-0.000000,10436.903782
962.279437,76.609550,666.185348,10288.862594
962.279756,76.609550,592.164754,10881.027347
962.280075,0.000000,1628.453072,10658.965565
962.280394,536.266849,1924.535449,10658.965565
962.280713,842.705048,1406.391290,10140.821405
962.281032,1149.143247,1924.535449,9622.677246
962.281351,1455.581446,1702.473667,8290.306550
962.281669,1838.629195,1184.329507,7402.059420
962.281988,2298.286494,-444.123565,7846.182985
962.282307,2374.896044,-370.102971,7994.224174
962.282626,1762.019645,-592.164754,7698.141797
962.282945,1072.533697,-666.185348,8364.327145
962.283264,459.657299,-666.185348,9400.615463
962.283583,0.000000,-444.123565,9474.636058
962.283902,-229.828649,-148.041188,10140.821405
962.284221,-1532.190996,-0.000000,11103.089130
962.284540,-1532.190996,1036.288319,10732.986159
962.284859,-1302.362347,1480.411884,10066.800811
962.285178,-1072.533697,1628.453072,10362.883188
962.285497,-536.266849,1628.453072,8808.450710
962.285816,229.828649,1332.370696,8068.244768
962.286135,919.314598,518.144159,7328.038826
962.286454,1608.800546,-0.000000,6957.935855
962.286773,1532.190996,-0.000000,7031.956449
962.287092,995.924147,-370.102971,7179.997637
962.287411,766.095498,-592.164754,7624.121203
962.287730,229.828649,-814.226536,8438.347739
962.288049,0.000000,-148.041188,9178.553681
962.288368,-612.876398,-148.041188,9178.553681
962.288687,-842.705048,-0.000000,9622.677246
962.289006,-995.924147,370.102971,10214.842000
962.289325,-995.924147,592.164754,10658.965565
962.289644,-229.828649,1036.288319,10066.800811
962.289963,76.609550,1258.350101,9474.636058
962.290282,1455.581446,1184.329507,8734.430116
962.290601,2145.067394,666.185348,7698.141797
962.290919,2757.943793,444.123565,7254.018232
962.291238,3064.381992,-74.020594,7179.997637
962.291557,2681.334243,-0.000000,7402.059420
962.291876,2145.067394,-222.061783,8290.306550
962.292195,1532.190996,-148.041188,9400.615463
962.292514,919.314598,-518.144159,10362.883188
962.292833,229.828649,-296.082377,10732.986159
962.293152,-306.438199,740.205942,11251.130318
962.293471,-842.705048,814.226536,11251.130318
962.293790,-842.705048,1184.329507,11399.171507
962.294109,-153.219100,1258.350101,10807.006753
962.294428,153.219100,1332.370696,9622.677246
962.294747,612.876398,1554.432478,9030.512492
962.295066,1302.362347,370.102971,8586.388927
962.295385,1072.533697,-222.061783,8364.327145
962.295704,1225.752797,-0.000000,8512.368333
962.296023,612.876398,222.061783,8808.450710
962.296342,306.438199,-444.123565,9030.512492
962.296661,-306.438199,518.144159,10066.800811
962.296980,-612.876398,-0.000000,10510.924376
962.297299,-1302.362347,1776.494261,9548.656652
962.297618,-995.924147,2146.597232,10436.903782
962.297937,-1302.362347,1850.514855,9696.697840
962.298255,-995.924147,814.226536,11695.253884
962.298574,0.000000,518.144159,11177.109724
962.298893,-153.219100,1628.453072,9696.697840
962.299212,766.095498,1110.308913,8882.471304
962.299531,2068.457845,1628.453072,7994.224174
962.299850,2374.896044,1406.391290,7772.162391
962.300169,2221.676944,814.226536,6439.791695
962.300488,1608.800546,296.082377,7550.100608
962.300807,1532.190996,296.082377,8438.347739
962.301125,1455.581446,666.185348,8882.471304
962.301444,536.266849,-0.000000,9844.739029
962.301763,229.828649,-592.164754,11399.171507
962.302082,-306.438199,-370.102971,11917.315666
962.302401,0.000000,222.061783,11103.089130
962.302720,842.705048,1110.308913,10510.924376
962.303039,995.924147,1628.453072,10214.842000
962.303358,919.314598,1702.473667,9178.553681
962.303676,1455.581446,1110.308913,7698.141797
962.303995,2068.457845,-0.000000,7476.080014
962.304314,1762.019645,-370.102971,7698.141797
962.304633,1302.362347,-888.247130,7550.100608
962.304952,153.219100,-1776.494261,8142.265362
962.305271,-306.438199,-1702.473667,9252.574275
962.305590,-1378.971896,-1628.453072,10066.800811
962.305909,-1378.971896,-1258.350101,10584.944971
962.306227,-1685.410096,-518.144159,11029.068536
962.306546,-2298.286494,370.102971,10732.986159
962.306865,-1991.848295,740.205942,10584.944971
962.307184,-1762.019645,962.267725,10066.800811
962.307503,-842.705048,1258.350101,9474.636058
962.307822,-536.266849,1554.432478,8882.471304
962.308141,306.438199,666.185348,8068.244768
962.308460,995.924147,222.061783,7328.038826
962.308778,1225.752797,-0.000000,6957.935855
962.309097,1762.019645,-74.020594,7105.977043
962.309416,1378.971896,-666.185348,7328.038826
962.309735,842.705048,-888.247130,8290.306550
962.310054,612.876398,-444.123565,9400.615463
962.310373,612.876398,-0.000000,10066.800811
962.310692,383.047749,222.061783,9918.759623
962.311011,459.657299,1036.288319,9844.739029
962.311329,306.438199,1110.308913,9918.759623
962.311648,306.438199,1036.288319,9474.636058
962.311967,1072.533697,888.247130,8586.388927
962.312286,1762.019645,1110.308913,8438.347739
962.312605,1608.800546,222.061783,7846.182985
962.312924,1455.581446,-518.144159,7624.121203
962.313243,1302.362347,-666.185348,7920.203579
962.313562,1302.362347,-592.164754,8068.244768
962.313880,612.876398,-666.185348,8956.491898
962.314199,229.828649,-888.247130,9548.656652
962.314518,0.000000,-518.144159,10362.883188
962.314837,-612.876398,-518.144159,10362.883188
962.315156,-1072.533697,-0.000000,10732.986159
962.315475,-1149.143247,222.061783,10732.986159
962.315794,-1225.752797,1184.329507,10066.800811
962.316113,-306.438199,1776.494261,10066.800811
962.316431,-383.047749,1702.473667,9844.739029
962.316750,306.438199,1924.535449,9030.512492
962.317069,612.876398,1776.494261,8290.306550
962.317388,1072.533697,1184.329507,8068.244768
962.317707,995.924147,296.082377,8216.285956
962.318026,766.095498,-148.041188,8290.306550
962.318345,153.219100,-444.123565,8290.306550
962.318664,0.000000,-0.000000,9918.759623
962.318982,-306.438199,-0.000000,10214.842000
962.319301,-689.485948,296.082377,10807.006753
962.319620,-1149.143247,1184.329507,10732.986159
962.319939,-536.266849,1332.370696,11029.068536
962.320258,-229.828649,2146.597232,10584.944971
962.320577,153.219100,2220.617826,9622.677246
962.320896,689.485948,2220.617826,9252.574275
962.321215,919.314598,1628.453072,9104.533087
962.321533,1532.190996,518.144159,8142.265362
962.321852,1685.410096,-296.082377,8142.265362
962.322171,1762.019645,-592.164754,8216.285956
962.322490,1532.190996,-962.267725,8512.368333
962.322809,1225.752797,-888.247130,8808.450710
962.323128,689.485948,-666.185348,9548.656652
962.323447,383.047749,-296.082377,10362.883188
962.323766,-153.219100,-0.000000,10510.924376
962.324085,-612.876398,296.082377,10881.027347
962.324403,-995.924147,296.082377,11103.089130
962.324722,-689.485948,814.226536,10732.986159
962.325041,-229.828649,518.144159,10362.883188
962.325360,459.657299,888.247130,9474.636058
962.325679,689.485948,518.144159,8586.388927
962.325998,1532.190996,222.061783,7920.203579
962.326317,2145.067394,222.061783,7994.224174
962.326636,2145.067394,-0.000000,7550.100608
962.326954,1685.410096,-222.061783,7624.121203
962.327273,995.924147,-370.102971,8290.306550
962.327592,612.876398,-222.061783,9178.553681
962.327911,0.000000,-222.061783,9696.697840
962.328230,-612.876398,-0.000000,10214.842000
962.328549,-1072.533697,740.205942,10214.842000
962.328868,-919.314598,962.267725,9992.780217
962.329187,-842.705048,962.267725,9918.759623
962.329505,-306.438199,888.247130,9474.636058
962.329824,0.000000,1036.288319,8660.409521
962.330143,383.047749,962.267725,8142.265362
962.330462,842.705048,-0.000000,7846.182985
962.330781,1838.629195,-0.000000,7772.162391
962.331100,1378.971896,-222.061783,7402.059420
962.331419,1225.752797,-444.123565,7550.100608
962.331738,919.314598,-888.247130,7772.162391
962.332056,1149.143247,-444.123565,8660.409521
962.332375,383.047749,-666.185348,9252.574275
962.332694,0.000000,-370.102971,9696.697840
962.333013,-306.438199,-0.000000,10288.862594
962.333332,-459.657299,518.144159,10362.883188
962.333651,-229.828649,666.185348,9844.739029
962.333970,383.047749,962.267725,9622.677246
962.334289,306.438199,740.205942,9400.615463
962.334607,1072.533697,666.185348,8216.285956
962.334926,1302.362347,-0.000000,7846.182985
962.335245,1532.190996,-222.061783,7994.224174
962.335564,1302.362347,-740.205942,8438.347739
962.335883,1072.533697,-1184.329507,8660.409521
962.336202,842.705048,-1110.308913,9474.636058
962.336521,306.438199,-814.226536,9992.780217
962.336840,-306.438199,-74.020594,10362.883188
962.337158,-383.047749,444.123565,10807.006753
962.337477,-612.876398,888.247130,11103.089130
962.337796,-459.657299,1480.411884,10807.006753
962.338115,0.000000,1332.370696,10214.842000
962.338434,536.266849,1480.411884,9622.677246
962.338753,766.095498,1184.329507,9178.553681
962.339072,1225.752797,592.164754,8142.265362
962.339391,1838.629195,-74.020594,7846.182985
962.339709,1838.629195,-148.041188,8142.265362
962.340028,1532.190996,-296.082377,7846.182985
962.340347,1072.533697,-0.000000,8142.265362
962.340666,689.485948,-0.000000,8734.430116
962.340985,612.876398,-148.041188,9400.615463
962.341304,0.000000,444.123565,10066.800811
962.341623,-306.438199,888.247130,10140.821405
962.341942,-383.047749,814.226536,11103.089130
962.342260,-383.047749,1036.288319,10881.027347
962.342579,0.000000,1184.329507,10807.006753
962.342898,612.876398,1628.453072,9474.636058
962.343217,1225.752797,1998.556043,8734.430116
962.343536,1608.800546,1480.411884,7698.141797
962.343855,1915.238745,814.226536,7624.121203
962.344174,2374.896044,518.144159,7476.080014
962.344493,2068.457845,74.020594,7698.141797
962.344811,1762.019645,-222.061783,8216.285956
962.345130,1149.143247,-222.061783,9326.594869
962.345449,766.095498,-444.123565,10510.924376
962.345768,0.000000,-74.020594,10584.944971
962.346087,-306.438199,222.061783,10881.027347
962.346406,-536.266849,888.247130,10732.986159
962.346725,-306.438199,1406.391290,10584.944971
962.347044,0.000000,1702.473667,9622.677246
962.347363,383.047749,1702.473667,9104.533087
962.347681,306.438199,1480.411884,8882.471304
962.348000,919.314598,222.061783,8290.306550
962.348319,1149.143247,-296.082377,8438.347739
962.348638,766.095498,-148.041188,8586.388927
962.348957,689.485948,-518.144159,8438.347739
962.349276,153.219100,-740.205942,8734.430116
962.349595,0.000000,-888.247130,9474.636058
962.349914,-459.657299,-888.247130,9844.739029
962.350232,-842.705048,-518.144159,10214.842000
962.350551,-1149.143247,-0.000000,10732.986159
962.350870,-995.924147,518.144159,10807.006753
962.351189,-766.095498,888.247130,10807.006753
962.351508,-766.095498,962.267725,10288.862594
962.351827,306.438199,1036.288319,9326.594869
962.352146,1302.362347,1110.308913,8216.285956
962.352465,2145.067394,518.144159,7254.018232
962.352783,2451.505594,222.061783,7254.018232
962.353102,2374.896044,-444.123565,7105.977043
962.353421,2374.896044,-1332.370696,7698.141797
962.353740,1532.190996,-1406.391290,8438.347739
962.354059,1072.533697,-1258.350101,9400.615463
962.354378,612.876398,-592.164754,10066.800811
962.354697,536.266849,-370.102971,10066.800811
962.355016,0.000000,222.061783,10362.883188
962.355334,-383.047749,1036.288319,10510.924376
962.355653,-153.219100,1036.288319,9844.739029
962.355972,612.876398,1036.288319,9326.594869
962.356291,689.485948,1258.350101,8882.471304
962.356610,842.705048,888.247130,7698.141797
962.356929,1762.019645,296.082377,7179.997637
962.357248,1762.019645,-740.205942,7476.080014
962.357567,1608.800546,-666.185348,7254.018232
962.357885,1149.143247,-666.185348,7105.977043
962.358204,459.657299,-518.144159,7476.080014
962.358523,0.000000,-222.061783,8438.347739
962.358842,-459.657299,-0.000000,9104.533087
962.359161,-1225.752797,518.144159,9696.697840
962.359480,-1915.238745,1184.329507,10288.862594
962.359799,-2068.457845,1554.432478,10658.965565
962.360118,-1762.019645,1998.556043,10510.924376
962.360436,-1149.143247,1998.556043,10658.965565
962.360755,-229.828649,2368.659014,9474.636058
962.361074,459.657299,2220.617826,8660.409521
962.361393,1532.190996,1776.494261,7698.141797
962.361712,2374.896044,1554.432478,7772.162391
962.362031,2604.724693,962.267725,7476.080014
962.362350,2451.505594,592.164754,7920.203579
962.362669,1991.848295,-222.061783,8882.471304
962.362987,2068.457845,518.144159,9696.697840
962.363306,1915.238745,296.082377,10436.903782
962.363625,1072.533697,444.123565,10288.862594
962.363944,612.876398,1110.308913,10955.047942
962.364263,229.828649,1776.494261,10584.944971
962.364582,383.047749,1554.432478,10510.924376
962.364901,76.609550,1184.329507,10436.903782
962.365220,459.657299,888.247130,9696.697840
962.365538,766.095498,296.082377,9474.636058
962.365857,1149.143247,-592.164754,9474.636058
962.366176,842.705048,-962.267725,9474.636058
962.366495,842.705048,-814.226536,9844.739029
962.366814,536.266849,-888.247130,9548.656652
962.367133,229.828649,-518.144159,9992.780217
962.367452,-306.438199,-0.000000,10510.924376
962.367771,-919.314598,296.082377,10658.965565
962.368089,-1685.410096,296.082377,10881.027347
962.368408,-1838.629195,1184.329507,11177.109724
962.368727,-1608.800546,1628.453072,11251.130318
962.369046,-1608.800546,1480.411884,10955.047942
962.369365,-919.314598,962.267725,10288.862594
962.369684,-842.705048,1332.370696,9474.636058
962.370003,0.000000,1184.329507,8142.265362
962.370322,229.828649,370.102971,7920.203579
962.370641,689.485948,222.061783,7698.141797
962.370959,459.657299,-148.041188,7550.100608
962.371278,995.924147,-814.226536,8660.409521
962.371597,229.828649,-592.164754,9030.512492
962.371916,766.095498,-148.041188,9844.739029
962.372235,0.000000,1036.288319,9178.553681
962.372554,0.000000,1702.473667,9400.615463
962.372873,0.000000,1702.473667,9030.512492
962.373192,153.219100,1258.350101,9474.636058
962.373510,842.705048,592.164754,9400.615463
962.373829,919.314598,1776.494261,8364.327145
962.374148,2068.457845,1036.288319,7920.203579
962.374467,2221.676944,962.267725,7550.100608
962.374786,2911.162892,-1184.329507,7994.224174
962.375105,1838.629195,-740.205942,7105.977043
962.375424,2451.505594,-2072.576638,9104.533087
962.375743,1608.800546,-962.267725,7550.100608
962.376061,1915.238745,-0.000000,8882.471304
962.376380,1378.971896,-0.000000,8734.430116
962.376699,0.000000,-148.041188,9474.636058
962.377018,-536.266849,-740.205942,9474.636058
962.377337,-153.219100,-740.205942,10436.903782
962.377656,-306.438199,296.082377,10066.800811
962.377975,306.438199,740.205942,9918.759623
962.378294,76.609550,962.267725,9548.656652
962.378612,153.219100,666.185348,9326.594869
962.378931,1378.971896,-0.000000,8216.285956
962.379250,995.924147,-518.144159,7624.121203
962.379569,1455.581446,-370.102971,8068.244768
962.379888,766.095498,-740.205942,8438.347739
962.380207,383.047749,-666.185348,9178.553681
962.380526,-229.828649,-814.226536,9992.780217
962.380845,-459.657299,148.041188,10436.903782
962.381163,-612.876398,-0.000000,10362.883188
962.381482,-842.705048,814.226536,10066.800811
962.381801,-766.095498,1554.432478,10214.842000
962.382120,-383.047749,2072.576638,9622.677246
962.382439,76.609550,2368.659014,9326.594869
962.382758,459.657299,1998.556043,9252.574275
962.383077,919.314598,1628.453072,8734.430116
962.383396,1608.800546,1184.329507,8142.265362
962.383714,1532.190996,444.123565,7846.182985
962.384033,1608.800546,-0.000000,7698.141797
962.384352,1072.533697,-0.000000,7772.162391
962.384671,919.314598,-666.185348,8956.491898
962.384990,153.219100,-222.061783,9770.718434
962.385309,-306.438199,-0.000000,10510.924376
962.385628,-383.047749,-0.000000,10510.924376
962.385947,-919.314598,444.123565,11029.068536
962.386265,-689.485948,962.267725,11177.109724
962.386584,-459.657299,1184.329507,10955.047942
962.386903,0.000000,1332.370696,10436.903782
962.387222,842.705048,1554.432478,9548.656652
962.387541,2068.457845,1776.494261,8808.450710
962.387860,2451.505594,1480.411884,7994.224174
962.388179,2451.505594,740.205942,7698.141797
962.388498,2451.505594,370.102971,7624.121203
962.388816,2374.896044,-222.061783,8364.327145
962.389135,1225.752797,-1036.288319,9474.636058
962.389454,0.000000,-666.185348,10732.986159
962.389773,-459.657299,-74.020594,11251.130318
962.390092,-995.924147,296.082377,11029.068536
962.390411,-1072.533697,592.164754,11251.130318
962.390730,-1608.800546,1258.350101,11251.130318
962.391049,-995.924147,1184.329507,10584.944971
962.391367,-459.657299,1258.350101,10066.800811
962.391686,76.609550,1554.432478,9474.636058
962.392005,995.924147,1480.411884,8142.265362
962.392324,1378.971896,888.247130,7402.059420
962.392643,1532.190996,222.061783,7402.059420
962.392962,2068.457845,-0.000000,7624.121203
962.393281,1072.533697,-0.000000,7179.997637
962.393600,1302.362347,148.041188,8290.306550
962.393918,153.219100,-0.000000,8586.388927
962.394237,-459.657299,370.102971,9104.533087
962.394556,-842.705048,-1258.350101,9696.697840
962.394875,-1685.410096,-518.144159,10362.883188
962.395194,-1685.410096,-814.226536,11473.192101
962.395513,-1685.410096,74.020594,10140.821405
962.395832,-306.438199,-0.000000,10732.986159
962.396151,153.219100,370.102971,9844.739029
962.396470,842.705048,1110.308913,7698.141797
962.396788,1685.410096,296.082377,6809.894666
962.397107,2604.724693,-814.226536,7476.080014
962.397426,2374.896044,-518.144159,6883.915261
962.397745,2298.286494,-592.164754,6957.935855
962.398064,1608.800546,-1332.370696,8290.306550
962.398383,995.924147,-1480.411884,9844.739029
962.398702,536.266849,-1406.391290,9696.697840
962.399021,0.000000,-962.267725,10140.821405
962.399339,-689.485948,-0.000000,10732.986159
962.399658,-995.924147,592.164754,10584.944971
962.399977,-766.095498,518.144159,10362.883188
962.400296,-459.657299,814.226536,9992.780217
962.400615,-766.095498,1110.308913,9178.553681
962.400934,-153.219100,518.144159,8586.388927
962.401252,459.657299,-518.144159,7920.203579
962.401571,995.924147,-74.020594,7550.100608
962.401890,842.705048,296.082377,7550.100608
962.402209,612.876398,-0.000000,7550.100608
962.402528,306.438199,-74.020594,8734.430116
962.402847,306.438199,518.144159,9178.553681
962.403165,153.219100,962.267725,9548.656652
962.403484,-229.828649,1110.308913,9770.718434
962.403803,-536.266849,1628.453072,10066.800811
962.404122,-689.485948,1702.473667,10288.862594
962.404441,0.000000,1702.473667,10362.883188
962.404760,-612.876398,1554.432478,9918.759623
962.405078,229.828649,1850.514855,9178.553681
962.405397,842.705048,1110.308913,8290.306550
962.405716,1685.410096,888.247130,7994.224174
962.406035,2145.067394,518.144159,7698.141797
962.406354,2068.457845,-74.020594,7920.203579
962.406672,2145.067394,-370.102971,8734.430116
962.406991,2068.457845,-370.102971,9474.636058
962.407310,1532.190996,-0.000000,9992.780217
962.407629,1378.971896,444.123565,10288.862594
962.407948,766.095498,888.247130,10510.924376
962.408267,0.000000,1628.453072,10288.862594
962.408585,306.438199,1702.473667,10140.821405
962.408904,153.219100,1036.288319,10658.965565
962.409223,0.000000,962.267725,10214.842000
962.409542,306.438199,592.164754,9992.780217
962.409861,612.876398,74.020594,9770.718434
962.410180,919.314598,-444.123565,9474.636058
962.410498,995.924147,-518.144159,9474.636058
962.410817,842.705048,-370.102971,9326.594869
962.411136,612.876398,-0.000000,8734.430116
962.411455,153.219100,444.123565,9326.594869
962.411774,0.000000,444.123565,9548.656652
962.412093,-689.485948,-74.020594,10436.903782
962.412411,-1072.533697,296.082377,10362.883188
962.412730,-1225.752797,1184.329507,10732.986159
962.413049,-1072.533697,1480.411884,10436.903782
962.413368,-612.876398,1554.432478,10658.965565
962.413687,-383.047749,1776.494261,9770.718434
962.414005,0.000000,1480.411884,8734.430116
962.414324,536.266849,666.185348,8290.306550
962.414643,1225.752797,-0.000000,7550.100608
962.414962,1455.581446,-222.061783,7624.121203
962.415281,1532.190996,-888.247130,8142.265362
962.415600,1149.143247,-1406.391290,9104.533087
962.415918,689.485948,-1406.391290,9326.594869
962.416237,383.047749,-814.226536,9844.739029
962.416556,459.657299,-0.000000,9770.718434
962.416875,383.047749,962.267725,9252.574275
962.417194,766.095498,1332.370696,9326.594869
962.417513,842.705048,1406.391290,9030.512492
962.417831,995.924147,888.247130,8438.347739
962.418150,1378.971896,814.226536,8660.409521
962.418469,1378.971896,-0.000000,8438.347739
962.418788,1532.190996,-814.226536,7920.203579
962.419107,1608.800546,-1110.308913,8290.306550
962.419426,1378.971896,-1332.370696,8808.450710
962.419744,995.924147,-1258.350101,8586.388927
962.420063,536.266849,-1184.329507,8660.409521
962.420382,0.000000,-888.247130,9326.594869
962.420701,0.000000,-222.061783,9696.697840
962.421020,-459.657299,-370.102971,9992.780217
962.421338,-766.095498,-222.061783,10140.821405
962.421657,-842.705048,444.123565,10288.862594
962.421976,-689.485948,1036.288319,9918.759623
962.422295,0.000000,1258.350101,9326.594869
962.422614,306.438199,1628.453072,8586.388927
962.422933,1072.533697,1332.370696,7624.121203
962.423251,1302.362347,1184.329507,6957.935855
962.423570,1608.800546,444.123565,7476.080014
962.423889,1532.190996,-0.000000,7328.038826
962.424208,842.705048,296.082377,8290.306550
962.424527,612.876398,-1110.308913,9400.615463
962.424846,0.000000,-444.123565,9770.718434
962.425164,-153.219100,-148.041188,11251.130318
962.425483,153.219100,814.226536,9992.780217
962.425802,-306.438199,1628.453072,10362.883188
962.426121,76.609550,1480.411884,10140.821405
962.426440,306.438199,2146.597232,9474.636058
962.426759,1225.752797,2072.576638,8586.388927
962.427077,1762.019645,1554.432478,8734.430116
962.427396,1838.629195,1480.411884,8068.244768
962.427715,2221.676944,444.123565,7624.121203
962.428034,2145.067394,-148.041188,7920.203579
962.428353,2298.286494,-666.185348,8808.450710
962.428671,1685.410096,-666.185348,8290.306550
962.428990,842.705048,-444.123565,9252.574275
962.429309,383.047749,-444.123565,10732.986159
962.429628,-536.266849,296.082377,10658.965565
962.429947,-459.657299,-0.000000,11399.171507
962.430266,-995.924147,-0.000000,11843.295072
962.430584,-1072.533697,888.247130,11917.315666
962.430903,-919.314598,1406.391290,10881.027347
962.431222,0.000000,1776.494261,9992.780217
962.431541,919.314598,888.247130,9622.677246
962.431860,1225.752797,1184.329507,8438.347739
962.432179,1532.190996,592.164754,7476.080014
962.432497,1608.800546,148.041188,7994.224174
962.432816,1532.190996,-0.000000,8290.306550
962.433135,1685.410096,-814.226536,8734.430116
962.433454,229.828649,-518.144159,9474.636058
962.433773,-76.609550,-0.000000,10288.862594
962.434092,-689.485948,-0.000000,10807.006753
962.434410,-689.485948,518.144159,10881.027347
962.434729,-1072.533697,1702.473667,10658.965565
962.435048,-536.266849,2368.659014,10362.883188
962.435367,-153.219100,2072.576638,9844.739029
962.435686,612.876398,1850.514855,9030.512492
962.436005,1378.971896,1628.453072,8142.265362
962.436323,1608.800546,1480.411884,7402.059420
962.436642,2451.505594,592.164754,7402.059420
962.436961,2604.724693,-222.061783,7328.038826
962.437280,2068.457845,-0.000000,7179.997637
962.437599,1532.190996,-444.123565,7846.182985
962.437917,689.485948,-666.185348,8808.450710
962.438236,0.000000,-518.144159,9548.656652
962.438555,-153.219100,-740.205942,10288.862594
962.438874,-459.657299,-444.123565,10732.986159
962.439193,-1225.752797,-0.000000,11103.089130
962.439512,-995.924147,370.102971,10732.986159
962.439830,-536.266849,444.123565,10510.924376
962.440149,153.219100,740.205942,9400.615463
962.440468,689.485948,1184.329507,8586.388927
962.440787,1838.629195,222.061783,7698.141797
962.441106,2451.505594,-370.102971,7624.121203
962.441425,2604.724693,-518.144159,7105.977043
962.441743,2221.676944,-814.226536,7476.080014
962.442062,1838.629195,-1110.308913,8142.265362
962.442381,1225.752797,-962.267725,8660.409521
962.442700,612.876398,-888.247130,9474.636058
962.443019,-306.438199,-592.164754,9844.739029
962.443338,-383.047749,-0.000000,10288.862594
962.443656,-1072.533697,666.185348,10658.965565
962.443975,-1149.143247,1332.370696,10362.883188
962.444294,-842.705048,1184.329507,10214.842000
962.444613,-459.657299,1406.391290,9548.656652
962.444932,76.609550,1258.350101,8808.450710
962.445250,612.876398,1036.288319,7772.162391
962.445569,1072.533697,1110.308913,7179.997637
962.445888,1608.800546,444.123565,7179.997637
962.446207,1072.533697,-0.000000,7254.018232
962.446526,919.314598,-74.020594,8142.265362
962.446845,383.047749,592.164754,8364.327145
962.447163,229.828649,370.102971,9104.533087
962.447482,-612.876398,444.123565,9326.594869
962.447801,-229.828649,740.205942,11251.130318
962.448120,-1378.971896,1036.288319,10807.006753
962.448439,-1149.143247,1036.288319,10881.027347
962.448758,-536.266849,888.247130,10955.047942
962.449076,0.000000,1554.432478,9844.739029
962.449395,612.876398,1406.391290,9178.553681
962.449714,766.095498,444.123565,8438.347739
962.450033,1532.190996,-518.144159,8438.347739
962.450352,2221.676944,-518.144159,7994.224174
962.450671,2374.896044,-740.205942,8734.430116
962.450989,1532.190996,-740.205942,9030.512492
962.451308,1608.800546,-296.082377,9770.718434
962.451627,995.924147,-148.041188,10140.821405
962.451946,536.266849,-0.000000,10807.006753
962.452265,-689.485948,592.164754,10732.986159
962.452583,0.000000,1480.411884,11103.089130
962.452902,0.000000,1628.453072,10807.006753
962.453221,0.000000,1776.494261,10584.944971
962.453540,0.000000,1702.473667,9696.697840
962.453859,306.438199,1406.391290,9104.533087
962.454178,842.705048,1110.308913,8734.430116
962.454496,1149.143247,370.102971,7920.203579
962.454815,612.876398,-0.000000,8438.347739
962.455134,459.657299,-0.000000,8290.306550
962.455453,306.438199,592.164754,8734.430116
962.455772,0.000000,592.164754,9400.615463
962.456091,-229.828649,814.226536,10066.800811
962.456409,-1149.143247,666.185348,10214.842000
962.456728,-1072.533697,1628.453072,10214.842000
962.457047,-1225.752797,1628.453072,10140.821405
962.457366,-842.705048,1924.535449,9770.718434
962.457685,-536.266849,1998.556043,9400.615463
962.458004,0.000000,1702.473667,8660.409521
962.458322,995.924147,1036.288319,8290.306550
962.458641,1149.143247,296.082377,7550.100608
962.458960,1532.190996,-148.041188,7920.203579
962.459279,1685.410096,-518.144159,7698.141797
962.459598,1532.190996,-814.226536,8216.285956
962.459916,1455.581446,-1110.308913,8512.368333
962.460235,1072.533697,-888.247130,9326.594869
962.460554,919.314598,-296.082377,9770.718434
962.460873,76.609550,148.041188,9918.759623
962.461192,0.000000,444.123565,9844.739029
962.461511,153.219100,740.205942,10510.924376
962.461829,229.828649,592.164754,10140.821405
962.462148,76.609550,518.144159,10214.842000
962.462467,766.095498,444.123565,9400.615463
962.462786,1455.581446,-0.000000,8512.368333
962.463105,1762.019645,-0.000000,8364.327145
962.463424,1838.629195,-518.144159,8142.265362
962.463742,1532.190996,-962.267725,8142.265362
962.464061,1302.362347,-1110.308913,8216.285956
962.464380,306.438199,-814.226536,9400.615463
962.464699,76.609550,-1036.288319,10362.883188
962.465018,-306.438199,-814.226536,10066.800811
962.465337,-459.657299,222.061783,10066.800811
962.465655,-1378.971896,444.123565,10362.883188
962.465974,-1072.533697,1258.350101,10288.862594
962.466293,-1225.752797,1184.329507,9622.677246
962.466612,-612.876398,1850.514855,9030.512492
962.466931,76.609550,1480.411884,8364.327145
962.467250,689.485948,814.226536,7920.203579
962.467568,919.314598,-0.000000,7846.182985
962.467887,919.314598,-592.164754,7476.080014
962.468206,919.314598,-518.144159,7772.162391
962.468525,536.266849,-814.226536,8142.265362
962.468844,766.095498,-518.144159,9104.533087
962.469162,0.000000,-0.000000,9474.636058
962.469481,-459.657299,370.102971,9622.677246
962.469800,-459.657299,666.185348,9844.739029
962.470119,-306.438199,1184.329507,10288.862594
962.470438,-229.828649,1480.411884,10066.800811
962.470757,0.000000,1258.350101,9844.739029
962.471075,842.705048,1628.453072,9696.697840
962.471394,1149.143247,1480.411884,8734.430116
962.471713,1991.848295,1406.391290,7624.121203
962.472032,2298.286494,1258.350101,7624.121203
962.472351,2528.115143,888.247130,7476.080014
962.472670,2145.067394,222.061783,7402.059420
962.472988,1608.800546,-0.000000,8290.306550
962.473307,919.314598,-592.164754,9548.656652
962.473626,153.219100,-444.123565,10436.903782
962.473945,-536.266849,-296.082377,11103.089130
962.474264,-1149.143247,296.082377,11769.274478
962.474583,-1225.752797,962.267725,11695.253884
962.474901,-1225.752797,1554.432478,11473.192101
962.475220,-229.828649,1628.453072,10955.047942
962.475539,0.000000,1554.432478,9992.780217
962.475858,612.876398,1628.453072,8808.450710
962.476177,1225.752797,962.267725,7994.224174
962.476495,1915.238745,-0.000000,7846.182985
962.476814,2145.067394,-0.000000,8068.244768
962.477133,1915.238745,-518.144159,8216.285956
962.477452,1378.971896,-592.164754,8364.327145
962.477771,1072.533697,-222.061783,9400.615463
962.478090,919.314598,-0.000000,9844.739029
962.478408,306.438199,370.102971,10066.800811
962.478727,-536.266849,740.205942,10436.903782
962.479046,-306.438199,1628.453072,10214.842000
962.479365,-612.876398,1406.391290,10140.821405
962.479684,-612.876398,1332.370696,10214.842000
962.480003,0.000000,1332.370696,9474.636058
962.480321,383.047749,962.267725,8808.450710
962.480640,689.485948,370.102971,8142.265362
962.480959,1302.362347,-222.061783,7402.059420
962.481278,1685.410096,-518.144159,7698.141797
962.481597,1149.143247,-1036.288319,7698.141797
962.481916,842.705048,-1258.350101,8512.368333
962.482234,153.219100,-814.226536,9400.615463
962.482553,0.000000,-1258.350101,10066.800811
962.482872,-995.924147,-370.102971,9918.759623
962.483191,-1225.752797,-0.000000,10362.883188
962.483510,-1378.971896,666.185348,10584.944971
962.483828,-1149.143247,666.185348,10436.903782
962.484147,-766.095498,444.123565,9770.718434
962.484466,-459.657299,1110.308913,9104.533087
962.484785,0.000000,370.102971,8438.347739
962.485104,1072.533697,-74.020594,7994.224174
962.485423,1302.362347,-740.205942,8290.306550
962.485741,1532.190996,-1184.329507,8142.265362
962.486060,1302.362347,-1332.370696,8290.306550
962.486379,995.924147,-1110.308913,8734.430116
962.486698,842.705048,-740.205942,9400.615463
962.487017,459.657299,-0.000000,9918.759623
962.487336,229.828649,-0.000000,9770.718434
962.487654,0.000000,962.267725,9622.677246
962.487973,76.609550,1258.350101,9918.759623
962.488292,306.438199,1480.411884,9770.718434
962.488611,612.876398,1776.494261,9400.615463
962.488930,1149.143247,1850.514855,8660.409521
962.489249,1685.410096,1258.350101,7846.182985
962.489567,2145.067394,592.164754,7328.038826
962.489886,2757.943793,-0.000000,7328.038826
962.490205,2451.505594,296.082377,7254.018232
962.490524,1991.848295,-222.061783,7772.162391
962.490843,1072.533697,-370.102971,8364.327145
962.491161,689.485948,-0.000000,9474.636058
962.491480,0.000000,-74.020594,9992.780217
962.491799,-689.485948,370.102971,10214.842000
962.492118,-766.095498,1036.288319,10584.944971
962.492437,-842.705048,1628.453072,10436.903782
962.492756,-766.095498,1850.514855,9992.780217
962.493074,0.000000,1702.473667,9696.697840
962.493393,229.828649,1702.473667,9178.553681
962.493712,766.095498,1702.473667,8438.347739
962.494031,1149.143247,592.164754,8068.244768
962.494350,1915.238745,-0.000000,8438.347739
962.494669,1302.362347,-444.123565,8586.388927
962.494987,919.314598,-740.205942,8734.430116
962.495306,689.485948,-740.205942,9548.656652
962.495625,0.000000,-370.102971,10510.924376
962.495944,-229.828649,-74.020594,10732.986159
962.496263,-536.266849,666.185348,10881.027347
962.496582,-1149.143247,1480.411884,10955.047942
962.496900,-1302.362347,1554.432478,10955.047942
962.497219,-1149.143247,1406.391290,10881.027347
962.497538,-766.095498,1480.411884,10436.903782
962.497857,0.000000,1110.308913,9548.656652
962.498176,612.876398,740.205942,9252.574275
962.498495,766.095498,222.061783,8734.430116
962.498813,1378.971896,-148.041188,9030.512492
962.499132,1455.581446,-74.020594,8364.327145
962.499451,1149.143247,-296.082377,8438.347739
962.499770,995.924147,-148.041188,8956.491898
962.500089,536.266849,-0.000000,9400.615463
962.500408,306.438199,-0.000000,10140.821405
962.500727,306.438199,296.082377,10436.903782
962.501046,-306.438199,814.226536,10214.842000
962.501365,76.609550,1332.370696,10584.944971
962.501684,76.609550,1628.453072,9548.656652
962.502002,1072.533697,1628.453072,9252.574275
962.502321,1838.629195,1036.288319,8512.368333
962.502640,1532.190996,1110.308913,7994.224174
962.502959,2298.286494,148.041188,8142.265362
962.503278,2451.505594,-0.000000,6809.894666
962.503597,2604.724693,-740.205942,8142.265362
962.503916,2068.457845,-1554.432478,9030.512492
962.504235,919.314598,-1036.288319,8808.450710
962.504554,612.876398,-370.102971,9030.512492
962.504873,153.219100,-296.082377,10140.821405
962.505191,-689.485948,592.164754,9622.677246
962.505510,-383.047749,1332.370696,9770.718434
962.505829,-919.314598,1480.411884,9548.656652
962.506148,-383.047749,1406.391290,9474.636058
962.506467,0.000000,1036.288319,8808.450710
962.506786,153.219100,518.144159,8290.306550
962.507105,689.485948,-0.000000,8290.306550
962.507424,689.485948,-370.102971,7772.162391
962.507743,459.657299,-666.185348,7920.203579
962.508062,1072.533697,-1406.391290,8068.244768
962.508381,229.828649,-1036.288319,8142.265362
962.508699,-306.438199,-1036.288319,9104.533087
962.509018,-842.705048,-666.185348,9844.739029
962.509337,-1225.752797,-0.000000,10214.842000
962.509656,-1225.752797,222.061783,10436.903782
962.509975,-1685.410096,1406.391290,10732.986159
962.510294,-842.705048,1628.453072,10362.883188
962.510613,-229.828649,1554.432478,9622.677246
962.510932,536.266849,1406.391290,8956.491898
962.511251,1378.971896,1258.350101,8364.327145
962.511570,2145.067394,740.205942,7254.018232
962.511888,2911.162892,-0.000000,7550.100608
962.512207,3294.210641,-222.061783,7920.203579
962.512526,2604.724693,-1036.288319,7772.162391
962.512845,2451.505594,-666.185348,8586.388927
962.513164,1685.410096,-592.164754,9400.615463
962.513483,1532.190996,148.041188,9918.759623
962.513802,612.876398,-0.000000,9992.780217
962.514121,76.609550,740.205942,10584.944971
962.514440,0.000000,1036.288319,11177.109724
962.514759,153.219100,1332.370696,10807.006753
962.515078,689.485948,1258.350101,10140.821405
962.515396,1149.143247,1554.432478,9622.677246
962.515715,1608.800546,1184.329507,8956.491898
962.516034,1838.629195,1036.288319,8290.306550
962.516353,1915.238745,-222.061783,8290.306550
962.516672,1991.848295,-0.000000,8142.265362
962.516991,1532.190996,-296.082377,8216.285956
962.517310,766.095498,-888.247130,8882.471304
962.517629,76.609550,-444.123565,9918.759623
962.517948,-612.876398,-444.123565,10214.842000
962.518267,-1378.971896,-0.000000,10732.986159
962.518585,-2451.505594,518.144159,11769.274478
962.518904,-2145.067394,1480.411884,11325.150913
962.519223,-1838.629195,1776.494261,10732.986159
962.519542,-1838.629195,1776.494261,10510.924376
962.519861,-919.314598,2294.638420,9844.739029
962.520180,76.609550,1850.514855,8586.388927
962.520499,612.876398,740.205942,8364.327145
962.520818,1072.533697,-0.000000,8216.285956
962.521137,1455.581446,-148.041188,7920.203579
962.521456,1532.190996,-444.123565,8068.244768
962.521774,1455.581446,-148.041188,8882.471304
962.522093,1685.410096,-0.000000,9030.512492
962.522412,536.266849,296.082377,9400.615463
962.522731,612.876398,962.267725,9474.636058
962.523050,459.657299,1184.329507,9918.759623
962.523369,383.047749,1776.494261,10066.800811
962.523688,536.266849,1406.391290,9918.759623
962.524007,689.485948,1406.391290,9104.533087
962.524326,1225.752797,1258.350101,8882.471304
962.524645,1762.019645,296.082377,8364.327145
962.524964,2145.067394,-74.020594,7994.224174
962.525282,2528.115143,-444.123565,7772.162391
962.525601,2451.505594,-740.205942,7920.203579
962.525920,1915.238745,-1258.350101,7994.224174
962.526239,1608.800546,-1628.453072,8512.368333
962.526558,689.485948,-1036.288319,9326.594869
962.526877,76.609550,-444.123565,9474.636058
962.527196,-383.047749,-74.020594,9844.739029
962.527515,-995.924147,370.102971,10510.924376
962.527834,-689.485948,666.185348,10436.903782
962.528153,-1072.533697,444.123565,10066.800811
962.528471,-536.266849,740.205942,9622.677246
962.528790,0.000000,592.164754,8734.430116
962.529109,0.000000,444.123565,8364.327145
962.529428,459.657299,-444.123565,7920.203579
962.529747,1072.533697,-666.185348,8290.306550
962.530066,766.095498,-888.247130,8290.306550
962.530385,536.266849,-1036.288319,8586.388927
962.530704,0.000000,-1184.329507,8808.450710
962.531023,0.000000,-74.020594,9474.636058
962.531342,-383.047749,-0.000000,9696.697840
962.531661,-766.095498,296.082377,9770.718434
962.531979,-1225.752797,1480.411884,9918.759623
962.532298,-995.924147,1924.535449,9992.780217
962.532617,-383.047749,2146.597232,9918.759623
962.532936,0.000000,1924.535449,9622.677246
962.533255,76.609550,1776.494261,9104.533087
962.533574,536.266849,962.267725,8438.347739
962.533893,1225.752797,370.102971,8512.368333
962.534212,1685.410096,-148.041188,8512.368333
962.534531,1762.019645,-222.061783,8438.347739
962.534850,1762.019645,-666.185348,8660.409521
962.535168,1225.752797,-962.267725,9400.615463
962.535487,842.705048,-740.205942,9844.739029
962.535806,995.924147,222.061783,10140.821405
962.536125,536.266849,1110.308913,10066.800811
962.536444,229.828649,2072.576638,10362.883188
962.536763,766.095498,1850.514855,9844.739029
962.537082,766.095498,2146.597232,9770.718434
962.537401,1149.143247,2294.638420,9252.574275
962.537720,1608.800546,1924.535449,8660.409521
962.538039,2068.457845,814.226536,8586.388927
962.538357,1762.019645,-0.000000,8438.347739
962.538676,1838.629195,-222.061783,8660.409521
962.538995,1302.362347,-296.082377,8808.450710
962.539314,842.705048,-370.102971,9400.615463
962.539633,689.485948,-296.082377,9918.759623
962.539952,-306.438199,-0.000000,10288.862594
962.540271,-842.705048,518.144159,10732.986159
962.540590,-1149.143247,1406.391290,10807.006753
962.540909,-1455.581446,2072.576638,10658.965565
962.541228,-1302.362347,2072.576638,10436.903782
962.541547,-995.924147,2072.576638,10066.800811
962.541865,-306.438199,2072.576638,9400.615463
962.542184,0.000000,1406.391290,8956.491898
962.542503,536.266849,888.247130,7846.182985
962.542822,766.095498,296.082377,7920.203579
962.543141,842.705048,-0.000000,8142.265362
962.543460,459.657299,-518.144159,8216.285956
962.543779,459.657299,-740.205942,8586.388927
962.544098,459.657299,-666.185348,9400.615463
962.544417,-612.876398,-444.123565,10140.821405
962.544736,-1072.533697,-148.041188,10214.842000
962.545054,-1225.752797,296.082377,10362.883188
962.545373,-1149.143247,1036.288319,10510.924376
962.545692,-536.266849,1406.391290,9918.759623
962.546011,-306.438199,1554.432478,9696.697840
962.546330,612.876398,1480.411884,9104.533087
962.546649,995.924147,1184.329507,8512.368333
962.546968,2068.457845,296.082377,8068.244768
962.547287,2298.286494,-370.102971,7994.224174
962.547606,2221.676944,-1036.288319,8142.265362
962.547925,2298.286494,-1258.350101,8808.450710
962.548244,1685.410096,-1406.391290,9104.533087
962.548562,1532.190996,-1480.411884,9696.697840
962.548881,842.705048,-666.185348,9918.759623
962.549200,76.609550,-0.000000,9844.739029
962.549519,-383.047749,518.144159,9918.759623
962.549838,-459.657299,962.267725,9992.780217
962.550157,-306.438199,740.205942,9992.780217
962.550476,-383.047749,888.247130,9770.718434
962.550795,383.047749,962.267725,9030.512492
962.551114,536.266849,296.082377,8512.368333
962.551433,1302.362347,-444.123565,8438.347739
962.551751,1302.362347,-740.205942,8290.306550
962.552070,1225.752797,-592.164754,7772.162391
962.552389,1149.143247,-888.247130,7994.224174
962.552708,612.876398,-814.226536,8586.388927
962.553027,0.000000,-444.123565,9326.594869
962.553346,-306.438199,-74.020594,9400.615463
962.553665,-919.314598,370.102971,9844.739029
962.553984,-1072.533697,962.267725,9770.718434
962.554303,-1302.362347,1998.556043,9770.718434
962.554622,-536.266849,1924.535449,9326.594869
962.554940,-536.266849,1850.514855,9400.615463
962.555259,0.000000,1776.494261,8364.327145
962.555578,689.485948,1258.350101,7624.121203
962.555897,1302.362347,592.164754,7476.080014
962.556216,1608.800546,-0.000000,7846.182985
962.556535,1302.362347,-148.041188,8068.244768
962.556854,1302.362347,-370.102971,8216.285956
962.557173,1225.752797,-296.082377,8956.491898
962.557492,459.657299,148.041188,9696.697840
962.557811,612.876398,592.164754,10140.821405
962.558130,153.219100,1110.308913,10362.883188
962.558448,0.000000,1850.514855,10584.944971
962.558767,229.828649,1850.514855,10510.924376
962.559086,459.657299,1998.556043,10140.821405
962.559405,1149.143247,1332.370696,9400.615463
962.559724,1225.752797,1628.453072,8956.491898
962.560043,1532.190996,1258.350101,8808.450710
962.560362,1991.848295,518.144159,8364.327145
962.560681,1608.800546,-0.000000,8290.306550
962.561000,1532.190996,-1036.288319,8438.347739
962.561319,995.924147,-888.247130,8956.491898
962.561637,306.438199,-962.267725,9474.636058
962.561956,-536.266849,-666.185348,10214.842000
962.562275,-995.924147,-592.164754,11029.068536
962.562594,-1762.019645,-0.000000,11547.212695
962.562913,-2068.457845,666.185348,11621.233289
962.563232,-1915.238745,1036.288319,11325.150913
962.563551,-1302.362347,1332.370696,11251.130318
962.563870,-766.095498,1406.391290,10140.821405
962.564189,0.000000,1776.494261,8956.491898
962.564508,842.705048,1184.329507,8364.327145
962.564827,1302.362347,222.061783,8142.265362
962.565145,1915.238745,-74.020594,7772.162391
962.565464,2298.286494,-888.247130,7994.224174
962.565783,1685.410096,-666.185348,8364.327145
962.566102,1532.190996,-592.164754,8956.491898
962.566421,1149.143247,-0.000000,9252.574275
962.566740,536.266849,222.061783,9770.718434
962.567059,-229.828649,740.205942,9770.718434
962.567378,-689.485948,1406.391290,10066.800811
962.567697,-536.266849,1628.453072,9918.759623
962.568016,-229.828649,1554.432478,10214.842000
962.568334,-229.828649,1332.370696,9474.636058
962.568653,383.047749,740.205942,9178.553681
962.568972,1072.533697,222.061783,8734.430116
962.569291,1378.971896,-148.041188,7920.203579
962.569610,1762.019645,-296.082377,8068.244768
962.569929,1532.190996,-296.082377,7846.182985
962.570248,1915.238745,-0.000000,7846.182985
962.570567,1072.533697,-74.020594,8586.388927
962.570886,536.266849,-222.061783,9326.594869
962.571205,0.000000,-74.020594,9696.697840
962.571523,-383.047749,666.185348,10066.800811
962.571842,-842.705048,444.123565,10214.842000
962.572161,-842.705048,740.205942,10362.883188
962.572480,-459.657299,888.247130,9770.718434
962.572799,0.000000,740.205942,9252.574275
962.573118,383.047749,888.247130,8734.430116
962.573437,766.095498,-0.000000,8142.265362
962.573756,1455.581446,-296.082377,7920.203579
962.574075,1225.752797,-1184.329507,8364.327145
962.574394,1685.410096,-1850.514855,8586.388927
962.574713,995.924147,-1554.432478,8512.368333
962.575031,919.314598,-1406.391290,9474.636058
962.575350,383.047749,-592.164754,9696.697840
962.575669,383.047749,222.061783,9548.656652
962.575988,229.828649,666.185348,9622.677246
962.576307,0.000000,1554.432478,9400.615463
962.576626,0.000000,1702.473667,9548.656652
962.576945,153.219100,1554.432478,9104.533087
962.577264,612.876398,1184.329507,9030.512492
962.577583,919.314598,888.247130,8734.430116
962.577902,1378.971896,370.102971,7920.203579
962.578220,1225.752797,-148.041188,8142.265362
962.578539,1608.800546,-666.185348,8438.347739
962.578858,1149.143247,-296.082377,8660.409521
962.579177,919.314598,-592.164754,8808.450710
962.579496,766.095498,-444.123565,9474.636058
962.579815,306.438199,148.041188,10214.842000
962.580134,-229.828649,518.144159,9992.780217
962.580453,-689.485948,1406.391290,10584.944971
962.580772,-766.095498,1924.535449,10658.965565
962.581091,-1072.533697,1924.535449,10510.924376
962.581410,-536.266849,1776.494261,10288.862594
962.581728,-153.219100,1554.432478,9474.636058
962.582047,229.828649,1258.350101,8882.471304
962.582366,536.266849,370.102971,8438.347739
962.582685,995.924147,-0.000000,8216.285956
962.583004,995.924147,-74.020594,8438.347739
962.583323,689.485948,-74.020594,9474.636058
962.583642,153.219100,-444.123565,9548.656652
962.583961,153.219100,-148.041188,9770.718434
962.584280,-306.438199,370.102971,10436.903782
962.584599,-459.657299,962.267725,10584.944971
962.584917,-536.266849,1554.432478,10362.883188
962.585236,-459.657299,2368.659014,10214.842000
962.585555,-229.828649,2294.638420,9770.718434
962.585874,0.000000,1998.556043,9548.656652
962.586193,229.828649,1480.411884,8956.491898
962.586512,1149.143247,1036.288319,8438.347739
962.586831,1608.800546,-0.000000,8660.409521
962.587150,1685.410096,-518.144159,8956.491898
962.587469,1762.019645,-592.164754,8734.430116
962.587788,1455.581446,-592.164754,8512.368333
962.588106,1378.971896,-740.205942,9400.615463
962.588425,1302.362347,-518.144159,10066.800811
962.588744,766.095498,-0.000000,9918.759623
962.589063,689.485948,740.205942,9992.780217
962.589382,536.266849,1258.350101,10510.924376
962.589701,612.876398,1702.473667,9474.636058
962.590020,1302.362347,2072.576638,9178.553681
962.590339,1608.800546,1850.514855,8734.430116
962.590658,1685.410096,1406.391290,8290.306550
962.590977,2145.067394,370.102971,7846.182985
962.591296,1915.238745,-296.082377,7772.162391
962.591614,1685.410096,-1110.308913,8290.306550
962.591933,919.314598,-1702.473667,8586.388927
962.592252,76.609550,-1554.432478,8882.471304
962.592571,-306.438199,-1332.370696,9918.759623
962.592890,-995.924147,-962.267725,10510.924376
962.593209,-1225.752797,-518.144159,10288.862594
962.593528,-1302.362347,444.123565,10362.883188
962.593847,-1991.848295,1258.350101,9770.718434
962.594166,-1378.971896,1776.494261,9844.739029
962.594485,-1149.143247,1480.411884,8882.471304
962.594803,-459.657299,1258.350101,8734.430116
962.595122,-153.219100,962.267725,7920.203579
962.595441,459.657299,444.123565,7550.100608
962.595760,612.876398,-962.267725,7402.059420
962.596079,459.657299,-1184.329507,8068.244768
962.596398,306.438199,-1332.370696,7920.203579
962.596717,0.000000,-1184.329507,8586.388927
962.597036,-229.828649,-888.247130,9918.759623
962.597355,-459.657299,-666.185348,10362.883188
962.597674,-536.266849,-148.041188,10436.903782
962.597993,-612.876398,-0.000000,10584.944971
962.598311,-383.047749,1184.329507,10732.986159
962.598630,229.828649,1480.411884,9918.759623
962.598949,1302.362347,1776.494261,9252.574275
962.599268,1991.848295,1924.535449,8364.327145
962.599587,2987.772442,1998.556043,7994.224174
962.599906,3524.039291,1036.288319,7476.080014
962.600225,4213.525239,444.123565,7402.059420
962.600544,4213.525239,-74.020594,7772.162391
962.600863,3524.039291,-814.226536,8216.285956
962.601181,2757.943793,-1258.350101,8660.409521
962.601500,2298.286494,-444.123565,9844.739029
962.601819,1072.533697,-444.123565,10436.903782
962.602138,76.609550,-148.041188,10584.944971
962.602457,-229.828649,592.164754,10955.047942
962.602776,-612.876398,888.247130,10955.047942
962.603094,-612.876398,888.247130,10881.027347
962.603413,-306.438199,1036.288319,10362.883188
962.603732,0.000000,1036.288319,9474.636058
962.604051,229.828649,1036.288319,8660.409521
962.604370,766.095498,740.205942,7994.224174
962.604689,1532.190996,222.061783,7772.162391
962.605008,1455.581446,222.061783,7698.141797
962.605326,612.876398,-444.123565,7624.121203
962.605645,459.657299,-222.061783,8142.265362
962.605964,-306.438199,-0.000000,9104.533087
962.606283,-1072.533697,-0.000000,9770.718434
962.606602,-1532.190996,592.164754,10362.883188
962.606921,-1991.848295,1332.370696,10510.924376
962.607239,-2221.676944,1998.556043,10510.924376
962.607558,-1762.019645,2072.576638,9918.759623
962.607877,-1225.752797,2146.597232,9474.636058
962.608196,-536.266849,2220.617826,8808.450710
962.608515,383.047749,1850.514855,8438.347739
962.608834,1378.971896,962.267725,7994.224174
962.609152,1991.848295,222.061783,7920.203579
962.609471,2451.505594,222.061783,7920.203579
962.609790,2604.724693,222.061783,7920.203579
962.610109,2604.724693,-0.000000,8512.368333
962.610428,2451.505594,-0.000000,8882.471304
962.610747,1608.800546,296.082377,9474.636058
962.611066,1149.143247,518.144159,9770.718434
962.611384,766.095498,888.247130,10288.862594
962.611703,536.266849,962.267725,10436.903782
962.612022,536.266849,1110.308913,10955.047942
962.612341,536.266849,518.144159,10584.944971
962.612660,459.657299,592.164754,10066.800811
962.612979,1302.362347,370.102971,9474.636058
962.613297,1302.362347,-222.061783,8882.471304
962.613616,1225.752797,-1110.308913,8660.409521
962.613935,1532.190996,-1036.288319,8882.471304
962.614254,1072.533697,-1628.453072,8438.347739
962.614573,612.876398,-1184.329507,9178.553681
962.614892,0.000000,-1110.308913,10140.821405
962.615211,-995.924147,-1184.329507,10362.883188
962.615529,-1455.581446,-370.102971,10807.006753
962.615848,-2068.457845,-0.000000,10658.965565
962.616167,-1915.238745,666.185348,10584.944971
962.616486,-1838.629195,740.205942,10140.821405
962.616805,-1302.362347,444.123565,9696.697840
962.617124,-842.705048,296.082377,9030.512492
962.617442,0.000000,-0.000000,8438.347739
962.617761,76.609550,-666.185348,7994.224174
962.618080,536.266849,-740.205942,7698.141797
962.618399,612.876398,-814.226536,7550.100608
962.618718,995.924147,-814.226536,7624.121203
962.619037,1072.533697,-296.082377,8364.327145
962.619355,919.314598,148.041188,8364.327145
962.619674,842.705048,666.185348,8660.409521
962.619993,459.657299,1258.350101,8956.491898
962.620312,0.000000,1998.556043,9252.574275
962.620631,153.219100,2220.617826,9326.594869
962.620950,306.438199,2146.597232,9474.636058
962.621269,1225.752797,1924.535449,9178.553681
962.621587,995.924147,1998.556043,8364.327145
962.621906,2068.457845,1554.432478,7994.224174
962.622225,1915.238745,666.185348,7624.121203
962.622544,2145.067394,-0.000000,7476.080014
962.622863,1991.848295,-370.102971,7698.141797
962.623182,1608.800546,-518.144159,8290.306550
962.623500,995.924147,-592.164754,9178.553681
962.623819,536.266849,-444.123565,9548.656652
962.624138,153.219100,-370.102971,9918.759623
962.624457,-995.924147,-0.000000,10584.944971
962.624776,-1149.143247,888.247130,10658.965565
962.625095,-919.314598,814.226536,10436.903782
962.625413,-842.705048,1110.308913,10510.924376
962.625732,0.000000,1332.370696,9918.759623
962.626051,153.219100,1110.308913,9178.553681
962.626370,459.657299,518.144159,8956.491898
962.626689,919.314598,-296.082377,9030.512492
962.627008,1072.533697,-666.185348,8660.409521
962.627327,1072.533697,-740.205942,8956.491898
962.627645,1378.971896,-888.247130,9622.677246
962.627964,919.314598,-666.185348,9770.718434
962.628283,689.485948,-296.082377,10066.800811
962.628602,229.828649,370.102971,10362.883188
962.628921,0.000000,1110.308913,9918.759623
962.629240,0.000000,1776.494261,10066.800811
962.629558,-306.438199,1998.556043,9770.718434
962.629877,0.000000,2146.597232,9918.759623
962.630196,0.000000,1850.514855,9400.615463
962.630515,689.485948,1850.514855,9104.533087
962.630834,766.095498,814.226536,9030.512492
962.631153,1378.971896,518.144159,8438.347739
962.631471,919.314598,148.041188,8142.265362
962.631790,919.314598,296.082377,8512.368333
962.632109,919.314598,-0.000000,8882.471304
962.632428,612.876398,148.041188,9252.574275
962.632747,153.219100,148.041188,9844.739029
962.633066,-153.219100,444.123565,9992.780217
962.633385,-689.485948,518.144159,9992.780217
962.633703,-995.924147,1258.350101,10214.842000
962.634022,-1149.143247,1480.411884,10140.821405
962.634341,-689.485948,1628.453072,9548.656652
962.634660,-919.314598,1332.370696,9770.718434
962.634979,0.000000,740.205942,8956.491898
962.635298,612.876398,-0.000000,8142.265362
962.635616,612.876398,-814.226536,7846.182985
962.635935,1608.800546,-1258.350101,8364.327145
962.636254,842.705048,-1554.432478,8734.430116
962.636573,689.485948,-1406.391290,9030.512492
962.636892,536.266849,-1332.370696,9548.656652
962.637211,229.828649,-962.267725,9770.718434
962.637529,0.000000,-148.041188,9770.718434
962.637848,0.000000,592.164754,9696.697840
962.638167,-306.438199,1480.411884,9474.636058
962.638486,153.219100,1776.494261,9178.553681
962.638805,766.095498,1998.556043,8660.409521
962.639124,1455.581446,666.185348,8734.430116
962.639443,1608.800546,962.267725,8068.244768
962.639761,1915.238745,222.061783,7624.121203
962.640080,1762.019645,-296.082377,7624.121203
962.640399,1378.971896,-814.226536,7846.182985
962.640718,1378.971896,-1480.411884,8142.265362
962.641037,689.485948,-1406.391290,8660.409521
962.641356,383.047749,-518.144159,9622.677246
962.641674,153.219100,-370.102971,9770.718434
962.641993,-383.047749,222.061783,10066.800811
962.642312,-689.485948,814.226536,10732.986159
962.642631,-689.485948,1628.453072,10288.862594
962.642950,-459.657299,1480.411884,10066.800811
962.643269,0.000000,1776.494261,9770.718434
962.643587,766.095498,1702.473667,9104.533087
962.643906,612.876398,1036.288319,7772.162391
962.644225,1378.971896,592.164754,7920.203579
962.644544,1455.581446,-296.082377,8290.306550
962.644863,1302.362347,-740.205942,8142.265362
962.645182,1225.752797,-1406.391290,8216.285956
962.645501,306.438199,-740.205942,9474.636058
962.645819,-383.047749,-444.123565,10362.883188
962.646138,-995.924147,-222.061783,10732.986159
962.646457,-1532.190996,-0.000000,10955.047942
962.646776,-1685.410096,740.205942,11325.150913
962.647095,-1685.410096,1332.370696,11029.068536
962.647414,-1149.143247,1702.473667,10584.944971
962.647732,-306.438199,1850.514855,9770.718434
962.648051,842.705048,1776.494261,9030.512492
962.648370,995.924147,1332.370696,8364.327145
962.648689,1838.629195,518.144159,7994.224174
962.649008,2221.676944,296.082377,7624.121203
962.649327,2298.286494,148.041188,7772.162391
962.649645,1991.848295,-222.061783,8290.306550
962.649964,1608.800546,-444.123565,8586.388927
962.650283,1149.143247,-222.061783,9474.636058
962.650602,612.876398,-148.041188,9844.739029
962.650921,229.828649,222.061783,10362.883188
962.651240,0.000000,1258.350101,10584.944971
962.651559,-153.219100,1924.535449,10510.924376
962.651877,0.000000,2146.597232,10436.903782
962.652196,689.485948,2220.617826,9696.697840
962.652515,919.314598,1850.514855,8956.491898
962.652834,1225.752797,1332.370696,8364.327145
962.653153,2298.286494,592.164754,7994.224174
962.653472,2681.334243,222.061783,7772.162391
962.653790,2451.505594,-74.020594,7846.182985
962.654109,2374.896044,-814.226536,8290.306550
962.654428,1608.800546,-814.226536,9104.533087
962.654747,766.095498,-296.082377,9622.677246
962.655066,0.000000,-74.020594,10066.800811
962.655385,-383.047749,370.102971,10288.862594
962.655704,-1072.533697,740.205942,10584.944971
962.656022,-1455.581446,1258.350101,10362.883188
962.656341,-1302.362347,1184.329507,10288.862594
962.656660,-1149.143247,962.267725,9696.697840
962.656979,-919.314598,518.144159,9326.594869
962.657298,-689.485948,-0.000000,8586.388927
962.657617,0.000000,-740.205942,8364.327145
962.657935,229.828649,-888.247130,8438.347739
962.658254,306.438199,-1110.308913,8364.327145
962.658573,459.657299,-1480.411884,8734.430116
962.658892,76.609550,-1110.308913,9030.512492
962.659211,-153.219100,-518.144159,9474.636058
962.659530,-459.657299,-222.061783,9474.636058
962.659848,-919.314598,148.041188,9844.739029
962.660167,-612.876398,518.144159,10066.800811
962.660486,-306.438199,962.267725,9770.718434
962.660805,-459.657299,962.267725,9770.718434
962.661124,306.438199,1036.288319,9178.553681
962.661443,612.876398,666.185348,8808.450710
962.661762,1685.410096,-0.000000,8438.347739
962.662080,2145.067394,-444.123565,8142.265362
962.662399,2451.505594,-518.144159,8438.347739
962.662718,2987.772442,-666.185348,8142.265362
962.663037,2528.115143,-518.144159,8438.347739
962.663356,2451.505594,-518.144159,9178.553681
962.663675,2221.676944,-0.000000,9622.677246
962.663993,1608.800546,222.061783,9696.697840
962.664312,919.314598,962.267725,9992.780217
962.664631,689.485948,1702.473667,9548.656652
962.664950,229.828649,1702.473667,9622.677246
962.665269,153.219100,1924.535449,9548.656652
962.665588,229.828649,1924.535449,9178.553681
962.665906,306.438199,1258.350101,8882.471304
962.666225,612.876398,518.144159,8364.327145
962.666544,689.485948,-444.123565,8512.368333
962.666863,229.828649,-740.205942,8808.450710
962.667182,0.000000,-888.247130,8956.491898
962.667501,-306.438199,-1036.288319,8956.491898
962.667820,-536.266849,-1036.288319,9918.759623
962.668138,-995.924147,-444.123565,10140.821405
962.668457,-1225.752797,370.102971,9844.739029
962.668776,-1455.581446,962.267725,10140.821405
962.669095,-1762.019645,1332.370696,10436.903782
962.669414,-1532.190996,1998.556043,9770.718434
962.669733,-689.485948,2220.617826,9474.636058
962.670051,-383.047749,1850.514855,9474.636058
962.670370,153.219100,1998.556043,8512.368333
962.670689,995.924147,1406.391290,7920.203579
962.671008,1455.581446,444.123565,8068.244768
962.671327,1685.410096,-222.061783,8068.244768
962.671646,1762.019645,-370.102971,8142.265362
962.671964,1532.190996,-592.164754,8808.450710
962.672283,2451.505594,-370.102971,9474.636058
962.672602,1455.581446,74.020594,9696.697840
962.672921,1225.752797,1332.370696,9844.739029
962.673240,1455.581446,1924.535449,9844.739029
962.673559,995.924147,2516.700203,9622.677246
962.673878,1532.190996,2590.720797,9548.656652
962.674196,1532.190996,2294.638420,9326.594869
962.674515,1991.848295,2590.720797,9030.512492
962.674834,2374.896044,1406.391290,8290.306550
962.675153,2068.457845,296.082377,8586.388927
962.675472,2221.676944,-592.164754,8660.409521
962.675791,1915.238745,-1332.370696,9400.615463
962.676109,1072.533697,-1702.473667,9178.553681
962.676428,612.876398,-1480.411884,9844.739029
962.676747,153.219100,-1258.350101,10288.862594
962.677066,-766.095498,-296.082377,10584.944971
962.677385,-1532.190996,-0.000000,10658.965565
962.677704,-1685.410096,888.247130,10584.944971
962.678022,-1302.362347,1258.350101,10658.965565
962.678341,-1915.238745,1110.308913,10436.903782
962.678660,-1302.362347,1110.308913,9770.718434
962.678979,-1149.143247,740.205942,9400.615463
962.679298,-383.047749,296.082377,8586.388927
962.679617,0.000000,-1036.288319,8808.450710
962.679936,306.438199,-888.247130,8438.347739
962.680254,306.438199,-814.226536,8512.368333
962.680573,383.047749,-1184.329507,8438.347739
962.680892,0.000000,-962.267725,9252.574275
962.681211,0.000000,-518.144159,9696.697840
962.681530,-229.828649,-0.000000,9918.759623
962.681849,-612.876398,444.123565,9844.739029
962.682167,0.000000,1480.411884,9696.697840
962.682486,76.609550,1776.494261,9918.759623
962.682805,689.485948,1998.556043,9474.636058
962.683124,1149.143247,1924.535449,8364.327145
962.683443,1915.238745,1702.473667,7772.162391
962.683762,2681.334243,962.267725,7254.018232
962.684080,2987.772442,-0.000000,6957.935855
962.684399,3600.648841,-74.020594,7105.977043
962.684718,3140.991542,-592.164754,7624.121203
962.685037,2451.505594,-666.185348,8068.244768
962.685356,1608.800546,-814.226536,9030.512492
962.685675,842.705048,-962.267725,9918.759623
962.685994,0.000000,-666.185348,10436.903782
962.686312,-383.047749,-222.061783,10436.903782
