#time,accel_x,accel_y,accel_z
948.613243,1149.143247,814.226536,5107.421000
948.613562,229.828649,-296.082377,6217.729913
948.613881,-842.705048,-814.226536,6883.915261
948.614200,-1072.533697,-148.041188,7920.203579
948.614520,-1378.971896,1110.308913,7920.203579
948.614839,-1378.971896,1850.514855,8068.244768
948.615158,-1149.143247,2368.659014,8512.368333
948.615477,-1225.752797,2664.741391,8660.409521
948.615796,-1302.362347,2072.576638,8586.388927
948.616115,-1608.800546,2072.576638,8290.306550
948.616435,-1915.238745,1110.308913,8734.430116
948.616754,-2145.067394,-740.205942,9474.636058
948.617073,-3064.381992,-1924.535449,10214.842000
948.617392,-2987.772442,-2368.659014,11103.089130
948.617711,-2987.772442,-1406.391290,11177.109724
948.618031,-2834.553343,-962.267725,11399.171507
948.618350,-2374.896044,-444.123565,11843.295072
948.618669,-2451.505594,-0.000000,11547.212695
948.618988,-2451.505594,148.041188,11843.295072
948.619307,-1838.629195,-148.041188,12213.398043
948.619626,-1532.190996,-148.041188,11843.295072
948.619946,-1149.143247,-1332.370696,12361.439231
948.620265,-689.485948,-1628.453072,12583.501014
948.620584,-536.266849,-1406.391290,12139.377449
948.620903,0.000000,-1036.288319,11399.171507
948.621222,612.876398,-74.020594,10214.842000
948.621542,1378.971896,592.164754,9770.718434
948.621861,1685.410096,1110.308913,8956.491898
948.622180,1532.190996,1332.370696,8290.306550
948.622499,1302.362347,1332.370696,8216.285956
948.622818,459.657299,592.164754,8142.265362
948.623138,-459.657299,-592.164754,8734.430116
948.623457,-919.314598,-888.247130,9178.553681
948.623776,-2221.676944,-1924.535449,9104.533087
948.624095,-2298.286494,-2368.659014,9326.594869
948.624414,-2528.115143,-1258.350101,9400.615463
948.624733,-2604.724693,-518.144159,8660.409521
948.625053,-2528.115143,-0.000000,8660.409521
948.625372,-2374.896044,888.247130,8956.491898
948.625691,-1838.629195,592.164754,8882.471304
948.626010,-1762.019645,962.267725,7698.141797
948.626329,-1225.752797,518.144159,7550.100608
948.626649,-1838.629195,-370.102971,7624.121203
948.626968,-2221.676944,-1406.391290,8068.244768
948.627287,-2221.676944,-2664.741391,8734.430116
948.627606,-2528.115143,-2960.823768,8956.491898
948.627925,-2451.505594,-3404.947333,9696.697840
948.628245,-3140.991542,-3330.926739,10140.821405
948.628564,-2528.115143,-2960.823768,10658.965565
948.628883,-2681.334243,-2812.782580,10584.944971
948.629202,-2757.943793,-2590.720797,11177.109724
948.629521,-3294.210641,-2738.761985,10214.842000
948.629840,-3370.820191,-2960.823768,10362.883188
948.630160,-3217.601092,-3849.070898,9992.780217
948.630479,-3217.601092,-4441.235652,9548.656652
948.630798,-3600.648841,-6069.688724,10140.821405
948.631117,-3447.429741,-5847.626942,10732.986159
948.631436,-2757.943793,-7105.977043,11769.274478
948.631756,-2834.553343,-6735.874072,12287.418637
948.632075,-1685.410096,-6291.750507,14211.954086
948.632394,-1685.410096,-3997.112087,13471.748144
948.632713,-919.314598,-2146.597232,12287.418637
948.633032,-842.705048,-1332.370696,10732.986159
948.633352,-919.314598,-370.102971,9696.697840
948.633671,-689.485948,-814.226536,7402.059420
948.633990,-689.485948,-1776.494261,6069.688724
948.634309,-1455.581446,-3775.050304,6809.894666
948.634628,-2068.457845,-6143.709319,9030.512492
948.634947,-3217.601092,-7476.080014,9696.697840
948.635267,-3907.087040,-7105.977043,10584.944971
948.635586,-4443.353888,-5773.606348,10955.047942
948.635905,-4596.572988,-3775.050304,10140.821405
948.636224,-4443.353888,-3108.864956,9178.553681
948.636543,-4826.401637,-2072.576638,9474.636058
948.636863,-5132.839837,-1776.494261,9400.615463
948.637182,-5132.839837,-2294.638420,8438.347739
948.637501,-4519.963438,-2220.617826,9178.553681
948.637820,-3064.381992,-2738.761985,9252.574275
948.638139,-2604.724693,-2590.720797,8956.491898
948.638458,-842.705048,-2368.659014,9252.574275
948.638778,1455.581446,-1480.411884,9622.677246
948.639097,3217.601092,-0.000000,8068.244768
948.639416,5132.839837,1628.453072,7179.997637
948.639735,6511.811733,2664.741391,6291.750507
948.640054,6971.469032,3849.070898,4219.173869
948.640374,7507.735880,3923.091493,2516.700203
948.640693,7048.078582,3330.926739,2664.741391
948.641012,6052.154434,1480.411884,3552.988522
948.641331,4979.620737,-0.000000,5403.503377
948.641650,3677.258390,-1332.370696,8438.347739
948.641970,2757.943793,-740.205942,9770.718434
948.642289,2298.286494,1332.370696,9548.656652
948.642608,1608.800546,2368.659014,8882.471304
948.642927,1378.971896,3108.864956,8512.368333
948.643246,1455.581446,3775.050304,7698.141797
948.643565,1455.581446,3849.070898,7920.203579
948.643885,1532.190996,3034.844362,8734.430116
948.644204,995.924147,2368.659014,10362.883188
948.644523,689.485948,2516.700203,11103.089130
948.644842,689.485948,3404.947333,10436.903782
948.645161,766.095498,5107.421000,8586.388927
948.645480,919.314598,6883.915261,6809.894666
948.645799,1302.362347,7105.977043,5773.606348
948.646118,766.095498,5699.585753,6217.729913
948.646437,76.609550,4145.153275,7476.080014
948.646756,-1685.410096,1924.535449,9844.739029
948.647075,-2451.505594,-740.205942,11621.233289
948.647394,-3370.820191,-2294.638420,12953.603985
948.647713,-3524.039291,-1628.453072,13989.892304
948.648032,-3447.429741,-148.041188,13619.789333
948.648351,-2834.553343,1628.453072,12509.480420
948.648670,-2604.724693,3034.844362,12361.439231
948.648989,-2145.067394,3775.050304,12065.356855
948.649308,-1378.971896,3849.070898,11251.130318
948.649627,-612.876398,2886.803174,11177.109724
948.649946,-229.828649,1184.329507,11991.336260
948.650265,689.485948,-592.164754,12805.562797
948.650584,459.657299,-2146.597232,13101.645173
948.650903,536.266849,-2960.823768,13619.789333
948.651222,153.219100,-2590.720797,13323.706956
948.651541,612.876398,-1776.494261,11769.274478
948.651860,76.609550,-1184.329507,11029.068536
948.652179,-459.657299,-1702.473667,11769.274478
948.652498,-1072.533697,-2294.638420,11325.150913
948.652817,-2374.896044,-2664.741391,11547.212695
948.653136,-2451.505594,-3849.070898,13027.624579
948.653455,-2451.505594,-4589.276840,14434.015869
948.653774,-1608.800546,-5329.482782,13989.892304
948.654093,-229.828649,-4515.256246,12731.542202
948.654412,1838.629195,-3404.947333,10881.027347
948.654731,2834.553343,-518.144159,7772.162391
948.655050,3677.258390,-370.102971,5551.544565
948.655369,3600.648841,-74.020594,5255.462188
948.655688,3217.601092,-1554.432478,5995.668130
948.656007,2451.505594,-2368.659014,6069.688724
948.656326,1838.629195,-2294.638420,7105.977043
948.656645,1149.143247,-2072.576638,7698.141797
948.656964,76.609550,-1850.514855,8068.244768
948.657283,-306.438199,-2368.659014,8216.285956
948.657602,-995.924147,-3034.844362,8586.388927
948.657921,-1072.533697,-2664.741391,8438.347739
948.658240,0.000000,-1702.473667,7254.018232
948.658559,612.876398,-1480.411884,6587.832884
948.658878,1762.019645,-740.205942,5773.606348
948.659197,1991.848295,-74.020594,4885.359217
948.659516,2911.162892,444.123565,4441.235652
948.659835,3294.210641,1554.432478,3923.091493
948.660154,2911.162892,2146.597232,2960.823768
948.660473,2911.162892,2220.617826,3330.926739
948.660792,2528.115143,1332.370696,3701.029710
948.661111,1915.238745,518.144159,4515.256246
948.661431,919.314598,-370.102971,5773.606348
948.661750,153.219100,-962.267725,6587.832884
948.662069,-153.219100,-1702.473667,7994.224174
948.662388,-1225.752797,-1554.432478,9104.533087
948.662707,-1685.410096,-1110.308913,9696.697840
948.663026,-2068.457845,-814.226536,10140.821405
948.663345,-2068.457845,148.041188,10288.862594
948.663664,-1915.238745,592.164754,9474.636058
948.663983,-1378.971896,1628.453072,9400.615463
948.664302,0.000000,2590.720797,8734.430116
948.664621,1302.362347,3034.844362,7698.141797
948.664940,1225.752797,2738.761985,7550.100608
948.665259,612.876398,1628.453072,8364.327145
948.665578,842.705048,1776.494261,9104.533087
948.665897,459.657299,888.247130,9252.574275
948.666216,-229.828649,592.164754,10066.800811
948.666535,-919.314598,740.205942,11547.212695
948.666854,-1991.848295,518.144159,12065.356855
948.667173,-2681.334243,666.185348,12805.562797
948.667492,-2987.772442,740.205942,13841.851115
948.667811,-3064.381992,1110.308913,14063.912898
948.668130,-2528.115143,1628.453072,13915.871710
948.668449,-2298.286494,1480.411884,13767.830521
948.668768,-689.485948,1850.514855,13471.748144
948.669087,383.047749,2960.823768,12657.521608
948.669406,2068.457845,3552.988522,11843.295072
948.669725,2911.162892,4145.153275,10288.862594
948.670044,3983.696590,4293.194464,9548.656652
948.670363,4596.572988,3701.029710,9030.512492
948.670682,4366.744339,2664.741391,9104.533087
948.671001,3677.258390,1924.535449,9474.636058
948.671320,2604.724693,1628.453072,10436.903782
948.671639,1762.019645,814.226536,11029.068536
948.671958,612.876398,666.185348,11917.315666
948.672277,0.000000,-74.020594,13101.645173
948.672596,-1378.971896,666.185348,12213.398043
948.672915,-1072.533697,444.123565,12731.542202
948.673234,-1149.143247,740.205942,11917.315666
948.673553,-229.828649,740.205942,11621.233289
948.673872,383.047749,666.185348,11029.068536
948.674191,1378.971896,1406.391290,9992.780217
948.674510,2068.457845,1776.494261,8734.430116
948.674829,2681.334243,2072.576638,6883.915261
948.675148,2911.162892,2368.659014,6513.812290
948.675467,2068.457845,2072.576638,6291.750507
948.675786,1762.019645,1480.411884,5921.647536
948.676105,689.485948,1036.288319,6661.853478
948.676424,383.047749,-370.102971,7698.141797
948.676743,-995.924147,-888.247130,7920.203579
948.677062,-1378.971896,-2294.638420,8734.430116
948.677381,-2451.505594,-2590.720797,9252.574275
948.677700,-2374.896044,-2960.823768,9770.718434
948.678019,-2221.676944,-2590.720797,9696.697840
948.678338,-1532.190996,-1702.473667,9326.594869
948.678657,-842.705048,-1110.308913,8660.409521
948.678976,306.438199,-518.144159,7920.203579
948.679295,1378.971896,-0.000000,7031.956449
948.679614,2451.505594,888.247130,6069.688724
948.679933,2987.772442,814.226536,4885.359217
948.680252,3217.601092,888.247130,4737.318029
948.680571,3140.991542,222.061783,5033.400406
948.680890,2681.334243,-296.082377,5625.565159
948.681209,2451.505594,-1258.350101,6291.750507
948.681528,1225.752797,-2220.617826,7476.080014
948.681847,383.047749,-2220.617826,8734.430116
948.682167,-383.047749,-2368.659014,9178.553681
948.682486,-689.485948,-2442.679609,9770.718434
948.682805,-995.924147,-2738.761985,10658.965565
948.683124,-919.314598,-2072.576638,10584.944971
948.683443,0.000000,-1776.494261,10436.903782
948.683762,842.705048,-666.185348,9992.780217
948.684081,2068.457845,296.082377,9400.615463
948.684400,3217.601092,1628.453072,8290.306550
948.684719,4136.915689,2442.679609,7105.977043
948.685038,4366.744339,2886.803174,6365.771101
948.685357,4826.401637,2590.720797,6587.832884
948.685676,3677.258390,2590.720797,6587.832884
948.685995,2681.334243,1998.556043,7772.162391
948.686314,1608.800546,1332.370696,8956.491898
948.686633,306.438199,740.205942,10362.883188
948.686952,-766.095498,296.082377,11547.212695
948.687271,-1608.800546,592.164754,11917.315666
948.687590,-1915.238745,1258.350101,12731.542202
948.687909,-2068.457845,2368.659014,12065.356855
948.688228,-1762.019645,3256.906145,11769.274478
948.688547,-689.485948,3478.967927,11547.212695
948.688866,0.000000,4219.173869,11029.068536
948.689185,919.314598,4737.318029,9696.697840
948.689504,1838.629195,4959.379811,9326.594869
948.689823,2221.676944,5477.523971,8586.388927
948.690142,2681.334243,5625.565159,8068.244768
948.690461,3217.601092,5403.503377,7994.224174
948.690780,2451.505594,4663.297435,8734.430116
948.691099,1302.362347,3775.050304,9400.615463
948.691418,536.266849,2886.803174,10214.842000
948.691737,-612.876398,2738.761985,11325.150913
948.692056,-1302.362347,2220.617826,11843.295072
948.692375,-2451.505594,1554.432478,12139.377449
948.692694,-2604.724693,1332.370696,12879.583391
948.693013,-2298.286494,1258.350101,12953.603985
948.693332,-1685.410096,1628.453072,12361.439231
948.693651,-842.705048,2072.576638,12361.439231
948.693970,76.609550,1924.535449,11547.212695
948.694289,1302.362347,2590.720797,10658.965565
948.694608,2298.286494,2886.803174,9474.636058
948.694927,3447.429741,2738.761985,8808.450710
948.695246,3677.258390,2516.700203,8142.265362
948.695565,3677.258390,2220.617826,7402.059420
948.695884,2987.772442,1258.350101,7624.121203
948.696203,1915.238745,-370.102971,9104.533087
948.696522,919.314598,-1554.432478,9918.759623
948.696841,153.219100,-2368.659014,10436.903782
948.697160,-919.314598,-3404.947333,11325.150913
948.697479,-1455.581446,-3108.864956,11769.274478
948.697798,-1608.800546,-2886.803174,11843.295072
948.698117,-689.485948,-2738.761985,10881.027347
948.698436,-383.047749,-1776.494261,10362.883188
948.698755,459.657299,-1110.308913,9252.574275
948.699074,1455.581446,-666.185348,8438.347739
948.699393,2298.286494,-1036.288319,7254.018232
948.699712,2987.772442,-370.102971,6439.791695
948.700031,2757.943793,-74.020594,5699.585753
948.700350,2834.553343,-0.000000,5181.441594
948.700669,2451.505594,-222.061783,5329.482782
948.700988,1608.800546,-444.123565,5625.565159
948.701307,306.438199,-1036.288319,6217.729913
948.701626,-612.876398,-1702.473667,7031.956449
948.701945,-1915.238745,-2368.659014,7920.203579
948.702264,-2987.772442,-2516.700203,8808.450710
948.702583,-3447.429741,-2812.782580,9548.656652
948.702903,-3370.820191,-3034.844362,10288.862594
948.703222,-3140.991542,-2146.597232,9474.636058
948.703541,-2068.457845,-1776.494261,9326.594869
948.703860,-1072.533697,-888.247130,8068.244768
948.704179,689.485948,592.164754,7105.977043
948.704498,1762.019645,888.247130,6143.709319
948.704817,2528.115143,1850.514855,5551.544565
948.705136,3370.820191,2146.597232,5033.400406
948.705455,3677.258390,2220.617826,4367.215058
948.705774,3524.039291,2072.576638,4885.359217
948.706093,2528.115143,888.247130,5847.626942
948.706412,1838.629195,370.102971,6809.894666
948.706731,459.657299,-1036.288319,8660.409521
948.707050,0.000000,-1480.411884,10584.944971
948.707369,-766.095498,-1184.329507,11103.089130
948.707688,-766.095498,-814.226536,11547.212695
948.708007,-689.485948,296.082377,11695.253884
948.708326,0.000000,888.247130,11251.130318
948.708645,1072.533697,1776.494261,10436.903782
948.708964,2757.943793,2960.823768,9770.718434
948.709283,3217.601092,3182.885551,9104.533087
948.709602,4443.353888,3923.091493,8364.327145
948.709921,5132.839837,3627.009116,8068.244768
948.710240,4749.792088,4145.153275,7476.080014
948.710559,4826.401637,3997.112087,7624.121203
948.710878,3370.820191,3997.112087,8216.285956
948.711197,2451.505594,3849.070898,9104.533087
948.711516,919.314598,2294.638420,9992.780217
948.711835,-995.924147,1406.391290,11991.336260
948.712154,-2451.505594,962.267725,13397.727550
948.712473,-3447.429741,1332.370696,12583.501014
948.712792,-3830.477490,888.247130,13545.768739
948.713111,-4136.915689,814.226536,14508.036463
948.713430,-3907.087040,666.185348,14137.933492
948.713749,-3524.039291,1776.494261,12509.480420
948.714068,-1685.410096,1998.556043,13397.727550
948.714387,-153.219100,2886.803174,11917.315666
948.714706,536.266849,4515.256246,10066.800811
948.715025,1455.581446,4145.153275,9400.615463
948.715344,1608.800546,3849.070898,9178.553681
948.715663,1762.019645,3108.864956,8586.388927
948.715982,1762.019645,1776.494261,8734.430116
948.716301,536.266849,1036.288319,9548.656652
948.716620,-612.876398,-0.000000,10732.986159
948.716939,-1378.971896,-1406.391290,11843.295072
948.717258,-2221.676944,-2368.659014,12879.583391
948.717577,-2681.334243,-2220.617826,12657.521608
948.717896,-2604.724693,-2072.576638,12731.542202
948.718215,-2451.505594,-1776.494261,12361.439231
948.718534,-1149.143247,-1406.391290,11843.295072
948.718853,-536.266849,-814.226536,10732.986159
948.719172,1149.143247,-666.185348,9918.759623
948.719491,2528.115143,-666.185348,8660.409521
948.719810,3830.477490,-148.041188,7994.224174
948.720129,4366.744339,-0.000000,6661.853478
948.720448,5132.839837,-0.000000,5921.647536
948.720767,4596.572988,296.082377,5921.647536
948.721086,4060.306139,-0.000000,5699.585753
948.721405,2911.162892,-888.247130,6513.812290
948.721724,1991.848295,-1554.432478,7105.977043
948.722043,919.314598,-2442.679609,7550.100608
948.722362,-459.657299,-3108.864956,7994.224174
948.722681,-1302.362347,-3108.864956,8586.388927
948.723000,-2374.896044,-3849.070898,9030.512492
948.723319,-2451.505594,-3701.029710,8882.471304
948.723639,-2298.286494,-3256.906145,9030.512492
948.723958,-1532.190996,-2294.638420,8216.285956
948.724277,-536.266849,-1184.329507,7105.977043
948.724596,76.609550,-0.000000,6217.729913
948.724915,919.314598,296.082377,5773.606348
948.725234,1455.581446,1480.411884,5181.441594
948.725553,1532.190996,1184.329507,4071.132681
948.725872,1455.581446,1258.350101,4367.215058
948.726191,919.314598,444.123565,4515.256246
948.726510,-383.047749,-888.247130,5107.421000
948.726829,-689.485948,-1480.411884,6883.915261
948.727148,-1991.848295,-2442.679609,7994.224174
948.727467,-2604.724693,-2368.659014,9030.512492
948.727786,-3064.381992,-2442.679609,9918.759623
948.728105,-3140.991542,-1924.535449,10362.883188
948.728424,-2681.334243,-1332.370696,10362.883188
948.728743,-2374.896044,-592.164754,10214.842000
948.729062,-1302.362347,-148.041188,9918.759623
948.729381,-306.438199,518.144159,9178.553681
948.729700,1072.533697,1184.329507,8734.430116
948.730019,2221.676944,1554.432478,8512.368333
948.730338,3064.381992,1850.514855,7920.203579
948.730657,3677.258390,1850.514855,7402.059420
948.730976,4136.915689,1628.453072,7402.059420
948.731295,2987.772442,1480.411884,8808.450710
948.731614,2451.505594,962.267725,9326.594869
948.731933,1685.410096,592.164754,10584.944971
948.732252,536.266849,-74.020594,11621.233289
948.732571,-459.657299,-222.061783,12435.459826
948.732890,-919.314598,-518.144159,12805.562797
948.733209,-1762.019645,-814.226536,13397.727550
948.733528,-1762.019645,-296.082377,13619.789333
948.733847,-1149.143247,222.061783,13397.727550
948.734166,-306.438199,1110.308913,13027.624579
948.734485,459.657299,1998.556043,12435.459826
948.734804,1149.143247,2664.741391,11621.233289
948.735123,2451.505594,3108.864956,10510.924376
948.735442,2911.162892,3478.967927,9326.594869
948.735761,2757.943793,3404.947333,9400.615463
948.736080,2451.505594,3478.967927,8808.450710
948.736399,1685.410096,2220.617826,9252.574275
948.736718,689.485948,1184.329507,10658.965565
948.737037,0.000000,666.185348,10881.027347
948.737356,-1149.143247,-74.020594,12139.377449
948.737675,-2068.457845,-444.123565,12509.480420
948.737994,-2757.943793,-296.082377,12509.480420
948.738313,-2528.115143,-74.020594,12509.480420
948.738632,-2451.505594,296.082377,11917.315666
948.738951,-1915.238745,814.226536,11251.130318
948.739270,-1072.533697,814.226536,10510.924376
948.739589,0.000000,1110.308913,9548.656652
948.739908,1072.533697,1332.370696,8956.491898
948.740227,1838.629195,1332.370696,7846.182985
948.740546,2068.457845,1258.350101,7254.018232
948.740865,2145.067394,1110.308913,6513.812290
948.741184,1838.629195,1110.308913,6661.853478
948.741503,1915.238745,666.185348,6883.915261
948.741822,689.485948,-222.061783,7328.038826
948.742141,0.000000,-1036.288319,8586.388927
948.742460,-536.266849,-1776.494261,8956.491898
948.742779,-1302.362347,-2368.659014,9474.636058
948.743098,-1685.410096,-3182.885551,9844.739029
948.743417,-1838.629195,-2368.659014,9622.677246
948.743736,-842.705048,-2812.782580,9622.677246
948.744055,-306.438199,-2368.659014,8882.471304
948.744374,383.047749,-1776.494261,8512.368333
948.744692,1838.629195,-1110.308913,7328.038826
948.745011,2757.943793,222.061783,6217.729913
948.745330,3370.820191,296.082377,5625.565159
948.745649,3524.039291,296.082377,4959.379811
948.745968,3447.429741,-148.041188,5033.400406
948.746287,2911.162892,-1110.308913,5551.544565
948.746606,2145.067394,-1776.494261,6291.750507
948.746925,1072.533697,-2442.679609,7254.018232
948.747243,306.438199,-2960.823768,8290.306550
948.747562,-612.876398,-3404.947333,9178.553681
948.747881,-1072.533697,-3404.947333,9844.739029
948.748200,-1302.362347,-2960.823768,9844.739029
948.748519,-1378.971896,-2294.638420,10066.800811
948.748838,-919.314598,-1258.350101,9770.718434
948.749157,-766.095498,-962.267725,9548.656652
948.749475,153.219100,-222.061783,9400.615463
948.749794,919.314598,444.123565,8512.368333
948.750113,1838.629195,888.247130,7698.141797
948.750432,2451.505594,1776.494261,7179.997637
948.750751,2374.896044,1850.514855,6661.853478
948.751070,2298.286494,2220.617826,6735.874072
948.751389,1532.190996,1998.556043,7105.977043
948.751707,689.485948,1184.329507,8068.244768
948.752026,-306.438199,518.144159,9178.553681
948.752345,-1302.362347,-74.020594,10214.842000
948.752664,-1915.238745,-444.123565,11251.130318
948.752983,-2987.772442,-370.102971,11917.315666
948.753302,-2911.162892,-74.020594,12139.377449
948.753621,-2987.772442,296.082377,12287.418637
948.753940,-2374.896044,592.164754,12139.377449
948.754258,-1762.019645,1258.350101,11769.274478
948.754577,-76.609550,2442.679609,10881.027347
948.754896,919.314598,3404.947333,9992.780217
948.755215,1915.238745,3627.009116,9474.636058
948.755534,2451.505594,3775.050304,9030.512492
948.755853,2757.943793,3701.029710,8808.450710
948.756172,2681.334243,3330.926739,8660.409521
948.756490,2451.505594,2812.782580,8956.491898
948.756809,1915.238745,1776.494261,9918.759623
948.757128,1149.143247,1184.329507,10658.965565
948.757447,153.219100,370.102971,11695.253884
948.757766,-383.047749,-0.000000,12065.356855
948.758085,-919.314598,296.082377,12509.480420
948.758404,-766.095498,444.123565,12657.521608
948.758723,-766.095498,814.226536,12361.439231
948.759041,153.219100,888.247130,11991.336260
948.759360,919.314598,814.226536,11547.212695
948.759679,2451.505594,1258.350101,10584.944971
948.759998,2987.772442,1924.535449,9992.780217
948.760317,3907.087040,2368.659014,8956.491898
948.760636,4213.525239,2590.720797,8068.244768
948.760955,4213.525239,2294.638420,7179.997637
948.761273,3830.477490,1924.535449,7105.977043
948.761592,2757.943793,1406.391290,7550.100608
948.761911,1838.629195,518.144159,7920.203579
948.762230,536.266849,-148.041188,8956.491898
948.762549,-1072.533697,-888.247130,9844.739029
948.762868,-1915.238745,-1110.308913,10214.842000
948.763187,-2681.334243,-1850.514855,10584.944971
948.763506,-3064.381992,-1702.473667,10732.986159
948.763824,-2911.162892,-1998.556043,10732.986159
948.764143,-2374.896044,-1480.411884,10362.883188
948.764462,-1302.362347,-814.226536,9770.718434
948.764781,-919.314598,-296.082377,9030.512492
948.765100,459.657299,518.144159,7772.162391
948.765419,1455.581446,888.247130,7105.977043
948.765738,2374.896044,962.267725,6291.750507
948.766056,2451.505594,1406.391290,5107.421000
948.766375,2451.505594,962.267725,4959.379811
948.766694,1532.190996,370.102971,5625.565159
948.767013,995.924147,-888.247130,6291.750507
948.767332,153.219100,-1110.308913,8068.244768
948.767651,-383.047749,-2294.638420,8734.430116
948.767970,-995.924147,-2664.741391,9548.656652
948.768288,-1302.362347,-2738.761985,10140.821405
948.768607,-919.314598,-2220.617826,10362.883188
948.768926,-459.657299,-1776.494261,9696.697840
948.769245,229.828649,-962.267725,9400.615463
948.769564,1532.190996,-0.000000,9030.512492
948.769883,2681.334243,888.247130,7994.224174
948.770202,3753.867940,1924.535449,7328.038826
948.770521,4826.401637,2146.597232,6365.771101
948.770839,5132.839837,2664.741391,6069.688724
948.771158,4749.792088,2442.679609,5699.585753
948.771477,4136.915689,2146.597232,6365.771101
948.771796,3294.210641,1554.432478,7031.956449
948.772115,2068.457845,740.205942,8068.244768
948.772434,842.705048,222.061783,9178.553681
948.772753,-306.438199,-0.000000,10214.842000
948.773071,-1149.143247,-222.061783,11029.068536
948.773390,-2145.067394,-370.102971,11399.171507
948.773709,-2298.286494,-0.000000,11843.295072
948.774028,-2451.505594,444.123565,11917.315666
948.774347,-1762.019645,1258.350101,11769.274478
948.774666,-919.314598,1924.535449,11251.130318
948.774985,383.047749,3034.844362,10362.883188
948.775304,1302.362347,3775.050304,9474.636058
948.775622,1685.410096,4145.153275,8660.409521
948.775941,2298.286494,4367.215058,7846.182985
948.776260,2451.505594,3849.070898,7402.059420
948.776579,766.095498,3108.864956,7846.182985
948.776898,153.219100,2368.659014,8882.471304
948.777217,-229.828649,1554.432478,10066.800811
948.777536,-1608.800546,666.185348,11769.274478
948.777854,-2528.115143,148.041188,12435.459826
948.778173,-3217.601092,-0.000000,12953.603985
948.778492,-3370.820191,-0.000000,13471.748144
948.778811,-3140.991542,-0.000000,13397.727550
948.779130,-2221.676944,888.247130,13027.624579
948.779449,-1149.143247,1184.329507,12583.501014
948.779768,153.219100,962.267725,11473.192101
948.780086,1378.971896,2220.617826,10732.986159
948.780405,2451.505594,2738.761985,9474.636058
948.780724,4290.134789,3256.906145,8290.306550
948.781043,4519.963438,3404.947333,7254.018232
948.781362,4749.792088,3108.864956,7179.997637
948.781681,4366.744339,2368.659014,7328.038826
948.782000,3294.210641,1554.432478,7772.162391
948.782319,2068.457845,666.185348,8660.409521
948.782637,842.705048,-666.185348,9844.739029
948.782956,-612.876398,-1628.453072,10658.965565
948.783275,-1455.581446,-1776.494261,11473.192101
948.783594,-1838.629195,-1776.494261,11621.233289
948.783913,-2068.457845,-1406.391290,11621.233289
948.784232,-1302.362347,-1406.391290,10807.006753
948.784551,-612.876398,-148.041188,10066.800811
948.784869,383.047749,370.102971,9178.553681
948.785188,1532.190996,1110.308913,7698.141797
948.785507,2528.115143,1702.473667,6957.935855
948.785826,3064.381992,1554.432478,5995.668130
948.786145,3140.991542,1628.453072,5403.503377
948.786464,2681.334243,1036.288319,5403.503377
948.786783,2145.067394,740.205942,5847.626942
948.787102,842.705048,-74.020594,6069.688724
948.787420,76.609550,-1036.288319,7254.018232
948.787739,-995.924147,-1776.494261,8364.327145
948.788058,-1915.238745,-2072.576638,9252.574275
948.788377,-2681.334243,-2294.638420,9770.718434
948.788696,-3140.991542,-2220.617826,10214.842000
948.789015,-2987.772442,-1924.535449,10066.800811
948.789334,-2298.286494,-1628.453072,9770.718434
948.789652,-1302.362347,-1036.288319,9474.636058
948.789971,0.000000,-148.041188,8882.471304
948.790290,1149.143247,888.247130,7328.038826
948.790609,2681.334243,1924.535449,6735.874072
948.790928,3600.648841,2368.659014,5551.544565
948.791247,4136.915689,2516.700203,5107.421000
948.791566,4213.525239,2146.597232,5477.523971
948.791885,3677.258390,1850.514855,5995.668130
948.792203,2451.505594,370.102971,6809.894666
948.792522,1762.019645,-370.102971,8364.327145
948.792841,383.047749,-1258.350101,9622.677246
948.793160,-842.705048,-1850.514855,10658.965565
948.793479,-1532.190996,-1776.494261,11621.233289
948.793798,-1762.019645,-1480.411884,11991.336260
948.794117,-1378.971896,-814.226536,11769.274478
948.794435,-612.876398,-148.041188,11621.233289
948.794754,306.438199,592.164754,10881.027347
948.795073,1532.190996,1480.411884,10066.800811
948.795392,2374.896044,2368.659014,9474.636058
948.795711,3217.601092,2442.679609,8438.347739
948.796030,3983.696590,2738.761985,8068.244768
948.796349,3524.039291,2886.803174,7698.141797
948.796667,2987.772442,2664.741391,7920.203579
948.796986,2145.067394,1924.535449,8438.347739
948.797305,1225.752797,1110.308913,9400.615463
948.797624,0.000000,518.144159,11251.130318
948.797943,-1302.362347,-222.061783,11843.295072
948.798262,-2451.505594,-296.082377,12435.459826
948.798581,-3064.381992,-370.102971,13027.624579
948.798900,-3217.601092,-74.020594,13101.645173
948.799218,-3447.429741,74.020594,12879.583391
948.799537,-2298.286494,962.267725,12435.459826
948.799856,-1532.190996,1332.370696,11695.253884
948.800175,-306.438199,2220.617826,10584.944971
948.800494,689.485948,2738.761985,9548.656652
948.800813,1991.848295,3256.906145,8512.368333
948.801132,2528.115143,3701.029710,7994.224174
948.801450,2528.115143,3701.029710,7550.100608
948.801769,2145.067394,3034.844362,7624.121203
948.802088,1225.752797,2220.617826,7920.203579
948.802407,612.876398,1110.308913,9030.512492
948.802726,-766.095498,-0.000000,9918.759623
948.803045,-1608.800546,-518.144159,10807.006753
948.803364,-2374.896044,-962.267725,11251.130318
948.803683,-2298.286494,-1480.411884,11769.274478
948.804001,-2604.724693,-1184.329507,11843.295072
948.804320,-2068.457845,-666.185348,11399.171507
948.804639,-1072.533697,-74.020594,10584.944971
948.804958,0.000000,148.041188,9622.677246
948.805277,1608.800546,370.102971,8512.368333
948.805596,2451.505594,888.247130,7624.121203
948.805915,3217.601092,1258.350101,7105.977043
948.806233,3753.867940,1110.308913,6291.750507
948.806552,3907.087040,1184.329507,5995.668130
948.806871,3370.820191,518.144159,6513.812290
948.807190,2298.286494,-222.061783,7328.038826
948.807509,919.314598,-1406.391290,8290.306550
948.807828,-153.219100,-2072.576638,9326.594869
948.808147,-995.924147,-2886.803174,10066.800811
948.808465,-1838.629195,-3034.844362,10658.965565
948.808784,-1991.848295,-3034.844362,10955.047942
948.809103,-2145.067394,-3108.864956,10807.006753
948.809422,-1762.019645,-2368.659014,10362.883188
948.809741,-689.485948,-1554.432478,9844.739029
948.810060,612.876398,-888.247130,8808.450710
948.810379,1532.190996,148.041188,7550.100608
948.810698,2374.896044,1110.308913,6587.832884
948.811016,2834.553343,1406.391290,5773.606348
948.811335,3064.381992,1628.453072,5255.462188
948.811654,2757.943793,1480.411884,5255.462188
948.811973,1991.848295,814.226536,5847.626942
948.812292,842.705048,-74.020594,6883.915261
948.812611,-229.828649,-740.205942,7994.224174
948.812930,-1302.362347,-1554.432478,9326.594869
948.813248,-2298.286494,-1702.473667,9844.739029
948.813567,-2987.772442,-1850.514855,10584.944971
948.813886,-3447.429741,-1850.514855,10807.006753
948.814205,-2987.772442,-1184.329507,10955.047942
948.814524,-2298.286494,-592.164754,10732.986159
948.814843,-1838.629195,-444.123565,9992.780217
948.815162,-459.657299,592.164754,9474.636058
948.815481,612.876398,1480.411884,8512.368333
948.815799,2068.457845,1998.556043,7550.100608
948.816118,2451.505594,2516.700203,6957.935855
948.816437,2911.162892,2664.741391,6735.874072
948.816756,2987.772442,2220.617826,6883.915261
948.817075,2298.286494,1554.432478,7476.080014
948.817394,1302.362347,518.144159,8586.388927
948.817713,612.876398,-296.082377,9622.677246
948.818031,-383.047749,-1184.329507,11177.109724
948.818350,-1072.533697,-1554.432478,12065.356855
948.818669,-1532.190996,-1480.411884,12583.501014
948.818988,-1608.800546,-1184.329507,12361.439231
948.819307,-1608.800546,-740.205942,12213.398043
948.819626,-383.047749,-222.061783,11843.295072
948.819945,459.657299,444.123565,11399.171507
948.820264,1302.362347,962.267725,11029.068536
948.820582,2451.505594,1850.514855,9918.759623
948.820901,3370.820191,2590.720797,9178.553681
948.821220,3907.087040,2738.761985,8142.265362
948.821539,4136.915689,3182.885551,7624.121203
948.821858,3447.429741,2812.782580,7698.141797
948.822177,2757.943793,2220.617826,7920.203579
948.822496,1762.019645,1258.350101,8512.368333
948.822814,383.047749,222.061783,9252.574275
948.823133,-919.314598,-370.102971,10066.800811
948.823452,-2145.067394,-1184.329507,11325.150913
948.823771,-2757.943793,-1480.411884,11843.295072
948.824090,-3983.696590,-1628.453072,12361.439231
948.824409,-3447.429741,-1184.329507,11917.315666
948.824728,-3524.039291,-444.123565,11843.295072
948.825046,-2221.676944,-0.000000,10732.986159
948.825365,-842.705048,962.267725,9844.739029
948.825684,459.657299,1554.432478,8882.471304
948.826003,1838.629195,1998.556043,7846.182985
948.826322,2604.724693,2220.617826,6957.935855
948.826641,2834.553343,2146.597232,6365.771101
948.826960,2528.115143,1924.535449,6439.791695
948.827279,2145.067394,1332.370696,6735.874072
948.827597,1378.971896,592.164754,7550.100608
948.827916,536.266849,-0.000000,8586.388927
948.828235,-76.609550,-666.185348,9400.615463
948.828554,-919.314598,-1184.329507,10066.800811
948.828873,-1685.410096,-1702.473667,10584.944971
948.829192,-1608.800546,-2368.659014,11251.130318
948.829511,-1225.752797,-1776.494261,10881.027347
948.829829,-612.876398,-1406.391290,10584.944971
948.830148,536.266849,-814.226536,9918.759623
948.830467,1762.019645,-74.020594,9030.512492
948.830786,2834.553343,444.123565,8290.306550
948.831105,3907.087040,1110.308913,6883.915261
948.831424,3907.087040,1184.329507,6587.832884
948.831743,4290.134789,1184.329507,5921.647536
948.832062,3524.039291,666.185348,5995.668130
948.832380,2911.162892,-0.000000,6735.874072
948.832699,1608.800546,-962.267725,7920.203579
948.833018,612.876398,-1480.411884,8882.471304
948.833337,-689.485948,-2220.617826,9844.739029
948.833656,-1915.238745,-2664.741391,10140.821405
948.833975,-2681.334243,-2516.700203,10732.986159
948.834294,-2298.286494,-2146.597232,11325.150913
948.834612,-2604.724693,-1628.453072,11029.068536
948.834931,-2068.457845,-962.267725,10584.944971
948.835250,-1225.752797,-0.000000,10362.883188
948.835569,0.000000,740.205942,9030.512492
948.835888,842.705048,1776.494261,7994.224174
948.836207,1991.848295,2294.638420,7254.018232
948.836526,2298.286494,2442.679609,6365.771101
948.836845,2681.334243,2294.638420,6217.729913
948.837163,2604.724693,2368.659014,6587.832884
948.837482,1455.581446,888.247130,7328.038826
948.837801,612.876398,222.061783,8438.347739
948.838120,-459.657299,-444.123565,9696.697840
948.838439,-1225.752797,-1110.308913,10955.047942
948.838758,-2374.896044,-1258.350101,11621.233289
948.839077,-2528.115143,-1184.329507,12139.377449
948.839395,-2298.286494,-666.185348,12139.377449
948.839714,-1991.848295,-74.020594,11917.315666
948.840033,-1149.143247,222.061783,11177.109724
948.840352,383.047749,814.226536,10362.883188
948.840671,1225.752797,1554.432478,9844.739029
948.840990,2451.505594,2294.638420,8660.409521
948.841309,3524.039291,2664.741391,8142.265362
948.841627,4443.353888,2664.741391,7550.100608
948.841946,4213.525239,2812.782580,7254.018232
948.842265,3753.867940,2442.679609,7254.018232
948.842584,2987.772442,1480.411884,7846.182985
948.842903,2221.676944,592.164754,9178.553681
948.843222,842.705048,296.082377,10436.903782
948.843541,-536.266849,-666.185348,10732.986159
948.843860,-1455.581446,-1184.329507,11621.233289
948.844178,-1838.629195,-1110.308913,11917.315666
948.844497,-2145.067394,-1258.350101,12139.377449
948.844816,-1762.019645,-740.205942,11843.295072
948.845135,-919.314598,-0.000000,11473.192101
948.845454,0.000000,592.164754,10584.944971
948.845773,766.095498,1480.411884,9474.636058
948.846092,1915.238745,2294.638420,8660.409521
948.846410,2604.724693,2960.823768,7624.121203
948.846729,3294.210641,2960.823768,6883.915261
948.847048,2757.943793,2516.700203,6513.812290
948.847367,2604.724693,2294.638420,6661.853478
948.847686,1685.410096,1036.288319,7698.141797
948.848005,536.266849,370.102971,8438.347739
948.848324,-306.438199,-518.144159,9474.636058
948.848642,-1302.362347,-740.205942,10066.800811
948.848961,-2374.896044,-1184.329507,10955.047942
948.849280,-2221.676944,-1110.308913,11103.089130
948.849599,-2451.505594,-1258.350101,11251.130318
948.849918,-1378.971896,-592.164754,11251.130318
948.850237,-766.095498,-444.123565,10584.944971
948.850556,766.095498,-0.000000,9844.739029
948.850874,1608.800546,1036.288319,8438.347739
948.851193,2911.162892,1702.473667,7772.162391
948.851512,3677.258390,2072.576638,6735.874072
948.851831,4060.306139,2294.638420,6217.729913
948.852150,3907.087040,1998.556043,5773.606348
948.852469,3677.258390,1258.350101,6069.688724
948.852788,2528.115143,370.102971,7105.977043
948.853106,1378.971896,-370.102971,8438.347739
948.853425,383.047749,-1184.329507,9474.636058
948.853744,-766.095498,-1628.453072,9918.759623
948.854063,-1762.019645,-1850.514855,10732.986159
948.854382,-2298.286494,-1850.514855,11103.089130
948.854701,-2145.067394,-1554.432478,10955.047942
948.855020,-1532.190996,-814.226536,10807.006753
948.855338,-766.095498,-222.061783,10288.862594
948.855657,0.000000,518.144159,9622.677246
948.855976,1225.752797,1258.350101,8808.450710
948.856295,2298.286494,2146.597232,8068.244768
948.856614,3217.601092,2220.617826,7179.997637
948.856933,3064.381992,2442.679609,6809.894666
948.857252,2911.162892,2368.659014,6735.874072
948.857570,2604.724693,1702.473667,7105.977043
948.857889,2298.286494,666.185348,7772.162391
948.858208,536.266849,-74.020594,9104.533087
948.858527,-383.047749,-592.164754,10066.800811
948.858846,-1378.971896,-1184.329507,10807.006753
948.859165,-2298.286494,-1036.288319,11769.274478
948.859484,-2451.505594,-1258.350101,12139.377449
948.859802,-2451.505594,-666.185348,11769.274478
948.860121,-1762.019645,-296.082377,11695.253884
948.860440,-919.314598,148.041188,10881.027347
948.860759,0.000000,1258.350101,10214.842000
948.861078,1532.190996,1850.514855,9326.594869
948.861397,2374.896044,2516.700203,7994.224174
948.861716,2987.772442,2738.761985,7328.038826
948.862034,3140.991542,2960.823768,7031.956449
948.862353,3140.991542,2294.638420,7105.977043
948.862672,2374.896044,1554.432478,7402.059420
948.862991,1302.362347,888.247130,8660.409521
948.863310,383.047749,-0.000000,9622.677246
948.863629,-766.095498,-370.102971,10510.924376
948.863948,-1838.629195,-962.267725,11177.109724
948.864266,-2451.505594,-962.267725,11843.295072
948.864585,-2604.724693,-740.205942,11917.315666
948.864904,-2451.505594,-296.082377,11621.233289
948.865223,-1608.800546,-0.000000,11103.089130
948.865542,-536.266849,814.226536,10436.903782
948.865861,153.219100,1480.411884,9400.615463
948.866180,1532.190996,2146.597232,8438.347739
948.866498,2528.115143,2960.823768,7772.162391
948.866817,3370.820191,3330.926739,7105.977043
948.867136,3600.648841,3330.926739,6439.791695
948.867455,3064.381992,2516.700203,6735.874072
948.867774,2604.724693,1776.494261,7179.997637
948.868093,1608.800546,740.205942,8290.306550
948.868412,536.266849,-148.041188,9474.636058
948.868730,-306.438199,-814.226536,10214.842000
948.869049,-995.924147,-962.267725,10732.986159
948.869368,-1838.629195,-1406.391290,11103.089130
948.869687,-1991.848295,-1258.350101,11547.212695
948.870006,-1455.581446,-740.205942,11621.233289
948.870325,-536.266849,-592.164754,10807.006753
948.870644,76.609550,-0.000000,10140.821405
948.870962,1072.533697,740.205942,9326.594869
948.871281,2145.067394,1332.370696,8290.306550
948.871600,2681.334243,2220.617826,7254.018232
948.871919,3140.991542,2072.576638,6365.771101
948.872238,3370.820191,2368.659014,6069.688724
948.872557,2681.334243,1702.473667,6661.853478
948.872876,1532.190996,666.185348,7179.997637
948.873194,229.828649,-222.061783,8142.265362
948.873513,-842.705048,-740.205942,9326.594869
948.873832,-1838.629195,-1110.308913,10140.821405
948.874151,-2451.505594,-1184.329507,10658.965565
948.874470,-2604.724693,-1406.391290,11251.130318
948.874789,-2757.943793,-740.205942,11399.171507
948.875108,-2374.896044,-666.185348,11251.130318
948.875426,-1302.362347,-0.000000,10658.965565
948.875745,-153.219100,444.123565,9918.759623
948.876064,1225.752797,1184.329507,9030.512492
948.876383,2298.286494,2072.576638,7550.100608
948.876702,3294.210641,2664.741391,6809.894666
948.877021,3753.867940,2812.782580,6217.729913
948.877340,3677.258390,2664.741391,5995.668130
948.877658,3140.991542,2072.576638,6661.853478
948.877977,2145.067394,1184.329507,7254.018232
948.878296,1072.533697,-296.082377,8734.430116
948.878615,0.000000,-962.267725,9770.718434
948.878934,-842.705048,-1702.473667,10955.047942
948.879253,-1838.629195,-1628.453072,11473.192101
948.879572,-2145.067394,-1480.411884,11769.274478
948.879890,-1991.848295,-814.226536,11991.336260
948.880209,-1378.971896,-148.041188,11621.233289
948.880528,-306.438199,444.123565,10584.944971
948.880847,612.876398,1110.308913,9918.759623
948.881166,1762.019645,1628.453072,9030.512492
948.881485,2834.553343,2220.617826,8142.265362
948.881804,3524.039291,2368.659014,7328.038826
948.882122,3600.648841,2220.617826,6883.915261
948.882441,3294.210641,1998.556043,6809.894666
948.882760,2604.724693,1110.308913,7328.038826
948.883079,1455.581446,518.144159,8068.244768
948.883398,153.219100,-814.226536,9178.553681
948.883717,-1149.143247,-814.226536,10288.862594
948.884036,-2298.286494,-1258.350101,11325.150913
948.884354,-3217.601092,-1480.411884,11843.295072
948.884673,-3830.477490,-1332.370696,12509.480420
948.884992,-3600.648841,-1258.350101,12139.377449
948.885311,-2757.943793,-666.185348,12139.377449
948.885630,-2221.676944,-148.041188,11473.192101
948.885949,-689.485948,814.226536,10510.924376
948.886268,536.266849,1554.432478,9252.574275
948.886586,1762.019645,2442.679609,7920.203579
948.886905,2987.772442,2960.823768,6957.935855
948.887224,3447.429741,2590.720797,6365.771101
948.887543,3217.601092,2368.659014,6439.791695
948.887862,2528.115143,1554.432478,7105.977043
948.888181,1455.581446,518.144159,8142.265362
948.888500,306.438199,-296.082377,9178.553681
948.888818,-612.876398,-1184.329507,10066.800811
948.889137,-1532.190996,-1850.514855,11177.109724
948.889456,-1991.848295,-2072.576638,11769.274478
948.889775,-2451.505594,-1850.514855,11843.295072
948.890094,-1838.629195,-1332.370696,11695.253884
948.890413,-1149.143247,-1110.308913,11103.089130
948.890732,76.609550,-74.020594,10140.821405
948.891050,1072.533697,666.185348,9030.512492
948.891369,2834.553343,1702.473667,8142.265362
948.891688,3677.258390,2368.659014,7105.977043
948.892007,4366.744339,2812.782580,6143.709319
948.892326,4519.963438,2886.803174,5699.585753
948.892645,4136.915689,2294.638420,5625.565159
948.892964,3217.601092,1332.370696,6217.729913
948.893282,1608.800546,222.061783,7328.038826
948.893601,229.828649,-518.144159,8734.430116
948.893920,-1302.362347,-1258.350101,9474.636058
948.894239,-2221.676944,-1924.535449,11177.109724
948.894558,-3064.381992,-1702.473667,11547.212695
948.894877,-2911.162892,-1850.514855,11695.253884
948.895196,-3140.991542,-1406.391290,11621.233289
948.895514,-2528.115143,-370.102971,11547.212695
948.895833,-1762.019645,-0.000000,10140.821405
948.896152,153.219100,666.185348,9474.636058
948.896471,1149.143247,1850.514855,8586.388927
948.896790,2298.286494,2294.638420,7402.059420
948.897109,2987.772442,2368.659014,6439.791695
948.897428,3064.381992,2368.659014,6069.688724
948.897746,2528.115143,1554.432478,6365.771101
948.898065,2068.457845,1036.288319,7105.977043
948.898384,766.095498,-0.000000,8142.265362
948.898703,-536.266849,-1036.288319,9548.656652
948.899022,-1378.971896,-1406.391290,10881.027347
948.899341,-2451.505594,-2072.576638,11769.274478
948.899660,-2987.772442,-2072.576638,12213.398043
948.899978,-2451.505594,-2368.659014,12583.501014
948.900297,-2145.067394,-1110.308913,12065.356855
948.900616,-1149.143247,-814.226536,11621.233289
948.900935,-76.609550,-74.020594,10584.944971
948.901254,1455.581446,666.185348,9474.636058
948.901573,2374.896044,1258.350101,8882.471304
948.901892,3830.477490,1998.556043,7328.038826
948.902211,4443.353888,2368.659014,6809.894666
948.902529,4213.525239,2146.597232,6513.812290
948.902848,3753.867940,1554.432478,6957.935855
948.903167,2757.943793,740.205942,7846.182985
948.903486,1455.581446,-0.000000,8734.430116
948.903805,229.828649,-518.144159,9696.697840
948.904124,-689.485948,-1036.288319,10732.986159
948.904443,-1838.629195,-1554.432478,11621.233289
948.904761,-2604.724693,-1850.514855,11843.295072
948.905080,-2911.162892,-1480.411884,11917.315666
948.905399,-2221.676944,-814.226536,11547.212695
948.905718,-1608.800546,-0.000000,10881.027347
948.906037,-459.657299,592.164754,10140.821405
948.906356,536.266849,1110.308913,9252.574275
948.906675,1608.800546,1924.535449,8142.265362
948.906993,2451.505594,2294.638420,7179.997637
948.907312,2681.334243,2368.659014,6661.853478
948.907631,2757.943793,2146.597232,6291.750507
948.907950,2068.457845,1702.473667,6957.935855
948.908269,995.924147,666.185348,7772.162391
948.908588,76.609550,-370.102971,8808.450710
948.908907,-766.095498,-1184.329507,10288.862594
948.909225,-1762.019645,-1406.391290,10807.006753
948.909544,-2374.896044,-1406.391290,11177.109724
948.909863,-2681.334243,-1480.411884,11621.233289
948.910182,-2298.286494,-1406.391290,11473.192101
948.910501,-1762.019645,-888.247130,10955.047942
948.910820,-612.876398,-0.000000,10510.924376
948.911139,383.047749,518.144159,9844.739029
948.911457,1608.800546,1406.391290,8512.368333
948.911776,2911.162892,2220.617826,7328.038826
948.912095,3830.477490,2516.700203,6587.832884
948.912414,4213.525239,2368.659014,6143.709319
948.912733,3830.477490,2294.638420,5921.647536
948.913052,3064.381992,1480.411884,6513.812290
948.913371,2068.457845,592.164754,7328.038826
948.913689,1302.362347,-296.082377,9030.512492
948.914008,-229.828649,-888.247130,9474.636058
948.914327,-1149.143247,-1406.391290,10214.842000
948.914646,-2145.067394,-1850.514855,11399.171507
948.914965,-2298.286494,-2442.679609,11399.171507
948.915284,-2451.505594,-1184.329507,11399.171507
948.915603,-1762.019645,-888.247130,11251.130318
948.915921,-995.924147,-0.000000,10658.965565
948.916240,459.657299,740.205942,9622.677246
948.916559,995.924147,1998.556043,8956.491898
948.916878,2681.334243,2294.638420,7846.182985
948.917197,3140.991542,2516.700203,6957.935855
948.917516,3600.648841,2516.700203,6365.771101
948.917835,3370.820191,2442.679609,6365.771101
948.918153,2451.505594,1036.288319,6883.915261
948.918472,1302.362347,444.123565,8068.244768
948.918791,229.828649,-666.185348,9252.574275
948.919110,-995.924147,-1036.288319,10362.883188
948.919429,-2451.505594,-1702.473667,11473.192101
948.919748,-2911.162892,-1628.453072,11843.295072
948.920067,-3217.601092,-1628.453072,12435.459826
948.920385,-3294.210641,-1110.308913,12139.377449
948.920704,-2374.896044,-518.144159,11473.192101
948.921023,-1149.143247,-74.020594,10955.047942
948.921342,76.609550,814.226536,10140.821405
948.921661,1149.143247,1406.391290,9104.533087
948.921980,2451.505594,2072.576638,8142.265362
948.922299,3064.381992,2368.659014,7179.997637
948.922617,3677.258390,2442.679609,6809.894666
948.922936,3524.039291,2294.638420,6883.915261
948.923255,2528.115143,1258.350101,7402.059420
948.923574,1762.019645,296.082377,8290.306550
948.923893,995.924147,-222.061783,9326.594869
948.924212,-306.438199,-740.205942,10140.821405
948.924531,-1225.752797,-1554.432478,10955.047942
948.924849,-2221.676944,-1924.535449,11769.274478
948.925168,-2374.896044,-1702.473667,11843.295072
948.925487,-1915.238745,-1406.391290,11695.253884
948.925806,-1302.362347,-962.267725,11177.109724
948.926125,-536.266849,-370.102971,10584.944971
948.926444,919.314598,814.226536,9548.656652
948.926763,1915.238745,2072.576638,8512.368333
948.927081,2987.772442,2368.659014,7179.997637
948.927400,3753.867940,2664.741391,6735.874072
948.927719,3830.477490,2590.720797,5921.647536
948.928038,3447.429741,2368.659014,6069.688724
948.928357,2604.724693,1332.370696,6661.853478
948.928676,1685.410096,444.123565,7846.182985
948.928995,536.266849,-444.123565,9326.594869
948.929313,-919.314598,-740.205942,10288.862594
948.929632,-1915.238745,-1406.391290,11103.089130
948.929951,-1532.190996,-1406.391290,11473.192101
948.930270,-2757.943793,-1036.288319,11473.192101
948.930589,-1991.848295,-370.102971,11103.089130
948.930908,-1532.190996,-0.000000,10732.986159
948.931227,-459.657299,444.123565,10288.862594
948.931545,689.485948,888.247130,9252.574275
948.931864,1838.629195,1776.494261,8290.306550
948.932183,2757.943793,2368.659014,7476.080014
948.932502,3294.210641,2442.679609,6587.832884
948.932821,4060.306139,2146.597232,6291.750507
948.933140,3140.991542,2146.597232,6291.750507
948.933459,2528.115143,814.226536,7254.018232
948.933777,1225.752797,222.061783,8438.347739
948.934096,-153.219100,-222.061783,9474.636058
948.934415,-766.095498,-444.123565,10584.944971
948.934734,-2221.676944,-1406.391290,11325.150913
948.935053,-2757.943793,-1480.411884,11769.274478
948.935372,-2528.115143,-1406.391290,11991.336260
948.935691,-1991.848295,-666.185348,11473.192101
948.936009,-1378.971896,-74.020594,11473.192101
948.936328,-153.219100,518.144159,10510.924376
948.936647,1072.533697,1258.350101,9400.615463
948.936966,2528.115143,1998.556043,8512.368333
948.937285,3370.820191,2590.720797,7328.038826
948.937604,3677.258390,2442.679609,6883.915261
948.937923,3753.867940,2590.720797,6513.812290
948.938241,3447.429741,1998.556043,6587.832884
948.938560,2451.505594,1110.308913,7550.100608
948.938879,1532.190996,-222.061783,8512.368333
948.939198,536.266849,-814.226536,9918.759623
948.939517,-766.095498,-1702.473667,11103.089130
948.939836,-1608.800546,-1776.494261,11399.171507
948.940155,-1991.848295,-1998.556043,11991.336260
948.940473,-1685.410096,-1776.494261,11695.253884
948.940792,-1685.410096,-666.185348,11177.109724
948.941111,-459.657299,-296.082377,10732.986159
948.941430,229.828649,296.082377,9770.718434
948.941749,1455.581446,1184.329507,8808.450710
948.942068,1991.848295,2368.659014,7698.141797
948.942387,3447.429741,2960.823768,6883.915261
948.942705,3370.820191,2960.823768,6291.750507
948.943024,3140.991542,3182.885551,5921.647536
948.943343,2451.505594,2368.659014,6661.853478
948.943662,1762.019645,1628.453072,7698.141797
948.943981,153.219100,592.164754,8512.368333
948.944300,-689.485948,-0.000000,9622.677246
948.944619,-1838.629195,-296.082377,10807.006753
948.944938,-2374.896044,-740.205942,11325.150913
948.945256,-2834.553343,-888.247130,11473.192101
948.945575,-2911.162892,-518.144159,11473.192101
948.945894,-1915.238745,222.061783,11325.150913
948.946213,-1149.143247,740.205942,10510.924376
948.946532,612.876398,1776.494261,9844.739029
948.946851,1225.752797,2146.597232,9030.512492
948.947170,2221.676944,2664.741391,7698.141797
948.947489,3294.210641,2368.659014,7105.977043
948.947808,3370.820191,2664.741391,6883.915261
948.948127,3370.820191,1924.535449,7031.956449
948.948445,2681.334243,962.267725,7328.038826
948.948764,1302.362347,-148.041188,8734.430116
948.949083,459.657299,-888.247130,10140.821405
948.949402,-459.657299,-1554.432478,10881.027347
948.949721,-995.924147,-1850.514855,11251.130318
948.950040,-1532.190996,-2146.597232,11843.295072
948.950359,-1991.848295,-1702.473667,11991.336260
948.950678,-1685.410096,-1702.473667,11769.274478
948.950997,-842.705048,-1554.432478,11473.192101
948.951316,-306.438199,-666.185348,10732.986159
948.951635,1072.533697,296.082377,9844.739029
948.951953,2298.286494,1110.308913,8882.471304
948.952272,2911.162892,1628.453072,7994.224174
948.952591,3907.087040,2220.617826,6809.894666
948.952910,3753.867940,2664.741391,6513.812290
948.953229,3294.210641,2294.638420,6365.771101
948.953548,2681.334243,1480.411884,7179.997637
948.953867,1608.800546,222.061783,7624.121203
948.954186,306.438199,-0.000000,8956.491898
948.954505,-1072.533697,-592.164754,9918.759623
948.954824,-2145.067394,-888.247130,10658.965565
948.955142,-2604.724693,-1184.329507,11251.130318
948.955461,-2604.724693,-1036.288319,11695.253884
948.955780,-2834.553343,-296.082377,11251.130318
948.956099,-1915.238745,148.041188,10732.986159
948.956418,-1072.533697,888.247130,9770.718434
948.956737,76.609550,1628.453072,8808.450710
948.957056,1072.533697,2294.638420,7550.100608
948.957375,2374.896044,2664.741391,6957.935855
948.957694,2911.162892,2738.761985,5921.647536
948.958013,2681.334243,2368.659014,5403.503377
948.958331,2681.334243,1850.514855,6143.709319
948.958650,1532.190996,814.226536,7254.018232
948.958969,536.266849,-0.000000,7772.162391
948.959288,-306.438199,-592.164754,9178.553681
948.959607,-1072.533697,-1110.308913,10140.821405
948.959926,-1838.629195,-1332.370696,11103.089130
948.960245,-2221.676944,-1628.453072,11695.253884
948.960564,-2374.896044,-1480.411884,11917.315666
948.960883,-1685.410096,-1332.370696,11991.336260
948.961202,-536.266849,-666.185348,11251.130318
948.961520,1225.752797,-370.102971,10436.903782
948.961839,2068.457845,592.164754,9548.656652
948.962158,3524.039291,1850.514855,8438.347739
948.962477,4366.744339,2368.659014,7179.997637
948.962796,4903.011187,2738.761985,6513.812290
948.963115,4979.620737,2516.700203,5921.647536
948.963434,4443.353888,2294.638420,6661.853478
948.963753,3217.601092,1110.308913,7402.059420
948.964072,2068.457845,-0.000000,8734.430116
948.964391,459.657299,-518.144159,9992.780217
948.964709,-689.485948,-1184.329507,11103.089130
948.965028,-2068.457845,-1554.432478,11621.233289
948.965347,-2451.505594,-1332.370696,11991.336260
948.965666,-2757.943793,-1110.308913,12213.398043
948.965985,-2451.505594,-74.020594,11843.295072
948.966304,-1762.019645,370.102971,11325.150913
948.966623,-842.705048,1332.370696,10288.862594
948.966942,153.219100,2072.576638,9474.636058
948.967261,1072.533697,2368.659014,8512.368333
948.967580,1991.848295,2886.803174,7550.100608
948.967898,1915.238745,2886.803174,6809.894666
948.968217,2298.286494,2442.679609,6513.812290
948.968536,1608.800546,1924.535449,6883.915261
948.968855,842.705048,962.267725,7328.038826
948.969174,0.000000,-296.082377,8808.450710
948.969493,-1149.143247,-814.226536,9844.739029
948.969812,-2145.067394,-1184.329507,10732.986159
948.970131,-3064.381992,-1480.411884,11399.171507
948.970450,-3447.429741,-1480.411884,11991.336260
948.970769,-3370.820191,-1554.432478,12361.439231
948.971087,-2681.334243,-1036.288319,11769.274478
948.971406,-1302.362347,-444.123565,11103.089130
948.971725,-612.876398,-0.000000,10362.883188
948.972044,1149.143247,1184.329507,9178.553681
948.972363,2298.286494,1628.453072,7994.224174
948.972682,3370.820191,2368.659014,7328.038826
948.973001,3907.087040,2368.659014,6439.791695
948.973320,4060.306139,2146.597232,6217.729913
948.973639,3677.258390,1258.350101,6735.874072
948.973958,2604.724693,444.123565,7846.182985
948.974276,1608.800546,-148.041188,8512.368333
948.974595,689.485948,-666.185348,9918.759623
948.974914,-536.266849,-1258.350101,10436.903782
948.975233,-1915.238745,-1924.535449,10584.944971
948.975552,-2068.457845,-1628.453072,11251.130318
948.975871,-1838.629195,-1332.370696,11621.233289
948.976190,-1532.190996,-962.267725,11029.068536
948.976509,-459.657299,-296.082377,10510.924376
948.976828,306.438199,444.123565,9622.677246
948.977147,1532.190996,1184.329507,8882.471304
948.977465,2145.067394,1258.350101,7846.182985
948.977784,3217.601092,2146.597232,6809.894666
948.978103,4366.744339,1998.556043,6735.874072
948.978422,3064.381992,2294.638420,5995.668130
948.978741,2451.505594,1184.329507,6587.832884
948.979060,1532.190996,592.164754,7476.080014
948.979379,383.047749,-370.102971,8586.388927
948.979698,-1149.143247,-1036.288319,9696.697840
948.980017,-1991.848295,-1258.350101,10658.965565
948.980336,-2987.772442,-1406.391290,11029.068536
948.980654,-3447.429741,-1406.391290,11473.192101
948.980973,-3294.210641,-1480.411884,11769.274478
948.981292,-2911.162892,-962.267725,11399.171507
948.981611,-1915.238745,-296.082377,10732.986159
948.981930,-842.705048,444.123565,10066.800811
948.982249,383.047749,1258.350101,9252.574275
948.982568,1685.410096,2146.597232,8290.306550
948.982887,2451.505594,2368.659014,7698.141797
948.983206,3217.601092,2738.761985,6809.894666
948.983525,2911.162892,2368.659014,6513.812290
948.983843,2451.505594,1776.494261,7031.956449
948.984162,1455.581446,888.247130,7772.162391
948.984481,1072.533697,-74.020594,8956.491898
948.984800,0.000000,-888.247130,9844.739029
948.985119,-1149.143247,-1258.350101,10658.965565
948.985438,-995.924147,-1628.453072,11621.233289
948.985757,-1762.019645,-1628.453072,11843.295072
948.986076,-1762.019645,-1036.288319,11769.274478
948.986395,-1072.533697,-740.205942,11325.150913
948.986714,-306.438199,148.041188,11177.109724
948.987032,766.095498,592.164754,10140.821405
948.987351,1915.238745,1480.411884,8956.491898
948.987670,3294.210641,2220.617826,8364.327145
948.987989,3907.087040,2146.597232,7624.121203
948.988308,4060.306139,2368.659014,6809.894666
948.988627,3524.039291,1998.556043,6661.853478
948.988946,3140.991542,1332.370696,7550.100608
948.989265,1991.848295,74.020594,7846.182985
948.989584,995.924147,-444.123565,9252.574275
948.989903,-229.828649,-1036.288319,10140.821405
948.990221,-1149.143247,-1332.370696,11251.130318
948.990540,-2068.457845,-1628.453072,11473.192101
948.990859,-2298.286494,-1332.370696,11769.274478
948.991178,-2374.896044,-962.267725,11547.212695
948.991497,-1532.190996,-518.144159,11399.171507
948.991816,-536.266849,148.041188,10584.944971
948.992135,383.047749,962.267725,9548.656652
948.992454,1685.410096,1702.473667,8438.347739
948.992773,2374.896044,2368.659014,7624.121203
948.993092,2834.553343,2368.659014,6365.771101
948.993410,3140.991542,2442.679609,5329.482782
948.993729,2451.505594,2294.638420,6143.709319
948.994048,2298.286494,1110.308913,7031.956449
948.994367,689.485948,296.082377,7846.182985
948.994686,-689.485948,148.041188,9326.594869
948.995005,-1608.800546,-814.226536,9770.718434
948.995324,-2451.505594,-1110.308913,10807.006753
948.995643,-3064.381992,-1332.370696,11547.212695
948.995962,-3294.210641,-1332.370696,11843.295072
948.996281,-3140.991542,-962.267725,11621.233289
948.996599,-1838.629195,-444.123565,11325.150913
948.996918,-153.219100,370.102971,10214.842000
948.997237,459.657299,666.185348,9474.636058
948.997556,2374.896044,1184.329507,8216.285956
948.997875,2834.553343,2146.597232,7550.100608
948.998194,3907.087040,2516.700203,6143.709319
948.998513,4213.525239,2738.761985,5773.606348
948.998832,3830.477490,1776.494261,6587.832884
948.999151,3140.991542,814.226536,7105.977043
948.999470,1991.848295,-444.123565,8142.265362
948.999788,689.485948,-1628.453072,9992.780217
949.000107,-306.438199,-1998.556043,10584.944971
949.000426,-1149.143247,-2294.638420,11325.150913
949.000745,-2068.457845,-2442.679609,12213.398043
949.001064,-1608.800546,-1776.494261,12509.480420
949.001383,-919.314598,-1110.308913,11917.315666
949.001702,-689.485948,-518.144159,11325.150913
949.002021,842.705048,-74.020594,10807.006753
949.002340,1532.190996,962.267725,9474.636058
949.002659,2451.505594,1554.432478,7846.182985
949.002977,3217.601092,2220.617826,7550.100608
949.003296,3677.258390,2368.659014,6365.771101
949.003615,3907.087040,2220.617826,6069.688724
949.003934,2987.772442,1332.370696,7031.956449
949.004253,842.705048,1110.308913,6809.894666
949.004572,536.266849,-0.000000,9178.553681
949.004891,-1149.143247,-444.123565,9474.636058
949.005210,-2068.457845,-962.267725,10732.986159
949.005529,-2834.553343,-2072.576638,11473.192101
949.005848,-4596.572988,296.082377,11325.150913
949.006167,-3217.601092,-444.123565,12139.377449
949.006485,-3064.381992,222.061783,9918.759623
949.006804,-2374.896044,-888.247130,12287.418637
949.007123,-1149.143247,-148.041188,11103.089130
949.007442,76.609550,2072.576638,8734.430116
949.007761,1838.629195,2590.720797,7624.121203
949.008080,3370.820191,2072.576638,7772.162391
949.008399,3140.991542,3182.885551,5551.544565
949.008718,3294.210641,2294.638420,5847.626942
949.009037,2757.943793,1702.473667,6291.750507
949.009356,2068.457845,814.226536,7328.038826
949.009674,1762.019645,-222.061783,8142.265362
949.009993,0.000000,-814.226536,9696.697840
949.010312,-1225.752797,-2146.597232,11029.068536
949.010631,-1762.019645,-2960.823768,11843.295072
949.010950,-1685.410096,-2886.803174,12805.562797
949.011269,-1302.362347,-1258.350101,11991.336260
949.011588,-766.095498,-222.061783,11029.068536
949.011907,0.000000,-0.000000,11399.171507
949.012226,1991.848295,444.123565,10066.800811
949.012545,3753.867940,1480.411884,8364.327145
949.012863,4366.744339,2442.679609,7550.100608
949.013182,4903.011187,2664.741391,6513.812290
949.013501,4826.401637,2516.700203,6365.771101
949.013820,4596.572988,2220.617826,6217.729913
949.014139,3753.867940,1776.494261,6661.853478
949.014458,2221.676944,740.205942,7698.141797
949.014777,766.095498,-74.020594,8586.388927
949.015096,-536.266849,-814.226536,10288.862594
949.015415,-1991.848295,-888.247130,11251.130318
949.015734,-3064.381992,-1332.370696,11547.212695
949.016052,-3677.258390,-1184.329507,11991.336260
949.016371,-3447.429741,-740.205942,11843.295072
949.016690,-2911.162892,-444.123565,11917.315666
949.017009,-2068.457845,-0.000000,11103.089130
949.017328,-766.095498,814.226536,9622.677246
949.017647,689.485948,2146.597232,8734.430116
949.017966,2145.067394,2960.823768,7254.018232
949.018285,2451.505594,3108.864956,6365.771101
949.018604,3447.429741,3034.844362,5847.626942
949.018923,2911.162892,2738.761985,5625.565159
949.019241,2221.676944,1850.514855,5995.668130
949.019560,1225.752797,666.185348,7698.141797
949.019879,-306.438199,-666.185348,9252.574275
949.020198,-2145.067394,-1406.391290,10214.842000
949.020517,-2834.553343,-1776.494261,11399.171507
949.020836,-3140.991542,-1924.535449,11843.295072
949.021155,-3524.039291,-1628.453072,12213.398043
949.021474,-3217.601092,-1480.411884,12731.542202
949.021793,-1991.848295,-888.247130,12213.398043
949.022112,-612.876398,-296.082377,11325.150913
949.022430,995.924147,962.267725,10140.821405
949.022749,2374.896044,1406.391290,9178.553681
949.023068,4366.744339,1554.432478,7772.162391
949.023387,4903.011187,2516.700203,6513.812290
949.023706,5362.668486,2590.720797,5921.647536
949.024025,5132.839837,2442.679609,5699.585753
949.024344,4366.744339,1332.370696,6439.791695
949.024663,3064.381992,-0.000000,7994.224174
949.024982,1532.190996,-962.267725,9104.533087
949.025301,0.000000,-1554.432478,10510.924376
949.025619,-995.924147,-1480.411884,11251.130318
949.025938,-1991.848295,-1628.453072,11695.253884
949.026257,-2221.676944,-1924.535449,12361.439231
949.026576,-2451.505594,-1258.350101,12065.356855
949.026895,-1455.581446,-740.205942,11325.150913
949.027214,-306.438199,666.185348,10510.924376
949.027533,1532.190996,1036.288319,9326.594869
949.027852,2221.676944,2368.659014,8068.244768
949.028171,2911.162892,2738.761985,7476.080014
949.028490,3447.429741,3478.967927,6069.688724
949.028808,3677.258390,3404.947333,5551.544565
949.029127,3370.820191,2442.679609,5847.626942
949.029446,1915.238745,2072.576638,6809.894666
949.029765,919.314598,444.123565,7624.121203
949.030084,-1072.533697,-592.164754,8808.450710
949.030403,-2145.067394,-1776.494261,11251.130318
949.030722,-3140.991542,-1554.432478,10881.027347
949.031041,-4060.306139,-1406.391290,11621.233289
949.031360,-3983.696590,-1554.432478,12509.480420
949.031679,-3294.210641,-1184.329507,11917.315666
949.031997,-2757.943793,-148.041188,11843.295072
949.032316,-1532.190996,-0.000000,10881.027347
949.032635,0.000000,1332.370696,9474.636058
949.032954,1762.019645,2146.597232,8068.244768
949.033273,3217.601092,2442.679609,7105.977043
949.033592,3677.258390,2738.761985,6217.729913
949.033911,4213.525239,2294.638420,5625.565159
949.034230,3753.867940,1850.514855,6439.791695
949.034549,2911.162892,888.247130,7105.977043
949.034868,2145.067394,296.082377,7994.224174
949.035186,766.095498,-444.123565,9252.574275
949.035505,-612.876398,-1480.411884,10510.924376
949.035824,-1532.190996,-1702.473667,11103.089130
949.036143,-2451.505594,-1702.473667,11843.295072
949.036462,-2681.334243,-1850.514855,12213.398043
949.036781,-1991.848295,-1110.308913,11843.295072
949.037100,-1302.362347,-444.123565,11695.253884
949.037419,-153.219100,370.102971,10955.047942
949.037738,1149.143247,1036.288319,9770.718434
949.038057,2145.067394,2072.576638,8956.491898
949.038375,3600.648841,2886.803174,7476.080014
949.038694,4596.572988,3404.947333,6365.771101
949.039013,4443.353888,3478.967927,5847.626942
949.039332,3753.867940,2738.761985,6291.750507
949.039651,3217.601092,1036.288319,6735.874072
949.039970,1455.581446,444.123565,8216.285956
949.040289,0.000000,-592.164754,9474.636058
949.040608,-1455.581446,-1258.350101,10732.986159
949.040927,-2451.505594,-1776.494261,11843.295072
949.041246,-3064.381992,-1850.514855,12583.501014
949.041564,-2987.772442,-1184.329507,12213.398043
949.041883,-2528.115143,-666.185348,11917.315666
949.042202,-1685.410096,-0.000000,11547.212695
949.042521,-536.266849,592.164754,10214.842000
949.042840,689.485948,1184.329507,9474.636058
949.043159,1915.238745,2220.617826,8438.347739
949.043478,2911.162892,2590.720797,6661.853478
949.043797,3294.210641,2960.823768,5921.647536
949.044116,3294.210641,2664.741391,5847.626942
949.044435,2528.115143,2220.617826,6513.812290
949.044753,1455.581446,1258.350101,7179.997637
949.045072,612.876398,222.061783,8586.388927
949.045391,-383.047749,-444.123565,9992.780217
949.045710,-1608.800546,-1406.391290,10732.986159
949.046029,-2451.505594,-1406.391290,11843.295072
949.046348,-2757.943793,-1776.494261,12287.418637
949.046667,-3064.381992,-1110.308913,12065.356855
949.046986,-1762.019645,-1036.288319,11695.253884
949.047305,-1225.752797,518.144159,10584.944971
949.047623,306.438199,962.267725,9844.739029
949.047942,1455.581446,1480.411884,7846.182985
949.048261,2681.334243,1480.411884,7846.182985
949.048580,3983.696590,1554.432478,7105.977043
949.048899,4519.963438,2072.576638,6217.729913
949.049218,4290.134789,1850.514855,6143.709319
949.049537,3907.087040,962.267725,7254.018232
949.049855,2604.724693,1036.288319,7846.182985
949.050174,1991.848295,-74.020594,8290.306550
949.050493,306.438199,-888.247130,9474.636058
949.050812,-919.314598,-1036.288319,10436.903782
949.051131,-1685.410096,-1406.391290,11325.150913
949.051450,-2528.115143,-1184.329507,10881.027347
949.051769,-2374.896044,-1480.411884,12287.418637
949.052087,-1455.581446,-1850.514855,12065.356855
949.052406,-995.924147,-814.226536,11917.315666
949.052725,383.047749,-222.061783,10658.965565
949.053044,1455.581446,1184.329507,9178.553681
949.053363,2681.334243,1702.473667,8364.327145
949.053682,3600.648841,2368.659014,6809.894666
949.054001,2911.162892,2738.761985,5477.523971
949.054320,2911.162892,2368.659014,5773.606348
949.054638,2068.457845,1480.411884,6439.791695
949.054957,689.485948,148.041188,7031.956449
949.055276,-459.657299,-888.247130,8734.430116
949.055595,-2528.115143,-1480.411884,10214.842000
949.055914,-3294.210641,-2220.617826,11547.212695
949.056233,-3600.648841,-2664.741391,11991.336260
949.056552,-4060.306139,-1628.453072,12139.377449
949.056870,-3753.867940,-666.185348,12139.377449
949.057189,-2911.162892,-0.000000,10955.047942
949.057508,-1608.800546,518.144159,10732.986159
949.057827,0.000000,1332.370696,9474.636058
949.058146,766.095498,1998.556043,8586.388927
949.058465,2145.067394,2442.679609,7550.100608
949.058784,3064.381992,2590.720797,6587.832884
949.059103,3753.867940,2960.823768,6217.729913
949.059421,3524.039291,2664.741391,5921.647536
949.059740,3217.601092,1850.514855,6365.771101
949.060059,2221.676944,592.164754,7550.100608
949.060378,1455.581446,-740.205942,8956.491898
949.060697,459.657299,-1554.432478,10510.924376
949.061016,-919.314598,-1998.556043,11177.109724
949.061335,-1455.581446,-2146.597232,11917.315666
949.061653,-1838.629195,-1258.350101,12213.398043
949.061972,-1225.752797,-1110.308913,11769.274478
949.062291,0.000000,-444.123565,11399.171507
949.062610,689.485948,370.102971,10510.924376
949.062929,1991.848295,1332.370696,9474.636058
949.063248,3370.820191,1924.535449,8290.306550
949.063567,4749.792088,2368.659014,7105.977043
949.063886,4673.182538,2442.679609,6439.791695
949.064204,4213.525239,2368.659014,6513.812290
949.064523,3753.867940,1554.432478,6365.771101
949.064842,2604.724693,814.226536,7105.977043
949.065161,1302.362347,-0.000000,8512.368333
949.065480,-153.219100,-592.164754,9474.636058
949.065799,-1608.800546,-1258.350101,10214.842000
949.066118,-2911.162892,-1184.329507,11325.150913
949.066436,-3983.696590,-1332.370696,11769.274478
949.066755,-4060.306139,-1184.329507,11917.315666
949.067074,-3677.258390,-814.226536,11695.253884
949.067393,-3447.429741,-0.000000,11695.253884
949.067712,-2298.286494,222.061783,10807.006753
949.068031,-1225.752797,962.267725,9992.780217
949.068350,612.876398,1628.453072,8956.491898
949.068668,1455.581446,2442.679609,7624.121203
949.068987,2451.505594,2960.823768,6661.853478
949.069306,2757.943793,2590.720797,5699.585753
949.069625,2451.505594,2516.700203,5921.647536
949.069944,2145.067394,1554.432478,7031.956449
949.070263,1072.533697,444.123565,7846.182985
949.070582,-306.438199,-666.185348,9474.636058
949.070901,-919.314598,-1924.535449,10807.006753
949.071219,-1762.019645,-2442.679609,11843.295072
949.071538,-2145.067394,-2442.679609,12361.439231
949.071857,-2145.067394,-2368.659014,12435.459826
949.072176,-1302.362347,-1924.535449,12213.398043
949.072495,0.000000,-1258.350101,11547.212695
949.072814,1225.752797,-0.000000,10881.027347
949.073133,2757.943793,666.185348,9474.636058
949.073451,4519.963438,2220.617826,7920.203579
949.073770,5362.668486,2368.659014,6957.935855
949.074089,5745.716235,2590.720797,6143.709319
949.074408,5439.278036,2368.659014,6143.709319
949.074727,4673.182538,1480.411884,6069.688724
949.075046,3370.820191,518.144159,7105.977043
949.075365,1991.848295,-740.205942,8068.244768
949.075684,383.047749,-1406.391290,9474.636058
949.076002,-1532.190996,-2072.576638,10140.821405
949.076321,-2451.505594,-1924.535449,11695.253884
949.076640,-3600.648841,-2220.617826,12139.377449
949.076959,-3830.477490,-1406.391290,11843.295072
949.077278,-3753.867940,-1184.329507,11843.295072
949.077597,-3064.381992,-296.082377,10955.047942
949.077916,-2221.676944,296.082377,9548.656652
949.078234,-612.876398,1110.308913,8882.471304
949.078553,459.657299,2294.638420,7624.121203
949.078872,1378.971896,2590.720797,6439.791695
949.079191,2604.724693,3108.864956,5329.482782
949.079510,2451.505594,2664.741391,5551.544565
949.079829,2374.896044,2146.597232,5625.565159
949.080148,1455.581446,1332.370696,6439.791695
949.080467,76.609550,740.205942,7846.182985
949.080785,-842.705048,-0.000000,8660.409521
949.081104,-1838.629195,-444.123565,9918.759623
949.081423,-2757.943793,-814.226536,10510.924376
949.081742,-3140.991542,-1184.329507,11621.233289
949.082061,-3064.381992,-1036.288319,12435.459826
949.082380,-2221.676944,-518.144159,11843.295072
949.082699,-1225.752797,-0.000000,11695.253884
949.083017,383.047749,962.267725,10807.006753
949.083336,2451.505594,1628.453072,9696.697840
949.083655,3753.867940,2294.638420,8734.430116
949.083974,5132.839837,2590.720797,7402.059420
949.084293,5975.544884,2146.597232,6291.750507
949.084612,5822.325785,1850.514855,5921.647536
949.084931,5439.278036,1184.329507,6587.832884
949.085249,4519.963438,296.082377,7179.997637
949.085568,2911.162892,-1036.288319,8586.388927
949.085887,1225.752797,-1702.473667,9918.759623
949.086206,0.000000,-2294.638420,10955.047942
949.086525,-1762.019645,-2664.741391,12287.418637
949.086844,-2374.896044,-2738.761985,12879.583391
949.087163,-2451.505594,-2442.679609,13027.624579
949.087482,-2604.724693,-1554.432478,12583.501014
949.087800,-1838.629195,-962.267725,12287.418637
949.088119,-612.876398,-0.000000,11325.150913
949.088438,306.438199,1406.391290,9844.739029
949.088757,1762.019645,2368.659014,8660.409521
949.089076,2528.115143,2812.782580,7328.038826
949.089395,2681.334243,2738.761985,6513.812290
949.089714,2298.286494,2886.803174,6143.709319
949.090032,1991.848295,2442.679609,6513.812290
949.090351,1072.533697,1184.329507,7254.018232
949.090670,-229.828649,444.123565,8438.347739
949.090989,-1532.190996,-518.144159,9548.656652
949.091308,-2681.334243,-1110.308913,10732.986159
949.091627,-3677.258390,-1406.391290,11473.192101
949.091946,-3677.258390,-1184.329507,11843.295072
949.092265,-3677.258390,-740.205942,11695.253884
949.092583,-2451.505594,-0.000000,11251.130318
949.092902,-1762.019645,666.185348,10436.903782
949.093221,0.000000,1850.514855,9178.553681
949.093540,1532.190996,2368.659014,8068.244768
949.093859,3370.820191,2886.803174,6735.874072
949.094178,3907.087040,2886.803174,6217.729913
949.094497,4673.182538,2812.782580,5625.565159
949.094815,4519.963438,2368.659014,5699.585753
949.095134,4366.744339,1258.350101,6365.771101
949.095453,3064.381992,518.144159,7550.100608
949.095772,1991.848295,-222.061783,8586.388927
949.096091,689.485948,-1332.370696,9992.780217
949.096410,-383.047749,-1850.514855,11029.068536
949.096729,-1225.752797,-2146.597232,11621.233289
949.097048,-1532.190996,-2220.617826,12065.356855
949.097366,-1608.800546,-1554.432478,11769.274478
949.097685,-536.266849,-814.226536,11251.130318
949.098004,612.876398,-592.164754,10510.924376
949.098323,2451.505594,666.185348,10214.842000
949.098642,3064.381992,1184.329507,8956.491898
949.098961,4366.744339,1628.453072,7254.018232
949.099280,4903.011187,2368.659014,6439.791695
949.099598,4903.011187,2146.597232,5921.647536
949.099917,4826.401637,1850.514855,6069.688724
949.100236,2911.162892,1554.432478,6809.894666
949.100555,1378.971896,-0.000000,8364.327145
949.100874,153.219100,-518.144159,9622.677246
949.101193,-1608.800546,-1036.288319,10362.883188
949.101512,-2987.772442,-2072.576638,11621.233289
949.101830,-3600.648841,-1850.514855,12435.459826
949.102149,-3677.258390,-1554.432478,12731.542202
949.102468,-3600.648841,-1110.308913,12139.377449
949.102787,-2911.162892,-222.061783,11769.274478
949.103106,-1915.238745,740.205942,11177.109724
949.103425,-459.657299,1480.411884,9548.656652
949.103744,1225.752797,1998.556043,8290.306550
949.104063,2145.067394,2590.720797,7179.997637
949.104381,2987.772442,2812.782580,5995.668130
949.104700,3064.381992,2516.700203,5699.585753
949.105019,2681.334243,2072.576638,5921.647536
949.105338,1991.848295,518.144159,6957.935855
949.105657,459.657299,-0.000000,8142.265362
949.105976,-612.876398,-888.247130,9400.615463
949.106295,-1915.238745,-1332.370696,10807.006753
949.106613,-2987.772442,-1554.432478,11621.233289
949.106932,-3600.648841,-2072.576638,12509.480420
949.107251,-3753.867940,-1480.411884,12731.542202
949.107570,-2911.162892,-1036.288319,12509.480420
949.107889,-1685.410096,-962.267725,11843.295072
949.108208,-153.219100,-74.020594,10955.047942
949.108527,1532.190996,1184.329507,9474.636058
949.108846,3140.991542,1998.556043,7846.182985
949.109164,4826.401637,2590.720797,7105.977043
949.109483,5745.716235,2960.823768,6069.688724
949.109802,5898.935335,3108.864956,5033.400406
949.110121,5209.449386,2442.679609,5107.421000
949.110440,4519.963438,962.267725,6735.874072
949.110759,2681.334243,148.041188,7772.162391
949.111078,1149.143247,-814.226536,8882.471304
949.111396,-229.828649,-1554.432478,10807.006753
949.111715,-1302.362347,-1998.556043,11917.315666
949.112034,-2374.896044,-1702.473667,12287.418637
949.112353,-2451.505594,-1110.308913,12287.418637
949.112672,-1762.019645,-296.082377,11991.336260
949.112991,-842.705048,296.082377,11177.109724
949.113310,459.657299,1702.473667,9918.759623
949.113629,1838.629195,2368.659014,8586.388927
949.113947,2834.553343,3034.844362,7402.059420
949.114266,3830.477490,3478.967927,6439.791695
949.114585,4596.572988,3404.947333,5403.503377
949.114904,4060.306139,2442.679609,5181.441594
949.115223,2834.553343,1702.473667,6069.688724
949.115542,1608.800546,888.247130,7105.977043
949.115861,0.000000,-222.061783,8068.244768
949.116179,-2298.286494,-666.185348,9696.697840
949.116498,-3140.991542,-1406.391290,11177.109724
949.116817,-4673.182538,-1406.391290,11843.295072
949.117136,-5362.668486,-1628.453072,12065.356855
949.117455,-5362.668486,-1554.432478,12657.521608
949.117774,-4596.572988,-814.226536,12509.480420
949.118093,-3294.210641,-74.020594,11917.315666
949.118412,-2145.067394,370.102971,10807.006753
949.118730,-459.657299,1110.308913,9770.718434
949.119049,1532.190996,2072.576638,8290.306550
949.119368,3140.991542,2442.679609,7105.977043
949.119687,3830.477490,2886.803174,6143.709319
949.120006,3753.867940,2812.782580,5773.606348
949.120325,3524.039291,1998.556043,6291.750507
949.120644,2757.943793,518.144159,7328.038826
949.120962,1302.362347,-888.247130,8956.491898
949.121281,76.609550,-1480.411884,10214.842000
949.121600,-536.266849,-2146.597232,11103.089130
949.121919,-1991.848295,-2368.659014,11991.336260
949.122238,-1762.019645,-2294.638420,13249.686362
949.122557,-1378.971896,-1702.473667,12879.583391
949.122876,-536.266849,-740.205942,11917.315666
949.123194,612.876398,-444.123565,11251.130318
949.123513,1991.848295,962.267725,9770.718434
949.123832,3524.039291,2146.597232,8438.347739
949.124151,4673.182538,2516.700203,7031.956449
949.124470,5669.106685,3182.885551,5773.606348
949.124789,5592.497135,2812.782580,5403.503377
949.125108,4979.620737,2664.741391,5477.523971
949.125427,3753.867940,1702.473667,6809.894666
949.125745,2374.896044,592.164754,7550.100608
949.126064,689.485948,-74.020594,8956.491898
949.126383,-1149.143247,-592.164754,9992.780217
949.126702,-3064.381992,-1110.308913,10584.944971
949.127021,-4136.915689,-1850.514855,11621.233289
949.127340,-4903.011187,-1702.473667,12139.377449
949.127659,-4826.401637,-1480.411884,12435.459826
949.127977,-4060.306139,-1036.288319,11991.336260
949.128296,-3294.210641,-74.020594,11399.171507
949.128615,-919.314598,1036.288319,10140.821405
949.128934,76.609550,2220.617826,8290.306550
949.129253,1762.019645,3034.844362,7031.956449
949.129572,2604.724693,3775.050304,5847.626942
949.129891,3370.820191,3997.112087,5033.400406
949.130210,2681.334243,2516.700203,5329.482782
949.130528,2068.457845,1702.473667,5995.668130
949.130847,1072.533697,370.102971,7698.141797
949.131166,-459.657299,-814.226536,9178.553681
949.131485,-1762.019645,-1702.473667,10881.027347
949.131804,-2834.553343,-2294.638420,11547.212695
949.132123,-3600.648841,-1776.494261,12509.480420
949.132442,-3447.429741,-1850.514855,13101.645173
949.132760,-2911.162892,-814.226536,12213.398043
949.133079,-1838.629195,-740.205942,11917.315666
949.133398,-689.485948,1184.329507,10214.842000
949.133717,1685.410096,1332.370696,9326.594869
949.134036,3064.381992,1850.514855,8142.265362
949.134355,4443.353888,1998.556043,7994.224174
949.134674,5056.230287,2368.659014,6809.894666
949.134993,5439.278036,2812.782580,5551.544565
949.135311,5056.230287,2294.638420,5773.606348
949.135630,4366.744339,888.247130,7179.997637
949.135949,2987.772442,-444.123565,7994.224174
949.136268,1302.362347,-1036.288319,9474.636058
949.136587,-306.438199,-1628.453072,10140.821405
949.136906,-1838.629195,-2072.576638,11843.295072
949.137225,-2298.286494,-2664.741391,13249.686362
949.137543,-3064.381992,-1480.411884,12287.418637
949.137862,-2987.772442,-1850.514855,13027.624579
949.138181,-2451.505594,-1554.432478,12213.398043
949.138500,-995.924147,-222.061783,11621.233289
949.138819,383.047749,1036.288319,9474.636058
949.139138,1838.629195,1998.556043,8586.388927
949.139457,2451.505594,2442.679609,7402.059420
949.139775,3753.867940,2812.782580,5773.606348
949.140094,3600.648841,2442.679609,5329.482782
949.140413,2681.334243,1998.556043,5921.647536
949.140732,1685.410096,814.226536,6513.812290
949.141051,229.828649,-518.144159,8290.306550
949.141370,-1302.362347,-1036.288319,9548.656652
949.141689,-2681.334243,-1480.411884,10436.903782
949.142008,-4060.306139,-2072.576638,11843.295072
949.142326,-4290.134789,-1850.514855,12065.356855
949.142645,-3907.087040,-1110.308913,11843.295072
949.142964,-3370.820191,-296.082377,11399.171507
949.143283,-2298.286494,296.082377,10807.006753
949.143602,0.000000,740.205942,9844.739029
949.143921,1072.533697,1998.556043,8438.347739
949.144240,2911.162892,2812.782580,7254.018232
949.144558,4290.134789,3034.844362,5921.647536
949.144877,4673.182538,2886.803174,4811.338623
949.145196,5362.668486,3256.906145,4811.338623
949.145515,4749.792088,2368.659014,5847.626942
949.145834,3370.820191,1332.370696,6587.832884
949.146153,2374.896044,370.102971,8290.306550
949.146472,995.924147,-370.102971,9474.636058
949.146791,-383.047749,-962.267725,10214.842000
949.147110,-1072.533697,-1702.473667,10955.047942
949.147429,-2068.457845,-2146.597232,11991.336260
949.147747,-2145.067394,-1998.556043,12435.459826
949.148066,-2068.457845,-1258.350101,11991.336260
949.148385,-766.095498,-444.123565,11695.253884
949.148704,612.876398,222.061783,10881.027347
949.149023,1762.019645,1258.350101,9548.656652
949.149342,2757.943793,1924.535449,8216.285956
949.149661,3907.087040,2738.761985,6883.915261
949.149980,3677.258390,2590.720797,6291.750507
949.150299,3677.258390,2516.700203,6291.750507
949.150618,2987.772442,1480.411884,7105.977043
949.150936,1532.190996,-222.061783,8142.265362
949.151255,0.000000,-1258.350101,9770.718434
949.151574,-1685.410096,-1924.535449,10955.047942
949.151893,-2911.162892,-2220.617826,11991.336260
949.152212,-4060.306139,-2220.617826,12879.583391
949.152531,-4366.744339,-1554.432478,13027.624579
949.152850,-4366.744339,-1110.308913,12731.542202
949.153169,-3447.429741,-370.102971,11991.336260
949.153488,-2145.067394,-0.000000,11251.130318
949.153807,-536.266849,444.123565,10214.842000
949.154125,842.705048,1184.329507,9104.533087
949.154444,2221.676944,2146.597232,7476.080014
949.154763,3064.381992,2664.741391,6365.771101
949.155082,3907.087040,2886.803174,5995.668130
949.155401,4596.572988,2664.741391,5773.606348
949.155720,3294.210641,1924.535449,6143.709319
949.156039,2221.676944,1036.288319,6957.935855
949.156358,766.095498,296.082377,8734.430116
949.156677,-689.485948,-592.164754,9474.636058
949.156995,-1378.971896,-1702.473667,10955.047942
949.157314,-2451.505594,-1850.514855,11695.253884
949.157633,-2528.115143,-2146.597232,12583.501014
949.157952,-1991.848295,-1480.411884,11991.336260
949.158271,-1302.362347,-148.041188,10955.047942
949.158590,229.828649,518.144159,9770.718434
949.158909,1991.848295,1184.329507,8364.327145
949.159228,3064.381992,1110.308913,8512.368333
949.159547,4443.353888,1332.370696,7179.997637
949.159866,4903.011187,2812.782580,6069.688724
949.160184,5286.058936,2294.638420,6069.688724
949.160503,4749.792088,2368.659014,5403.503377
949.160822,3524.039291,814.226536,6809.894666
949.161141,2145.067394,-592.164754,7698.141797
949.161460,383.047749,-1554.432478,9400.615463
949.161779,-1072.533697,-1628.453072,10214.842000
949.162098,-2068.457845,-1850.514855,11399.171507
949.162417,-2911.162892,-1406.391290,11917.315666
949.162736,-3140.991542,-1702.473667,12361.439231
949.163055,-2681.334243,-2072.576638,12287.418637
949.163373,-2298.286494,-1110.308913,11843.295072
949.163692,-1072.533697,-370.102971,10658.965565
949.164011,0.000000,814.226536,9844.739029
949.164330,1532.190996,2146.597232,8438.347739
949.164649,2528.115143,2442.679609,6957.935855
949.164968,2987.772442,2960.823768,5921.647536
949.165287,3370.820191,2886.803174,5255.462188
949.165606,2757.943793,2294.638420,5551.544565
949.165925,1302.362347,1480.411884,6957.935855
949.166244,229.828649,666.185348,8142.265362
949.166562,-1225.752797,-444.123565,9622.677246
949.166881,-2528.115143,-888.247130,10881.027347
949.167200,-3217.601092,-1554.432478,11769.274478
949.167519,-3600.648841,-1776.494261,12139.377449
949.167838,-3753.867940,-1184.329507,12213.398043
949.168157,-2911.162892,-814.226536,11843.295072
949.168476,-1838.629195,-148.041188,11399.171507
949.168795,-766.095498,370.102971,10436.903782
949.169114,1378.971896,1480.411884,9474.636058
949.169433,2987.772442,2590.720797,8142.265362
949.169751,4290.134789,3404.947333,6439.791695
949.170070,5209.449386,3182.885551,5699.585753
949.170389,5669.106685,2886.803174,5921.647536
949.170708,4443.353888,1776.494261,6365.771101
949.171027,3447.429741,592.164754,7402.059420
949.171346,2298.286494,-518.144159,8956.491898
949.171665,612.876398,-1480.411884,10362.883188
949.171984,-459.657299,-1776.494261,11325.150913
949.172303,-1608.800546,-2368.659014,12213.398043
949.172621,-1915.238745,-1924.535449,12435.459826
949.172940,-2068.457845,-1702.473667,12583.501014
949.173259,-1608.800546,-814.226536,12139.377449
949.173578,-766.095498,-74.020594,11621.233289
949.173897,612.876398,814.226536,10066.800811
949.174216,1915.238745,1554.432478,8882.471304
949.174535,3140.991542,2738.761985,7698.141797
949.174854,3753.867940,2590.720797,6513.812290
949.175173,4136.915689,2960.823768,6143.709319
949.175492,4060.306139,2960.823768,5995.668130
949.175810,2528.115143,1924.535449,6143.709319
949.176129,1149.143247,1110.308913,7031.956449
949.176448,153.219100,-74.020594,8364.327145
949.176767,-1532.190996,-222.061783,9400.615463
949.177086,-3140.991542,-962.267725,10510.924376
949.177405,-4213.525239,-1332.370696,11843.295072
949.177724,-4826.401637,-962.267725,11843.295072
949.178043,-3983.696590,-814.226536,12139.377449
949.178362,-3753.867940,-814.226536,11843.295072
949.178681,-2834.553343,-370.102971,11769.274478
949.178999,-766.095498,444.123565,10288.862594
949.179318,766.095498,1998.556043,8586.388927
949.179637,2451.505594,2590.720797,7772.162391
949.179956,3983.696590,3108.864956,6143.709319
949.180275,4136.915689,3034.844362,5477.523971
949.180594,4443.353888,2146.597232,5847.626942
949.180913,3447.429741,1110.308913,6513.812290
949.181232,2834.553343,222.061783,7402.059420
949.181551,1762.019645,-1184.329507,8882.471304
949.181870,153.219100,-1480.411884,10140.821405
949.182188,-459.657299,-2368.659014,11695.253884
949.182507,-1225.752797,-2886.803174,11843.295072
949.182826,-1762.019645,-2664.741391,12731.542202
949.183145,-1378.971896,-1850.514855,11991.336260
949.183464,-536.266849,-814.226536,11843.295072
949.183783,536.266849,-0.000000,11325.150913
949.184102,1838.629195,592.164754,9770.718434
949.184421,3064.381992,1406.391290,8882.471304
949.184740,4136.915689,1924.535449,7476.080014
949.185059,4749.792088,2516.700203,6735.874072
949.185377,4979.620737,2738.761985,5847.626942
949.185696,4366.744339,2146.597232,6069.688724
949.186015,3524.039291,1702.473667,6587.832884
949.186334,1762.019645,518.144159,7624.121203
949.186653,306.438199,-444.123565,8956.491898
949.186972,-1302.362347,-962.267725,9992.780217
949.187291,-2374.896044,-962.267725,10658.965565
949.187610,-3830.477490,-1184.329507,11621.233289
949.187929,-4213.525239,-1184.329507,11843.295072
949.188247,-4290.134789,-888.247130,11843.295072
949.188566,-3370.820191,-222.061783,11547.212695
949.188885,-2681.334243,518.144159,10436.903782
949.189204,-1225.752797,1480.411884,9696.697840
949.189523,229.828649,2516.700203,8290.306550
949.189842,1378.971896,3182.885551,6883.915261
949.190161,2298.286494,3256.906145,6143.709319
949.190480,2757.943793,3108.864956,6069.688724
949.190799,2374.896044,2368.659014,5847.626942
949.191118,2145.067394,1110.308913,6735.874072
949.191436,919.314598,-0.000000,8512.368333
949.191755,0.000000,-592.164754,9696.697840
949.192074,-1149.143247,-1480.411884,10362.883188
949.192393,-1915.238745,-1554.432478,11547.212695
949.192712,-1915.238745,-1554.432478,11917.315666
949.193031,-1762.019645,-1406.391290,11843.295072
949.193350,-1302.362347,-888.247130,11843.295072
949.193669,-306.438199,-740.205942,11177.109724
949.193988,766.095498,-0.000000,10436.903782
949.194307,2451.505594,296.082377,9326.594869
949.194625,3907.087040,1184.329507,8586.388927
949.194944,4903.011187,1924.535449,7328.038826
949.195263,5592.497135,2442.679609,6661.853478
949.195582,5592.497135,2368.659014,6143.709319
949.195901,4979.620737,1924.535449,6661.853478
949.196220,3830.477490,1406.391290,7179.997637
949.196539,2374.896044,444.123565,8512.368333
949.196858,689.485948,-148.041188,9474.636058
949.197177,-536.266849,-962.267725,10584.944971
949.197496,-1762.019645,-1332.370696,11547.212695
949.197814,-2834.553343,-1406.391290,12065.356855
949.198133,-2987.772442,-1258.350101,12139.377449
949.198452,-2757.943793,-740.205942,11991.336260
949.198771,-2528.115143,-0.000000,11325.150913
949.199090,-1302.362347,666.185348,10140.821405
949.199409,0.000000,1850.514855,8882.471304
949.199728,689.485948,2664.741391,7920.203579
949.200047,1608.800546,3108.864956,6735.874072
949.200366,2221.676944,3034.844362,6217.729913
949.200685,1762.019645,2516.700203,6069.688724
949.201003,1302.362347,1924.535449,6365.771101
949.201322,689.485948,962.267725,7402.059420
949.201641,-689.485948,-0.000000,8956.491898
949.201960,-2068.457845,-1554.432478,10140.821405
949.202279,-2451.505594,-1480.411884,10955.047942
949.202598,-2987.772442,-1702.473667,11769.274478
949.202917,-3294.210641,-1628.453072,11991.336260
949.203236,-3217.601092,-1406.391290,11843.295072
949.203555,-1915.238745,-1184.329507,11473.192101
949.203873,-995.924147,-518.144159,10881.027347
949.204192,459.657299,-74.020594,9992.780217
949.204511,1915.238745,740.205942,8956.491898
949.204830,3140.991542,1406.391290,7402.059420
949.205149,4596.572988,1998.556043,6661.853478
949.205468,4903.011187,2146.597232,5847.626942
949.205787,4826.401637,1776.494261,5625.565159
949.206106,4443.353888,1184.329507,6069.688724
949.206425,2987.772442,370.102971,7105.977043
949.206744,1685.410096,-740.205942,8364.327145
949.207062,459.657299,-1258.350101,9474.636058
949.207381,-306.438199,-1480.411884,10658.965565
949.207700,-1608.800546,-1628.453072,11399.171507
949.208019,-1608.800546,-1702.473667,11621.233289
949.208338,-1532.190996,-1184.329507,11695.253884
949.208657,-1225.752797,-296.082377,11251.130318
949.208976,-229.828649,370.102971,10510.924376
949.209295,383.047749,1554.432478,9178.553681
949.209614,1915.238745,1998.556043,8068.244768
949.209933,2834.553343,2664.741391,7105.977043
949.210251,3370.820191,3256.906145,6587.832884
949.210570,3064.381992,3034.844362,5995.668130
949.210889,2911.162892,2516.700203,6217.729913
949.211208,1608.800546,1628.453072,7105.977043
949.211527,76.609550,518.144159,8068.244768
949.211846,-1225.752797,-518.144159,9252.574275
949.212165,-2451.505594,-1406.391290,10658.965565
949.212484,-3600.648841,-1702.473667,11695.253884
949.212803,-4519.963438,-1554.432478,12435.459826
949.213122,-4826.401637,-1332.370696,12731.542202
949.213440,-3983.696590,-888.247130,12287.418637
949.213759,-2987.772442,-888.247130,12287.418637
949.214078,-2068.457845,-0.000000,11399.171507
949.214397,-383.047749,888.247130,10140.821405
949.214716,995.924147,1702.473667,8734.430116
949.215035,2681.334243,2146.597232,7624.121203
949.215354,3294.210641,2368.659014,6957.935855
949.215673,4136.915689,2368.659014,6883.915261
949.215992,3753.867940,1924.535449,6439.791695
949.216311,2911.162892,1332.370696,7476.080014
949.216629,1915.238745,370.102971,8364.327145
949.216948,919.314598,-0.000000,9400.615463
949.217267,-842.705048,-962.267725,10436.903782
949.217586,-1608.800546,-1776.494261,11621.233289
949.217905,-2451.505594,-1924.535449,12731.542202
949.218224,-2068.457845,-1110.308913,12435.459826
949.218543,-1225.752797,-444.123565,11843.295072
949.218862,-766.095498,-296.082377,11399.171507
949.219181,689.485948,222.061783,11769.274478
949.219499,1991.848295,1184.329507,9400.615463
949.219818,3064.381992,2738.761985,8512.368333
949.220137,4596.572988,2516.700203,7624.121203
949.220456,5056.230287,4071.132681,5403.503377
949.220775,5056.230287,3404.947333,5255.462188
949.221094,4136.915689,2368.659014,6069.688724
949.221413,2528.115143,1332.370696,6957.935855
949.221732,1378.971896,74.020594,7550.100608
949.222051,0.000000,-962.267725,9696.697840
949.222370,-1915.238745,-1628.453072,10807.006753
949.222688,-3140.991542,-1776.494261,11621.233289
949.223007,-4443.353888,-2220.617826,12065.356855
949.223326,-4060.306139,-1554.432478,12435.459826
949.223645,-3600.648841,-1110.308913,11769.274478
949.223964,-2757.943793,-370.102971,11177.109724
949.224283,-1072.533697,-0.000000,10436.903782
949.224602,-383.047749,1036.288319,8956.491898
949.224921,842.705048,1924.535449,7920.203579
949.225240,1991.848295,2368.659014,6809.894666
949.225559,2987.772442,2590.720797,5699.585753
949.225877,2987.772442,2368.659014,5255.462188
949.226196,2451.505594,1924.535449,6069.688724
949.226515,1762.019645,1036.288319,6809.894666
949.226834,459.657299,-0.000000,7994.224174
949.227153,-766.095498,-666.185348,9474.636058
949.227472,-1608.800546,-1628.453072,10955.047942
949.227791,-2604.724693,-1924.535449,11177.109724
949.228110,-3217.601092,-2294.638420,11843.295072
949.228429,-3140.991542,-1850.514855,12065.356855
949.228748,-2681.334243,-1332.370696,11843.295072
949.229066,-919.314598,-592.164754,11399.171507
949.229385,536.266849,666.185348,10362.883188
949.229704,1762.019645,1480.411884,8808.450710
949.230023,3677.258390,2368.659014,7624.121203
949.230342,4749.792088,2812.782580,6143.709319
949.230661,5439.278036,3404.947333,5477.523971
949.230980,5592.497135,2886.803174,5255.462188
949.231299,4903.011187,1998.556043,6143.709319
949.231618,3677.258390,592.164754,7105.977043
949.231937,2221.676944,-222.061783,8808.450710
949.232255,842.705048,-1332.370696,9992.780217
949.232574,-383.047749,-1406.391290,10807.006753
949.232893,-1991.848295,-1776.494261,11769.274478
949.233212,-2987.772442,-1776.494261,12361.439231
949.233531,-3217.601092,-1554.432478,12805.562797
949.233850,-2528.115143,-888.247130,12435.459826
949.234169,-1762.019645,-370.102971,11843.295072
949.234488,-459.657299,740.205942,10955.047942
949.234807,766.095498,888.247130,9622.677246
949.235125,2374.896044,1998.556043,8512.368333
949.235444,3064.381992,2442.679609,7105.977043
949.235763,3294.210641,2812.782580,6661.853478
949.236082,3217.601092,2442.679609,6217.729913
949.236401,2987.772442,1554.432478,6439.791695
949.236720,1225.752797,1036.288319,7254.018232
949.237039,-383.047749,222.061783,8808.450710
949.237358,-1991.848295,-444.123565,9770.718434
949.237677,-3140.991542,-1110.308913,11029.068536
949.237996,-4366.744339,-1554.432478,12065.356855
949.238314,-4903.011187,-1776.494261,12879.583391
949.238633,-4519.963438,-1332.370696,12805.562797
949.238952,-4136.915689,-444.123565,12805.562797
949.239271,-2528.115143,-0.000000,11695.253884
949.239590,-1072.533697,1332.370696,10584.944971
949.239909,1378.971896,2368.659014,8956.491898
949.240228,2911.162892,3330.926739,7624.121203
949.240547,4596.572988,3552.988522,6365.771101
949.240866,4979.620737,3256.906145,5181.441594
949.241185,5132.839837,2886.803174,5181.441594
949.241503,4903.011187,1850.514855,5847.626942
949.241822,3753.867940,962.267725,6735.874072
949.242141,2298.286494,-296.082377,8290.306550
949.242460,1302.362347,-1258.350101,9696.697840
949.242779,0.000000,-1850.514855,10510.924376
949.243098,-995.924147,-1850.514855,11621.233289
949.243417,-1455.581446,-1850.514855,12065.356855
949.243736,-1838.629195,-1258.350101,11991.336260
949.244055,-919.314598,-962.267725,11547.212695
949.244374,76.609550,-296.082377,11029.068536
949.244692,1225.752797,370.102971,10140.821405
949.245011,2451.505594,1258.350101,8808.450710
949.245330,3983.696590,1702.473667,8068.244768
949.245649,4366.744339,2220.617826,6809.894666
949.245968,4443.353888,2146.597232,6069.688724
949.246287,3983.696590,2590.720797,6069.688724
949.246606,3140.991542,1480.411884,6513.812290
949.246925,1991.848295,444.123565,7476.080014
949.247244,153.219100,-222.061783,8512.368333
949.247563,-1378.971896,-1110.308913,9992.780217
949.247881,-3217.601092,-1702.473667,10955.047942
949.248200,-4443.353888,-1924.535449,12065.356855
949.248519,-5132.839837,-2146.597232,12731.542202
949.248838,-4903.011187,-1924.535449,12287.418637
949.249157,-4060.306139,-1110.308913,11991.336260
949.249476,-3217.601092,-370.102971,11399.171507
949.249795,-1685.410096,-0.000000,10288.862594
949.250114,0.000000,1480.411884,8882.471304
949.250433,1532.190996,2146.597232,7698.141797
949.250752,2451.505594,2516.700203,6291.750507
949.251071,2987.772442,2590.720797,5551.544565
949.251389,3140.991542,2146.597232,5329.482782
949.251708,2604.724693,1480.411884,6069.688724
949.252027,2145.067394,518.144159,7254.018232
949.252346,842.705048,-444.123565,8808.450710
949.252665,0.000000,-1258.350101,9770.718434
949.252984,-536.266849,-1406.391290,10881.027347
949.253303,-1762.019645,-1924.535449,11695.253884
949.253622,-1532.190996,-1702.473667,11991.336260
949.253941,-842.705048,-1332.370696,11843.295072
949.254260,0.000000,-814.226536,11695.253884
949.254579,1608.800546,-296.082377,10807.006753
949.254897,2451.505594,740.205942,9918.759623
949.255216,3983.696590,1258.350101,8216.285956
949.255535,4903.011187,2294.638420,7402.059420
949.255854,5898.935335,2294.638420,6143.709319
949.256173,5898.935335,2886.803174,5699.585753
949.256492,5515.887586,2368.659014,5921.647536
949.256811,4366.744339,1702.473667,6735.874072
949.257130,2681.334243,518.144159,7994.224174
949.257449,1149.143247,-222.061783,9326.594869
949.257768,-766.095498,-1036.288319,10436.903782
949.258086,-2145.067394,-1406.391290,11399.171507
949.258405,-3447.429741,-1554.432478,12065.356855
949.258724,-4213.525239,-1406.391290,12435.459826
949.259043,-4290.134789,-962.267725,12287.418637
949.259362,-3600.648841,-0.000000,11991.336260
949.259681,-2681.334243,444.123565,11103.089130
949.260000,-1685.410096,1406.391290,9992.780217
949.260319,306.438199,1998.556043,9104.533087
949.260638,842.705048,2738.761985,7476.080014
949.260957,1225.752797,2738.761985,6587.832884
949.261276,2068.457845,2886.803174,5995.668130
949.261594,1608.800546,2368.659014,6439.791695
949.261913,1149.143247,1406.391290,7105.977043
949.262232,0.000000,370.102971,8290.306550
949.262551,-1149.143247,-592.164754,9474.636058
949.262870,-1915.238745,-1258.350101,10658.965565
949.263189,-2911.162892,-1628.453072,11473.192101
949.263508,-3370.820191,-1480.411884,12287.418637
949.263827,-3064.381992,-1110.308913,12361.439231
949.264146,-2221.676944,-888.247130,11843.295072
949.264465,-919.314598,-296.082377,11399.171507
949.264784,689.485948,-0.000000,10214.842000
949.265102,2451.505594,1036.288319,9178.553681
949.265421,4366.744339,1628.453072,8290.306550
949.265740,5209.449386,2368.659014,6957.935855
949.266059,6205.373534,1998.556043,6439.791695
949.266378,6281.983084,1924.535449,5995.668130
949.266697,5592.497135,1480.411884,6513.812290
949.267016,4673.182538,666.185348,7254.018232
949.267335,3370.820191,-74.020594,8364.327145
949.267654,1915.238745,-740.205942,9548.656652
949.267973,459.657299,-1258.350101,10732.986159
949.268292,-1072.533697,-1850.514855,11473.192101
949.268610,-1532.190996,-2072.576638,11843.295072
949.268929,-2068.457845,-1554.432478,12213.398043
949.269248,-1685.410096,-740.205942,11843.295072
949.269567,-1225.752797,-148.041188,11177.109724
949.269886,-306.438199,518.144159,9918.759623
949.270205,1378.971896,1628.453072,8956.491898
949.270524,2221.676944,2664.741391,7402.059420
949.270843,3217.601092,3182.885551,6365.771101
949.271162,3294.210641,3404.947333,5329.482782
949.271481,2911.162892,3034.844362,5329.482782
949.271800,1762.019645,1998.556043,5921.647536
949.272118,229.828649,1036.288319,7105.977043
949.272437,-919.314598,-148.041188,8586.388927
949.272756,-2374.896044,-518.144159,9474.636058
949.273075,-3600.648841,-1036.288319,10510.924376
949.273394,-4749.792088,-1332.370696,11473.192101
949.273713,-5286.058936,-1406.391290,12139.377449
949.274032,-4443.353888,-1702.473667,12213.398043
949.274351,-3830.477490,-666.185348,11917.315666
949.274670,-2451.505594,-0.000000,11177.109724
949.274989,-842.705048,962.267725,10214.842000
949.275307,995.924147,2072.576638,9326.594869
949.275626,2451.505594,2294.638420,7698.141797
949.275945,3600.648841,2664.741391,6661.853478
949.276264,4290.134789,2738.761985,5995.668130
949.276583,4519.963438,2368.659014,5773.606348
949.276902,4366.744339,1332.370696,6883.915261
949.277221,3294.210641,370.102971,7920.203579
949.277540,2145.067394,-370.102971,9474.636058
949.277859,995.924147,-1258.350101,10288.862594
949.278178,0.000000,-1702.473667,11251.130318
949.278497,-919.314598,-2072.576638,12287.418637
949.278815,-1302.362347,-2368.659014,12583.501014
949.279134,-1225.752797,-1998.556043,12583.501014
949.279453,-612.876398,-1036.288319,12287.418637
949.279772,842.705048,-0.000000,11547.212695
949.280091,1915.238745,518.144159,10881.027347
949.280410,2987.772442,1480.411884,9104.533087
949.280729,4213.525239,2368.659014,8216.285956
949.281048,4903.011187,2886.803174,6809.894666
949.281367,5056.230287,3034.844362,6217.729913
949.281686,4366.744339,2442.679609,6069.688724
949.282005,2987.772442,1628.453072,6587.832884
949.282323,1685.410096,370.102971,7772.162391
949.282642,-153.219100,-592.164754,8956.491898
949.282961,-1991.848295,-1702.473667,10362.883188
949.283280,-3447.429741,-2072.576638,11325.150913
949.283599,-4749.792088,-2146.597232,11917.315666
949.283918,-5056.230287,-1776.494261,12435.459826
949.284237,-4673.182538,-1406.391290,12435.459826
949.284556,-4290.134789,-518.144159,11621.233289
949.284875,-2757.943793,-0.000000,10436.903782
949.285194,-1455.581446,1332.370696,9326.594869
949.285513,-306.438199,2368.659014,7994.224174
949.285831,1225.752797,2664.741391,6735.874072
949.286150,2451.505594,3034.844362,5847.626942
949.286469,2528.115143,2812.782580,5477.523971
949.286788,3064.381992,2442.679609,5255.462188
949.287107,2298.286494,1776.494261,5921.647536
949.287426,1302.362347,814.226536,7328.038826
949.287745,383.047749,-0.000000,8290.306550
949.288064,-1072.533697,-592.164754,9400.615463
949.288383,-2068.457845,-1110.308913,10658.965565
949.288702,-2298.286494,-1628.453072,11325.150913
949.289021,-2604.724693,-1554.432478,11991.336260
949.289339,-2068.457845,-1554.432478,11917.315666
949.289658,-842.705048,-740.205942,11621.233289
949.289977,383.047749,-74.020594,10807.006753
949.290296,2451.505594,888.247130,9474.636058
949.290615,3983.696590,2146.597232,8290.306550
949.290934,5439.278036,2886.803174,7105.977043
949.291253,6358.592633,3256.906145,5847.626942
949.291572,6818.249932,2664.741391,5551.544565
949.291891,6205.373534,2072.576638,5847.626942
949.292210,4826.401637,1036.288319,6587.832884
949.292528,3524.039291,-370.102971,8142.265362
949.292847,1685.410096,-1110.308913,9844.739029
949.293166,0.000000,-1776.494261,10807.006753
949.293485,-1838.629195,-2368.659014,11695.253884
949.293804,-2757.943793,-2146.597232,12953.603985
949.294123,-3064.381992,-1850.514855,12731.542202
949.294442,-2757.943793,-1184.329507,12361.439231
949.294761,-2221.676944,-148.041188,12065.356855
949.295080,-1455.581446,444.123565,10881.027347
949.295399,-306.438199,1554.432478,9696.697840
949.295718,1225.752797,2294.638420,8364.327145
949.296036,1991.848295,2960.823768,7179.997637
949.296355,2604.724693,2664.741391,6439.791695
949.296674,2145.067394,2664.741391,5847.626942
949.296993,1991.848295,2738.761985,6217.729913
949.297312,383.047749,1776.494261,6809.894666
949.297631,-612.876398,814.226536,8364.327145
949.297950,-1915.238745,-518.144159,9474.636058
949.298269,-3370.820191,-814.226536,10658.965565
949.298588,-4443.353888,-1332.370696,11473.192101
949.298907,-5209.449386,-1554.432478,12583.501014
949.299226,-5132.839837,-1480.411884,12509.480420
949.299544,-4749.792088,-1332.370696,12287.418637
949.299863,-3447.429741,-444.123565,11843.295072
949.300182,-1532.190996,444.123565,10732.986159
949.300501,306.438199,1110.308913,9252.574275
949.300820,2068.457845,2146.597232,7994.224174
949.301139,3370.820191,2368.659014,6735.874072
949.301458,4749.792088,2960.823768,5847.626942
949.301777,5209.449386,2590.720797,5773.606348
949.302096,5056.230287,1998.556043,6217.729913
949.302415,4290.134789,666.185348,7105.977043
949.302734,2528.115143,-814.226536,8438.347739
949.303052,1685.410096,-1480.411884,9622.677246
949.303371,536.266849,-2368.659014,11029.068536
949.303690,-689.485948,-2442.679609,11769.274478
949.304009,-919.314598,-2738.761985,12583.501014
949.304328,-1302.362347,-2146.597232,12657.521608
949.304647,-536.266849,-1332.370696,12287.418637
949.304966,229.828649,-1036.288319,11399.171507
949.305285,1685.410096,370.102971,10362.883188
949.305604,3447.429741,962.267725,9104.533087
949.305923,3907.087040,2072.576638,7772.162391
949.306242,4903.011187,2442.679609,6069.688724
949.306560,5132.839837,2590.720797,5551.544565
949.306879,4519.963438,2590.720797,5329.482782
949.307198,3294.210641,1480.411884,6143.709319
949.307517,1685.410096,814.226536,6957.935855
949.307836,0.000000,-74.020594,8142.265362
949.308155,-1991.848295,-814.226536,9548.656652
949.308474,-3217.601092,-1258.350101,10732.986159
949.308793,-5286.058936,-1480.411884,11695.253884
949.309112,-5975.544884,-1628.453072,12139.377449
949.309431,-5669.106685,-1184.329507,12139.377449
949.309749,-5209.449386,-518.144159,11547.212695
949.310068,-4443.353888,148.041188,10807.006753
949.310387,-2757.943793,962.267725,9770.718434
949.310706,-842.705048,1924.535449,8438.347739
949.311025,612.876398,2442.679609,7031.956449
949.311344,1915.238745,2886.803174,5921.647536
949.311663,2681.334243,2960.823768,5329.482782
949.311982,3140.991542,2664.741391,5107.421000
949.312301,2528.115143,1628.453072,6143.709319
949.312620,1762.019645,592.164754,7328.038826
949.312939,612.876398,-592.164754,8734.430116
949.313257,-459.657299,-1332.370696,10362.883188
949.313576,-1455.581446,-2146.597232,11325.150913
949.313895,-2374.896044,-2368.659014,12213.398043
949.314214,-2298.286494,-2442.679609,12657.521608
949.314533,-1302.362347,-1850.514855,12731.542202
949.314852,-459.657299,-1332.370696,12583.501014
949.315171,842.705048,-222.061783,11325.150913
949.315490,2451.505594,592.164754,10510.924376
949.315809,4366.744339,1554.432478,9104.533087
949.316128,5822.325785,2368.659014,7624.121203
949.316447,6665.030833,2738.761985,6365.771101
949.316765,6741.640382,2812.782580,5625.565159
949.317084,6205.373534,2368.659014,5995.668130
949.317403,5056.230287,1332.370696,6957.935855
949.317722,3677.258390,740.205942,8216.285956
949.318041,1608.800546,-0.000000,9474.636058
949.318360,-306.438199,-814.226536,10510.924376
949.318679,-2145.067394,-1184.329507,11547.212695
949.318998,-3600.648841,-1924.535449,12805.562797
949.319317,-3830.477490,-1776.494261,12731.542202
949.319636,-4060.306139,-1332.370696,12657.521608
949.319955,-3524.039291,-740.205942,12213.398043
949.320273,-2145.067394,370.102971,11547.212695
949.320592,-1532.190996,1258.350101,9844.739029
949.320911,-153.219100,2368.659014,8512.368333
949.321230,842.705048,3330.926739,7031.956449
949.321549,1991.848295,3627.009116,5995.668130
949.321868,2068.457845,3775.050304,5625.565159
949.322187,1455.581446,2738.761985,5773.606348
949.322506,995.924147,1850.514855,6365.771101
949.322825,0.000000,518.144159,7476.080014
949.323144,-1225.752797,-370.102971,9326.594869
949.323463,-2451.505594,-1258.350101,10362.883188
949.323781,-3600.648841,-1628.453072,10955.047942
949.324100,-4136.915689,-1480.411884,11917.315666
949.324419,-3983.696590,-1332.370696,12435.459826
949.324738,-3064.381992,-1184.329507,12139.377449
949.325057,-1225.752797,-814.226536,11473.192101
949.325376,-306.438199,-0.000000,10510.924376
949.325695,1072.533697,666.185348,9548.656652
949.326014,2987.772442,1924.535449,8364.327145
949.326333,4749.792088,2294.638420,6957.935855
949.326652,5592.497135,2368.659014,6217.729913
949.326970,6281.983084,2368.659014,5847.626942
949.327289,6052.154434,1480.411884,6069.688724
949.327608,5132.839837,888.247130,6587.832884
949.327927,3677.258390,-222.061783,7846.182985
949.328246,2451.505594,-1036.288319,9326.594869
949.328565,842.705048,-1554.432478,9992.780217
949.328884,-306.438199,-2072.576638,11103.089130
949.329203,-1302.362347,-2146.597232,11991.336260
949.329522,-1838.629195,-1850.514855,12583.501014
949.329841,-1532.190996,-1628.453072,12139.377449
949.330160,-1378.971896,-962.267725,11547.212695
949.330478,-536.266849,-370.102971,10955.047942
949.330797,612.876398,814.226536,9474.636058
949.331116,1991.848295,1628.453072,8438.347739
949.331435,2528.115143,2590.720797,7031.956449
949.331754,3140.991542,2886.803174,6217.729913
949.332073,2757.943793,2442.679609,5921.647536
949.332392,1991.848295,1702.473667,6291.750507
949.332711,1072.533697,666.185348,7105.977043
949.333030,-229.828649,-148.041188,8216.285956
949.333349,-1532.190996,-518.144159,9400.615463
949.333668,-3064.381992,-1258.350101,10214.842000
949.333986,-4136.915689,-1554.432478,11103.089130
949.334305,-4826.401637,-1702.473667,11621.233289
949.334624,-4903.011187,-1554.432478,11917.315666
949.334943,-4136.915689,-592.164754,11843.295072
949.335262,-3217.601092,-0.000000,11177.109724
949.335581,-2068.457845,666.185348,10584.944971
949.335900,76.609550,1480.411884,9326.594869
949.336219,1608.800546,2146.597232,7994.224174
949.336538,2757.943793,2590.720797,6587.832884
949.336857,3753.867940,2738.761985,5995.668130
949.337176,4519.963438,2516.700203,5995.668130
949.337494,3983.696590,1850.514855,6365.771101
949.337813,3064.381992,962.267725,7402.059420
949.338132,2068.457845,222.061783,8512.368333
949.338451,1149.143247,-666.185348,9548.656652
949.338770,76.609550,-1036.288319,10436.903782
949.339089,-766.095498,-1184.329507,11695.253884
949.339408,-1149.143247,-1628.453072,12065.356855
949.339727,-1149.143247,-1554.432478,12065.356855
949.340046,-306.438199,-1258.350101,12139.377449
949.340365,306.438199,-518.144159,11325.150913
949.340684,1608.800546,518.144159,10362.883188
949.341002,2604.724693,1258.350101,9252.574275
949.341321,4136.915689,2072.576638,8068.244768
949.341640,4903.011187,2886.803174,6883.915261
949.341959,5056.230287,2886.803174,6069.688724
949.342278,4903.011187,2516.700203,6069.688724
949.342597,3600.648841,1850.514855,6735.874072
949.342916,2451.505594,296.082377,7624.121203
949.343235,842.705048,-444.123565,9104.533087
949.343554,-995.924147,-1406.391290,10140.821405
949.343873,-2221.676944,-1332.370696,11177.109724
949.344191,-3217.601092,-1406.391290,12065.356855
949.344510,-3064.381992,-1406.391290,12287.418637
949.344829,-3600.648841,-814.226536,12583.501014
949.345148,-3140.991542,-444.123565,11843.295072
949.345467,-2221.676944,222.061783,11177.109724
949.345786,-1149.143247,1184.329507,9918.759623
949.346105,0.000000,2072.576638,8734.430116
949.346424,1378.971896,2368.659014,7254.018232
949.346743,2298.286494,2516.700203,6439.791695
949.347061,2604.724693,2664.741391,6143.709319
949.347380,2987.772442,1850.514855,6069.688724
949.347699,1685.410096,1406.391290,6883.915261
949.348018,766.095498,592.164754,7772.162391
949.348337,-306.438199,-74.020594,8734.430116
949.348656,-1532.190996,-740.205942,9770.718434
949.348975,-2604.724693,-1332.370696,11029.068536
949.349294,-3140.991542,-1850.514855,11843.295072
949.349612,-3447.429741,-2220.617826,11917.315666
949.349931,-2757.943793,-1850.514855,11991.336260
949.350250,-1532.190996,-1332.370696,11769.274478
949.350569,383.047749,-740.205942,10807.006753
949.350888,1149.143247,592.164754,9474.636058
949.351207,3294.210641,1702.473667,7994.224174
949.351526,4903.011187,2294.638420,6365.771101
949.351845,5669.106685,2368.659014,5329.482782
949.352163,6128.763984,2738.761985,5255.462188
949.352482,5439.278036,1702.473667,5403.503377
949.352801,4903.011187,962.267725,6217.729913
949.353120,3524.039291,296.082377,7772.162391
949.353439,1991.848295,-888.247130,9178.553681
949.353758,153.219100,-1332.370696,10288.862594
949.354077,-612.876398,-1480.411884,11547.212695
949.354395,-1608.800546,-1554.432478,11843.295072
949.354714,-2068.457845,-1406.391290,12287.418637
949.355033,-1838.629195,-814.226536,12065.356855
949.355352,-1072.533697,-296.082377,11695.253884
949.355671,0.000000,296.082377,10658.965565
949.355990,919.314598,1184.329507,9474.636058
949.356309,2145.067394,2220.617826,8216.285956
949.356628,2987.772442,2664.741391,7031.956449
949.356946,3677.258390,2886.803174,6143.709319
949.357265,3217.601092,2664.741391,5699.585753
949.357584,2221.676944,1998.556043,6143.709319
949.357903,1149.143247,1036.288319,7105.977043
949.358222,-383.047749,-74.020594,8290.306550
949.358541,-1608.800546,-444.123565,9918.759623
949.358860,-2911.162892,-1036.288319,10881.027347
949.359179,-4366.744339,-1776.494261,11843.295072
949.359497,-5286.058936,-2220.617826,12731.542202
949.359816,-4903.011187,-1554.432478,12731.542202
949.360135,-4519.963438,-1258.350101,12361.439231
949.360454,-3140.991542,-0.000000,11769.274478
949.360773,-1685.410096,814.226536,10584.944971
949.361092,76.609550,1850.514855,9474.636058
949.361411,1455.581446,2368.659014,8216.285956
949.361730,2834.553343,3108.864956,7179.997637
949.362048,3830.477490,2886.803174,6439.791695
949.362367,4136.915689,2590.720797,6143.709319
949.362686,3907.087040,1776.494261,6439.791695
949.363005,3064.381992,666.185348,7402.059420
949.363324,1915.238745,-370.102971,8660.409521
949.363643,919.314598,-1036.288319,10066.800811
949.363962,-229.828649,-1480.411884,11177.109724
949.364280,-995.924147,-2146.597232,11843.295072
949.364599,-1532.190996,-1776.494261,12287.418637
949.364918,-1455.581446,-1480.411884,12509.480420
949.365237,-612.876398,-962.267725,12139.377449
949.365556,0.000000,-296.082377,11399.171507
949.365875,1838.629195,518.144159,10288.862594
949.366194,3294.210641,1628.453072,8734.430116
949.366513,4673.182538,2220.617826,7624.121203
949.366831,5209.449386,2812.782580,6809.894666
949.367150,6205.373534,2664.741391,5403.503377
949.367469,5132.839837,2368.659014,5403.503377
949.367788,3983.696590,1924.535449,6069.688724
949.368107,2451.505594,740.205942,7105.977043
949.368426,766.095498,-0.000000,8216.285956
949.368745,-1149.143247,-666.185348,9918.759623
949.369064,-3064.381992,-1406.391290,10732.986159
949.369382,-4596.572988,-2072.576638,11621.233289
949.369701,-5056.230287,-1776.494261,12213.398043
949.370020,-5209.449386,-1554.432478,12065.356855
949.370339,-4519.963438,-962.267725,11843.295072
949.370658,-3370.820191,-0.000000,11251.130318
949.370977,-2068.457845,1110.308913,9992.780217
949.371296,-383.047749,2072.576638,8512.368333
949.371615,1072.533697,2812.782580,7254.018232
949.371933,2451.505594,3330.926739,5995.668130
949.372252,2834.553343,3478.967927,5255.462188
949.372571,2987.772442,2960.823768,4959.379811
949.372890,2757.943793,1628.453072,5551.544565
949.373209,1685.410096,444.123565,7105.977043
949.373528,536.266849,-518.144159,8438.347739
949.373847,-766.095498,-1406.391290,9918.759623
949.374165,-1685.410096,-1776.494261,11251.130318
949.374484,-2834.553343,-1850.514855,12065.356855
949.374803,-2604.724693,-1998.556043,12509.480420
949.375122,-2145.067394,-1554.432478,12657.521608
949.375441,-1149.143247,-962.267725,11991.336260
949.375760,229.828649,-370.102971,11177.109724
949.376079,1838.629195,666.185348,10066.800811
949.376398,3447.429741,1554.432478,8438.347739
949.376716,5056.230287,2368.659014,7402.059420
949.377035,5898.935335,3034.844362,5921.647536
949.377354,6358.592633,2590.720797,5181.441594
949.377673,6128.763984,2368.659014,5773.606348
949.377992,4826.401637,1332.370696,6661.853478
949.378311,3064.381992,148.041188,7846.182985
949.378630,1455.581446,-296.082377,9400.615463
949.378949,-383.047749,-1628.453072,10510.924376
949.379267,-2604.724693,-2220.617826,11695.253884
949.379586,-3907.087040,-2146.597232,12435.459826
949.379905,-4213.525239,-1776.494261,12805.562797
949.380224,-4366.744339,-1184.329507,12805.562797
949.380543,-3447.429741,-592.164754,12287.418637
949.380862,-2374.896044,444.123565,11621.233289
949.381181,-1149.143247,1332.370696,10214.842000
949.381500,383.047749,2294.638420,8586.388927
949.381818,1532.190996,3330.926739,7328.038826
949.382137,2604.724693,3478.967927,6217.729913
949.382456,2911.162892,3478.967927,5551.544565
949.382775,2604.724693,2886.803174,5847.626942
949.383094,1838.629195,1776.494261,6513.812290
949.383413,229.828649,888.247130,7846.182985
949.383732,-612.876398,-222.061783,9400.615463
949.384050,-2221.676944,-962.267725,10362.883188
949.384369,-3370.820191,-1554.432478,11621.233289
949.384688,-4443.353888,-1924.535449,12509.480420
949.385007,-4290.134789,-2072.576638,12953.603985
949.385326,-3600.648841,-1628.453072,12879.583391
949.385645,-2451.505594,-1184.329507,12139.377449
949.385964,-1072.533697,-296.082377,11621.233289
949.386283,766.095498,888.247130,9474.636058
949.386601,2528.115143,1998.556043,8142.265362
949.386920,4443.353888,2664.741391,6957.935855
949.387239,5439.278036,2664.741391,5625.565159
949.387558,5975.544884,2442.679609,5033.400406
949.387877,5515.887586,2146.597232,5699.585753
949.388196,4749.792088,1184.329507,6217.729913
949.388515,3140.991542,-148.041188,7698.141797
949.388834,1915.238745,-814.226536,9104.533087
949.389152,229.828649,-1702.473667,10214.842000
949.389471,-1302.362347,-1776.494261,11251.130318
949.389790,-2451.505594,-2146.597232,12361.439231
949.390109,-2604.724693,-2072.576638,12509.480420
949.390428,-2528.115143,-1332.370696,12139.377449
949.390747,-1762.019645,-518.144159,11621.233289
949.391066,-229.828649,-370.102971,10807.006753
949.391385,766.095498,962.267725,9474.636058
949.391703,2374.896044,2220.617826,8290.306550
949.392022,3140.991542,2590.720797,6661.853478
949.392341,3370.820191,3034.844362,5773.606348
949.392660,3370.820191,2664.741391,5551.544565
949.392979,2911.162892,2146.597232,5773.606348
949.393298,1915.238745,888.247130,6661.853478
949.393617,842.705048,-148.041188,8068.244768
949.393935,-1072.533697,-888.247130,9918.759623
949.394254,-2298.286494,-1258.350101,10214.842000
949.394573,-3677.258390,-1406.391290,11325.150913
949.394892,-4290.134789,-1554.432478,11917.315666
949.395211,-3983.696590,-1184.329507,11843.295072
949.395530,-3524.039291,-1406.391290,12139.377449
949.395849,-2528.115143,-74.020594,11103.089130
949.396168,-1608.800546,666.185348,10510.924376
949.396486,383.047749,1480.411884,8956.491898
949.396805,1991.848295,2442.679609,7846.182985
949.397124,3217.601092,2738.761985,6513.812290
949.397443,3983.696590,3330.926739,5625.565159
949.397762,4136.915689,2960.823768,5477.523971
949.398081,4060.306139,1924.535449,6217.729913
949.398400,2987.772442,1110.308913,6957.935855
949.398719,1608.800546,-222.061783,8290.306550
949.399037,383.047749,-740.205942,9770.718434
949.399356,-995.924147,-1628.453072,10955.047942
949.399675,-1915.238745,-1924.535449,11695.253884
949.399994,-2145.067394,-2220.617826,12435.459826
949.400313,-2298.286494,-1924.535449,12361.439231
949.400632,-1762.019645,-1036.288319,11991.336260
949.400951,-536.266849,-296.082377,11547.212695
949.401270,842.705048,296.082377,10658.965565
949.401588,2451.505594,1480.411884,9400.615463
949.401907,3447.429741,2220.617826,8142.265362
949.402226,4903.011187,2812.782580,6883.915261
949.402545,5056.230287,2960.823768,6217.729913
949.402864,4826.401637,2738.761985,6439.791695
949.403183,3907.087040,1554.432478,6661.853478
949.403502,2757.943793,740.205942,7920.203579
949.403820,1225.752797,-370.102971,9030.512492
949.404139,0.000000,-888.247130,10436.903782
949.404458,-1915.238745,-1628.453072,11251.130318
949.404777,-2604.724693,-1998.556043,12213.398043
949.405096,-3294.210641,-1998.556043,12509.480420
949.405415,-3524.039291,-1554.432478,12953.603985
949.405734,-2834.553343,-1036.288319,11991.336260
949.406053,-1838.629195,-148.041188,11399.171507
949.406371,-766.095498,518.144159,9918.759623
949.406690,459.657299,1776.494261,8586.388927
949.407009,1685.410096,2220.617826,7476.080014
949.407328,2451.505594,2738.761985,6513.812290
949.407647,3064.381992,2960.823768,5403.503377
949.407966,2604.724693,2590.720797,5625.565159
949.408285,2298.286494,1702.473667,6735.874072
949.408604,689.485948,592.164754,7254.018232
949.408922,-306.438199,-148.041188,8734.430116
949.409241,-1455.581446,-666.185348,9770.718434
949.409560,-2757.943793,-1036.288319,10881.027347
949.409879,-3294.210641,-1480.411884,11843.295072
949.410198,-3524.039291,-1406.391290,12065.356855
949.410517,-3447.429741,-1036.288319,12065.356855
949.410836,-2068.457845,-888.247130,11547.212695
949.411154,-1149.143247,-0.000000,10658.965565
949.411473,1072.533697,888.247130,9474.636058
949.411792,2681.334243,1406.391290,8068.244768
949.412111,3830.477490,2146.597232,6957.935855
949.412430,5056.230287,2368.659014,6069.688724
949.412749,5286.058936,2516.700203,5477.523971
949.413068,5515.887586,1924.535449,5699.585753
949.413387,4290.134789,1110.308913,6365.771101
949.413705,2757.943793,-222.061783,7698.141797
949.414024,1378.971896,-1110.308913,9400.615463
949.414343,229.828649,-1850.514855,10066.800811
949.414662,-1302.362347,-2072.576638,11473.192101
949.414981,-2145.067394,-2220.617826,12287.418637
949.415300,-2528.115143,-2516.700203,12435.459826
949.415619,-2145.067394,-1998.556043,12583.501014
