#time,accel_x,accel_y,accel_z
1488.330157,306.438199,222.061783,9178.553681
1488.330476,383.047749,370.102971,9252.574275
1488.330795,612.876398,296.082377,9178.553681
1488.331113,229.828649,296.082377,9400.615463
1488.331432,383.047749,296.082377,9252.574275
1488.331750,383.047749,296.082377,9326.594869
1488.332069,306.438199,444.123565,9326.594869
1488.332388,536.266849,222.061783,9474.636058
1488.332706,229.828649,296.082377,9400.615463
1488.333025,153.219100,444.123565,9326.594869
1488.333344,306.438199,518.144159,9400.615463
1488.333662,536.266849,296.082377,9548.656652
1488.333981,842.705048,148.041188,9178.553681
1488.334300,536.266849,518.144159,9030.512492
1488.334618,536.266849,518.144159,9400.615463
1488.334937,229.828649,370.102971,9178.553681
1488.335256,229.828649,370.102971,9178.553681
1488.335574,383.047749,296.082377,9326.594869
1488.335893,459.657299,370.102971,9326.594869
1488.336212,459.657299,-0.000000,9104.533087
1488.336530,306.438199,148.041188,9252.574275
1488.336849,306.438199,296.082377,9252.574275
1488.337168,383.047749,296.082377,9400.615463
1488.337486,229.828649,222.061783,9104.533087
1488.337805,306.438199,444.123565,9178.553681
1488.338124,306.438199,592.164754,9252.574275
1488.338442,306.438199,296.082377,9178.553681
1488.338761,536.266849,222.061783,9252.574275
1488.339079,612.876398,370.102971,9178.553681
1488.339398,229.828649,370.102971,9252.574275
1488.339717,229.828649,370.102971,9178.553681
1488.340035,-536.266849,74.020594,9030.512492
1488.340354,153.219100,666.185348,9474.636058
1488.340673,76.609550,370.102971,9252.574275
1488.340991,306.438199,148.041188,9326.594869
1488.341310,689.485948,296.082377,9400.615463
1488.341629,229.828649,148.041188,9548.656652
1488.341947,459.657299,296.082377,9400.615463
1488.342266,229.828649,370.102971,9104.533087
1488.342585,536.266849,444.123565,9326.594869
1488.342903,459.657299,518.144159,9400.615463
1488.343222,459.657299,518.144159,9252.574275
1488.343541,76.609550,296.082377,9326.594869
1488.343859,612.876398,592.164754,9178.553681
1488.344178,612.876398,592.164754,9252.574275
1488.344497,919.314598,-0.000000,8808.450710
1488.344815,612.876398,518.144159,9252.574275
1488.345134,306.438199,370.102971,9178.553681
1488.345452,536.266849,444.123565,9178.553681
1488.345771,0.000000,-0.000000,8956.491898
1488.346090,229.828649,-0.000000,9252.574275
1488.346408,229.828649,222.061783,9252.574275
1488.346727,229.828649,296.082377,9474.636058
1488.347046,383.047749,444.123565,9030.512492
1488.347364,919.314598,370.102971,9178.553681
1488.347683,76.609550,370.102971,9326.594869
1488.348002,229.828649,296.082377,9252.574275
1488.348320,306.438199,370.102971,9326.594869
1488.348639,459.657299,296.082377,9178.553681
1488.348958,306.438199,444.123565,9178.553681
1488.349276,459.657299,444.123565,9400.615463
1488.349595,153.219100,370.102971,9252.574275
1488.349914,229.828649,444.123565,9400.615463
1488.350232,229.828649,296.082377,9844.739029
1488.350551,229.828649,296.082377,9400.615463
1488.350870,153.219100,518.144159,9178.553681
1488.351188,536.266849,296.082377,9326.594869
1488.351507,306.438199,296.082377,9252.574275
1488.351826,229.828649,296.082377,9178.553681
1488.352144,689.485948,518.144159,9252.574275
1488.352463,153.219100,296.082377,9400.615463
1488.352781,383.047749,296.082377,9178.553681
1488.353100,689.485948,296.082377,9474.636058
1488.353419,766.095498,222.061783,9474.636058
1488.353737,536.266849,296.082377,9326.594869
1488.354056,612.876398,592.164754,9104.533087
1488.354375,536.266849,518.144159,9104.533087
1488.354693,842.705048,444.123565,9400.615463
1488.355012,383.047749,148.041188,9178.553681
1488.355331,459.657299,296.082377,9252.574275
1488.355649,229.828649,296.082377,9548.656652
1488.355968,0.000000,222.061783,9252.574275
1488.356287,459.657299,148.041188,9400.615463
1488.356605,459.657299,666.185348,9400.615463
1488.356924,0.000000,592.164754,9548.656652
1488.357243,0.000000,296.082377,9252.574275
1488.357561,229.828649,666.185348,9252.574275
1488.357880,153.219100,518.144159,9252.574275
1488.358199,0.000000,814.226536,9474.636058
1488.358517,306.438199,740.205942,9326.594869
1488.358836,459.657299,1110.308913,9474.636058
1488.359155,0.000000,1184.329507,9400.615463
1488.359473,383.047749,1184.329507,9178.553681
1488.359792,459.657299,1406.391290,9326.594869
1488.360110,229.828649,1332.370696,9474.636058
1488.360429,76.609550,1332.370696,9326.594869
1488.360748,153.219100,1332.370696,9252.574275
1488.361066,-306.438199,1184.329507,9252.574275
1488.361385,-612.876398,1110.308913,9178.553681
1488.361704,-1149.143247,962.267725,8956.491898
1488.362022,-1608.800546,1554.432478,9178.553681
1488.362341,-1991.848295,1406.391290,8808.450710
1488.362660,-2145.067394,1554.432478,8586.388927
1488.362978,-2604.724693,1998.556043,8956.491898
1488.363297,-3447.429741,1998.556043,8956.491898
1488.363616,-3677.258390,2220.617826,8956.491898
1488.363934,-3830.477490,1850.514855,8882.471304
1488.364253,-4060.306139,2664.741391,8882.471304
1488.364572,-4136.915689,2738.761985,8882.471304
1488.364890,-4519.963438,2960.823768,8956.491898
1488.365209,-4826.401637,2960.823768,9104.533087
1488.365528,-4596.572988,3182.885551,9178.553681
1488.365846,-4673.182538,3552.988522,9178.553681
1488.366165,-4749.792088,3330.926739,9252.574275
1488.366484,-4443.353888,3552.988522,9474.636058
1488.366802,-4519.963438,3182.885551,9474.636058
1488.367121,-4749.792088,3108.864956,9474.636058
1488.367439,-4903.011187,3330.926739,9474.636058
1488.367758,-4826.401637,3775.050304,9474.636058
1488.368077,-4290.134789,4441.235652,9400.615463
1488.368395,-3753.867940,4515.256246,9178.553681
1488.368714,-3524.039291,4663.297435,9252.574275
1488.369033,-2528.115143,4959.379811,8734.430116
1488.369351,-2451.505594,5033.400406,9326.594869
1488.369670,-1838.629195,4885.359217,9252.574275
1488.369989,-1072.533697,5033.400406,9030.512492
1488.370307,-689.485948,4737.318029,9030.512492
1488.370626,-306.438199,4885.359217,8586.388927
1488.370945,0.000000,5403.503377,8216.285956
1488.371263,0.000000,5625.565159,7624.121203
1488.371582,0.000000,6069.688724,7328.038826
1488.371901,-612.876398,5477.523971,7846.182985
1488.372219,-1532.190996,4737.318029,8734.430116
1488.372538,-2145.067394,3923.091493,9326.594869
1488.372857,-2757.943793,3330.926739,10066.800811
1488.373175,-3447.429741,2960.823768,10214.842000
1488.373494,-3294.210641,3182.885551,10288.862594
1488.373812,-3140.991542,3552.988522,9992.780217
1488.374131,-1915.238745,3923.091493,9770.718434
1488.374450,-1072.533697,4589.276840,9400.615463
1488.374768,-536.266849,4737.318029,8290.306550
1488.375087,0.000000,3997.112087,8290.306550
1488.375406,-536.266849,3330.926739,8142.265362
1488.375724,-1378.971896,2738.761985,8660.409521
1488.376043,-1762.019645,2220.617826,8586.388927
1488.376362,-1762.019645,2294.638420,9252.574275
1488.376680,-1685.410096,2442.679609,9400.615463
1488.376999,-1455.581446,2590.720797,9326.594869
1488.377318,-1225.752797,2590.720797,9252.574275
1488.377636,-1532.190996,2072.576638,9474.636058
1488.377955,-2451.505594,740.205942,10362.883188
1488.378274,-2987.772442,-74.020594,11103.089130
1488.378592,-2834.553343,-592.164754,11843.295072
1488.378911,-2374.896044,-148.041188,11621.233289
1488.379230,-995.924147,1110.308913,10584.944971
1488.379548,-459.657299,1406.391290,9696.697840
1488.379867,0.000000,1628.453072,8586.388927
1488.380186,-229.828649,1702.473667,8660.409521
1488.380504,-306.438199,1406.391290,8808.450710
1488.380823,-383.047749,1406.391290,9030.512492
1488.381141,-689.485948,1554.432478,9030.512492
1488.381460,-919.314598,1184.329507,9178.553681
1488.381779,-919.314598,-0.000000,9992.780217
1488.382097,-1225.752797,-370.102971,10436.903782
1488.382416,-1532.190996,-518.144159,11251.130318
1488.382735,-1532.190996,-0.000000,11103.089130
1488.383053,-1072.533697,1184.329507,10066.800811
1488.383372,-1225.752797,1628.453072,9474.636058
1488.383691,-689.485948,1258.350101,8882.471304
1488.384009,-536.266849,1702.473667,7920.203579
1488.384328,-306.438199,2294.638420,7105.977043
1488.384647,-383.047749,2886.803174,6587.832884
1488.384965,-1532.190996,3182.885551,7105.977043
1488.385284,-1532.190996,2146.597232,7624.121203
1488.385603,-2604.724693,888.247130,8956.491898
1488.385921,-3064.381992,888.247130,8882.471304
1488.386240,-2451.505594,2146.597232,8068.244768
1488.386559,-2528.115143,3034.844362,7920.203579
1488.386877,-2298.286494,3108.864956,8512.368333
1488.387196,-2374.896044,2368.659014,8734.430116
1488.387515,-2451.505594,2664.741391,8364.327145
1488.387833,-2451.505594,3108.864956,8216.285956
1488.388152,-1991.848295,3330.926739,8290.306550
1488.388470,-1762.019645,3034.844362,8734.430116
1488.388789,-1532.190996,2886.803174,8808.450710
1488.389108,-1225.752797,3404.947333,8290.306550
1488.389426,-995.924147,4219.173869,7994.224174
1488.389745,766.095498,4441.235652,8290.306550
1488.390064,1378.971896,4885.359217,8068.244768
1488.390382,1149.143247,4885.359217,7994.224174
1488.390701,1225.752797,4367.215058,7920.203579
1488.391020,306.438199,3701.029710,9326.594869
1488.391338,0.000000,2812.782580,9770.718434
1488.391657,-1302.362347,2738.761985,10140.821405
1488.391976,-1762.019645,3108.864956,9252.574275
1488.392294,-2681.334243,3108.864956,9622.677246
1488.392613,-2757.943793,3182.885551,10214.842000
1488.392932,-3294.210641,3849.070898,9696.697840
1488.393250,-3677.258390,3923.091493,9178.553681
1488.393569,-4136.915689,3182.885551,9474.636058
1488.393888,-4826.401637,2886.803174,10807.006753
1488.394206,-4673.182538,2368.659014,11177.109724
1488.394525,-4366.744339,2368.659014,11399.171507
1488.394843,-4213.525239,2146.597232,12287.418637
1488.395162,-3294.210641,2368.659014,11843.295072
1488.395481,-2681.334243,3775.050304,11695.253884
1488.395799,-1608.800546,3997.112087,10807.006753
1488.396118,-1302.362347,4441.235652,10288.862594
1488.396437,-306.438199,5477.523971,9696.697840
1488.396755,-766.095498,5551.544565,7402.059420
1488.397074,-919.314598,5181.441594,8216.285956
1488.397393,-1991.848295,4885.359217,7550.100608
1488.397711,-2068.457845,4441.235652,8438.347739
1488.398030,-2834.553343,2146.597232,8586.388927
1488.398349,-2451.505594,1628.453072,11029.068536
1488.398667,-3524.039291,1332.370696,11251.130318
1488.398986,-5362.668486,814.226536,10362.883188
1488.399305,-3677.258390,814.226536,12879.583391
1488.399624,-3600.648841,2368.659014,12731.542202
1488.399943,-1762.019645,2812.782580,12213.398043
1488.400261,0.000000,3775.050304,9474.636058
1488.400580,1685.410096,4219.173869,10140.821405
1488.400899,3064.381992,3849.070898,8808.450710
1488.401218,2681.334243,3775.050304,7254.018232
1488.401537,2681.334243,2664.741391,6735.874072
1488.401856,1762.019645,3627.009116,6143.709319
1488.402174,0.000000,4441.235652,5033.400406
1488.402493,-919.314598,3627.009116,6439.791695
1488.402812,-2681.334243,3108.864956,7328.038826
1488.403131,-4290.134789,1702.473667,8882.471304
1488.403450,-5056.230287,-0.000000,10955.047942
1488.403769,-6052.154434,-1406.391290,13323.706956
1488.404088,-5822.325785,-1776.494261,14285.974681
1488.404406,-4749.792088,-1406.391290,14804.118840
1488.404725,-3217.601092,-444.123565,13175.665768
1488.405044,-689.485948,1110.308913,10658.965565
1488.405363,1915.238745,4293.194464,8438.347739
1488.405682,3830.477490,5847.626942,4959.379811
1488.406001,3983.696590,6587.832884,1702.473667
1488.406320,2834.553343,7031.956449,0.000000
1488.406638,76.609550,5329.482782,1628.453072
1488.406957,-3140.991542,2960.823768,3552.988522
1488.407276,-6205.373534,666.185348,5847.626942
1488.407595,-7354.516781,-888.247130,11103.089130
1488.407914,-8273.831378,-2886.803174,13767.830521
1488.408233,-8273.831378,-2516.700203,11473.192101
1488.408552,-8120.612279,-2516.700203,16728.654289
1488.408870,-5209.449386,-1776.494261,19319.375086
1488.409189,-3753.867940,1850.514855,14211.954086
1488.409508,459.657299,5773.606348,11103.089130
1488.409827,3064.381992,6439.791695,9770.718434
1488.410146,3983.696590,6217.729913,4737.318029
1488.410465,5669.106685,5995.668130,962.267725
1488.410783,5439.278036,5625.565159,370.102971
1488.411102,3907.087040,4367.215058,814.226536
1488.411421,1608.800546,3108.864956,2368.659014
1488.411740,-1302.362347,592.164754,6809.894666
1488.412059,-3677.258390,-2220.617826,11473.192101
1488.412378,-4443.353888,-1998.556043,15248.242405
1488.412697,-3140.991542,-2146.597232,18135.045579
1488.413015,-1455.581446,-1998.556043,18949.272115
1488.413334,919.314598,-962.267725,18135.045579
1488.413653,3294.210641,148.041188,16210.510130
1488.413972,6128.763984,-296.082377,12657.521608
1488.414291,9116.536426,1184.329507,8068.244768
1488.414610,9729.412825,4441.235652,2368.659014
1488.414929,9039.926876,6069.688724,-2072.576638
1488.415247,7124.688131,4811.338623,-1036.288319
1488.415566,3217.601092,4293.194464,-592.164754
1488.415885,-1072.533697,1554.432478,3627.009116
1488.416204,-4979.620737,-592.164754,7550.100608
1488.416523,-7201.297681,-3108.864956,14063.912898
1488.416842,-7354.516781,-4071.132681,16432.571912
1488.417161,-6894.859482,-6439.791695,20355.663405
1488.417479,-5362.668486,-7402.059420,24500.816680
1488.417798,-3600.648841,-6809.894666,22428.240043
1488.418117,612.876398,-2368.659014,17616.901420
1488.418436,4213.525239,-0.000000,13397.727550
1488.418755,7814.174080,3701.029710,7920.203579
1488.419074,8503.660028,5995.668130,-1110.308913
1488.419392,8733.488677,8142.265362,-5033.400406
1488.419711,6511.811733,6365.771101,-5181.441594
1488.420030,3294.210641,4367.215058,-3923.091493
1488.420349,-1991.848295,148.041188,-518.144159
1488.420668,-5209.449386,-4737.318029,8808.450710
1488.420987,-8197.221829,-8808.450710,15396.283594
1488.421306,-8810.098227,-7105.977043,18949.272115
1488.421624,-7354.516781,-7994.224174,20651.745782
1488.421943,-5209.449386,-7105.977043,26351.331535
1488.422262,-1302.362347,-3256.906145,22132.157666
1488.422581,2221.676944,740.205942,16876.695478
1488.422900,7124.688131,4737.318029,11695.253884
1488.423219,8886.707777,8438.347739,2960.823768
1488.423538,10572.117872,10584.944971,-4293.194464
1488.423856,9193.145976,10214.842000,-8438.347739
1488.424175,5132.839837,6439.791695,-6513.812290
1488.424494,0.000000,3182.885551,-5181.441594
1488.424813,-3983.696590,-0.000000,1332.370696
1488.425132,-7201.297681,-4293.194464,10214.842000
1488.425451,-8733.488677,-6143.709319,15840.407159
1488.425769,-7967.393179,-7402.059420,20577.725188
1488.426088,-7201.297681,-7476.080014,24796.899057
1488.426407,-3370.820191,-6661.853478,25833.187376
1488.426726,383.047749,-1776.494261,19911.539840
1488.427045,4979.620737,2812.782580,14952.160028
1488.427364,7584.345430,4737.318029,9252.574275
1488.427683,9806.022374,7920.203579,1184.329507
1488.428001,10418.898773,10807.006753,-7698.141797
1488.428320,8733.488677,10658.965565,-10584.944971
1488.428639,5132.839837,8216.285956,-9326.594869
1488.428958,0.000000,3627.009116,-4145.153275
1488.429277,-5056.230287,-1406.391290,4219.173869
1488.429596,-9193.145976,-7179.997637,16210.510130
1488.429915,-10801.946522,-9030.512492,21614.013506
1488.430233,-9806.022374,-9474.636058,22872.363608
1488.430552,-6281.983084,-8882.471304,26869.475695
1488.430871,-3753.867940,-6735.874072,28275.866984
1488.431190,2604.724693,-2368.659014,22724.322419
1488.431509,7890.783629,2146.597232,14137.933492
1488.431828,11338.213370,5477.523971,7920.203579
1488.432147,12180.918418,9104.533087,-3108.864956
1488.432465,11031.775171,12213.398043,-9252.574275
1488.432784,8120.612279,10066.800811,-9770.718434
1488.433103,3217.601092,4441.235652,-7846.182985
1488.433422,-2068.457845,2812.782580,-888.247130
1488.433741,-6818.249932,-2738.761985,7846.182985
1488.434060,-9039.926876,-7772.162391,16876.695478
1488.434378,-10955.165621,-10658.965565,20799.786970
1488.434697,-10418.898773,-13471.748144,25981.228564
1488.435016,-8580.269578,-14878.139434,33827.411549
1488.435335,-2068.457845,-4885.359217,25685.146187
1488.435654,2987.772442,-222.061783,21688.034101
1488.435973,8427.050478,4589.276840,13915.871710
1488.436292,10955.165621,8438.347739,5329.482782
1488.436610,14402.595362,10584.944971,-4737.318029
1488.436929,10648.727422,12287.418637,-13249.686362
1488.437248,7431.126331,9178.553681,-10955.047942
1488.437567,459.657299,4885.359217,-9030.512492
1488.437886,-3907.087040,2146.597232,-296.082377
1488.438205,-8656.879127,-4441.235652,9770.718434
1488.438524,-10418.898773,-9918.759623,19615.457463
1488.438842,-11338.213370,-13693.809927,21021.848753
1488.439161,-10878.556072,-13915.871710,26647.413912
1488.439480,-8810.098227,-15396.283594,37306.379477
1488.439799,-3217.601092,-3330.926739,28423.908173
1488.440118,5745.716235,3182.885551,21539.992912
1488.440437,11108.384721,6957.935855,11991.336260
1488.440756,14325.985813,11029.068536,1184.329507
1488.441074,15934.786358,15322.262999,-11473.192101
1488.441393,13942.938064,15840.407159,-13101.645173
1488.441712,9806.022374,10510.924376,-16210.510130
1488.442031,2987.772442,4441.235652,-10658.965565
1488.442350,-4366.744339,-666.185348,1406.391290
1488.442669,-9882.631924,-6069.688724,13471.748144
1488.442987,-12027.699319,-10510.924376,18283.086767
1488.443306,-12257.527968,-13915.871710,20429.683999
1488.443625,-10495.508323,-16950.716072,33679.370361
1488.443944,-6741.640382,-10362.883188,34493.596897
1488.444263,-2528.115143,-148.041188,23686.590144
1488.444582,7890.783629,3627.009116,20429.683999
1488.444901,11338.213370,8216.285956,13323.706956
1488.445219,16394.443657,7179.997637,370.102971
1488.445538,15934.786358,17912.983796,-17838.963202
1488.445857,13636.499864,15544.324782,-15248.242405
1488.446176,8197.221829,9918.759623,-16580.613101
1488.446495,1991.848295,8216.285956,-12657.521608
1488.446814,-4519.963438,-2368.659014,5255.462188
1488.447133,-11491.432470,-9992.780217,15100.201217
1488.447451,-12104.308868,-11029.068536,19615.457463
1488.447770,-16624.272307,-16580.613101,18209.066173
1488.448089,-13406.671215,-25463.084405,35381.844028
1488.448408,-10878.556072,-17764.942608,39008.853143
1488.448727,-4443.353888,-1036.288319,26795.455100
1488.449046,5286.058936,7031.956449,21243.910535
1488.449364,12793.794817,9252.574275,13101.645173
1488.449683,16317.834107,13989.892304,-1258.350101
1488.450002,17160.539155,20355.663405,-14063.912898
1488.450321,16547.662757,15100.201217,-16210.510130
1488.450640,8503.660028,8956.491898,-19393.395680
1488.450959,3064.381992,2294.638420,-8586.388927
1488.451278,-6971.469032,-4885.359217,3997.112087
1488.451596,-9729.412825,-11103.089130,13767.830521
1488.451915,-13253.452115,-14656.077652,21688.034101
1488.452234,-14479.204912,-21762.054695,22428.240043
1488.452553,-15628.348159,-23390.507767,32569.061448
1488.452872,-9806.022374,-21688.034101,38638.750172
1488.453191,-3600.648841,3552.988522,27905.764013
1488.453510,6971.469032,7550.100608,18431.127956
1488.453828,15015.471761,11695.253884,10362.883188
1488.454147,18309.682402,14508.036463,0.000000
1488.454466,22063.550342,18727.210333,-13841.851115
1488.454785,19688.654299,20429.683999,-23094.425390
1488.455104,11721.261119,9030.512492,-19097.313304
1488.455423,4673.182538,3701.029710,-9844.739029
1488.455742,-7201.297681,-4589.276840,0.000000
1488.456060,-9346.365076,-12287.418637,15026.180623
1488.456379,-12640.575717,-13767.830521,22650.301825
1488.456698,-13406.671215,-13841.851115,19097.313304
1488.457017,-15858.176809,-27683.702231,26055.249158
1488.457336,-9269.755526,-21539.992912,43302.047607
1488.457655,-5056.230287,1110.308913,26943.496289
1488.457973,3370.820191,10955.047942,14359.995275
1488.458292,13330.061665,18949.272115,13249.686362
1488.458611,18309.682402,15174.221811,444.123565
1488.458930,20607.968896,25759.166782,-13915.871710
1488.459249,20837.797546,22428.240043,-23538.548956
1488.459568,11261.603821,13619.789333,-22206.178260
1488.459887,3600.648841,4441.235652,-7624.121203
1488.460205,-8044.002729,-5255.462188,666.185348
1488.460524,-11951.089769,-14582.057057,11621.233289
1488.460843,-15015.471761,-18579.169144,27609.681637
1488.461162,-14632.424012,-16950.716072,25463.084405
1488.461481,-17237.148705,-27091.537477,24278.754898
1488.461800,-13100.233016,-24352.775492,37972.564825
1488.462119,-6205.373534,-1554.432478,34049.473332
1488.462437,76.609550,11177.109724,22354.219448
1488.462756,12870.404366,14211.954086,16358.551318
1488.463075,17390.367805,16728.654289,6513.812290
1488.463394,23136.084040,25833.187376,-7624.121203
1488.463713,22676.426741,27905.764013,-19615.457463
1488.464032,17390.367805,14582.057057,-25092.981434
1488.464351,6281.983084,2590.720797,-10584.944971
1488.464669,-6052.154434,-10584.944971,3701.029710
1488.464988,-10801.946522,-16136.489536,14063.912898
1488.465307,-15858.176809,-17320.819043,22650.301825
1488.465626,-15245.300410,-16432.571912,25018.960840
1488.465945,-19995.092498,-30866.587781,24796.899057
1488.466264,-19995.092498,-32198.958477,36418.132346
1488.466582,-13023.623466,-13249.686362,33901.432144
1488.466901,-2221.676944,4885.359217,29830.299463
1488.467220,8886.707777,20947.828159,13175.665768
1488.467539,18922.558801,21688.034101,2072.576638
1488.467858,19612.044749,26721.434506,-1110.308913
1488.468177,25817.418283,27239.578666,-11473.192101
1488.468496,18539.511052,22354.219448,-29682.258274
1488.468814,13713.109414,6957.935855,-11621.233289
1488.469133,-2298.286494,-4219.173869,-4515.256246
1488.469452,-10648.727422,-15840.407159,5477.523971
1488.469771,-13253.452115,-16654.633695,18653.189738
1488.470090,-11721.261119,-13841.851115,28053.805202
1488.470409,-12104.308868,-21021.848753,22502.260637
1488.470728,-16241.224558,-25981.228564,26351.331535
1488.471046,-14249.376263,-18801.230927,29386.175897
1488.471365,-4673.182538,1554.432478,30792.567187
1488.471684,2145.067394,12879.583391,14878.139434
1488.472003,12563.966167,19689.478057,5699.585753
1488.472322,18003.244203,21021.848753,962.267725
1488.472641,21144.235745,25092.981434,-9696.697840
1488.472960,20148.311597,25833.187376,-24648.857869
1488.473278,16241.224558,12731.542202,-13323.706956
1488.473597,4213.525239,9252.574275,-10066.800811
1488.473916,-8580.269578,-16580.613101,1036.288319
1488.474235,-12257.527968,-14508.036463,22798.343014
1488.474554,-13559.890315,-13397.727550,29164.114115
1488.474873,-12410.747068,-19245.354492,18727.210333
1488.475191,-17773.415554,-27017.516883,21688.034101
1488.475510,-14402.595362,-25315.043216,36122.049970
1488.475829,-9269.755526,-1406.391290,29978.340651
1488.476148,1149.143247,6217.729913,21688.034101
1488.476467,11951.089769,25463.084405,13323.706956
1488.476786,18922.558801,22872.363608,5477.523971
1488.477105,24208.617737,22428.240043,-9400.615463
1488.477423,23519.131789,27979.784608,-22058.137072
1488.477742,22446.598091,19319.375086,-23390.507767
1488.478061,6894.859482,3330.926739,-10955.047942
1488.478380,-5822.325785,-11621.233289,-222.061783
1488.478699,-7584.345430,-14285.974681,16876.695478
1488.479018,-13483.280765,-10436.903782,25981.228564
1488.479337,-10955.165621,-16580.613101,23094.425390
1488.479655,-20071.702048,-26425.352129,19023.292709
1488.479974,-16471.053207,-26499.372724,31088.649564
1488.480293,-18769.339701,-15470.304188,31384.731941
1488.480612,-6358.592633,-1554.432478,30570.505405
1488.480931,3217.601092,19467.416275,20947.828159
1488.481250,17083.929605,27535.661042,2516.700203
1488.481568,19382.216099,23538.548956,-592.164754
1488.481887,23902.179538,25907.207970,-4219.173869
1488.482206,20684.578446,22576.281231,-24352.775492
1488.482525,14862.252661,13915.871710,-17172.777854
1488.482844,689.485948,592.164754,-1110.308913
1488.483163,-10955.165621,-13101.645173,6069.688724
1488.483482,-10572.117872,-14878.139434,19985.560434
1488.483800,-12027.699319,-17394.839637,31384.731941
1488.484119,-12947.013916,-24722.878463,24500.816680
1488.484438,-19075.777900,-27535.661042,17172.777854
1488.484757,-18309.682402,-26277.310941,28201.846390
1488.485076,-8580.269578,-2368.659014,35307.823433
1488.485395,-2145.067394,6587.832884,23242.466579
1488.485714,7201.297681,18801.230927,12583.501014
1488.486032,18386.291952,26203.290347,7105.977043
1488.486351,24361.836836,24648.857869,-8216.285956
1488.486670,24438.446386,22798.343014,-18283.086767
1488.486989,23748.960438,22058.137072,-20947.828159
1488.487308,7737.564530,2072.576638,-12583.501014
1488.487627,-2451.505594,-9992.780217,9918.759623
1488.487946,-9422.974625,-14285.974681,16136.489536
1488.488264,-9346.365076,-7994.224174,18727.210333
1488.488583,-9576.193725,-15174.221811,19985.560434
1488.488902,-17237.148705,-25611.125593,15988.448347
1488.489221,-17773.415554,-32050.917289,27017.516883
1488.489540,-16011.395908,-20429.683999,23686.590144
1488.489859,-8197.221829,-2664.741391,29682.258274
1488.490177,6435.202183,13101.645173,23908.651927
1488.490496,13942.938064,29534.217086,296.082377
1488.490815,18692.730151,18061.024985,2960.823768
1488.491134,23825.569988,23834.631332,-5625.565159
1488.491453,22216.769442,27905.764013,-28275.866984
1488.491772,20454.749797,19171.333898,-31458.752535
1488.492091,459.657299,4737.318029,-2368.659014
1488.492409,-7431.126331,-7031.956449,9400.615463
1488.492728,-10648.727422,-10732.986159,10881.027347
1488.493047,-11414.822920,-9030.512492,19689.478057
1488.493366,-18003.244203,-19171.333898,22354.219448
1488.493685,-24438.446386,-29978.340651,24204.734303
1488.494004,-24744.884585,-28719.990550,32346.999665
1488.494323,-17083.929605,-23464.528361,41303.491564
1488.494641,-3677.258390,4737.318029,30348.443622
1488.494960,4596.572988,25537.104999,17616.901420
1488.495279,17850.025103,29090.093521,8586.388927
1488.495598,22906.255390,24574.837274,-3182.885551
1488.495917,32176.010916,32569.061448,-13915.871710
1488.496236,24285.227287,27017.516883,-27757.722825
1488.496555,23672.350888,19393.395680,-31162.670158
1488.496873,1685.410096,-74.020594,-18283.086767
1488.497192,-8810.098227,-13471.748144,30866.587781
1488.497511,-9269.755526,-17172.777854,14952.160028
1488.497830,-11338.213370,-15692.365970,17690.922014
1488.498149,-8044.002729,-24648.857869,27757.722825
1488.498468,-26200.466032,-26351.331535,19171.333898
1488.498786,-21527.283494,-34493.596897,33531.329173
1488.499105,-15092.081311,-19171.333898,31976.896694
1488.499424,-4903.011187,5773.606348,32791.123231
1488.499743,5286.058936,27091.537477,11843.295072
1488.500062,18922.558801,32865.143825,-2516.700203
1488.500381,22523.207641,31902.876100,-12287.418637
1488.500699,30643.819920,32791.123231,-14359.995275
1488.501018,22369.988542,32346.999665,-37306.379477
1488.501337,11184.994271,6069.688724,-12509.480420
1488.501656,-2374.896044,-9178.553681,3256.906145
1488.501975,-16088.005458,-14508.036463,5329.482782
1488.502294,-12410.747068,-15322.262999,31310.711347
1488.502612,-15628.348159,-23908.651927,29238.134709
1488.502931,-20607.968896,-28645.969955,26647.413912
1488.503250,-19152.387450,-34567.617491,33161.226202
1488.503569,-16394.443657,-22650.301825,35381.844028
1488.503888,-6358.592633,370.102971,27461.640448
1488.504207,1608.800546,22724.322419,17987.004391
1488.504526,9882.631924,30422.464216,9844.739029
1488.504844,19152.387450,22280.198854,814.226536
1488.505163,24515.055936,32569.061448,-13767.830521
1488.505482,24898.103685,32198.958477,-25759.166782
1488.505801,20531.359346,24796.899057,-33531.329173
1488.506120,4903.011187,-0.000000,3775.050304
1488.506439,-7967.393179,-13397.727550,7179.997637
1488.506757,-11491.432470,-17838.963202,14211.954086
1488.507076,-13100.233016,-18727.210333,30570.505405
1488.507395,-14632.424012,-25907.207970,26869.475695
1488.507714,-24438.446386,-37898.544230,22946.384202
1488.508033,-22369.988542,-33087.205607,31754.834912
1488.508352,-14785.643111,-18875.251521,33235.246796
1488.508670,-306.438199,15248.242405,27387.619854
1488.508989,6971.469032,29756.278868,10362.883188
1488.509308,18309.682402,34641.638086,-2368.659014
1488.509627,23212.693589,28719.990550,-10732.986159
1488.509946,30490.600820,32643.082042,-17912.983796
1488.510265,20378.140247,26499.372724,-32272.979071
1488.510583,14709.033562,10362.883188,-24426.796086
1488.510902,-2987.772442,-7105.977043,3997.112087
1488.511221,-7660.954980,-9918.759623,15322.262999
1488.511540,-8886.707777,-19097.313304,21984.116477
1488.511859,-11874.480219,-17542.880825,34789.679274
1488.512178,-19305.606550,-32791.123231,23020.404796
1488.512496,-22369.988542,-37454.420665,27609.681637
1488.512815,-16394.443657,-26573.393318,26573.393318
1488.513134,-8733.488677,-0.000000,25759.166782
1488.513453,76.609550,19393.395680,16802.674883
1488.513772,9346.365076,29608.237680,9622.677246
1488.514091,21144.235745,25833.187376,-4589.276840
1488.514410,22063.550342,35307.823433,-14656.077652
1488.514728,23672.350888,29978.340651,-29164.114115
1488.515047,19075.777900,18357.107362,-31828.855506
1488.515366,7277.907231,-2294.638420,8068.244768
1488.515685,-9193.145976,-19615.457463,10881.027347
1488.516004,-11568.042020,-21688.034101,10066.800811
1488.516323,-9346.365076,-17394.839637,27609.681637
1488.516641,-12487.356617,-25463.084405,27979.784608
1488.516960,-20531.359346,-33605.349767,24796.899057
1488.517279,-19228.997000,-31458.752535,32791.123231
1488.517598,-11338.213370,-18653.189738,30644.525999
1488.517917,-1378.971896,14359.995275,25389.063811
1488.518236,4826.401637,26869.475695,10955.047942
1488.518554,13866.328514,27979.784608,888.247130
1488.518873,24515.055936,28349.887579,-7624.121203
1488.519192,25510.980083,29978.340651,-22946.384202
1488.519511,18309.682402,24130.713709,-29904.320057
1488.519830,12870.404366,-296.082377,-8808.450710
1488.520149,-306.438199,-11473.192101,2368.659014
1488.520467,-9499.584175,-15470.304188,6883.915261
1488.520786,-10265.679673,-13841.851115,28794.011144
1488.521105,-12793.794817,-17690.922014,29238.134709
1488.521424,-15321.909960,-28275.866984,21614.013506
1488.521743,-17160.539155,-24278.754898,22132.157666
1488.522062,-13483.280765,-22428.240043,25611.125593
1488.522380,-7048.078582,7476.080014,29534.217086
1488.522699,2528.115143,20947.828159,16432.571912
1488.523018,11874.480219,29756.278868,6587.832884
1488.523337,17007.320056,24056.693115,1258.350101
1488.523656,20454.749797,30644.525999,-10510.924376
1488.523975,22369.988542,23686.590144,-23316.487173
1488.524294,14785.643111,14804.118840,-21317.931130
1488.524612,8733.488677,-6587.832884,8364.327145
1488.524931,-11031.775171,-14359.995275,1184.329507
1488.525250,-12410.747068,-23020.404796,19171.333898
1488.525569,-13176.842566,-19615.457463,26943.496289
1488.525888,-12563.966167,-16580.613101,24130.713709
1488.526207,-17390.367805,-26647.413912,18283.086767
1488.526525,-17083.929605,-21984.116477,28201.846390
1488.526844,-10112.460574,-10214.842000,30052.361245
1488.527163,-3447.429741,8438.347739,19615.457463
1488.527482,6971.469032,20577.725188,14878.139434
1488.527801,12870.404366,25463.084405,2294.638420
1488.528120,23595.741338,25241.022622,-5847.626942
1488.528438,23978.789087,24500.816680,-15692.365970
1488.528757,18922.558801,24204.734303,-25907.207970
1488.529076,13253.452115,-666.185348,-12879.583391
1488.529395,-1378.971896,-8290.306550,4367.215058
1488.529714,-10495.508323,-13101.645173,12287.418637
1488.530033,-7048.078582,-11547.212695,21021.848753
1488.530351,-11338.213370,-12435.459826,23538.548956
1488.530670,-12793.794817,-21539.992912,21021.848753
1488.530989,-17696.806004,-24722.878463,20503.704593
1488.531308,-17926.634653,-20133.601622,21095.869347
1488.531627,-11797.870669,-7179.997637,28053.805202
1488.531946,536.266849,11325.150913,22798.343014
1488.532264,8886.707777,23242.466579,8290.306550
1488.532583,17313.758255,22576.281231,3256.906145
1488.532902,19612.044749,21614.013506,-8438.347739
1488.533221,23978.789087,15396.283594,-11843.295072
1488.533540,19075.777900,13175.665768,-21317.931130
1488.533859,9576.193725,-2368.659014,-2664.741391
1488.534178,-6588.421283,-6735.874072,4663.297435
1488.534496,-10342.289223,-17987.004391,12731.542202
1488.534815,-7737.564530,-11473.192101,22724.322419
1488.535134,-8733.488677,-9622.677246,22724.322419
1488.535453,-12487.356617,-17987.004391,15840.407159
1488.535772,-15321.909960,-25907.207970,18209.066173
1488.536091,-13483.280765,-18061.024985,29460.196492
1488.536409,-6894.859482,-0.000000,26943.496289
1488.536728,459.657299,6291.750507,18801.230927
1488.537047,9806.022374,20429.683999,5995.668130
1488.537366,16164.615008,19837.519246,-148.041188
1488.537685,22063.550342,12657.521608,-3997.112087
1488.538004,20761.187996,15988.448347,-16136.489536
1488.538322,22369.988542,18431.127956,-24278.754898
1488.538641,2528.115143,2960.823768,-7550.100608
1488.538960,-5898.935335,-11695.253884,13249.686362
1488.539279,-9346.365076,-13101.645173,13249.686362
1488.539598,-8120.612279,-4959.379811,19023.292709
1488.539917,-9422.974625,-13915.871710,18209.066173
1488.540235,-15015.471761,-20577.725188,17024.736666
1488.540554,-14862.252661,-23390.507767,23686.590144
1488.540873,-13176.842566,-12731.542202,26203.290347
1488.541192,-4826.401637,296.082377,29312.155303
1488.541511,4596.572988,13693.809927,22206.178260
1488.541830,12180.918418,25018.960840,1480.411884
1488.542148,18079.853753,13471.748144,4589.276840
1488.542467,24132.008187,17838.963202,-11399.171507
1488.542786,24515.055936,20799.786970,-23464.528361
1488.543105,19995.092498,13989.892304,-26869.475695
1488.543424,-1455.581446,-592.164754,-814.226536
1488.543743,-8044.002729,-12583.501014,11325.150913
1488.544062,-11414.822920,-14063.912898,6809.894666
1488.544380,-11338.213370,-6291.750507,20651.745782
1488.544699,-14862.252661,-11325.150913,18505.148550
1488.545018,-21220.845295,-28127.825796,16506.592507
1488.545337,-22599.817191,-34493.596897,33235.246796
1488.545656,-16854.100956,-17764.942608,38416.688390
1488.545975,-7660.954980,-2442.679609,27757.722825
1488.546293,3447.429741,22354.219448,13989.892304
1488.546612,14709.033562,23168.445985,3256.906145
1488.546931,23212.693589,20133.601622,2960.823768
1488.547250,28268.923876,27313.599260,-16062.468941
1488.547569,24668.275036,21095.869347,-21021.848753
1488.547888,25664.199183,18357.107362,-26203.290347
1488.548206,-459.657299,5403.503377,-21243.910535
1488.548525,-6511.811733,-9844.739029,28201.846390
1488.548844,-8273.831378,-13989.892304,14804.118840
1488.549163,-12870.404366,-7920.203579,12361.439231
1488.549482,-5056.230287,-20873.807564,30274.423028
1488.549801,-23825.569988,-18431.127956,21243.910535
1488.550119,-21833.721693,-33161.226202,32939.164419
1488.550438,-15398.519510,-20281.642811,33013.185013
1488.550757,-7354.516781,8660.409521,37010.297100
1488.551076,2298.286494,19837.519246,20651.745782
1488.551395,17773.415554,27535.661042,6513.812290
1488.551714,21220.845295,26573.393318,-2368.659014
1488.552032,29724.505322,24870.919651,-9400.615463
1488.552351,25510.980083,27757.722825,-29756.278868
1488.552670,16624.272307,8216.285956,-26129.269753
1488.552989,1915.238745,-11917.315666,18357.107362
1488.553308,-10495.508323,-11103.089130,-370.102971
1488.553627,-11721.261119,-16876.695478,7772.162391
1488.553946,-11184.994271,-15248.242405,29978.340651
1488.554264,-13942.938064,-24278.754898,20429.683999
1488.554583,-20991.016645,-35233.802839,24426.796086
1488.554902,-18692.730151,-30792.567187,33161.226202
1488.555221,-17466.977354,-7105.977043,24204.734303
1488.555540,-2145.067394,9844.739029,26055.249158
1488.555859,5362.668486,23464.528361,12361.439231
1488.556177,20837.797546,26499.372724,8142.265362
1488.556496,17007.320056,21688.034101,-10807.006753
1488.556815,25434.370534,30126.381839,-23390.507767
1488.557134,29801.114872,22206.178260,-25833.187376
1488.557453,13559.890315,15544.324782,-28794.011144
1488.557772,-3830.477490,-9252.574275,4367.215058
1488.558090,-10725.336972,-17764.942608,13619.789333
1488.558409,-10955.165621,-12065.356855,22206.178260
1488.558728,-10189.070123,-15470.304188,29608.237680
1488.559047,-19918.482948,-24204.734303,14211.954086
1488.559366,-21067.626195,-36122.049970,32346.999665
1488.559685,-16777.491406,-23908.651927,32495.040854
1488.560003,-11414.822920,3182.885551,27313.599260
1488.560322,1915.238745,10807.006753,20207.622217
1488.560641,13559.890315,33457.308578,10955.047942
1488.560960,22676.426741,30422.464216,814.226536
1488.561279,23978.789087,27905.764013,-15174.221811
1488.561598,26583.513781,23834.631332,-24278.754898
1488.561916,27579.437928,15988.448347,-27979.784608
1488.562235,8503.660028,444.123565,-17172.777854
1488.562554,-8656.879127,-14211.954086,16284.530724
1488.562873,-8580.269578,-18431.127956,9548.656652
1488.563192,-12410.747068,-10288.862594,13175.665768
1488.563511,-7431.126331,-18135.045579,36862.255912
1488.563830,-24591.665486,-31828.855506,25315.043216
1488.564148,-21374.064394,-38786.791361,36344.111752
1488.564467,-14938.862211,-21836.075289,24870.919651
1488.564786,-5515.887586,13101.645173,28794.011144
1488.565105,2298.286494,11917.315666,17468.860231
1488.565424,16777.491406,32791.123231,4737.318029
1488.565743,25817.418283,28201.846390,-518.144159
1488.566061,26736.732880,33235.246796,-12509.480420
1488.566380,23978.789087,26203.290347,-29534.217086
1488.566699,22982.864940,16284.530724,-31606.793723
1488.567018,1072.533697,-4293.194464,3182.885551
1488.567337,-11568.042020,-17172.777854,12805.562797
1488.567656,-13559.890315,-21539.992912,9696.697840
1488.567974,-11644.651570,-8364.327145,23612.569550
1488.568293,-14325.985813,-19689.478057,20725.766376
1488.568612,-24515.055936,-30348.443622,30200.402434
1488.568931,-25664.199183,-34049.473332,40267.203245
1488.569250,-17543.586904,-11769.274478,34123.493926
1488.569569,-5669.106685,13323.706956,28645.969955
1488.569887,3064.381992,28127.825796,20503.704593
1488.570206,16317.834107,31828.855506,1924.535449
1488.570525,24744.884585,30792.567187,-8882.471304
1488.570844,26660.123330,33235.246796,-17616.901420
1488.571163,24668.275036,21762.054695,-24648.857869
1488.571482,21910.331243,15692.365970,-30126.381839
1488.571800,-1072.533697,-5107.421000,1258.350101
1488.572119,-9346.365076,-7772.162391,18875.251521
1488.572438,-14172.766713,-17320.819043,8660.409521
1488.572757,-10189.070123,-12953.603985,30126.381839
1488.573076,-13253.452115,-25759.166782,27091.537477
1488.573395,-21450.673944,-36566.173535,26277.310941
1488.573714,-18999.168350,-31310.711347,31902.876100
1488.574032,-14096.157163,-12879.583391,22650.301825
1488.574351,-2374.896044,13323.706956,30126.381839
1488.574670,8886.707777,21391.951724,15988.448347
1488.574989,20837.797546,32272.979071,1628.453072
1488.575308,21374.064394,30274.423028,-15100.201217
1488.575627,24974.713235,27387.619854,-14211.954086
1488.575945,23365.912689,21317.931130,-28053.805202
1488.576264,13406.671215,19911.539840,-26055.249158
1488.576583,-4826.401637,-12657.521608,10436.903782
1488.576902,-12870.404366,-12287.418637,8956.491898
1488.577221,-10112.460574,-14508.036463,22354.219448
1488.577540,-11414.822920,-19541.436869,31310.711347
1488.577858,-20837.797546,-29608.237680,27905.764013
1488.578177,-20301.530697,-40267.203245,37232.358883
1488.578496,-15628.348159,-29238.134709,29756.278868
1488.578815,-10342.289223,4071.132681,25685.146187
1488.579134,0.000000,11843.295072,23908.651927
1488.579453,16317.834107,31606.793723,13101.645173
1488.579771,25587.589633,30348.443622,-10436.903782
1488.580090,24591.665486,30940.608376,-14508.036463
1488.580409,27426.218828,21836.075289,-19245.354492
1488.580728,27732.657028,24796.899057,-41303.491564
1488.581047,8273.831378,8364.327145,-23094.425390
1488.581366,-9882.631924,-16728.654289,28201.846390
1488.581684,-9422.974625,-13767.830521,9326.594869
1488.582003,-14172.766713,-8364.327145,9474.636058
1488.582322,-8733.488677,-23760.610738,33531.329173
1488.582641,-31409.915418,-39082.873738,25315.043216
1488.582960,-22293.378992,-43968.232955,36862.255912
1488.583279,-20148.311597,-26795.455100,27609.681637
1488.583598,-7048.078582,9548.656652,31754.834912
1488.583916,689.485948,16580.613101,25315.043216
1488.584235,17773.415554,39526.997303,-1850.514855
1488.584554,25664.199183,31458.752535,-14878.139434
1488.584873,28805.190725,35974.008781,-7994.224174
1488.585192,26583.513781,33309.267390,-22428.240043
1488.585511,24438.446386,21762.054695,-39971.120868
1488.585829,229.828649,-814.226536,-1998.556043
1488.586148,-13559.890315,-17394.839637,15026.180623
1488.586467,-11568.042020,-23316.487173,17616.901420
1488.586786,-14555.814462,-12583.501014,21688.034101
1488.587105,-15092.081311,-27831.743419,26721.434506
1488.587424,-20761.187996,-33827.411549,35751.946999
1488.587742,-19688.654299,-33161.226202,28201.846390
1488.588061,-17773.415554,-19245.354492,27091.537477
1488.588380,0.000000,7920.203579,32791.123231
1488.588699,3830.477490,23020.404796,14211.954086
1488.589018,19918.482948,41599.573940,-2886.803174
1488.589337,20454.749797,27387.619854,-8956.491898
1488.589655,31256.696318,31236.690752,-10362.883188
1488.589974,19305.606550,30348.443622,-39156.894332
1488.590293,12334.137518,10510.924376,-7624.121203
1488.590612,-5515.887586,-16950.716072,8956.491898
1488.590931,-10035.851024,-20503.704593,8808.450710
1488.591250,-8503.660028,-17394.839637,27831.743419
1488.591568,-12717.185267,-22872.363608,33235.246796
1488.591887,-20991.016645,-38194.626607,24722.878463
1488.592206,-16777.491406,-26055.249158,27239.578666
1488.592525,-9652.803275,-7105.977043,28942.052332
1488.592844,-3600.648841,5255.462188,26425.352129
1488.593163,2298.286494,20429.683999,17616.901420
1488.593482,16471.053207,37084.317694,3701.029710
1488.593800,20761.187996,30866.587781,-12583.501014
1488.594119,25587.589633,33975.452738,-18431.127956
1488.594438,22599.817191,33161.226202,-29608.237680
1488.594757,10648.727422,6365.771101,-14211.954086
1488.595076,1378.971896,-7179.997637,-4071.132681
1488.595395,-14555.814462,-23834.631332,8586.388927
1488.595713,-14019.547613,-11843.295072,30792.567187
1488.596032,-15398.519510,-17838.963202,25981.228564
1488.596351,-19305.606550,-33827.411549,28275.866984
1488.596670,-20301.530697,-31014.628970,37454.420665
1488.596989,-13559.890315,-18653.189738,26795.455100
1488.597308,-8427.050478,3256.906145,21614.013506
1488.597626,5132.839837,20207.622217,21243.910535
1488.597945,15398.519510,35159.782245,7254.018232
1488.598264,19765.263848,24944.940245,-3108.864956
1488.598583,24208.617737,35974.008781,-13767.830521
1488.598902,23902.179538,28423.908173,-19615.457463
1488.599221,19612.044749,14063.912898,-27757.722825
1488.599539,7124.688131,-1998.556043,-1924.535449
1488.599858,-9806.022374,-8142.265362,4219.173869
1488.600177,-11338.213370,-25018.960840,16802.674883
1488.600496,-12257.527968,-15322.262999,32569.061448
1488.600815,-14555.814462,-20799.786970,27683.702231
1488.601133,-19918.482948,-34345.555709,29164.114115
1488.601452,-18233.072852,-27461.640448,25611.125593
1488.601771,-11414.822920,-8438.347739,23760.610738
1488.602090,-4443.353888,3775.050304,27979.784608
1488.602408,5592.497135,19467.416275,15174.221811
1488.602727,15858.176809,35529.885216,-8438.347739
1488.603046,21603.893044,33235.246796,-12583.501014
1488.603365,26200.466032,32643.082042,-16654.633695
1488.603683,18386.291952,28571.949361,-34271.535115
1488.604002,10265.679673,12065.356855,-5551.544565
1488.604321,-4366.744339,-14656.077652,-1554.432478
1488.604640,-13100.233016,-23316.487173,5551.544565
1488.604958,-10035.851024,-20355.663405,29534.217086
1488.605277,-16317.834107,-23686.590144,29608.237680
1488.605596,-19152.387450,-33827.411549,25981.228564
1488.605915,-18309.682402,-28868.031738,27387.619854
1488.606233,-11491.432470,-18209.066173,25611.125593
1488.606552,-5439.278036,2886.803174,25537.104999
1488.606871,612.876398,19837.519246,19319.375086
1488.607190,12257.527968,28053.805202,7772.162391
1488.607508,19765.263848,25833.187376,-1332.370696
1488.607827,22753.036291,35085.761651,-8586.388927
1488.608146,20071.702048,29978.340651,-28127.825796
1488.608465,17237.148705,11399.171507,-26055.249158
1488.608783,2221.676944,-296.082377,1776.494261
1488.609102,-10418.898773,-17098.757260,7994.224174
1488.609421,-10878.556072,-19245.354492,16802.674883
1488.609740,-10725.336972,-17838.963202,27239.578666
1488.610059,-12104.308868,-24278.754898,29978.340651
1488.610377,-18156.463303,-27017.516883,27461.640448
1488.610696,-15015.471761,-30496.484810,25537.104999
1488.611015,-6894.859482,-3552.988522,24648.857869
1488.611334,3753.867940,12731.542202,18801.230927
1488.611652,7048.078582,26055.249158,8290.306550
1488.611971,20148.311597,26277.310941,2516.700203
1488.612290,24361.836836,27313.599260,-12213.398043
1488.612609,27119.780629,31236.690752,-18505.148550
1488.612927,19305.606550,23464.528361,-29386.175897
1488.613246,8810.098227,6143.709319,-6217.729913
1488.613565,-5669.106685,-17542.880825,1036.288319
1488.613884,-9346.365076,-20651.745782,17542.880825
1488.614202,-9193.145976,-16062.468941,27239.578666
1488.614521,-12104.308868,-26795.455100,35381.844028
1488.614840,-16241.224558,-26055.249158,21317.931130
1488.615159,-15321.909960,-23686.590144,22058.137072
1488.615477,-10801.946522,-18135.045579,30792.567187
1488.615796,-3830.477490,5107.421000,25611.125593
1488.616115,4903.011187,20799.786970,15396.283594
1488.616434,14862.252661,28942.052332,3701.029710
1488.616752,17466.977354,23834.631332,-4367.215058
1488.617071,23672.350888,32124.937883,-8734.430116
1488.617390,17313.758255,23020.404796,-27387.619854
1488.617709,11108.384721,9992.780217,-9252.574275
1488.618027,-2681.334243,-6069.688724,-1628.453072
1488.618346,-13789.718964,-19023.292709,8068.244768
1488.618665,-12410.747068,-21465.972318,25092.981434
1488.618984,-12487.356617,-19763.498651,31458.752535
1488.619302,-16011.395908,-27979.784608,25463.084405
1488.619621,-17620.196454,-25018.960840,25611.125593
1488.619940,-13636.499864,-17764.942608,31828.855506
1488.620259,-5898.935335,-888.247130,27757.722825
1488.620578,-536.266849,16432.571912,18061.024985
1488.620896,11414.822920,28868.031738,10881.027347
1488.621215,18309.682402,23316.487173,-592.164754
1488.621534,21297.454844,30422.464216,-14211.954086
1488.621853,23519.131789,24130.713709,-14285.974681
1488.622171,16930.710506,14285.974681,-25018.960840
1488.622490,4519.963438,-3923.091493,1554.432478
1488.622809,-8656.879127,-12213.398043,3108.864956
1488.623128,-12717.185267,-20207.622217,18875.251521
1488.623446,-7354.516781,-18949.272115,27905.764013
1488.623765,-11721.261119,-17690.922014,24796.899057
1488.624084,-13789.718964,-26277.310941,24278.754898
1488.624403,-15858.176809,-24056.693115,19689.478057
1488.624721,-7814.174080,-7476.080014,20429.683999
1488.625040,-2528.115143,11991.336260,18579.169144
1488.625359,5362.668486,23538.548956,10510.924376
1488.625678,14555.814462,25167.002028,1628.453072
1488.625996,20761.187996,26943.496289,-10807.006753
1488.626315,21297.454844,27831.743419,-15766.386565
1488.626634,19152.387450,20281.642811,-27979.784608
1488.626953,11491.432470,10436.903782,-17098.757260
1488.627271,-1838.629195,-9326.594869,6291.750507
1488.627590,-9959.241474,-21095.869347,20651.745782
1488.627909,-10878.556072,-19097.313304,29164.114115
1488.628228,-11874.480219,-19171.333898,28571.949361
1488.628546,-13406.671215,-27313.599260,25167.002028
1488.628865,-14938.862211,-21836.075289,22650.301825
1488.629184,-12410.747068,-21169.889941,22502.260637
1488.629503,-4443.353888,1924.535449,21836.075289
1488.629821,2604.724693,15618.345376,14434.015869
1488.630140,11951.089769,29460.196492,10436.903782
1488.630459,16854.100956,23390.507767,-6957.935855
1488.630778,22446.598091,19689.478057,-9030.512492
1488.631097,21374.064394,17764.942608,-15988.448347
1488.631415,18922.558801,20355.663405,-27313.599260
1488.631734,3294.210641,-592.164754,-3108.864956
1488.632053,-8197.221829,-19763.498651,15914.427753
1488.632372,-5592.497135,-18949.272115,19097.313304
1488.632690,-5669.106685,-14063.912898,27239.578666
1488.633009,-13253.452115,-22428.240043,25389.063811
1488.633328,-17850.025103,-29016.072926,23242.466579
1488.633647,-16624.272307,-24426.796086,24722.878463
1488.633965,-13789.718964,-16654.633695,20059.581028
1488.634284,-4136.915689,10066.800811,22058.137072
1488.634603,4519.963438,26203.290347,11325.150913
1488.634922,14938.862211,33013.185013,-6291.750507
1488.635240,18769.339701,22724.322419,-9844.739029
1488.635559,20148.311597,21317.931130,-4071.132681
1488.635878,17620.196454,18283.086767,-21539.992912
1488.636197,12563.966167,12879.583391,-26573.393318
1488.636515,-1455.581446,-14063.912898,17838.963202
1488.636834,-9959.241474,-15026.180623,18949.272115
1488.637153,-7737.564530,-18801.230927,18283.086767
1488.637472,-8044.002729,-17246.798449,31976.896694
1488.637790,-12793.794817,-21095.869347,21984.116477
1488.638109,-18616.120601,-26055.249158,21465.972318
1488.638428,-17160.539155,-25389.063811,23464.528361
1488.638747,-10418.898773,148.041188,20725.766376
1488.639065,0.000000,12657.521608,19911.539840
1488.639384,7737.564530,27239.578666,11991.336260
1488.639703,16471.053207,29682.258274,-6957.935855
1488.640022,20837.797546,18579.169144,-8808.450710
1488.640340,23365.912689,18875.251521,-10955.047942
1488.640659,18003.244203,23020.404796,-29608.237680
1488.640978,7354.516781,9696.697840,-22058.137072
1488.641297,-6741.640382,-15692.365970,25167.002028
1488.641616,-7277.907231,-12805.562797,21762.054695
1488.641934,-7354.516781,-15322.262999,16876.695478
1488.642253,-10265.679673,-19541.436869,30126.381839
1488.642572,-18233.072852,-27831.743419,23908.651927
1488.642891,-17390.367805,-32791.123231,25907.207970
1488.643209,-15475.129060,-18505.148550,19171.333898
1488.643528,-7814.174080,7402.059420,19541.436869
1488.643847,1762.019645,15692.365970,19171.333898
1488.644166,15475.129060,35307.823433,5181.441594
1488.644484,25204.541884,31458.752535,-12139.377449
1488.644803,25357.760984,23390.507767,-11325.150913
1488.645122,22676.426741,21984.116477,-21243.910535
1488.645441,23212.693589,21391.951724,-31162.670158
1488.645759,1915.238745,-2738.761985,-7698.141797
1488.646078,-10342.289223,-19097.313304,29682.258274
1488.646397,-9193.145976,-18505.148550,14508.036463
1488.646716,-11031.775171,-9548.656652,19837.519246
1488.647034,-15398.519510,-19319.375086,28423.908173
1488.647353,-29418.067123,-29164.114115,20947.828159
1488.647672,-23442.522239,-31680.814318,33605.349767
1488.647991,-17390.367805,-17098.757260,26203.290347
1488.648309,-6741.640382,16950.716072,27017.516883
1488.648628,4366.744339,27461.640448,22132.157666
1488.648947,18999.168350,41377.512158,-4885.359217
1488.649266,26123.856482,27683.702231,-10510.924376
1488.649584,25894.027832,24870.919651,-4293.194464
1488.649903,23289.303139,19689.478057,-21465.972318
1488.650222,25127.932334,21762.054695,-31828.855506
1488.650541,2221.676944,-4515.256246,-7105.977043
1488.650860,-8656.879127,-18135.045579,33457.308578
1488.651178,-6665.030833,-14952.160028,19911.539840
1488.651497,-8044.002729,-12953.603985,20207.622217
1488.651816,-11568.042020,-27535.661042,30792.567187
1488.652135,-22829.645840,-27905.764013,23612.569550
1488.652453,-16011.395908,-25241.022622,24352.775492
1488.652772,-11951.089769,-3849.070898,17468.860231
1488.653091,-5515.887586,14359.995275,33161.226202
1488.653410,7354.516781,15766.386565,20207.622217
1488.653728,20914.407095,39304.935520,-6809.894666
1488.654047,19918.482948,24056.693115,-14137.933492
1488.654366,22446.598091,15618.345376,-7698.141797
1488.654685,22369.988542,20503.704593,-25537.104999
1488.655003,8350.440928,5995.668130,-9474.636058
1488.655322,-2604.724693,-16580.613101,9770.718434
1488.655641,-15092.081311,-23168.445985,5773.606348
1488.655960,-4443.353888,-12583.501014,31458.752535
1488.656278,-14325.985813,-16506.592507,23020.404796
1488.656597,-19841.873398,-30718.546593,17394.839637
1488.656916,-16930.710506,-26795.455100,30052.361245
1488.657235,-12104.308868,-12435.459826,23242.466579
1488.657553,-6281.983084,8512.368333,24204.734303
1488.657872,2834.553343,18283.086767,17987.004391
1488.658191,13559.890315,30496.484810,3034.844362
1488.658510,18616.120601,20577.725188,-3256.906145
1488.658828,20148.311597,23390.507767,-12287.418637
1488.659147,19612.044749,18505.148550,-26425.352129
1488.659466,17160.539155,7698.141797,-25389.063811
1488.659785,4979.620737,-7105.977043,13175.665768
1488.660103,-9269.755526,-10214.842000,3627.009116
1488.660422,-10955.165621,-18357.107362,13471.748144
1488.660741,-9729.412825,-9770.718434,29386.175897
1488.661060,-14479.204912,-17764.942608,28127.825796
1488.661379,-23519.131789,-31162.670158,23168.445985
1488.661697,-19612.044749,-31384.731941,26129.269753
1488.662016,-13176.842566,-0.000000,21539.992912
1488.662335,-1225.752797,13989.892304,23242.466579
1488.662654,7507.735880,24352.775492,19467.416275
1488.662972,24132.008187,31532.773129,-1628.453072
1488.663291,22753.036291,29608.237680,-13323.706956
1488.663610,31639.744067,26055.249158,-11917.315666
1488.663929,22063.550342,19911.539840,-35974.008781
1488.664247,19765.263848,16728.654289,-27239.578666
1488.664566,-6511.811733,-12657.521608,12953.603985
1488.664885,-7814.174080,-11399.171507,20429.683999
1488.665204,-10955.165621,-15100.201217,6365.771101
1488.665522,-6971.469032,-14211.954086,34863.699868
1488.665841,-20454.749797,-27979.784608,26055.249158
1488.666160,-24898.103685,-39749.059085,29756.278868
1488.666479,-17620.196454,-29682.258274,29904.320057
1488.666797,-13406.671215,4441.235652,20429.683999
1488.667116,-306.438199,14285.974681,19319.375086
1488.667435,12487.356617,28053.805202,15988.448347
1488.667754,26047.246932,36122.049970,-6291.750507
1488.668072,21910.331243,27831.743419,-12139.377449
1488.668391,26277.075581,28497.928767,-21465.972318
1488.668710,24132.008187,21317.931130,-36492.152941
1488.669029,7048.078582,3108.864956,-11029.068536
1488.669347,-9116.536426,-15248.242405,18209.066173
1488.669666,-14785.643111,-17838.963202,16358.551318
1488.669985,-12257.527968,-16432.571912,19171.333898
1488.670304,-12870.404366,-23686.590144,26055.249158
1488.670622,-29418.067123,-30940.608376,20429.683999
1488.670941,-28575.362075,-40785.347404,32421.020260
1488.671260,-18845.949251,-21688.034101,31976.896694
1488.671579,-9882.631924,10288.862594,27757.722825
1488.671898,1225.752797,21317.931130,23020.404796
1488.672216,14785.643111,39082.873738,296.082377
1488.672535,26277.075581,37972.564825,-11991.336260
1488.672854,25434.370534,35011.741057,-18061.024985
1488.673173,23978.789087,21391.951724,-23242.466579
1488.673491,22216.769442,15618.345376,-27461.640448
1488.673810,6358.592633,-1554.432478,-8364.327145
1488.674129,-11414.822920,-14804.118840,23316.487173
1488.674448,-10342.289223,-18283.086767,20651.745782
1488.674766,-9729.412825,-17987.004391,23612.569550
1488.675085,-11338.213370,-26425.352129,31532.773129
1488.675404,-24515.055936,-33827.411549,31162.670158
1488.675723,-17390.367805,-31902.876100,33457.308578
1488.676041,-13176.842566,-7994.224174,11695.253884
1488.676360,-2451.505594,18727.210333,30422.464216
1488.676679,8044.002729,16284.530724,17542.880825
1488.676998,18616.120601,43376.068201,-8068.244768
1488.677316,19612.044749,31754.834912,-13397.727550
1488.677635,24591.665486,30422.464216,-10510.924376
1488.677954,19152.387450,28053.805202,-36492.152941
1488.678273,12104.308868,3849.070898,-9548.656652
1488.678591,-1991.848295,-17320.819043,16062.468941
1488.678910,-14402.595362,-20577.725188,10732.986159
1488.679229,-9039.926876,-23686.590144,27313.599260
1488.679548,-14709.033562,-24204.734303,28349.887579
1488.679866,-18462.901502,-29534.217086,27831.743419
1488.680185,-14862.252661,-26573.393318,26573.393318
1488.680504,-10189.070123,-17172.777854,21243.910535
1488.680823,-5822.325785,11103.089130,19837.519246
1488.681141,3294.210641,23612.569550,14508.036463
1488.681460,15781.567259,31236.690752,4515.256246
1488.681779,21603.893044,29312.155303,-8512.368333
1488.682098,25281.151434,29756.278868,-8734.430116
1488.682417,20071.702048,23908.651927,-31236.690752
1488.682735,18462.901502,10881.027347,-26795.455100
1488.683054,5515.887586,-8290.306550,7698.141797
1488.683373,-10035.851024,-15840.407159,19023.292709
1488.683692,-6665.030833,-18209.066173,18061.024985
1488.684010,-8963.317327,-13693.809927,34641.638086
1488.684329,-16011.395908,-28794.011144,30718.546593
1488.684648,-24208.617737,-32272.979071,25463.084405
1488.684967,-20991.016645,-35011.741057,33013.185013
1488.685285,-10725.336972,-6957.935855,27165.558071
1488.685604,-3753.867940,10881.027347,17912.983796
1488.685923,7124.688131,28571.949361,16506.592507
1488.686242,19305.606550,35974.008781,-5181.441594
1488.686560,23519.131789,27313.599260,-17246.798449
1488.686879,25434.370534,24870.919651,-10362.883188
1488.687198,20684.578446,14434.015869,-21169.889941
1488.687517,15858.176809,12361.439231,-28423.908173
1488.687835,-5439.278036,-16136.489536,16506.592507
1488.688154,-9576.193725,-19171.333898,25981.228564
1488.688473,-8350.440928,-20281.642811,19467.416275
1488.688792,-7201.297681,-13989.892304,30422.464216
1488.689110,-15551.738609,-24056.693115,20503.704593
1488.689429,-19995.092498,-33679.370361,23538.548956
1488.689748,-14479.204912,-27683.702231,23908.651927
1488.690067,-14938.862211,-3256.906145,16802.674883
1488.690385,-536.266849,18949.272115,24130.713709
1488.690704,8580.269578,23908.651927,9622.677246
1488.691023,19075.777900,33013.185013,-10510.924376
1488.691342,20071.702048,24574.837274,-11695.253884
1488.691660,22063.550342,20059.581028,-12657.521608
1488.691979,20454.749797,21910.095883,-28201.846390
1488.692298,8503.660028,3701.029710,-2516.700203
1488.692617,-8273.831378,-18653.189738,16210.510130
1488.692936,-10955.165621,-21614.013506,21021.848753
1488.693254,-6358.592633,-14508.036463,28719.990550
1488.693573,-12257.527968,-22206.178260,28719.990550
1488.693892,-15628.348159,-27979.784608,25389.063811
1488.694211,-14632.424012,-21762.054695,18875.251521
1488.694529,-9576.193725,-12583.501014,19171.333898
1488.694848,-1685.410096,13027.624579,27017.516883
1488.695167,4903.011187,16506.592507,13693.809927
1488.695486,16471.053207,30570.505405,-1480.411884
1488.695804,19075.777900,24944.940245,-10362.883188
1488.696123,24285.227287,26129.269753,-6957.935855
1488.696442,20224.921147,22354.219448,-28571.949361
1488.696761,14172.766713,12287.418637,-26573.393318
1488.697079,153.219100,-12583.501014,21539.992912
1488.697398,-11338.213370,-13027.624579,16876.695478
1488.697717,-10495.508323,-18505.148550,17098.757260
1488.698036,-9959.241474,-17542.880825,35011.741057
1488.698354,-17160.539155,-23094.425390,24722.878463
1488.698673,-22140.159892,-27905.764013,21910.095883
1488.698992,-17926.634653,-31384.731941,27091.537477
1488.699311,-13483.280765,3775.050304,18209.066173
1488.699629,-995.924147,18431.127956,21688.034101
1488.699948,7431.126331,31384.731941,12213.398043
1488.700267,20378.140247,31754.834912,-6809.894666
1488.700586,22446.598091,26721.434506,-16654.633695
1488.700904,25970.637382,24796.899057,-8660.409521
1488.701223,20301.530697,19689.478057,-30126.381839
1488.701542,14709.033562,20651.745782,-28053.805202
1488.701861,-8197.221829,-18135.045579,21243.910535
1488.702179,-8963.317327,-16654.633695,31458.752535
1488.702498,-11108.384721,-20429.683999,13027.624579
1488.702817,-5439.278036,-17838.963202,32124.937883
1488.703135,-17850.025103,-28053.805202,25833.187376
1488.703454,-23595.741338,-36344.111752,23908.651927
1488.703773,-14785.643111,-29608.237680,24426.796086
1488.704092,-11108.384721,6143.709319,19023.292709
1488.704410,0.000000,16358.551318,17320.819043
1488.704729,11108.384721,32569.061448,9844.739029
1488.705048,21910.331243,33013.185013,-13101.645173
1488.705367,21680.502593,25907.207970,-9400.615463
1488.705685,23519.131789,23464.528361,-19319.375086
1488.706004,22369.988542,18209.066173,-28275.866984
1488.706323,3830.477490,-4663.297435,-962.267725
1488.706642,-12257.527968,-24204.734303,23168.445985
1488.706960,-9269.755526,-23686.590144,21688.034101
1488.707279,-7431.126331,-15766.386565,23612.569550
1488.707598,-12487.356617,-21910.095883,24574.837274
1488.707917,-19918.482948,-31606.793723,25167.002028
1488.708235,-16317.834107,-23908.651927,26203.290347
1488.708554,-12257.527968,-11621.233289,17542.880825
1488.708873,-5515.887586,13175.665768,24574.837274
1488.709191,3753.867940,27831.743419,11843.295072
1488.709510,15628.348159,35233.802839,-2960.823768
1488.709829,18616.120601,21614.013506,-8956.491898
1488.710148,24821.494135,23834.631332,-10510.924376
1488.710466,20531.359346,18505.148550,-25981.228564
1488.710785,16777.491406,12287.418637,-23168.445985
1488.711104,0.000000,-9474.636058,15100.201217
1488.711423,-10265.679673,-20725.766376,19763.498651
1488.711741,-8197.221829,-20799.786970,25685.146187
1488.712060,-9576.193725,-15692.365970,35751.946999
1488.712379,-15551.738609,-24130.713709,20873.807564
1488.712698,-17696.806004,-24352.775492,17098.757260
1488.713016,-11797.870669,-27165.558071,28571.949361
1488.713335,-5592.497135,7624.121203,19985.560434
1488.713654,689.485948,15766.386565,10732.986159
1488.713973,12334.137518,31532.773129,10510.924376
1488.714291,20301.530697,31902.876100,-6291.750507
1488.714610,21910.331243,26573.393318,-12657.521608
1488.714929,21833.721693,20429.683999,-18357.107362
1488.715247,20071.702048,20355.663405,-26203.290347
1488.715566,6665.030833,2146.597232,-8956.491898
1488.715885,-9806.022374,-19689.478057,22428.240043
1488.716204,-7124.688131,-18135.045579,20725.766376
1488.716522,-4903.011187,-15396.283594,28053.805202
1488.716841,-10801.946522,-19541.436869,30792.567187
1488.717160,-25357.760984,-32198.958477,20355.663405
1488.717479,-18462.901502,-31088.649564,26943.496289
1488.717797,-13176.842566,-15692.365970,23094.425390
1488.718116,-995.924147,20133.601622,25611.125593
1488.718435,5745.716235,25315.043216,15396.283594
1488.718754,17160.539155,35455.864622,888.247130
1488.719072,22216.769442,27535.661042,-10584.944971
1488.719391,22216.769442,27313.599260,-6365.771101
1488.719710,17390.367805,19467.416275,-24722.878463
1488.720029,11644.651570,11473.192101,-27313.599260
1488.720347,-1532.190996,-9104.533087,21243.910535
1488.720666,-12717.185267,-15026.180623,18653.189738
1488.720985,-7354.516781,-28645.969955,25759.166782
1488.721303,-11874.480219,-15026.180623,26055.249158
1488.721622,-20837.797546,-20651.745782,20133.601622
1488.721941,-22829.645840,-37010.297100,28794.011144
1488.722260,-19075.777900,-27683.702231,27757.722825
1488.722578,-14402.595362,3997.112087,19319.375086
1488.722897,1378.971896,16136.489536,27017.516883
1488.723216,9499.584175,30496.484810,16210.510130
1488.723535,19995.092498,34937.720462,-8956.491898
1488.723853,26277.075581,26869.475695,-15100.201217
1488.724172,28958.409824,22280.198854,-15322.262999
1488.724491,22676.426741,25981.228564,-31606.793723
1488.724810,14555.814462,15692.365970,-27757.722825
1488.725128,-6281.983084,-17690.922014,23908.651927
1488.725447,-7890.783629,-21169.889941,27757.722825
1488.725766,-6894.859482,-17172.777854,12213.398043
1488.726085,-6281.983084,-17468.860231,32791.123231
1488.726403,-19841.873398,-30126.381839,23316.487173
1488.726722,-20454.749797,-37898.544230,35085.761651
1488.727041,-11338.213370,-16284.530724,17616.901420
1488.727359,-7967.393179,8660.409521,24648.857869
1488.727678,3524.039291,17246.798449,21910.095883
1488.727997,13942.938064,33013.185013,-2368.659014
1488.728316,22369.988542,29090.093521,-10510.924376
1488.728634,19152.387450,26277.310941,-5625.565159
1488.728953,20991.016645,23982.672521,-20799.786970
1488.729272,15704.957709,11177.109724,-36566.173535
1488.729591,7660.954980,-1998.556043,15544.324782
1488.729909,-11261.603821,-14285.974681,9326.594869
1488.730228,-13100.233016,-26351.331535,17616.901420
1488.730547,-10112.460574,-21317.931130,33975.452738
1488.730866,-14709.033562,-20799.786970,24574.837274
1488.731184,-20071.702048,-31458.752535,26055.249158
1488.731503,-15781.567259,-29016.072926,24204.734303
1488.731822,-10265.679673,-444.123565,23242.466579
1488.732141,0.000000,11399.171507,25833.187376
1488.732459,8427.050478,25981.228564,16284.530724
1488.732778,19152.387450,33383.287984,-6069.688724
1488.733097,24515.055936,24648.857869,-9104.533087
1488.733415,24668.275036,29460.196492,-18653.189738
1488.733734,19918.482948,21910.095883,-31754.834912
1488.734053,10035.851024,14804.118840,-19689.478057
1488.734372,-5515.887586,-15618.345376,14878.139434
1488.734690,-7201.297681,-16358.551318,21243.910535
1488.735009,-11644.651570,-19837.519246,24130.713709
1488.735328,-11261.603821,-24426.796086,34937.720462
1488.735647,-24898.103685,-32346.999665,21762.054695
1488.735965,-21374.064394,-34937.720462,28794.011144
1488.736284,-14172.766713,-26647.413912,31902.876100
1488.736603,-6894.859482,14804.118840,17468.860231
1488.736922,2834.553343,24204.734303,16876.695478
1488.737240,15321.909960,36344.111752,4367.215058
1488.737559,22982.864940,28127.825796,-11991.336260
1488.737878,23748.960438,36492.152941,-11843.295072
1488.738197,23595.741338,25759.166782,-20207.622217
1488.738515,17390.367805,12065.356855,-34937.720462
1488.738834,5056.230287,-1628.453072,-592.164754
1488.739153,-10342.289223,-15988.448347,23908.651927
1488.739471,-10265.679673,-27609.681637,18727.210333
1488.739790,-11184.994271,-21169.889941,30792.567187
1488.740109,-14938.862211,-26721.434506,30940.608376
1488.740428,-21757.112143,-33975.452738,25833.187376
1488.740746,-18386.291952,-28423.908173,24796.899057
1488.741065,-12027.699319,-9326.594869,21169.889941
1488.741384,-1608.800546,17987.004391,25241.022622
1488.741703,4366.744339,27831.743419,10955.047942
1488.742021,16547.662757,34271.535115,-9178.553681
1488.742340,23365.912689,29312.155303,-9326.594869
1488.742659,25357.760984,28794.011144,-11029.068536
1488.742978,18616.120601,23760.610738,-31088.649564
1488.743296,11491.432470,11029.068536,-12879.583391
1488.743615,-2757.943793,-16728.654289,11029.068536
1488.743934,-11031.775171,-20947.828159,14952.160028
1488.744252,-8044.002729,-24352.775492,35825.967593
1488.744571,-11951.089769,-23168.445985,27313.599260
1488.744890,-18692.730151,-33161.226202,20577.725188
1488.745209,-16164.615008,-25611.125593,30348.443622
1488.745527,-7890.783629,-20059.581028,22576.281231
1488.745846,-4060.306139,14952.160028,17616.901420
1488.746165,4366.744339,27239.578666,14359.995275
1488.746484,15475.129060,30866.587781,2368.659014
1488.746802,19688.654299,30200.402434,-10732.986159
1488.747121,25051.322785,28127.825796,-7179.997637
1488.747440,20378.140247,20577.725188,-24278.754898
1488.747759,12640.575717,11621.233289,-26721.434506
1488.748077,5515.887586,-6217.729913,18061.024985
1488.748396,-10418.898773,-14359.995275,10362.883188
1488.748715,-9116.536426,-27609.681637,25833.187376
1488.749034,-14479.204912,-22428.240043,39897.100274
1488.749352,-16547.662757,-22650.301825,22502.260637
1488.749671,-23289.303139,-31162.670158,23242.466579
1488.749990,-16317.834107,-31828.855506,29978.340651
1488.750308,-11491.432470,-296.082377,17838.963202
1488.750627,306.438199,17172.777854,16506.592507
1488.750946,7967.393179,29312.155303,12139.377449
1488.751265,18462.901502,27979.784608,-2516.700203
1488.751583,24055.398637,24796.899057,-10955.047942
1488.751902,26047.246932,22354.219448,-11991.336260
1488.752221,19305.606550,25463.084405,-28201.846390
1488.752540,17160.539155,15322.262999,-25315.043216
1488.752858,-6818.249932,-14211.954086,21317.931130
1488.753177,-7584.345430,-20577.725188,25833.187376
1488.753496,-8963.317327,-20873.807564,15988.448347
1488.753815,-7354.516781,-20799.786970,33161.226202
1488.754133,-22676.426741,-24204.734303,17764.942608
1488.754452,-22216.769442,-36936.276506,26203.290347
1488.754771,-14096.157163,-27313.599260,24278.754898
1488.755090,-9499.584175,9474.636058,18283.086767
1488.755408,-995.924147,23242.466579,15026.180623
1488.755727,11338.213370,31754.834912,3849.070898
1488.756046,23902.179538,32124.937883,-8956.491898
1488.756364,22982.864940,31532.773129,-8808.450710
1488.756683,19841.873398,22354.219448,-16580.613101
1488.757002,17160.539155,11547.212695,-29238.134709
1488.757321,6894.859482,-4367.215058,11621.233289
1488.757639,-11568.042020,-18357.107362,11843.295072
1488.757958,-10878.556072,-29978.340651,24500.816680
1488.758277,-11184.994271,-19097.313304,31310.711347
1488.758596,-15934.786358,-17838.963202,22280.198854
1488.758914,-16777.491406,-23390.507767,22946.384202
1488.759233,-14096.157163,-21614.013506,26721.434506
1488.759552,-10189.070123,-2812.782580,19615.457463
1488.759871,-3677.258390,15840.407159,21021.848753
1488.760189,1838.629195,23464.528361,14582.057057
1488.760508,15781.567259,28868.031738,-1036.288319
1488.760827,20837.797546,18875.251521,-10066.800811
1488.761146,22829.645840,25167.002028,-13545.768739
1488.761464,16011.395908,24722.878463,-31680.814318
1488.761783,10418.898773,12953.603985,-6439.791695
1488.762102,-612.876398,-11103.089130,3923.091493
1488.762420,-11721.261119,-23686.590144,18357.107362
1488.762739,-10572.117872,-23168.445985,33827.411549
1488.763058,-17850.025103,-19097.313304,26055.249158
1488.763377,-17083.929605,-24722.878463,20059.581028
1488.763695,-18003.244203,-27313.599260,25167.002028
1488.764014,-14938.862211,-17838.963202,23020.404796
1488.764333,-4136.915689,8734.430116,22132.157666
1488.764652,1378.971896,22872.363608,13545.768739
1488.764970,15398.519510,32421.020260,3997.112087
1488.765289,24208.617737,23464.528361,-4293.194464
1488.765608,22906.255390,27017.516883,-9474.636058
1488.765927,22293.378992,23834.631332,-19393.395680
1488.766245,21297.454844,17616.901420,-30866.587781
1488.766564,6281.983084,-6439.791695,-1406.391290
1488.766883,-4673.182538,-16358.551318,27757.722825
1488.767202,-11031.775171,-17542.880825,9474.636058
1488.767520,-8963.317327,-14878.139434,23760.610738
1488.767839,-12793.794817,-23464.528361,30792.567187
1488.768158,-19152.387450,-35455.864622,28201.846390
1488.768476,-18386.291952,-31902.876100,23908.651927
1488.768795,-13253.452115,-6957.935855,16654.633695
1488.769114,-1762.019645,22502.260637,23242.466579
1488.769433,8120.612279,23316.487173,14730.098246
1488.769751,20684.578446,26425.352129,-2146.597232
1488.770070,21986.940793,24278.754898,-8068.244768
1488.770389,23136.084040,30422.464216,-14211.954086
1488.770708,15781.567259,25759.166782,-35899.988187
1488.771026,10572.117872,9030.512492,-7846.182985
1488.771345,-2374.896044,-13767.830521,8882.471304
1488.771664,-13330.061665,-22724.322419,14730.098246
1488.771983,-12257.527968,-19615.457463,35825.967593
1488.772301,-16930.710506,-21614.013506,23834.631332
1488.772620,-20224.921147,-30496.484810,23538.548956
1488.772939,-15551.738609,-26055.249158,33753.390955
1488.773258,-16164.615008,-21539.992912,26647.413912
1488.773576,-8580.269578,9104.533087,19393.395680
1488.773895,0.000000,18875.251521,24130.713709
1488.774214,16317.834107,29756.278868,7254.018232
1488.774532,22523.207641,23612.569550,-8660.409521
1488.774851,24438.446386,31532.773129,-13027.624579
1488.775170,22906.255390,26795.455100,-23686.590144
1488.775489,19612.044749,16432.571912,-35011.741057
1488.775807,3907.087040,-13693.809927,16284.530724
1488.776126,-7277.907231,-11991.336260,13693.809927
1488.776445,-11261.603821,-22502.260637,12361.439231
1488.776764,-11797.870669,-16580.613101,27683.702231
1488.777082,-17160.539155,-25241.022622,27979.784608
1488.777401,-19995.092498,-38490.708984,31828.855506
1488.777720,-18539.511052,-27313.599260,25833.187376
1488.778039,-17466.977354,-1184.329507,14137.933492
1488.778357,689.485948,22872.363608,25463.084405
1488.778676,9652.803275,26277.310941,14656.077652
1488.778995,21910.331243,27387.619854,-2960.823768
1488.779314,19075.777900,21317.931130,-10658.965565
1488.779632,24285.227287,31976.896694,-14952.160028
1488.779951,18462.901502,28868.031738,-41303.491564
1488.780270,10725.336972,6291.750507,-11769.274478
1488.780588,-2145.067394,-17987.004391,17838.963202
1488.780907,-10572.117872,-18209.066173,13323.706956
1488.781226,-13023.623466,-16136.489536,23760.610738
1488.781545,-14325.985813,-27313.599260,31976.896694
1488.781863,-21374.064394,-33309.267390,26129.269753
1488.782182,-17620.196454,-28868.031738,27979.784608
1488.782501,-12487.356617,-18579.169144,25092.981434
1488.782820,-3217.601092,18505.148550,27387.619854
1488.783138,4673.182538,21095.869347,21317.931130
1488.783457,19075.777900,28942.052332,-222.061783
1488.783776,26583.513781,24056.693115,-5847.626942
1488.784095,29954.333972,32569.061448,-8586.388927
1488.784413,20454.749797,32346.999665,-37380.400071
1488.784732,20531.359346,18357.107362,-31828.855506
1488.785051,1991.848295,-6217.729913,9474.636058
1488.785370,-8273.831378,-14137.933492,17024.736666
1488.785688,-9116.536426,-19245.354492,12953.603985
1488.786007,-7737.564530,-13471.748144,31310.711347
1488.786326,-21374.064394,-27461.640448,23834.631332
1488.786644,-21910.331243,-39452.976709,33457.308578
1488.786963,-21297.454844,-32569.061448,33605.349767
1488.787282,-13176.842566,592.164754,22428.240043
1488.787601,-1532.190996,18061.024985,23464.528361
1488.787919,11031.775171,29904.320057,15470.304188
1488.788238,25051.322785,29904.320057,-3478.967927
1488.788557,19382.216099,24056.693115,-12583.501014
1488.788876,26506.904231,30570.505405,-16062.468941
1488.789194,20148.311597,21688.034101,-35974.008781
1488.789513,10495.508323,2516.700203,-3552.988522
1488.789832,-7201.297681,-10362.883188,6735.874072
1488.790151,-12717.185267,-19689.478057,12731.542202
1488.790469,-9193.145976,-23908.651927,30570.505405
1488.790788,-17083.929605,-23686.590144,25463.084405
1488.791107,-25281.151434,-36788.235317,26055.249158
1488.791426,-22063.550342,-32346.999665,29904.320057
1488.791744,-13253.452115,-12065.356855,24722.878463
1488.792063,-5669.106685,9252.574275,31754.834912
1488.792382,2221.676944,23908.651927,19245.354492
1488.792700,17466.977354,31976.896694,-4811.338623
1488.793019,23136.084040,28423.908173,-12139.377449
1488.793338,28422.142976,33235.246796,-4071.132681
1488.793657,20454.749797,25389.063811,-36492.152941
1488.793975,16241.224558,23612.569550,-32272.979071
1488.794294,2834.553343,-11547.212695,17616.901420
1488.794613,-12104.308868,-14211.954086,7920.203579
1488.794932,-11644.651570,-20133.601622,19023.292709
1488.795250,-12104.308868,-28201.846390,39452.976709
1488.795569,-19918.482948,-28571.949361,27757.722825
1488.795888,-19765.263848,-34863.699868,25611.125593
1488.796207,-13713.109414,-18579.169144,25685.146187
1488.796525,-7124.688131,666.185348,28942.052332
1488.796844,5286.058936,18801.230927,22280.198854
1488.797163,12257.527968,26943.496289,4885.359217
1488.797482,22982.864940,24426.796086,-1184.329507
1488.797800,25894.027832,29164.114115,-13767.830521
1488.798119,27043.171079,36122.049970,-25907.207970
1488.798438,23825.569988,18209.066173,-38860.811955
1488.798756,4213.525239,-814.226536,-222.061783
1488.799075,-6588.421283,-13915.871710,9770.718434
1488.799394,-12410.747068,-23464.528361,14508.036463
1488.799713,-12257.527968,-18431.127956,33827.411549
1488.800031,-19688.654299,-31162.670158,28201.846390
1488.800350,-26430.294681,-35011.741057,29312.155303
1488.800669,-21527.283494,-35011.741057,34419.576303
1488.800988,-16088.005458,-12731.542202,30200.402434
1488.801306,-1762.019645,11769.274478,30940.608376
1488.801625,8886.707777,35381.844028,17246.798449
1488.801944,21374.064394,33013.185013,-8512.368333
1488.802263,25281.151434,30496.484810,-13989.892304
1488.802581,31563.134518,34419.576303,-9622.677246
1488.802900,23672.350888,27979.784608,-36788.235317
1488.803219,17083.929605,13101.645173,-28571.949361
1488.803537,-2987.772442,-10066.800811,11325.150913
1488.803856,-9269.755526,-12435.459826,15544.324782
1488.804175,-10189.070123,-26277.310941,18949.272115
1488.804494,-9499.584175,-27905.764013,39452.976709
1488.804812,-21374.064394,-38490.708984,30274.423028
1488.805131,-21833.721693,-33161.226202,22058.137072
1488.805450,-13483.280765,-20207.622217,29164.114115
1488.805769,-9882.631924,1776.494261,34271.535115
1488.806087,612.876398,17246.798449,20947.828159
1488.806406,11414.822920,32495.040854,2146.597232
1488.806725,21527.283494,29608.237680,-8216.285956
1488.807043,19918.482948,36196.070564,-16210.510130
1488.807362,22523.207641,31384.731941,-23020.404796
1488.807681,16854.100956,10214.842000,-21391.951724
1488.808000,4903.011187,-888.247130,6661.853478
1488.808318,-14402.595362,-17320.819043,5699.585753
1488.808637,-12257.527968,-33605.349767,34567.617491
1488.808956,-14096.157163,-32050.917289,36344.111752
1488.809275,-15934.786358,-30718.546593,24722.878463
1488.809593,-19918.482948,-31162.670158,26055.249158
1488.809912,-12180.918418,-17690.922014,23390.507767
1488.810231,-6128.763984,296.082377,22724.322419
1488.810550,4060.306139,16580.613101,19689.478057
1488.810868,13636.499864,31680.814318,6069.688724
1488.811187,18845.949251,26573.393318,-9104.533087
1488.811506,23519.131789,24352.775492,-15914.427753
1488.811824,24515.055936,26203.290347,-22946.384202
1488.812143,19612.044749,24722.878463,-36566.173535
1488.812462,4519.963438,2664.741391,-5403.503377
1488.812781,-7507.735880,-12805.562797,9622.677246
1488.813099,-9269.755526,-22502.260637,18727.210333
1488.813418,-9116.536426,-20577.725188,37898.544230
1488.813737,-19228.997000,-28645.969955,30940.608376
1488.814056,-26966.561530,-37380.400071,21762.054695
1488.814374,-24744.884585,-34641.638086,35011.741057
1488.814693,-12793.794817,-14137.933492,25759.166782
1488.815012,-4136.915689,16358.551318,24796.899057
1488.815330,7814.174080,31458.752535,18357.107362
1488.815649,20684.578446,39082.873738,-6587.832884
1488.815968,27043.171079,33161.226202,-14878.139434
1488.816287,27349.609279,35529.885216,-11251.130318
1488.816605,22599.817191,30644.525999,-29238.134709
1488.816924,14709.033562,21317.931130,-34345.555709
1488.817243,-2681.334243,-12213.398043,8660.409521
1488.817562,-11874.480219,-13989.892304,17024.736666
1488.817880,-12793.794817,-32050.917289,23390.507767
1488.818199,-11797.870669,-25611.125593,33013.185013
1488.818518,-19075.777900,-25241.022622,21169.889941
1488.818836,-19228.997000,-33901.432144,35974.008781
1488.819155,-12717.185267,-22058.137072,27387.619854
1488.819474,-8810.098227,3552.988522,29978.340651
1488.819793,1608.800546,20503.704593,24796.899057
1488.820111,10955.165621,29830.299463,2516.700203
1488.820430,23442.522239,38416.688390,-7624.121203
1488.820749,23825.569988,31976.896694,-6809.894666
1488.821068,22753.036291,24796.899057,-21688.034101
1488.821386,17620.196454,19541.436869,-30718.546593
1488.821705,9959.241474,4737.318029,11251.130318
1488.822024,-12180.918418,-14063.912898,5995.668130
1488.822342,-9346.365076,-30792.567187,30422.464216
1488.822661,-9652.803275,-29830.299463,43376.068201
1488.822980,-17160.539155,-31088.649564,28645.969955
1488.823299,-21603.893044,-33309.267390,16358.551318
1488.823617,-13330.061665,-20947.828159,27461.640448
1488.823936,-6511.811733,666.185348,25018.960840
1488.824255,6588.421283,18727.210333,20429.683999
1488.824574,8273.831378,27831.743419,4367.215058
1488.824892,18845.949251,26647.413912,-3552.988522
1488.825211,23059.474490,20577.725188,-11325.150913
1488.825530,23748.960438,26721.434506,-22502.260637
1488.825849,15934.786358,17542.880825,-37676.482448
1488.826167,7124.688131,-444.123565,4737.318029
1488.826486,-9959.241474,-15322.262999,1776.494261
1488.826805,-11261.603821,-26277.310941,22280.198854
1488.827123,-8963.317327,-24648.857869,36714.214723
1488.827442,-18233.072852,-24426.796086,27979.784608
1488.827761,-23672.350888,-30200.402434,21243.910535
1488.828080,-21757.112143,-27239.578666,24944.940245
1488.828398,-12487.356617,-3108.864956,26573.393318
1488.828717,153.219100,11769.274478,25759.166782
1488.829036,8886.707777,29756.278868,7179.997637
1488.829355,19612.044749,30570.505405,-3627.009116
1488.829673,21757.112143,27683.702231,-15692.365970
1488.829992,27043.171079,29756.278868,-12213.398043
1488.830311,21374.064394,26499.372724,-37676.482448
1488.830629,10648.727422,7328.038826,-21910.095883
1488.830948,-5132.839837,-9548.656652,8956.491898
1488.831267,-12487.356617,-14730.098246,17838.963202
1488.831586,-10878.556072,-23390.507767,24352.775492
1488.831904,-14402.595362,-25907.207970,30274.423028
1488.832223,-21220.845295,-27461.640448,27165.558071
1488.832542,-17696.806004,-25167.002028,32050.917289
1488.832861,-13789.718964,-18653.189738,25092.981434
1488.833179,-2451.505594,4737.318029,32198.958477
1488.833498,1762.019645,22576.281231,20947.828159
1488.833817,16164.615008,35529.885216,-6587.832884
1488.834135,21680.502593,24722.878463,-5181.441594
1488.834454,28345.533426,33161.226202,-5773.606348
1488.834773,19152.387450,26573.393318,-27017.516883
1488.835092,13176.842566,12953.603985,-20947.828159
1488.835410,3524.039291,-1406.391290,4959.379811
1488.835729,-13559.890315,-15840.407159,7476.080014
1488.836048,-11338.213370,-28719.990550,32865.143825
1488.836367,-12257.527968,-27165.558071,38934.832549
1488.836685,-16088.005458,-26499.372724,18949.272115
1488.837004,-17083.929605,-28349.887579,23686.590144
1488.837323,-9422.974625,-18135.045579,27313.599260
1488.837641,-2221.676944,1554.432478,31014.628970
1488.837960,2911.162892,14359.995275,19393.395680
1488.838279,10725.336972,25315.043216,7105.977043
1488.838598,17926.634653,25315.043216,-4885.359217
1488.838916,26353.685131,24056.693115,-8808.450710
1488.839235,24132.008187,29386.175897,-24574.837274
1488.839554,15092.081311,18061.024985,-35159.782245
1488.839873,6281.983084,-888.247130,5329.482782
1488.840191,-6511.811733,-9030.512492,2220.617826
1488.840510,-11031.775171,-24648.857869,19097.313304
1488.840829,-13789.718964,-26647.413912,37676.482448
1488.841148,-17926.634653,-23612.569550,29904.320057
1488.841466,-24208.617737,-31014.628970,20207.622217
1488.841785,-18616.120601,-22650.301825,33457.308578
1488.842104,-6894.859482,-10288.862594,38120.606013
1488.842422,4290.134789,16506.592507,21762.054695
1488.842741,6741.640382,40859.367998,4219.173869
1488.843060,17620.196454,26943.496289,1332.370696
1488.843379,19535.435199,22058.137072,-13323.706956
1488.843697,26277.075581,27387.619854,-12287.418637
1488.844016,17083.929605,28719.990550,-36640.194129
1488.844335,6358.592633,13323.706956,-19985.560434
1488.844654,-8963.317327,-11251.130318,518.144159
1488.844972,-9576.193725,-20651.745782,19541.436869
1488.845291,-12717.185267,-33309.267390,37232.358883
1488.845610,-17696.806004,-22354.219448,26203.290347
1488.845928,-21374.064394,-25463.084405,15692.365970
1488.846247,-17237.148705,-27905.764013,36418.132346
1488.846566,-9576.193725,-23094.425390,35233.802839
1488.846885,-1915.238745,5921.647536,25018.960840
1488.847203,1608.800546,25537.104999,9548.656652
1488.847522,13176.842566,35455.864622,2072.576638
1488.847841,21680.502593,23686.590144,-7624.121203
1488.848160,28268.923876,30570.505405,-13545.768739
1488.848478,23059.474490,31754.834912,-23982.672521
1488.848797,10112.460574,22354.219448,-30792.567187
1488.849116,0.000000,-1332.370696,3478.967927
1488.849434,-9652.803275,-15248.242405,16358.551318
1488.849753,-9652.803275,-32198.958477,34789.679274
1488.850072,-15781.567259,-30866.587781,33827.411549
1488.850391,-18692.730151,-25611.125593,17394.839637
1488.850709,-19841.873398,-26943.496289,24426.796086
1488.851028,-8733.488677,-24648.857869,34271.535115
1488.851347,-1532.190996,2294.638420,25759.166782
1488.851666,6281.983084,20207.622217,13915.871710
1488.851984,9959.241474,40859.367998,1110.308913
1488.852303,18462.901502,24870.919651,-5477.523971
1488.852622,28651.971625,22650.301825,-11325.150913
1488.852941,26966.561530,26055.249158,-21688.034101
1488.853259,15475.129060,23834.631332,-38046.585419
1488.853578,2911.162892,-1406.391290,2664.741391
1488.853897,-8427.050478,-10510.924376,6365.771101
1488.854215,-6741.640382,-33605.349767,22724.322419
1488.854534,-11108.384721,-33531.329173,45004.521274
1488.854853,-19688.654299,-29016.072926,23242.466579
1488.855172,-26353.685131,-28868.031738,12805.562797
1488.855490,-17850.025103,-25833.187376,32495.040854
1488.855809,-5439.278036,-9326.594869,32791.123231
1488.856128,5286.058936,12805.562797,19541.436869
1488.856447,5209.449386,32272.979071,4589.276840
1488.856765,16317.834107,33161.226202,-10288.862594
1488.857084,20837.797546,24278.754898,-15914.427753
1488.857403,27732.657028,28571.949361,-17320.819043
1488.857721,17160.539155,22798.343014,-29238.134709
1488.858040,8503.660028,12287.418637,-11177.109724
1488.858359,-8733.488677,-9252.574275,-1036.288319
1488.858678,-10801.946522,-24796.899057,21391.951724
1488.858996,-9116.536426,-33679.370361,43302.047607
1488.859315,-15398.519510,-23686.590144,29534.217086
1488.859634,-23136.084040,-30792.567187,19393.395680
1488.859953,-18539.511052,-17912.983796,29460.196492
1488.860271,-9269.755526,-13175.665768,32198.958477
1488.860590,0.000000,7105.977043,26129.269753
1488.860909,2911.162892,26425.352129,7031.956449
1488.861227,12640.575717,34345.555709,-6217.729913
1488.861546,18539.511052,28053.805202,-13545.768739
1488.861865,25051.322785,26203.290347,-9844.739029
1488.862184,15858.176809,20503.704593,-27313.599260
1488.862502,8733.488677,18653.189738,-14211.954086
1488.862821,-1991.848295,-1702.473667,-2072.576638
1488.863140,-14325.985813,-19171.333898,11769.274478
1488.863459,-7584.345430,-32569.061448,44560.397708
1488.863777,-14709.033562,-29090.093521,33901.432144
1488.864096,-17160.539155,-26573.393318,17838.963202
1488.864415,-18386.291952,-22872.363608,20577.725188
1488.864733,-7737.564530,-13471.748144,33087.205607
1488.865052,1455.581446,3849.070898,25759.166782
1488.865371,5056.230287,20947.828159,10140.821405
1488.865690,14785.643111,30052.361245,-740.205942
1488.866008,18156.463303,29460.196492,-14211.954086
1488.866327,25970.637382,26795.455100,-14063.912898
1488.866646,21603.893044,23390.507767,-17764.942608
1488.866965,11261.603821,10807.006753,-23982.672521
1488.867283,-842.705048,-3997.112087,8808.450710
1488.867602,-9729.412825,-9326.594869,6661.853478
1488.867921,-9193.145976,-25463.084405,29460.196492
1488.868240,-11568.042020,-29830.299463,41081.429781
1488.868558,-20991.016645,-26869.475695,17912.983796
1488.868877,-21527.283494,-24870.919651,26869.475695
1488.869196,-11108.384721,-16136.489536,31088.649564
1488.869514,-3600.648841,2146.597232,33309.267390
1488.869833,8044.002729,17320.819043,17764.942608
1488.870152,11031.775171,37750.503042,-3108.864956
1488.870471,13866.328514,30866.587781,-10140.821405
1488.870789,23442.522239,23316.487173,-10140.821405
1488.871108,25434.370534,21243.910535,-18283.086767
1488.871427,15934.786358,23464.528361,-31606.793723
1488.871746,5592.497135,1480.411884,1110.308913
1488.872064,-13330.061665,-4663.297435,-370.102971
1488.872383,-10035.851024,-25611.125593,21465.972318
1488.872702,-6894.859482,-35974.008781,51814.415940
1488.873020,-16854.100956,-26055.249158,26351.331535
1488.873339,-22216.769442,-25759.166782,13175.665768
1488.873658,-15398.519510,-22946.384202,26277.310941
1488.873977,-8886.707777,-8808.450710,29830.299463
1488.874295,5056.230287,11473.192101,27017.516883
1488.874614,3677.258390,18949.272115,5255.462188
1488.874933,13406.671215,35751.946999,-8734.430116
1488.875252,21297.454844,29090.093521,-14063.912898
1488.875570,23978.789087,27757.722825,-18505.148550
1488.875889,17620.196454,14211.954086,-17320.819043
1488.876208,11108.384721,13471.748144,-4737.318029
1488.876526,-7354.516781,-7105.977043,-8956.491898
1488.876845,-10955.165621,-26795.455100,21021.848753
1488.877164,-11644.651570,-33087.205607,46114.830187
1488.877483,-14402.595362,-26055.249158,33605.349767
1488.877801,-20991.016645,-23390.507767,21021.848753
1488.878120,-13866.328514,-23242.466579,31828.855506
1488.878439,-2757.943793,-5773.606348,35825.967593
1488.878758,2068.457845,14137.933492,17838.963202
1488.879076,5439.278036,22132.157666,11177.109724
1488.879395,12947.013916,36122.049970,2590.720797
1488.879714,18922.558801,21317.931130,-14285.974681
1488.880032,23365.912689,19615.457463,-14434.015869
1488.880351,16777.491406,24278.754898,-23908.651927
1488.880670,7124.688131,18431.127956,-21021.848753
1488.880989,-7354.516781,-1184.329507,-2812.782580
1488.881307,-10189.070123,-21539.992912,17246.798449
1488.881626,-7507.735880,-36936.276506,45152.562462
1488.881945,-18156.463303,-26647.413912,31606.793723
1488.882264,-22140.159892,-28497.928767,16062.468941
1488.882582,-16547.662757,-22280.198854,29386.175897
1488.882901,-8963.317327,-19171.333898,34641.638086
1488.883220,3983.696590,1850.514855,30200.402434
1488.883539,7814.174080,23686.590144,11251.130318
1488.883857,13023.623466,37824.523636,-7920.203579
1488.884176,19382.216099,26499.372724,-10807.006753
1488.884495,28115.704777,30200.402434,-14137.933492
1488.884813,23978.789087,24796.899057,-22946.384202
1488.885132,9806.022374,13545.768739,-22354.219448
1488.885451,-4443.353888,-3701.029710,5403.503377
1488.885770,-11568.042020,-12953.603985,6883.915261
1488.886088,-7201.297681,-32050.917289,36862.255912
1488.886407,-12487.356617,-32050.917289,40933.388593
1488.886726,-18386.291952,-25981.228564,14804.118840
1488.887045,-23212.693589,-29386.175897,28275.866984
1488.887363,-7814.174080,-16284.530724,35529.885216
1488.887682,-1608.800546,-2220.617826,29978.340651
1488.888001,8120.612279,14582.057057,15988.448347
1488.888319,9806.022374,35751.946999,-4515.256246
1488.888638,16471.053207,29904.320057,-8956.491898
1488.888957,22906.255390,24500.816680,-14063.912898
1488.889276,22446.598091,24574.837274,-16284.530724
1488.889594,12257.527968,11325.150913,-20429.683999
1488.889913,4290.134789,4959.379811,148.041188
1488.890232,-13636.499864,-10214.842000,-3478.967927
1488.890551,-8350.440928,-34863.699868,38712.770767
1488.890869,-12563.966167,-39749.059085,47447.200882
1488.891188,-16164.615008,-30348.443622,24278.754898
1488.891507,-20991.016645,-23834.631332,16876.695478
1488.891825,-10955.165621,-17764.942608,32050.917289
1488.892144,766.095498,-222.061783,35751.946999
1488.892463,11874.480219,15322.262999,17616.901420
1488.892782,9652.803275,34419.576303,-962.267725
1488.893100,14172.766713,26425.352129,-6735.874072
1488.893419,22753.036291,26499.372724,-17246.798449
1488.893738,25587.589633,29756.278868,-21243.910535
1488.894057,12334.137518,15248.242405,-25241.022622
1488.894375,2911.162892,-1776.494261,222.061783
1488.894694,-11797.870669,-9548.656652,-7920.203579
1488.895013,-8886.707777,-29978.340651,30274.423028
1488.895332,-11491.432470,-31532.773129,47299.159694
1488.895650,-17007.320056,-25685.146187,27683.702231
1488.895969,-23519.131789,-30200.402434,18505.148550
1488.896288,-14172.766713,-15692.365970,31088.649564
1488.896606,-6281.983084,-1332.370696,31236.690752
1488.896925,7967.393179,12139.377449,18135.045579
1488.897244,10725.336972,34863.699868,592.164754
1488.897563,15015.471761,32198.958477,-8068.244768
1488.897881,19612.044749,25463.084405,-20429.683999
1488.898200,23748.960438,26129.269753,-18875.251521
1488.898519,16088.005458,22280.198854,-27683.702231
1488.898838,4979.620737,-1628.453072,-888.247130
1488.899156,-13253.452115,-7179.997637,-10658.965565
1488.899475,-10112.460574,-26795.455100,25092.981434
1488.899794,-9959.241474,-33531.329173,48779.571578
1488.900113,-16547.662757,-27905.764013,26425.352129
1488.900431,-21067.626195,-35011.741057,22946.384202
1488.900750,-15321.909960,-17616.901420,24204.734303
1488.901069,-8963.317327,-2812.782580,25833.187376
1488.901388,7967.393179,12213.398043,27165.558071
1488.901707,9422.974625,24352.775492,7772.162391
1488.902025,15934.786358,38342.667796,-9844.739029
1488.902344,21910.331243,29090.093521,-16580.613101
1488.902663,25281.151434,25833.187376,-18949.272115
1488.902982,20684.578446,26203.290347,-31976.896694
1488.903301,5745.716235,8956.491898,-8290.306550
1488.903619,-6741.640382,-9178.553681,-3182.885551
1488.903938,-10035.851024,-26647.413912,9992.780217
1488.904257,-9269.755526,-29016.072926,44856.480085
1488.904576,-14555.814462,-28127.825796,36936.276506
1488.904895,-20224.921147,-29312.155303,17024.736666
1488.905213,-14862.252661,-19689.478057,29164.114115
1488.905532,-5745.716235,-5699.585753,33235.246796
1488.905851,5056.230287,14730.098246,23168.445985
1488.906170,8886.707777,24796.899057,1850.514855
1488.906489,17390.367805,30126.381839,2590.720797
1488.906807,14555.814462,28497.928767,-17172.777854
1488.907126,23748.960438,27461.640448,-12953.603985
1488.907445,15704.957709,17320.819043,-28053.805202
1488.907764,8197.221829,16728.654289,-10732.986159
1488.908083,-6052.154434,-6143.709319,-6439.791695
1488.908401,-12870.404366,-21614.013506,20725.766376
1488.908720,-14096.157163,-30792.567187,42339.779882
1488.909039,-18692.730151,-26573.393318,34937.720462
1488.909358,-22063.550342,-31310.711347,24648.857869
1488.909677,-18922.558801,-23834.631332,23908.651927
1488.909995,-9959.241474,-3923.091493,30126.381839
1488.910314,536.266849,6439.791695,28868.031738
1488.910633,9039.926876,24870.919651,10066.800811
1488.910952,16394.443657,32495.040854,4145.153275
1488.911270,16930.710506,27387.619854,-13397.727550
1488.911589,23365.912689,27905.764013,-11917.315666
1488.911908,21374.064394,27313.599260,-31088.649564
1488.912227,8120.612279,15766.386565,-12805.562797
1488.912546,-842.705048,-4737.318029,296.082377
1488.912864,-12104.308868,-16358.551318,5551.544565
1488.913183,-9269.755526,-25315.043216,35233.802839
1488.913502,-15168.690860,-28201.846390,32865.143825
1488.913821,-17237.148705,-35011.741057,25018.960840
1488.914140,-17850.025103,-29312.155303,27905.764013
1488.914458,-10495.508323,-13767.830521,26869.475695
1488.914777,-1838.629195,8586.388927,28645.969955
1488.915096,9039.926876,20725.766376,10214.842000
1488.915415,12717.185267,34567.617491,-296.082377
1488.915734,16394.443657,28571.949361,-10436.903782
1488.916052,24208.617737,26573.393318,-9474.636058
1488.916371,16471.053207,25685.146187,-27165.558071
1488.916690,9346.365076,6661.853478,-11991.336260
1488.917009,-2451.505594,1332.370696,-6587.832884
1488.917328,-12947.013916,-21169.889941,8290.306550
1488.917646,-10648.727422,-30200.402434,33605.349767
1488.917965,-14019.547613,-31532.773129,38934.832549
1488.918284,-17313.758255,-26647.413912,24056.693115
1488.918603,-15245.300410,-21762.054695,24574.837274
1488.918922,-8350.440928,-12583.501014,33605.349767
1488.919240,2145.067394,3775.050304,27239.578666
1488.919559,7890.783629,19171.333898,10066.800811
1488.919878,16088.005458,32198.958477,8438.347739
1488.920197,16547.662757,23094.425390,-4441.235652
1488.920516,26966.561530,27757.722825,-18727.210333
1488.920834,26583.513781,33013.185013,-25537.104999
1488.921153,12410.747068,14582.057057,-27165.558071
1488.921472,1915.238745,-2368.659014,6735.874072
1488.921791,-8580.269578,-9992.780217,0.000000
1488.922110,-8044.002729,-25611.125593,19985.560434
1488.922428,-9346.365076,-34271.535115,45226.583056
1488.922747,-23595.741338,-30126.381839,21465.972318
1488.923066,-23442.522239,-35751.946999,29238.134709
1488.923385,-15475.129060,-21614.013506,27905.764013
1488.923704,-7431.126331,74.020594,33161.226202
1488.924022,7124.688131,13323.706956,18209.066173
1488.924341,13713.109414,38564.729578,-5699.585753
1488.924660,15398.519510,30792.567187,-8956.491898
1488.924979,19765.263848,24870.919651,-11769.274478
1488.925298,20454.749797,32865.143825,-23834.631332
1488.925616,9806.022374,14582.057057,-19911.539840
1488.925935,4213.525239,296.082377,-4367.215058
1488.926254,-16394.443657,-11103.089130,-3034.844362
1488.926573,-9729.412825,-31606.793723,38268.647201
1488.926892,-15168.690860,-38712.770767,43302.047607
1488.927210,-13636.499864,-28053.805202,29904.320057
1488.927529,-21603.893044,-27165.558071,19615.457463
1488.927848,-12410.747068,-13841.851115,25018.960840
1488.928167,-3217.601092,-7402.059420,33975.452738
1488.928486,9116.536426,15914.427753,21243.910535
1488.928804,7814.174080,28645.969955,-2886.803174
1488.929123,14709.033562,25315.043216,-4737.318029
1488.929442,21297.454844,26129.269753,-15914.427753
1488.929761,21757.112143,29534.217086,-25981.228564
1488.930080,14019.547613,10955.047942,-13915.871710
1488.930398,4519.963438,2368.659014,-9104.533087
1488.930717,-13023.623466,-16654.633695,-4737.318029
1488.931036,-10955.165621,-29904.320057,26055.249158
1488.931355,-10035.851024,-31754.834912,44412.356520
1488.931674,-13789.718964,-31976.896694,32643.082042
1488.931992,-20301.530697,-32272.979071,17616.901420
1488.932311,-13023.623466,-7772.162391,24648.857869
1488.932630,-1149.143247,2812.782580,34049.473332
1488.932949,10955.165621,16950.716072,16950.716072
1488.933268,15628.348159,32050.917289,5403.503377
1488.933586,16241.224558,31976.896694,-4293.194464
1488.933905,26966.561530,23316.487173,-20873.807564
1488.934224,25894.027832,30718.546593,-24352.775492
1488.934543,16471.053207,21984.116477,-33013.185013
1488.934861,2604.724693,-5107.421000,2294.638420
1488.935180,-8963.317327,-11991.336260,-3997.112087
1488.935499,-12104.308868,-21391.951724,18727.210333
1488.935818,-8580.269578,-27091.537477,45966.788998
1488.936137,-21374.064394,-31162.670158,21391.951724
1488.936455,-20837.797546,-36344.111752,28201.846390
1488.936774,-16088.005458,-19171.333898,25463.084405
1488.937093,-11797.870669,-4737.318029,33457.308578
1488.937412,5515.887586,9178.553681,26795.455100
1488.937731,13713.109414,35529.885216,-962.267725
1488.938049,19688.654299,29090.093521,-3701.029710
1488.938368,17237.148705,32643.082042,-15840.407159
1488.938687,24515.055936,34197.514520,-21465.972318
1488.939006,13713.109414,18283.086767,-33161.226202
1488.939325,8580.269578,2664.741391,-6661.853478
1488.939643,-14249.376263,-7772.162391,-6735.874072
1488.939962,-14938.862211,-24426.796086,20947.828159
1488.940281,-13942.938064,-31976.896694,40193.182651
1488.940600,-16854.100956,-28423.908173,35307.823433
1488.940919,-22140.159892,-33901.432144,27313.599260
1488.941237,-17466.977354,-17320.819043,19541.436869
1488.941556,-7814.174080,-2294.638420,33235.246796
1488.941875,3983.696590,14952.160028,29978.340651
1488.942194,10342.289223,26351.331535,888.247130
1488.942513,18539.511052,25907.207970,-1036.288319
1488.942831,20531.359346,31606.793723,-11695.253884
1488.943150,25051.322785,30940.608376,-16876.695478
1488.943469,15934.786358,24278.754898,-34197.514520
1488.943788,6511.811733,-370.102971,-3627.009116
1488.944107,-5898.935335,-15618.345376,1850.514855
1488.944425,-16317.834107,-31606.793723,20281.642811
1488.944744,-12334.137518,-28423.908173,35825.967593
1488.945063,-12947.013916,-31236.690752,34345.555709
1488.945382,-18769.339701,-33087.205607,19023.292709
1488.945701,-14555.814462,-15544.324782,19393.395680
1488.946019,-4366.744339,-2812.782580,36936.276506
1488.946338,3140.991542,9474.636058,21910.095883
1488.946657,12487.356617,17912.983796,4071.132681
1488.946976,16854.100956,23834.631332,296.082377
1488.947295,19765.263848,22058.137072,-11621.233289
1488.947613,23136.084040,30422.464216,-20503.704593
1488.947932,16777.491406,27609.681637,-35529.885216
1488.948251,6358.592633,5477.523971,-4811.338623
1488.948570,-4903.011187,-5847.626942,-518.144159
1488.948889,-11184.994271,-18949.272115,8808.450710
1488.949207,-7431.126331,-24278.754898,33975.452738
1488.949526,-16164.615008,-28053.805202,32198.958477
1488.949845,-22829.645840,-36492.152941,23686.590144
1488.950164,-19075.777900,-28719.990550,29164.114115
1488.950483,-6052.154434,-2812.782580,38342.667796
1488.950801,3830.477490,12139.377449,28423.908173
1488.951120,11338.213370,28497.928767,-3701.029710
1488.951439,22063.550342,31532.773129,4589.276840
1488.951758,22293.378992,28571.949361,-13471.748144
1488.952077,23902.179538,33753.390955,-18801.230927
1488.952395,13330.061665,24426.796086,-36788.235317
1488.952714,7967.393179,5551.544565,-2220.617826
1488.953033,-6665.030833,-6735.874072,-2664.741391
1488.953352,-15015.471761,-22132.157666,10881.027347
1488.953671,-13713.109414,-29904.320057,36270.091158
1488.953989,-15781.567259,-30940.608376,32643.082042
1488.954308,-22063.550342,-29904.320057,26795.455100
1488.954627,-14402.595362,-19985.560434,29756.278868
1488.954946,-9576.193725,-1776.494261,33901.432144
1488.955265,3064.381992,9548.656652,32198.958477
1488.955583,10342.289223,25833.187376,3108.864956
1488.955902,17620.196454,28719.990550,6291.750507
1488.956221,18156.463303,21910.095883,-11547.212695
1488.956540,24821.494135,32050.917289,-18579.169144
1488.956859,20684.578446,34789.679274,-43598.129984
1488.957177,9652.803275,13767.830521,-3552.988522
1488.957496,-1378.971896,-5699.585753,-3923.091493
1488.957815,-12563.966167,-23612.569550,6957.935855
1488.958134,-9729.412825,-32717.102636,36788.235317
1488.958452,-17850.025103,-29164.114115,32717.102636
1488.958771,-16164.615008,-40711.326810,29608.237680
1488.959090,-15934.786358,-26499.372724,26129.269753
1488.959409,-4443.353888,-7179.997637,45004.521274
1488.959728,3294.210641,9622.677246,29386.175897
1488.960046,12257.527968,23834.631332,-2664.741391
1488.960365,21603.893044,32569.061448,11843.295072
1488.960684,20991.016645,23760.610738,-4367.215058
1488.961003,28651.971625,33161.226202,-21688.034101
1488.961322,22063.550342,20503.704593,-32346.999665
1488.961640,12793.794817,11769.274478,-2886.803174
1488.961959,-995.924147,-17838.963202,-1628.453072
1488.962278,-9422.974625,-29608.237680,19245.354492
1488.962597,-6894.859482,-33975.452738,43598.129984
1488.962916,-5822.325785,-28423.908173,34345.555709
1488.963234,-17083.929605,-24056.693115,11029.068536
1488.963553,-4443.353888,-20873.807564,39378.956114
1488.963872,-1072.533697,3849.070898,31384.731941
1488.964191,9039.926876,9918.759623,15322.262999
1488.964510,11261.603821,14211.954086,2442.679609
1488.964828,13176.842566,21836.075289,1110.308913
1488.965147,17543.586904,13767.830521,-7328.038826
1488.965466,16854.100956,21836.075289,-26055.249158
1488.965785,7890.783629,10362.883188,-25241.022622
1488.966104,7354.516781,-7179.997637,2368.659014
1488.966422,-8886.707777,-22428.240043,3775.050304
1488.966741,-11491.432470,-26795.455100,24648.857869
1488.967060,-9499.584175,-27017.516883,31754.834912
1488.967379,-13866.328514,-23094.425390,22650.301825
1488.967698,-6358.592633,-17098.757260,27535.661042
1488.968016,-3217.601092,-6513.812290,32717.102636
1488.968335,5822.325785,9030.512492,16284.530724
1488.968654,11874.480219,17172.777854,888.247130
1488.968973,13866.328514,14952.160028,1036.288319
1488.969292,13100.233016,12953.603985,-4441.235652
1488.969610,16011.395908,16284.530724,-9844.739029
1488.969929,9806.022374,15026.180623,-24278.754898
1488.970248,6128.763984,-4737.318029,-2960.823768
1488.970567,-2911.162892,-17394.839637,10288.862594
1488.970886,-10495.508323,-23538.548956,10066.800811
1488.971204,-5745.716235,-16802.674883,29534.217086
1488.971523,-4596.572988,-10955.047942,28423.908173
1488.971842,-5056.230287,-4737.318029,19763.498651
1488.972161,-383.047749,962.267725,21836.075289
1488.972480,4366.744339,6217.729913,18283.086767
1488.972798,6281.983084,4367.215058,7550.100608
1488.973117,6511.811733,3108.864956,1184.329507
1488.973436,9422.974625,5921.647536,2294.638420
1488.973755,9729.412825,7772.162391,-5699.585753
1488.974074,9499.584175,9252.574275,-11621.233289
1488.974392,5209.449386,-1924.535449,-1850.514855
1488.974711,1455.581446,-12139.377449,10807.006753
1488.975030,-1225.752797,-7994.224174,11325.150913
1488.975349,-459.657299,-4367.215058,14359.995275
1488.975668,-612.876398,-1702.473667,20873.807564
1488.975986,-229.828649,-6513.812290,24278.754898
1488.976305,383.047749,-2812.782580,20133.601622
1488.976624,-1532.190996,-1110.308913,15840.407159
1488.976943,-766.095498,-2146.597232,14804.118840
1488.977262,-229.828649,3182.885551,10288.862594
1488.977580,3140.991542,2886.803174,8956.491898
1488.977899,5592.497135,3478.967927,9474.636058
1488.978218,4366.744339,2294.638420,4515.256246
1488.978537,5592.497135,-1924.535449,5033.400406
1488.978856,5898.935335,-4959.379811,4737.318029
1488.979174,9346.365076,-4441.235652,7772.162391
1488.979493,9729.412825,-814.226536,6217.729913
1488.979812,7890.783629,2812.782580,7994.224174
1488.980131,5669.106685,-1332.370696,12805.562797
1488.980450,2528.115143,-1702.473667,15026.180623
1488.980768,-1072.533697,-962.267725,13693.809927
1488.981087,-3907.087040,-518.144159,12435.459826
1488.981406,-4213.525239,222.061783,10955.047942
1488.981725,-4903.011187,-814.226536,8956.491898
1488.982043,-3600.648841,-3552.988522,12213.398043
1488.982362,-1838.629195,-2590.720797,12065.356855
1488.982681,383.047749,-2146.597232,8216.285956
1488.983000,3677.258390,-2590.720797,8364.327145
1488.983319,5209.449386,-2664.741391,10140.821405
1488.983637,6511.811733,-3256.906145,10510.924376
1488.983956,6971.469032,-518.144159,7920.203579
1488.984275,7507.735880,1776.494261,7994.224174
1488.984594,8656.879127,2590.720797,7179.997637
1488.984913,7048.078582,1702.473667,5477.523971
1488.985231,5975.544884,888.247130,3552.988522
1488.985550,3064.381992,-0.000000,2812.782580
1488.985869,153.219100,-3404.947333,3256.906145
1488.986188,-1915.238745,-5329.482782,7550.100608
1488.986507,-2221.676944,-5921.647536,11399.171507
1488.986825,-2145.067394,-6809.894666,13323.706956
1488.987144,-1608.800546,-5551.544565,15396.283594
1488.987463,-689.485948,-5255.462188,16210.510130
1488.987782,229.828649,-1258.350101,13249.686362
1488.988101,3064.381992,444.123565,10881.027347
1488.988419,5439.278036,444.123565,9696.697840
1488.988738,5822.325785,-222.061783,7031.956449
1488.989057,6052.154434,-962.267725,5551.544565
1488.989376,5592.497135,-148.041188,2368.659014
1488.989695,4443.353888,-444.123565,518.144159
1488.990013,3447.429741,-2442.679609,1924.535449
1488.990332,2221.676944,-3404.947333,5403.503377
1488.990651,1378.971896,-2442.679609,8364.327145
1488.990970,766.095498,-3108.864956,11695.253884
1488.991289,536.266849,-2442.679609,14285.974681
1488.991607,1608.800546,-2812.782580,15174.221811
1488.991926,1608.800546,-4145.153275,14730.098246
1488.992245,1378.971896,-5995.668130,12509.480420
1488.992564,1685.410096,-5847.626942,10881.027347
1488.992883,2145.067394,-5551.544565,9474.636058
1488.993201,2451.505594,-3256.906145,5773.606348
1488.993520,3140.991542,-1036.288319,4145.153275
1488.993839,2987.772442,740.205942,3330.926739
1488.994158,2604.724693,1850.514855,3108.864956
1488.994477,2604.724693,370.102971,6439.791695
1488.994795,2681.334243,592.164754,8734.430116
1488.995114,3294.210641,-1036.288319,11399.171507
1488.995433,3217.601092,-2590.720797,13249.686362
1488.995752,2757.943793,-5329.482782,15692.365970
1488.996071,3064.381992,-6883.915261,15618.345376
1488.996389,2834.553343,-6587.832884,12879.583391
1488.996708,3677.258390,-4737.318029,11695.253884
1488.997027,4136.915689,-1850.514855,7698.141797
1488.997346,3677.258390,518.144159,5181.441594
1488.997665,2987.772442,518.144159,4885.359217
1488.997983,2298.286494,370.102971,5847.626942
1488.998302,1991.848295,296.082377,6291.750507
1488.998621,1532.190996,-148.041188,7476.080014
1488.998940,1532.190996,-1776.494261,9992.780217
1488.999259,1991.848295,-2664.741391,11473.192101
1488.999577,1991.848295,-3701.029710,12731.542202
1488.999896,3140.991542,-4663.297435,15026.180623
1489.000215,2528.115143,-3701.029710,14063.912898
1489.000534,3447.429741,-2220.617826,12213.398043
1489.000853,3064.381992,-74.020594,9696.697840
1489.001171,2451.505594,1258.350101,8142.265362
1489.001490,2145.067394,2072.576638,6365.771101
1489.001809,1915.238745,2738.761985,4737.318029
1489.002128,2374.896044,1850.514855,4885.359217
1489.002446,2911.162892,1628.453072,5699.585753
1489.002765,2834.553343,222.061783,7105.977043
1489.003084,2528.115143,-1776.494261,8512.368333
1489.003403,2068.457845,-3256.906145,10732.986159
1489.003721,1225.752797,-4515.256246,12435.459826
1489.004040,1762.019645,-4145.153275,14063.912898
1489.004359,1608.800546,-2886.803174,12583.501014
1489.004678,1915.238745,-1036.288319,11029.068536
1489.004996,1685.410096,518.144159,9178.553681
1489.005315,2145.067394,1332.370696,7550.100608
1489.005634,2298.286494,1998.556043,5847.626942
1489.005953,2911.162892,1554.432478,5625.565159
1489.006271,2681.334243,296.082377,6439.791695
1489.006590,2834.553343,-518.144159,7105.977043
1489.006909,2604.724693,-2368.659014,8882.471304
1489.007228,2298.286494,-3182.885551,10140.821405
1489.007546,2145.067394,-3775.050304,12361.439231
1489.007865,2374.896044,-3256.906145,13175.665768
1489.008184,2221.676944,-2442.679609,12361.439231
1489.008503,2681.334243,-2368.659014,12435.459826
1489.008821,2757.943793,-1776.494261,10362.883188
1489.009140,3064.381992,-2220.617826,9178.553681
1489.009459,2681.334243,-2442.679609,7772.162391
1489.009778,1838.629195,-2294.638420,7550.100608
1489.010097,2068.457845,-2442.679609,7179.997637
1489.010415,1608.800546,-1998.556043,7698.141797
1489.010734,2145.067394,-2294.638420,8956.491898
1489.011053,2068.457845,-1998.556043,9696.697840
1489.011372,2451.505594,-1998.556043,10436.903782
1489.011690,2528.115143,-2442.679609,11103.089130
1489.012009,2604.724693,-2590.720797,11769.274478
1489.012328,2221.676944,-2664.741391,11399.171507
1489.012647,1685.410096,-2590.720797,10140.821405
1489.012965,1455.581446,-2368.659014,9178.553681
1489.013284,1072.533697,-2072.576638,7698.141797
1489.013603,1072.533697,-666.185348,6809.894666
1489.013922,766.095498,444.123565,6143.709319
1489.014240,689.485948,666.185348,7179.997637
1489.014559,536.266849,962.267725,6957.935855
1489.014878,689.485948,-0.000000,7920.203579
1489.015197,612.876398,-1702.473667,9474.636058
1489.015515,995.924147,-2442.679609,10362.883188
1489.015834,1378.971896,-2960.823768,10732.986159
1489.016153,1762.019645,-2368.659014,9622.677246
1489.016472,2834.553343,-1480.411884,9030.512492
1489.016790,3140.991542,-148.041188,6883.915261
1489.017109,3524.039291,592.164754,5625.565159
1489.017428,2681.334243,740.205942,5551.544565
1489.017747,2451.505594,1702.473667,5403.503377
1489.018065,1608.800546,444.123565,5773.606348
1489.018384,1072.533697,-444.123565,7772.162391
1489.018703,766.095498,-1924.535449,10362.883188
1489.019022,1149.143247,-2812.782580,11547.212695
1489.019340,1378.971896,-3256.906145,12361.439231
1489.019659,2374.896044,-4145.153275,13619.789333
1489.019978,2911.162892,-3923.091493,13397.727550
1489.020297,3447.429741,-3182.885551,12509.480420
1489.020615,4060.306139,-2368.659014,11177.109724
1489.020934,3907.087040,-1406.391290,9400.615463
1489.021253,3600.648841,-740.205942,7105.977043
1489.021572,3447.429741,-296.082377,6143.709319
1489.021890,3907.087040,-666.185348,6735.874072
1489.022209,3753.867940,-1480.411884,7772.162391
1489.022528,3600.648841,-2072.576638,8956.491898
1489.022847,3907.087040,-2960.823768,10807.006753
1489.023165,3524.039291,-4293.194464,12731.542202
1489.023484,3140.991542,-4293.194464,13693.809927
1489.023803,3907.087040,-4589.276840,14359.995275
1489.024122,3753.867940,-3034.844362,12879.583391
1489.024440,4443.353888,-1554.432478,11177.109724
1489.024759,4749.792088,-74.020594,9474.636058
1489.025078,5515.887586,-0.000000,7328.038826
1489.025397,6052.154434,370.102971,6069.688724
1489.025715,5056.230287,-0.000000,5403.503377
1489.026034,4749.792088,-1110.308913,6069.688724
1489.026353,4366.744339,-1776.494261,6957.935855
1489.026672,4290.134789,-2146.597232,8734.430116
1489.026991,4136.915689,-3330.926739,9770.718434
1489.027309,3677.258390,-2590.720797,10436.903782
1489.027628,3983.696590,-2368.659014,10881.027347
1489.027947,3907.087040,-1628.453072,10955.047942
1489.028266,3830.477490,-1480.411884,10288.862594
1489.028584,3600.648841,-1110.308913,9992.780217
1489.028903,4060.306139,-1406.391290,8956.491898
1489.029222,3907.087040,-1998.556043,8660.409521
1489.029541,4443.353888,-1776.494261,7994.224174
1489.029859,4443.353888,-1406.391290,7920.203579
1489.030178,5056.230287,-1406.391290,7698.141797
1489.030497,5209.449386,-1480.411884,7698.141797
1489.030816,5592.497135,-1850.514855,9326.594869
1489.031134,5745.716235,-3108.864956,10140.821405
1489.031453,5515.887586,-4071.132681,11473.192101
1489.031772,5056.230287,-4515.256246,11843.295072
1489.032091,3753.867940,-4663.297435,11325.150913
1489.032409,2911.162892,-4811.338623,11399.171507
1489.032728,2221.676944,-4737.318029,10510.924376
1489.033047,1225.752797,-4293.194464,9918.759623
1489.033366,842.705048,-3108.864956,8660.409521
1489.033684,383.047749,-1998.556043,7772.162391
1489.034003,0.000000,-1554.432478,7994.224174
1489.034322,-766.095498,-2220.617826,8882.471304
1489.034641,-1685.410096,-3034.844362,9844.739029
1489.034959,-2298.286494,-3775.050304,10584.944971
1489.035278,-2451.505594,-4145.153275,11325.150913
1489.035597,-2221.676944,-4145.153275,11991.336260
1489.035916,-1685.410096,-3552.988522,11473.192101
1489.036234,-995.924147,-2294.638420,10510.924376
1489.036553,-842.705048,-962.267725,9104.533087
1489.036872,-536.266849,370.102971,7920.203579
1489.037191,0.000000,740.205942,6661.853478
1489.037509,153.219100,962.267725,6365.771101
1489.037828,306.438199,814.226536,6587.832884
1489.038147,536.266849,962.267725,6365.771101
1489.038466,842.705048,814.226536,6365.771101
1489.038784,1915.238745,-0.000000,7698.141797
1489.039103,2528.115143,-592.164754,8956.491898
1489.039422,3677.258390,-1184.329507,9474.636058
1489.039741,4596.572988,-1036.288319,9548.656652
1489.040059,5439.278036,-592.164754,9400.615463
1489.040378,5898.935335,-74.020594,9178.553681
1489.040697,6511.811733,370.102971,8734.430116
1489.041016,6511.811733,1110.308913,7994.224174
1489.041334,6971.469032,1036.288319,7179.997637
1489.041653,6741.640382,1480.411884,6513.812290
1489.041972,7048.078582,962.267725,7550.100608
1489.042291,7201.297681,-0.000000,8364.327145
1489.042609,6741.640382,-740.205942,9400.615463
1489.042928,6741.640382,-2072.576638,10436.903782
1489.043247,6205.373534,-1998.556043,11177.109724
1489.043566,5898.935335,-2664.741391,11991.336260
1489.043884,5439.278036,-2812.782580,12139.377449
1489.044203,4673.182538,-2738.761985,11991.336260
1489.044522,4060.306139,-2072.576638,10881.027347
1489.044841,3370.820191,-814.226536,10362.883188
1489.045160,1915.238745,-444.123565,9548.656652
1489.045478,1378.971896,-1184.329507,9252.574275
1489.045797,383.047749,-1776.494261,9992.780217
1489.046116,-306.438199,-1850.514855,10288.862594
1489.046435,-1225.752797,-1184.329507,9918.759623
1489.046753,-1838.629195,-740.205942,10584.944971
1489.047072,-1991.848295,-1628.453072,12065.356855
1489.047391,-1685.410096,-1258.350101,12657.521608
1489.047710,-459.657299,-1036.288319,11843.295072
1489.048028,-766.095498,-666.185348,11029.068536
1489.048347,-459.657299,-1480.411884,10584.944971
1489.048666,0.000000,-2294.638420,10658.965565
1489.048985,383.047749,-2146.597232,9770.718434
1489.049303,842.705048,-1850.514855,8290.306550
1489.049622,689.485948,-2220.617826,7994.224174
1489.049941,1149.143247,-1480.411884,8660.409521
1489.050260,1915.238745,-666.185348,8364.327145
1489.050578,2834.553343,-0.000000,7698.141797
1489.050897,2987.772442,-518.144159,8364.327145
1489.051216,3753.867940,-1998.556043,9696.697840
1489.051535,4443.353888,-2146.597232,10140.821405
1489.051853,4366.744339,-3034.844362,10066.800811
1489.052172,4213.525239,-3923.091493,10436.903782
1489.052491,4136.915689,-4589.276840,9844.739029
1489.052810,4060.306139,-3701.029710,8364.327145
1489.053128,4060.306139,-3552.988522,7772.162391
1489.053447,3524.039291,-2960.823768,8142.265362
1489.053766,2987.772442,-2368.659014,7698.141797
1489.054085,2911.162892,-1924.535449,6809.894666
1489.054403,2374.896044,-1480.411884,7698.141797
1489.054722,1991.848295,-2812.782580,9474.636058
1489.055041,2221.676944,-3552.988522,9696.697840
1489.055360,2451.505594,-3775.050304,10584.944971
1489.055678,2987.772442,-3330.926739,10362.883188
1489.055997,3600.648841,-3552.988522,10066.800811
1489.056316,3753.867940,-3552.988522,9696.697840
1489.056635,3600.648841,-3404.947333,8734.430116
1489.056953,3370.820191,-2442.679609,7846.182985
1489.057272,3370.820191,-962.267725,5699.585753
1489.057591,3600.648841,-0.000000,4737.318029
1489.057910,3217.601092,370.102971,5329.482782
1489.058228,2911.162892,592.164754,5921.647536
1489.058547,2145.067394,-148.041188,6365.771101
1489.058866,1762.019645,-1184.329507,7550.100608
1489.059185,1991.848295,-1480.411884,10658.965565
1489.059503,2145.067394,-1850.514855,10510.924376
1489.059822,3064.381992,-2220.617826,11177.109724
1489.060141,3524.039291,-2294.638420,11029.068536
1489.060460,4903.011187,-1628.453072,10436.903782
1489.060778,5362.668486,-666.185348,7179.997637
1489.061097,6358.592633,-222.061783,7179.997637
1489.061416,6128.763984,-148.041188,6735.874072
1489.061735,4903.011187,370.102971,4885.359217
1489.062054,3753.867940,-592.164754,5329.482782
1489.062372,1762.019645,-1480.411884,8068.244768
1489.062691,536.266849,-1110.308913,9178.553681
1489.063010,-612.876398,-1850.514855,10436.903782
1489.063329,-995.924147,-2960.823768,13619.789333
1489.063647,-919.314598,-4145.153275,15396.283594
1489.063966,-536.266849,-5255.462188,15692.365970
1489.064285,306.438199,-4663.297435,15692.365970
1489.064604,2374.896044,-3849.070898,13693.809927
1489.064922,3600.648841,-3034.844362,11621.233289
1489.065241,4673.182538,-2146.597232,9030.512492
1489.065560,4366.744339,-1184.329507,7476.080014
1489.065879,4366.744339,222.061783,5995.668130
1489.066197,2911.162892,666.185348,5033.400406
1489.066516,1685.410096,1702.473667,5255.462188
1489.066835,-153.219100,-0.000000,7476.080014
1489.067154,-1991.848295,-1628.453072,9622.677246
1489.067472,-3294.210641,-2812.782580,13027.624579
1489.067791,-3753.867940,-4367.215058,15618.345376
1489.068110,-3370.820191,-3923.091493,15026.180623
1489.068429,-1302.362347,-3775.050304,16580.613101
1489.068747,459.657299,-2886.803174,15026.180623
1489.069066,1608.800546,-0.000000,10955.047942
1489.069385,3524.039291,1702.473667,8438.347739
1489.069704,3600.648841,4219.173869,4589.276840
1489.070022,4903.011187,4811.338623,1924.535449
1489.070341,3217.601092,5255.462188,296.082377
1489.070660,2145.067394,4145.153275,1628.453072
1489.070979,612.876398,2664.741391,2442.679609
1489.071297,-1915.238745,518.144159,6291.750507
1489.071616,-3370.820191,-2590.720797,10288.862594
1489.071935,-4749.792088,-3034.844362,13767.830521
1489.072254,-4136.915689,-2738.761985,14582.057057
1489.072572,-2834.553343,-2812.782580,17764.942608
1489.072891,-919.314598,-1406.391290,17098.757260
1489.073210,1991.848295,814.226536,13915.871710
1489.073529,5362.668486,2812.782580,9770.718434
1489.073847,6435.202183,4589.276840,6217.729913
1489.074166,6971.469032,4737.318029,2516.700203
1489.074485,6971.469032,5329.482782,-1184.329507
1489.074804,5592.497135,4367.215058,-1924.535449
1489.075122,3753.867940,1998.556043,370.102971
1489.075441,919.314598,-148.041188,3182.885551
1489.075760,-1685.410096,-1776.494261,7698.141797
1489.076079,-4673.182538,-4071.132681,12805.562797
1489.076397,-6128.763984,-5107.421000,16654.633695
1489.076716,-7124.688131,-5181.441594,19837.519246
1489.077035,-5898.935335,-3034.844362,21243.910535
1489.077354,-3600.648841,-74.020594,18801.230927
1489.077672,-536.266849,1924.535449,14285.974681
1489.077991,2911.162892,3552.988522,10288.862594
1489.078310,4979.620737,4367.215058,4885.359217
1489.078629,6358.592633,6217.729913,0.000000
1489.078948,5822.325785,5847.626942,-2516.700203
1489.079266,5209.449386,3330.926739,-1110.308913
1489.079585,2451.505594,1332.370696,1110.308913
1489.079904,-766.095498,-1480.411884,5181.441594
1489.080223,-2757.943793,-3330.926739,11547.212695
1489.080541,-4596.572988,-4589.276840,15914.427753
1489.080860,-5209.449386,-4663.297435,19319.375086
1489.081179,-4136.915689,-4663.297435,22724.322419
1489.081498,-2451.505594,-222.061783,21984.116477
1489.081816,0.000000,-518.144159,17320.819043
1489.082135,3294.210641,2442.679609,14434.015869
1489.082454,7048.078582,2516.700203,8882.471304
1489.082773,8197.221829,4441.235652,1110.308913
1489.083091,8580.269578,4441.235652,-1924.535449
1489.083410,7124.688131,2664.741391,-2442.679609
1489.083729,5209.449386,1850.514855,-1036.288319
1489.084048,2451.505594,-444.123565,3034.844362
1489.084366,-1378.971896,-4293.194464,8956.491898
