#time,accel_x,accel_y,accel_z
1887.898261,995.924147,4885.359217,12953.603985
1887.898578,1225.752797,4515.256246,12805.562797
1887.898896,1915.238745,2960.823768,12583.501014
1887.899213,2145.067394,2220.617826,12435.459826
1887.899531,1762.019645,1480.411884,12953.603985
1887.899848,1072.533697,888.247130,13175.665768
1887.900165,459.657299,1184.329507,13397.727550
1887.900483,-229.828649,1850.514855,13323.706956
1887.900800,-306.438199,1998.556043,13249.686362
1887.901117,0.000000,2368.659014,12731.542202
1887.901435,0.000000,1850.514855,12139.377449
1887.901752,459.657299,814.226536,11251.130318
1887.902069,383.047749,-222.061783,10658.965565
1887.902387,1072.533697,-888.247130,10584.944971
1887.902704,995.924147,-1406.391290,10066.800811
1887.903022,536.266849,-592.164754,9548.656652
1887.903339,383.047749,-296.082377,9400.615463
1887.903656,-383.047749,222.061783,9326.594869
1887.903974,-766.095498,296.082377,9030.512492
1887.904291,-1455.581446,148.041188,9178.553681
1887.904608,-1378.971896,-0.000000,8882.471304
1887.904926,-1378.971896,-962.267725,8364.327145
1887.905243,-995.924147,-1554.432478,8586.388927
1887.905560,0.000000,-1850.514855,8216.285956
1887.905878,-306.438199,-1406.391290,7624.121203
1887.906195,0.000000,-1036.288319,6957.935855
1887.906513,0.000000,-814.226536,7476.080014
1887.906830,76.609550,-296.082377,7105.977043
1887.907147,229.828649,-370.102971,7179.997637
1887.907465,383.047749,-740.205942,6661.853478
1887.907782,459.657299,-1110.308913,6587.832884
1887.908099,689.485948,-1406.391290,6587.832884
1887.908417,1302.362347,-1776.494261,6069.688724
1887.908734,1685.410096,-2146.597232,6069.688724
1887.909052,1991.848295,-2146.597232,5995.668130
1887.909369,2145.067394,-1702.473667,5847.626942
1887.909686,1991.848295,-1406.391290,5847.626942
1887.910004,1072.533697,-1554.432478,6513.812290
1887.910321,612.876398,-1776.494261,7105.977043
1887.910638,383.047749,-1776.494261,7328.038826
1887.910956,-229.828649,-1924.535449,7624.121203
1887.911273,-383.047749,-1850.514855,7698.141797
1887.911590,-306.438199,-2220.617826,7624.121203
1887.911908,-1072.533697,-1406.391290,7402.059420
1887.912225,-1302.362347,-888.247130,7698.141797
1887.912543,-1991.848295,-592.164754,7920.203579
1887.912860,-2834.553343,-0.000000,8586.388927
1887.913177,-3907.087040,296.082377,8660.409521
1887.913495,-4366.744339,962.267725,9030.512492
1887.913812,-5209.449386,2072.576638,9030.512492
1887.914129,-5515.887586,2368.659014,9104.533087
1887.914447,-5822.325785,2664.741391,8882.471304
1887.914764,-6435.202183,3478.967927,9104.533087
1887.915081,-5822.325785,4145.153275,9474.636058
1887.915399,-6511.811733,4145.153275,9400.615463
1887.915716,-6511.811733,4663.297435,9474.636058
1887.916034,-6511.811733,4515.256246,9548.656652
1887.916351,-6205.373534,5551.544565,9622.677246
1887.916668,-6052.154434,6069.688724,10066.800811
1887.916986,-5209.449386,6439.791695,10436.903782
1887.917303,-4060.306139,6957.935855,10807.006753
1887.917620,-2834.553343,7105.977043,10288.862594
1887.917938,-2068.457845,7550.100608,10362.883188
1887.918255,-1149.143247,8068.244768,9622.677246
1887.918572,0.000000,8216.285956,9252.574275
1887.918890,612.876398,8808.450710,8290.306550
1887.919207,995.924147,8586.388927,8216.285956
1887.919525,1302.362347,8882.471304,7698.141797
1887.919842,536.266849,8216.285956,8068.244768
1887.920159,-766.095498,7031.956449,8290.306550
1887.920477,-2528.115143,5699.585753,9918.759623
1887.920794,-4366.744339,4219.173869,11843.295072
1887.921111,-5286.058936,4293.194464,12583.501014
1887.921429,-5975.544884,4367.215058,13175.665768
1887.921746,-6052.154434,4959.379811,13545.768739
1887.922063,-5439.278036,5107.421000,13841.851115
1887.922381,-4979.620737,5773.606348,13693.809927
1887.922698,-3524.039291,6513.812290,13249.686362
1887.923016,-2528.115143,6735.874072,12953.603985
1887.923333,-1762.019645,6735.874072,13249.686362
1887.923650,-459.657299,6439.791695,13175.665768
1887.923968,612.876398,6735.874072,12065.356855
1887.924285,1838.629195,6661.853478,11695.253884
1887.924602,2987.772442,6513.812290,10881.027347
1887.924920,4136.915689,6069.688724,10140.821405
1887.925237,4826.401637,5329.482782,9992.780217
1887.925554,4903.011187,4515.256246,9548.656652
1887.925872,4826.401637,3552.988522,9252.574275
1887.926189,4060.306139,2442.679609,8882.471304
1887.926507,3217.601092,1554.432478,9770.718434
1887.926824,2145.067394,-0.000000,10214.842000
1887.927141,1532.190996,-814.226536,11621.233289
1887.927459,1302.362347,-1036.288319,12139.377449
1887.927776,1149.143247,-1184.329507,12287.418637
1887.928093,1225.752797,-1406.391290,12065.356855
1887.928411,1532.190996,-1776.494261,11473.192101
1887.928728,1838.629195,-2664.741391,10732.986159
1887.929045,2451.505594,-2738.761985,10288.862594
1887.929363,2681.334243,-3034.844362,9992.780217
1887.929680,3447.429741,-3478.967927,9844.739029
1887.929997,3370.820191,-3849.070898,9622.677246
1887.930315,2757.943793,-4071.132681,9844.739029
1887.930632,2528.115143,-3923.091493,10214.842000
1887.930949,2145.067394,-4367.215058,9474.636058
1887.931267,1762.019645,-5181.441594,9252.574275
1887.931584,2221.676944,-5181.441594,8734.430116
1887.931901,2068.457845,-4811.338623,8216.285956
1887.932218,2681.334243,-5181.441594,7031.956449
1887.932536,2298.286494,-5551.544565,6587.832884
1887.932853,2221.676944,-6735.874072,7031.956449
1887.933170,766.095498,-6883.915261,7550.100608
1887.933488,76.609550,-7031.956449,8068.244768
1887.933805,-306.438199,-6883.915261,8216.285956
1887.934122,-306.438199,-5847.626942,8216.285956
1887.934440,459.657299,-4737.318029,7476.080014
1887.934757,1225.752797,-3108.864956,6439.791695
1887.935074,1532.190996,-2220.617826,5847.626942
1887.935391,1608.800546,-2072.576638,5477.523971
1887.935709,842.705048,-2516.700203,5329.482782
1887.936026,459.657299,-3330.926739,6069.688724
1887.936343,0.000000,-3034.844362,6513.812290
1887.936661,383.047749,-2368.659014,6069.688724
1887.936978,383.047749,-1184.329507,5403.503377
1887.937295,1225.752797,-444.123565,5403.503377
1887.937613,1762.019645,-0.000000,4811.338623
1887.937930,1685.410096,370.102971,4441.235652
1887.938247,1149.143247,592.164754,4367.215058
1887.938565,383.047749,296.082377,4885.359217
1887.938882,0.000000,296.082377,5921.647536
1887.939199,0.000000,962.267725,6291.750507
1887.939516,0.000000,1924.535449,7179.997637
1887.939834,153.219100,3256.906145,7402.059420
1887.940151,0.000000,3627.009116,7994.224174
1887.940468,-76.609550,4293.194464,8586.388927
1887.940786,-459.657299,4219.173869,8734.430116
1887.941103,-766.095498,4515.256246,9178.553681
1887.941420,-995.924147,4293.194464,9326.594869
1887.941738,-995.924147,4515.256246,9548.656652
1887.942055,-1072.533697,4959.379811,9844.739029
1887.942372,-536.266849,5329.482782,10288.862594
1887.942690,-1072.533697,5329.482782,11103.089130
1887.943007,-689.485948,4737.318029,11769.274478
1887.943324,-1532.190996,4293.194464,11991.336260
1887.943641,-1915.238745,3997.112087,12805.562797
1887.943959,-2298.286494,4071.132681,13175.665768
1887.944276,-2068.457845,3034.844362,13027.624579
1887.944593,-1685.410096,3182.885551,12731.542202
1887.944911,-995.924147,3923.091493,13027.624579
1887.945228,-689.485948,4293.194464,12879.583391
1887.945545,0.000000,4589.276840,13249.686362
1887.945863,0.000000,4737.318029,12879.583391
1887.946180,-536.266849,4293.194464,13323.706956
1887.946497,-689.485948,3997.112087,13397.727550
1887.946815,-383.047749,3997.112087,12879.583391
1887.947132,0.000000,3997.112087,12657.521608
1887.947449,612.876398,3701.029710,12879.583391
1887.947766,1149.143247,2738.761985,13027.624579
1887.948084,1225.752797,2960.823768,12879.583391
1887.948401,1072.533697,3108.864956,13101.645173
1887.948718,536.266849,3034.844362,13471.748144
1887.949036,153.219100,2442.679609,13101.645173
1887.949353,-229.828649,2146.597232,12583.501014
1887.949670,76.609550,2220.617826,12139.377449
1887.949988,766.095498,2146.597232,11917.315666
1887.950305,1149.143247,1332.370696,11695.253884
1887.950622,1685.410096,1184.329507,11695.253884
1887.950940,842.705048,592.164754,11399.171507
1887.951257,1149.143247,222.061783,10510.924376
1887.951574,1225.752797,-222.061783,10510.924376
1887.951891,1532.190996,-148.041188,10066.800811
1887.952209,2221.676944,-74.020594,9474.636058
1887.952526,2451.505594,-1036.288319,9178.553681
1887.952843,3140.991542,-1332.370696,8660.409521
1887.953161,3294.210641,-2072.576638,8068.244768
1887.953478,3447.429741,-2516.700203,7624.121203
1887.953795,3830.477490,-3404.947333,7994.224174
1887.954113,2451.505594,-4441.235652,7624.121203
1887.954430,2298.286494,-4811.338623,7476.080014
1887.954747,2298.286494,-4441.235652,7402.059420
1887.955065,2374.896044,-4219.173869,7254.018232
1887.955382,2145.067394,-4145.153275,6883.915261
1887.955699,2451.505594,-4441.235652,6957.935855
1887.956016,2298.286494,-4441.235652,6883.915261
1887.956334,1762.019645,-4663.297435,6735.874072
1887.956651,1302.362347,-4737.318029,6365.771101
1887.956968,1378.971896,-4885.359217,6217.729913
1887.957286,1685.410096,-4071.132681,5995.668130
1887.957603,2068.457845,-3330.926739,5699.585753
1887.957920,2068.457845,-2590.720797,5625.565159
1887.958238,2221.676944,-2590.720797,5551.544565
1887.958555,1685.410096,-3182.885551,5477.523971
1887.958872,1378.971896,-3330.926739,5847.626942
1887.959190,612.876398,-3552.988522,6069.688724
1887.959507,153.219100,-3552.988522,5921.647536
1887.959824,229.828649,-2812.782580,6217.729913
1887.960141,229.828649,-2442.679609,6661.853478
1887.960459,76.609550,-2146.597232,6883.915261
1887.960776,153.219100,-2146.597232,7105.977043
1887.961093,-842.705048,-2146.597232,7476.080014
1887.961411,-612.876398,-2442.679609,8734.430116
1887.961728,-1532.190996,-2220.617826,8216.285956
1887.962045,-1378.971896,-2072.576638,8808.450710
1887.962363,-459.657299,-1628.453072,8290.306550
1887.962680,0.000000,-1036.288319,8808.450710
1887.962997,1225.752797,-222.061783,8808.450710
1887.963314,383.047749,-222.061783,8882.471304
1887.963632,383.047749,-0.000000,9474.636058
1887.963949,459.657299,-0.000000,9696.697840
1887.964266,0.000000,518.144159,9844.739029
1887.964584,383.047749,370.102971,10214.842000
1887.964901,383.047749,888.247130,10436.903782
1887.965218,842.705048,2146.597232,10362.883188
1887.965536,1072.533697,2368.659014,10584.944971
1887.965853,995.924147,2812.782580,10955.047942
1887.966170,842.705048,2664.741391,11473.192101
1887.966488,536.266849,2368.659014,11769.274478
1887.966805,0.000000,2590.720797,12139.377449
1887.967122,689.485948,2960.823768,12435.459826
1887.967439,1378.971896,3404.947333,12509.480420
1887.967757,2528.115143,4515.256246,11843.295072
1887.968074,2834.553343,4589.276840,11769.274478
1887.968391,2911.162892,4885.359217,11621.233289
1887.968709,2757.943793,4145.153275,11325.150913
1887.969026,2221.676944,3775.050304,11695.253884
1887.969343,1608.800546,3627.009116,11917.315666
1887.969661,1072.533697,3552.988522,11917.315666
1887.969978,766.095498,3627.009116,11843.295072
1887.970295,919.314598,3330.926739,11769.274478
1887.970613,536.266849,3256.906145,11547.212695
1887.970930,229.828649,3034.844362,11399.171507
1887.971247,-536.266849,2146.597232,11547.212695
1887.971564,-1378.971896,2146.597232,11325.150913
1887.971882,-1915.238745,962.267725,11325.150913
1887.972199,-1608.800546,1406.391290,11843.295072
1887.972516,-1685.410096,740.205942,11843.295072
1887.972834,-1225.752797,592.164754,11103.089130
1887.973151,-842.705048,740.205942,10955.047942
1887.973468,-383.047749,888.247130,10807.006753
1887.973786,-383.047749,370.102971,10584.944971
1887.974103,-306.438199,-0.000000,9992.780217
1887.974420,0.000000,-148.041188,9770.718434
1887.974738,0.000000,-74.020594,9178.553681
1887.975055,536.266849,-296.082377,9326.594869
1887.975372,919.314598,-444.123565,8956.491898
1887.975689,1072.533697,-518.144159,8882.471304
1887.976007,919.314598,-740.205942,8734.430116
1887.976324,459.657299,-1480.411884,8808.450710
1887.976641,229.828649,-1850.514855,8882.471304
1887.976959,153.219100,-2368.659014,8586.388927
1887.977276,766.095498,-2368.659014,8216.285956
1887.977593,1149.143247,-2664.741391,8216.285956
1887.977911,2068.457845,-2368.659014,7846.182985
1887.978228,2757.943793,-2220.617826,7772.162391
1887.978545,3600.648841,-2146.597232,7402.059420
1887.978863,3294.210641,-2960.823768,7402.059420
1887.979180,3140.991542,-2886.803174,7476.080014
1887.979497,3064.381992,-3034.844362,7254.018232
1887.979814,2987.772442,-2442.679609,6809.894666
1887.980132,3294.210641,-2812.782580,6735.874072
1887.980449,3677.258390,-2664.741391,6587.832884
1887.980766,3830.477490,-2960.823768,6365.771101
1887.981084,3983.696590,-3404.947333,6735.874072
1887.981401,3294.210641,-3701.029710,6661.853478
1887.981718,2298.286494,-4145.153275,7179.997637
1887.982036,1838.629195,-3775.050304,7328.038826
1887.982353,1915.238745,-3923.091493,7550.100608
1887.982670,1991.848295,-3330.926739,7698.141797
1887.982988,2221.676944,-2590.720797,7550.100608
1887.983305,2528.115143,-2220.617826,7846.182985
1887.983622,2298.286494,-2220.617826,7994.224174
1887.983939,2374.896044,-2368.659014,8068.244768
1887.984257,2145.067394,-2294.638420,7994.224174
1887.984574,1608.800546,-1258.350101,8290.306550
1887.984891,1762.019645,-888.247130,8290.306550
1887.985209,1838.629195,-444.123565,8512.368333
1887.985526,1762.019645,-444.123565,9030.512492
1887.985843,1762.019645,-74.020594,8882.471304
1887.986161,1072.533697,-0.000000,9400.615463
1887.986478,383.047749,-74.020594,9474.636058
1887.986795,76.609550,-296.082377,9918.759623
1887.987113,0.000000,-296.082377,10066.800811
1887.987430,0.000000,222.061783,10362.883188
1887.987747,153.219100,518.144159,10214.842000
1887.988064,689.485948,1110.308913,10362.883188
1887.988382,766.095498,1332.370696,10658.965565
1887.988699,842.705048,1036.288319,10732.986159
1887.989016,842.705048,1110.308913,10732.986159
1887.989334,76.609550,1184.329507,11103.089130
1887.989651,153.219100,1702.473667,11177.109724
1887.989968,229.828649,2072.576638,11029.068536
1887.990286,229.828649,2516.700203,10362.883188
1887.990603,842.705048,3478.967927,10584.944971
1887.990920,766.095498,3923.091493,10436.903782
1887.991237,229.828649,3552.988522,10510.924376
1887.991555,-229.828649,3034.844362,10658.965565
1887.991872,-919.314598,2738.761985,11177.109724
1887.992189,-1608.800546,2368.659014,11695.253884
1887.992507,-1302.362347,2368.659014,11695.253884
1887.992824,-1225.752797,2738.761985,11695.253884
1887.993141,-689.485948,3256.906145,11251.130318
1887.993459,0.000000,3478.967927,11325.150913
1887.993776,-306.438199,3552.988522,10955.047942
1887.994093,-536.266849,3182.885551,11177.109724
1887.994411,-919.314598,3330.926739,10955.047942
1887.994728,-919.314598,3182.885551,10807.006753
1887.995045,-689.485948,3330.926739,10510.924376
1887.995362,-306.438199,3404.947333,10436.903782
1887.995680,153.219100,3404.947333,9992.780217
1887.995997,76.609550,3478.967927,10214.842000
1887.996314,0.000000,2738.761985,9918.759623
1887.996632,-229.828649,2368.659014,9548.656652
1887.996949,-689.485948,1406.391290,9548.656652
1887.997266,-689.485948,1184.329507,9474.636058
1887.997584,-536.266849,962.267725,9474.636058
1887.997901,-306.438199,1036.288319,9474.636058
1887.998218,306.438199,740.205942,9252.574275
1887.998536,689.485948,1332.370696,9474.636058
1887.998853,383.047749,-148.041188,8956.491898
1887.999170,842.705048,-444.123565,8956.491898
1887.999487,306.438199,-444.123565,9474.636058
1887.999805,229.828649,-148.041188,9548.656652
1888.000122,306.438199,-74.020594,9104.533087
1888.000439,689.485948,-518.144159,8734.430116
1888.000757,766.095498,-0.000000,8660.409521
1888.001074,1378.971896,-74.020594,8216.285956
1888.001391,1685.410096,-370.102971,8068.244768
1888.001709,1225.752797,-814.226536,7994.224174
1888.002026,919.314598,-1332.370696,8586.388927
1888.002343,536.266849,-2294.638420,8068.244768
1888.002661,612.876398,-2368.659014,8512.368333
1888.002978,689.485948,-2146.597232,8660.409521
1888.003295,1608.800546,-1702.473667,8734.430116
1888.003612,2451.505594,-2072.576638,8142.265362
1888.003930,2604.724693,-1628.453072,8290.306550
1888.004247,2221.676944,-2294.638420,8216.285956
1888.004564,2145.067394,-2442.679609,8734.430116
1888.004882,1685.410096,-2664.741391,8216.285956
1888.005199,1762.019645,-2516.700203,8216.285956
1888.005516,2221.676944,-2368.659014,8438.347739
1888.005834,2604.724693,-1850.514855,8068.244768
1888.006151,2757.943793,-1554.432478,8142.265362
1888.006468,2757.943793,-2072.576638,8216.285956
1888.006786,2068.457845,-2294.638420,8512.368333
1888.007103,1762.019645,-1998.556043,8882.471304
1888.007420,1225.752797,-2368.659014,9030.512492
1888.007737,1685.410096,-1628.453072,9030.512492
1888.008055,2221.676944,-1036.288319,8734.430116
1888.008372,2374.896044,-592.164754,8734.430116
1888.008689,2374.896044,-74.020594,8734.430116
1888.009007,1838.629195,-0.000000,9030.512492
1888.009324,1608.800546,-74.020594,9104.533087
1888.009641,1302.362347,222.061783,9400.615463
1888.009959,689.485948,518.144159,9178.553681
1888.010276,766.095498,1258.350101,9400.615463
1888.010593,1072.533697,2294.638420,9178.553681
1888.010911,1455.581446,2220.617826,8808.450710
1888.011228,1149.143247,2294.638420,9400.615463
1888.011545,995.924147,2146.597232,9252.574275
1888.011862,612.876398,2220.617826,9326.594869
1888.012180,-153.219100,1998.556043,9918.759623
1888.012497,-689.485948,1850.514855,10288.862594
1888.012814,-689.485948,2220.617826,10362.883188
1888.013132,-766.095498,2294.638420,10584.944971
1888.013449,-383.047749,2960.823768,10362.883188
1888.013766,-229.828649,2886.803174,10658.965565
1888.014084,-459.657299,2590.720797,10658.965565
1888.014401,-153.219100,2368.659014,10362.883188
1888.014718,-689.485948,2146.597232,10732.986159
1888.015036,-1302.362347,2368.659014,10658.965565
1888.015353,-1302.362347,2664.741391,10584.944971
1888.015670,-995.924147,2590.720797,10436.903782
1888.015987,0.000000,3108.864956,10732.986159
1888.016305,-536.266849,3108.864956,10510.924376
1888.016622,-766.095498,2960.823768,10436.903782
1888.016939,-1378.971896,2516.700203,10584.944971
1888.017257,-1302.362347,2220.617826,11029.068536
1888.017574,-1685.410096,1850.514855,10955.047942
1888.017891,-1302.362347,2146.597232,10732.986159
1888.018209,-459.657299,1998.556043,10510.924376
1888.018526,0.000000,2368.659014,10362.883188
1888.018843,383.047749,2442.679609,10436.903782
1888.019161,0.000000,2072.576638,10732.986159
1888.019478,-229.828649,2146.597232,10510.924376
1888.019795,-153.219100,1480.411884,9992.780217
1888.020112,-383.047749,1258.350101,10140.821405
1888.020430,153.219100,1480.411884,10732.986159
1888.020747,229.828649,1924.535449,9696.697840
1888.021064,919.314598,1924.535449,9104.533087
1888.021382,1072.533697,1850.514855,8808.450710
1888.021699,2145.067394,1184.329507,9326.594869
1888.022016,1225.752797,444.123565,8364.327145
1888.022334,153.219100,-0.000000,8512.368333
1888.022651,153.219100,-296.082377,8808.450710
1888.022968,0.000000,-296.082377,9030.512492
1888.023285,229.828649,-592.164754,8956.491898
1888.023603,306.438199,-888.247130,9030.512492
1888.023920,536.266849,-814.226536,9030.512492
1888.024237,689.485948,-1110.308913,8956.491898
1888.024555,536.266849,-1332.370696,8364.327145
1888.024872,229.828649,-1702.473667,8882.471304
1888.025189,459.657299,-1480.411884,8290.306550
1888.025507,842.705048,-1406.391290,7994.224174
1888.025824,1072.533697,-1406.391290,8142.265362
1888.026141,1762.019645,-962.267725,8290.306550
1888.026459,1685.410096,-1480.411884,7994.224174
1888.026776,1838.629195,-1184.329507,8068.244768
1888.027093,1455.581446,-1998.556043,8586.388927
1888.027410,919.314598,-2368.659014,8734.430116
1888.027728,1302.362347,-2072.576638,8660.409521
1888.028045,1455.581446,-2220.617826,8586.388927
1888.028362,1608.800546,-1924.535449,8438.347739
1888.028680,2068.457845,-962.267725,8364.327145
1888.028997,2298.286494,-1184.329507,7994.224174
1888.029314,2221.676944,-1406.391290,8586.388927
1888.029632,1532.190996,-1850.514855,9326.594869
1888.029949,1225.752797,-1776.494261,9252.574275
1888.030253,1225.752797,-1258.350101,8882.471304
1888.030571,1532.190996,-1110.308913,9104.533087
1888.030888,1838.629195,-296.082377,9178.553681
1888.031205,2068.457845,-296.082377,8586.388927
1888.031523,2145.067394,-0.000000,8364.327145
1888.031840,2068.457845,-296.082377,8512.368333
1888.032158,1225.752797,-444.123565,8734.430116
1888.032475,995.924147,-592.164754,8586.388927
1888.032793,536.266849,-814.226536,9548.656652
1888.033110,76.609550,-666.185348,9844.739029
1888.033428,153.219100,-444.123565,9992.780217
1888.033745,842.705048,-0.000000,9696.697840
1888.034062,0.000000,370.102971,9844.739029
1888.034380,-306.438199,222.061783,10066.800811
1888.034697,-383.047749,370.102971,10066.800811
1888.035015,-229.828649,370.102971,10066.800811
1888.035332,-306.438199,370.102971,10214.842000
1888.035650,-383.047749,1184.329507,10214.842000
1888.035967,153.219100,1628.453072,10066.800811
1888.036285,229.828649,1924.535449,10288.862594
1888.036602,229.828649,2146.597232,10214.842000
1888.036920,153.219100,1628.453072,9844.739029
1888.037237,0.000000,1924.535449,10214.842000
1888.037554,-306.438199,1702.473667,10510.924376
1888.037872,-536.266849,1924.535449,10658.965565
1888.038189,0.000000,2072.576638,10584.944971
1888.038507,459.657299,2368.659014,10436.903782
1888.038824,919.314598,2146.597232,10362.883188
1888.039142,1149.143247,2220.617826,10807.006753
1888.039459,995.924147,2368.659014,10436.903782
1888.039777,766.095498,1702.473667,10881.027347
1888.040094,612.876398,1554.432478,11029.068536
1888.040411,766.095498,1628.453072,10807.006753
1888.040729,995.924147,1998.556043,10584.944971
1888.041046,1302.362347,1924.535449,10584.944971
1888.041364,1762.019645,2072.576638,10658.965565
1888.041681,1991.848295,1628.453072,9918.759623
1888.041999,1838.629195,1406.391290,9918.759623
1888.042316,919.314598,592.164754,10214.842000
1888.042634,842.705048,296.082377,10066.800811
1888.042951,612.876398,296.082377,9918.759623
1888.043268,536.266849,444.123565,9918.759623
1888.043586,995.924147,518.144159,9770.718434
1888.043903,995.924147,370.102971,9400.615463
1888.044221,1072.533697,148.041188,9326.594869
1888.044538,919.314598,-222.061783,9104.533087
1888.044856,536.266849,-740.205942,9400.615463
1888.045173,306.438199,-592.164754,9030.512492
1888.045491,0.000000,-518.144159,9178.553681
1888.045808,0.000000,-222.061783,9104.533087
1888.046125,0.000000,-370.102971,9104.533087
1888.046443,306.438199,-444.123565,8956.491898
1888.046760,153.219100,-148.041188,8808.450710
1888.047078,153.219100,-814.226536,9030.512492
1888.047395,0.000000,-1036.288319,8586.388927
1888.047713,0.000000,-1554.432478,8586.388927
1888.048030,612.876398,-888.247130,8364.327145
1888.048348,383.047749,-740.205942,8068.244768
1888.048665,1149.143247,-740.205942,7772.162391
1888.048983,1532.190996,-666.185348,7772.162391
1888.049300,1455.581446,-962.267725,7846.182985
1888.049617,1455.581446,-1258.350101,7994.224174
1888.049935,1149.143247,-1554.432478,8142.265362
1888.050252,1149.143247,-1628.453072,8290.306550
1888.050570,1225.752797,-1480.411884,8364.327145
1888.050887,1532.190996,-1480.411884,7920.203579
1888.051205,2068.457845,-962.267725,7698.141797
1888.051522,2145.067394,-962.267725,7624.121203
1888.051840,2221.676944,-1406.391290,8068.244768
1888.052157,1915.238745,-1776.494261,8512.368333
1888.052474,1225.752797,-2146.597232,8808.450710
1888.052792,1378.971896,-1924.535449,8660.409521
1888.053109,1378.971896,-1480.411884,8882.471304
1888.053427,1532.190996,-1406.391290,9178.553681
1888.053744,1302.362347,-1184.329507,9104.533087
1888.054062,1685.410096,-888.247130,9178.553681
1888.054379,2221.676944,-518.144159,8956.491898
1888.054697,1685.410096,-888.247130,9104.533087
1888.055014,1455.581446,-962.267725,9178.553681
1888.055331,689.485948,-1184.329507,8956.491898
1888.055649,612.876398,-962.267725,9326.594869
1888.055966,306.438199,-740.205942,9178.553681
1888.056284,536.266849,-444.123565,9548.656652
1888.056601,229.828649,-518.144159,9622.677246
1888.056919,153.219100,-1036.288319,10362.883188
1888.057236,-383.047749,-1036.288319,10436.903782
1888.057554,-459.657299,-814.226536,10510.924376
1888.057871,-306.438199,-888.247130,10658.965565
1888.058188,0.000000,-962.267725,10436.903782
1888.058506,689.485948,-222.061783,10584.944971
1888.058823,1149.143247,370.102971,10140.821405
1888.059141,1378.971896,518.144159,9992.780217
1888.059458,1685.410096,518.144159,9992.780217
1888.059776,1608.800546,370.102971,9918.759623
1888.060093,1915.238745,370.102971,9992.780217
1888.060411,1149.143247,-0.000000,10214.842000
1888.060728,1149.143247,592.164754,10362.883188
1888.061046,1378.971896,814.226536,9918.759623
1888.061363,1685.410096,1036.288319,10140.821405
1888.061680,1685.410096,1184.329507,10510.924376
1888.061998,1532.190996,1110.308913,10214.842000
1888.062315,1302.362347,962.267725,10140.821405
1888.062633,1072.533697,740.205942,10510.924376
1888.062950,919.314598,962.267725,10881.027347
1888.063268,919.314598,592.164754,10658.965565
1888.063585,1225.752797,1036.288319,10510.924376
1888.063903,2374.896044,1850.514855,10436.903782
1888.064220,2145.067394,1850.514855,10066.800811
1888.064537,2221.676944,1776.494261,9770.718434
1888.064855,2298.286494,1628.453072,9770.718434
1888.065172,2221.676944,1184.329507,9548.656652
1888.065490,1685.410096,1184.329507,9400.615463
1888.065807,1378.971896,962.267725,9400.615463
1888.066125,919.314598,1332.370696,9474.636058
1888.066442,766.095498,1184.329507,9252.574275
1888.066760,766.095498,1332.370696,9252.574275
1888.067077,76.609550,666.185348,9400.615463
1888.067394,-689.485948,296.082377,9252.574275
1888.067712,-1378.971896,-74.020594,9622.677246
1888.068029,-1608.800546,-0.000000,9918.759623
1888.068347,-1685.410096,370.102971,9474.636058
1888.068664,-919.314598,666.185348,9474.636058
1888.068982,0.000000,888.247130,9030.512492
1888.069299,0.000000,962.267725,8882.471304
1888.069617,0.000000,1110.308913,8364.327145
1888.069934,153.219100,888.247130,8438.347739
1888.070251,153.219100,740.205942,8438.347739
1888.070569,153.219100,518.144159,8586.388927
1888.070886,76.609550,1036.288319,8364.327145
1888.071204,536.266849,1258.350101,8290.306550
1888.071521,766.095498,1554.432478,8068.244768
1888.071839,842.705048,1110.308913,7698.141797
1888.072156,766.095498,888.247130,7624.121203
1888.072474,536.266849,296.082377,8142.265362
1888.072791,536.266849,-74.020594,8364.327145
1888.073109,0.000000,-444.123565,9178.553681
1888.073426,-459.657299,-444.123565,9844.739029
1888.073743,306.438199,-444.123565,9548.656652
1888.074061,153.219100,-222.061783,9844.739029
1888.074378,995.924147,-296.082377,10214.842000
1888.074696,1225.752797,-222.061783,9844.739029
1888.075013,1762.019645,-518.144159,10288.862594
1888.075331,2298.286494,-518.144159,9696.697840
1888.075648,2298.286494,-222.061783,9474.636058
1888.075966,2834.553343,-370.102971,9400.615463
1888.076283,2987.772442,-74.020594,9326.594869
1888.076600,3064.381992,-592.164754,9178.553681
1888.076918,2987.772442,-222.061783,9104.533087
1888.077235,2604.724693,-148.041188,8808.450710
1888.077553,2451.505594,-740.205942,9474.636058
1888.077870,2145.067394,-1110.308913,9622.677246
1888.078188,1455.581446,-1406.391290,9548.656652
1888.078505,1302.362347,-1702.473667,10066.800811
1888.078823,919.314598,-1628.453072,10140.821405
1888.079140,1378.971896,-1184.329507,10140.821405
1888.079457,995.924147,-592.164754,9992.780217
1888.079775,536.266849,-592.164754,10362.883188
1888.080092,536.266849,-962.267725,10362.883188
1888.080410,0.000000,-296.082377,10214.842000
1888.080727,76.609550,-222.061783,10288.862594
1888.081045,766.095498,-0.000000,10214.842000
1888.081362,459.657299,296.082377,9696.697840
1888.081680,229.828649,222.061783,9474.636058
1888.081997,76.609550,148.041188,9104.533087
1888.082314,536.266849,-0.000000,8882.471304
1888.082632,689.485948,-0.000000,9178.553681
1888.082949,229.828649,-0.000000,9178.553681
1888.083267,0.000000,-148.041188,9178.553681
1888.083584,-306.438199,-0.000000,9252.574275
1888.083902,-229.828649,-0.000000,9400.615463
1888.084219,612.876398,-0.000000,9252.574275
1888.084537,306.438199,222.061783,9400.615463
1888.084854,689.485948,-0.000000,9622.677246
1888.085171,689.485948,-0.000000,9474.636058
1888.085489,1072.533697,370.102971,9400.615463
1888.085806,1302.362347,592.164754,9252.574275
1888.086124,1072.533697,666.185348,8956.491898
1888.086441,1608.800546,1332.370696,8882.471304
1888.086759,2068.457845,1480.411884,8808.450710
1888.087076,1991.848295,1332.370696,8808.450710
1888.087394,1838.629195,1110.308913,8808.450710
1888.087711,1225.752797,1036.288319,8734.430116
1888.088029,1072.533697,1036.288319,9030.512492
1888.088346,459.657299,888.247130,9178.553681
1888.088663,689.485948,666.185348,9178.553681
1888.088981,766.095498,888.247130,9474.636058
1888.089298,766.095498,1184.329507,9622.677246
1888.089616,612.876398,1184.329507,9326.594869
1888.089933,306.438199,1036.288319,9400.615463
1888.090251,153.219100,666.185348,9474.636058
1888.090568,0.000000,1036.288319,9548.656652
1888.090886,-229.828649,1554.432478,9252.574275
1888.091203,-153.219100,1480.411884,9252.574275
1888.091520,0.000000,1776.494261,9474.636058
1888.091838,-153.219100,1628.453072,9474.636058
1888.092155,-459.657299,1554.432478,9400.615463
1888.092473,-383.047749,1184.329507,9252.574275
1888.092790,-306.438199,1036.288319,9474.636058
1888.093108,-766.095498,1110.308913,9474.636058
1888.093425,-1072.533697,888.247130,9474.636058
1888.093743,-995.924147,1036.288319,9474.636058
1888.094060,-459.657299,1110.308913,9400.615463
1888.094377,0.000000,1258.350101,9326.594869
1888.094695,306.438199,1110.308913,9178.553681
1888.095012,-383.047749,1258.350101,9474.636058
1888.095330,0.000000,888.247130,9474.636058
1888.095647,0.000000,1110.308913,9326.594869
1888.095965,-306.438199,962.267725,9252.574275
1888.096282,0.000000,1332.370696,9622.677246
1888.096600,153.219100,1184.329507,9770.718434
1888.096917,536.266849,1258.350101,9696.697840
1888.097234,383.047749,1110.308913,9770.718434
1888.097552,153.219100,1110.308913,10140.821405
1888.097869,306.438199,962.267725,10288.862594
1888.098187,383.047749,962.267725,9770.718434
1888.098504,229.828649,740.205942,10436.903782
1888.098822,612.876398,814.226536,10436.903782
1888.099139,995.924147,962.267725,10140.821405
1888.099457,1149.143247,592.164754,9844.739029
1888.099774,1532.190996,592.164754,10214.842000
1888.100092,1608.800546,444.123565,10066.800811
1888.100409,1608.800546,222.061783,9622.677246
1888.100726,1302.362347,444.123565,9992.780217
1888.101044,766.095498,-74.020594,9548.656652
1888.101361,995.924147,222.061783,9918.759623
1888.101679,1302.362347,74.020594,9474.636058
1888.101996,919.314598,296.082377,9548.656652
1888.102314,689.485948,-0.000000,9400.615463
1888.102631,229.828649,-148.041188,9622.677246
1888.102949,0.000000,-592.164754,9992.780217
1888.103266,-306.438199,-518.144159,10066.800811
1888.103583,-306.438199,-296.082377,10362.883188
1888.103901,76.609550,-296.082377,10140.821405
1888.104218,689.485948,-74.020594,9992.780217
1888.104536,689.485948,-148.041188,9548.656652
1888.104853,1225.752797,-0.000000,9548.656652
1888.105171,1072.533697,-370.102971,8734.430116
1888.105488,995.924147,-74.020594,9030.512492
1888.105806,1149.143247,148.041188,8660.409521
1888.106123,1378.971896,370.102971,8512.368333
1888.106440,1532.190996,370.102971,8512.368333
1888.106758,1225.752797,518.144159,8734.430116
1888.107075,1532.190996,296.082377,8734.430116
1888.107393,1455.581446,-0.000000,8734.430116
1888.107710,1455.581446,-518.144159,8808.450710
1888.108028,995.924147,-1036.288319,8882.471304
1888.108345,536.266849,-888.247130,9400.615463
1888.108663,459.657299,-666.185348,9178.553681
1888.108980,842.705048,-518.144159,9252.574275
1888.109297,1302.362347,-296.082377,9326.594869
1888.109615,1455.581446,-296.082377,9326.594869
1888.109932,1762.019645,-444.123565,9104.533087
1888.110250,1685.410096,-814.226536,9178.553681
1888.110567,1685.410096,-1036.288319,9030.512492
1888.110885,1225.752797,-1110.308913,8808.450710
1888.111202,1532.190996,-888.247130,8956.491898
1888.111520,1685.410096,-518.144159,8734.430116
1888.111837,1149.143247,-370.102971,8660.409521
1888.112155,1608.800546,-444.123565,8290.306550
1888.112472,1225.752797,-814.226536,8586.388927
1888.112789,383.047749,-1332.370696,9178.553681
1888.113107,153.219100,-1184.329507,9252.574275
1888.113424,0.000000,-888.247130,9474.636058
1888.113742,0.000000,-888.247130,9474.636058
1888.114059,0.000000,-962.267725,9622.677246
1888.114377,76.609550,-444.123565,9400.615463
1888.114694,842.705048,-222.061783,9030.512492
1888.115012,1378.971896,-0.000000,8882.471304
1888.115329,842.705048,296.082377,9326.594869
1888.115646,153.219100,-0.000000,9104.533087
1888.115964,76.609550,740.205942,9030.512492
1888.116281,229.828649,814.226536,9104.533087
1888.116599,76.609550,1110.308913,9104.533087
1888.116916,229.828649,1406.391290,8882.471304
1888.117234,153.219100,1110.308913,8956.491898
1888.117551,0.000000,1480.411884,8882.471304
1888.117869,-536.266849,814.226536,9326.594869
1888.118186,-229.828649,1110.308913,9178.553681
1888.118503,-766.095498,592.164754,9474.636058
1888.118821,-383.047749,666.185348,9474.636058
1888.119138,-229.828649,814.226536,9474.636058
1888.119456,0.000000,1332.370696,9844.739029
1888.119773,306.438199,1332.370696,9918.759623
1888.120091,383.047749,1184.329507,9696.697840
1888.120408,459.657299,1036.288319,9844.739029
1888.120726,383.047749,1110.308913,9770.718434
1888.121043,383.047749,1258.350101,9548.656652
1888.121360,689.485948,1406.391290,9548.656652
1888.121678,459.657299,1628.453072,9770.718434
1888.121995,1149.143247,962.267725,10140.821405
1888.122313,766.095498,1702.473667,9844.739029
1888.122630,1302.362347,1332.370696,9992.780217
1888.122948,995.924147,1184.329507,10362.883188
1888.123265,536.266849,962.267725,10288.862594
1888.123583,689.485948,888.247130,10362.883188
1888.123900,536.266849,592.164754,10807.006753
1888.124217,995.924147,444.123565,10436.903782
1888.124535,1455.581446,592.164754,10584.944971
1888.124852,1685.410096,740.205942,10955.047942
1888.125170,1838.629195,296.082377,10881.027347
1888.125487,1762.019645,148.041188,10584.944971
1888.125805,1762.019645,-0.000000,10214.842000
1888.126122,1532.190996,370.102971,9918.759623
1888.126440,1455.581446,592.164754,9622.677246
1888.126757,1532.190996,814.226536,9918.759623
1888.127075,1378.971896,222.061783,9696.697840
1888.127392,1225.752797,148.041188,9474.636058
1888.127709,1072.533697,-296.082377,9474.636058
1888.128027,766.095498,-740.205942,9474.636058
1888.128344,689.485948,-962.267725,9696.697840
1888.128662,306.438199,-1110.308913,9474.636058
1888.128979,536.266849,-888.247130,9474.636058
1888.129297,842.705048,-888.247130,9696.697840
1888.129614,689.485948,-1258.350101,9326.594869
1888.129932,1072.533697,-592.164754,9252.574275
1888.130249,1378.971896,-740.205942,8956.491898
1888.130566,919.314598,-1332.370696,8808.450710
1888.130884,842.705048,-1184.329507,9030.512492
1888.131201,1072.533697,-1036.288319,8512.368333
1888.131519,766.095498,-740.205942,8438.347739
1888.131836,995.924147,-592.164754,8438.347739
1888.132153,1225.752797,-370.102971,8142.265362
1888.132471,1532.190996,-592.164754,8216.285956
1888.132788,1608.800546,-1332.370696,8512.368333
1888.133105,766.095498,-740.205942,8956.491898
1888.133423,612.876398,-1036.288319,8734.430116
1888.133740,536.266849,-666.185348,8290.306550
1888.134057,306.438199,-888.247130,8512.368333
1888.134374,536.266849,-740.205942,8808.450710
1888.134692,842.705048,-444.123565,8882.471304
1888.135009,1149.143247,-592.164754,8364.327145
1888.135326,1608.800546,-666.185348,8512.368333
1888.135644,1072.533697,-1110.308913,8956.491898
1888.135961,1149.143247,-518.144159,9030.512492
1888.136278,766.095498,-296.082377,8512.368333
1888.136595,1302.362347,-370.102971,8660.409521
1888.136913,1302.362347,222.061783,8882.471304
1888.137230,1378.971896,666.185348,8660.409521
1888.137547,1762.019645,518.144159,8586.388927
1888.137865,1378.971896,-0.000000,8808.450710
1888.138182,1378.971896,-0.000000,9104.533087
1888.138499,766.095498,296.082377,8882.471304
1888.138816,919.314598,-0.000000,8882.471304
1888.139134,1072.533697,-74.020594,9030.512492
1888.139451,1378.971896,296.082377,9104.533087
1888.139768,1685.410096,444.123565,9400.615463
1888.140086,1455.581446,370.102971,9548.656652
1888.140403,1072.533697,222.061783,9178.553681
1888.140720,459.657299,444.123565,9696.697840
1888.141037,229.828649,444.123565,10140.821405
1888.141355,-153.219100,444.123565,9992.780217
1888.141672,-459.657299,1036.288319,9918.759623
1888.141989,0.000000,888.247130,9992.780217
1888.142307,76.609550,1258.350101,9844.739029
1888.142624,383.047749,1184.329507,10140.821405
1888.142941,306.438199,444.123565,10214.842000
1888.143258,459.657299,370.102971,10214.842000
1888.143576,0.000000,592.164754,9992.780217
1888.143893,0.000000,370.102971,10214.842000
1888.144210,229.828649,518.144159,10510.924376
1888.144528,536.266849,592.164754,10510.924376
1888.144845,842.705048,740.205942,10140.821405
1888.145162,919.314598,1036.288319,10214.842000
1888.145479,1455.581446,518.144159,10288.862594
1888.145797,766.095498,444.123565,9918.759623
1888.146114,842.705048,444.123565,9992.780217
1888.146431,612.876398,518.144159,9992.780217
1888.146749,229.828649,518.144159,10214.842000
1888.147066,536.266849,814.226536,10362.883188
1888.147383,842.705048,814.226536,10362.883188
1888.147700,689.485948,666.185348,10362.883188
1888.148018,842.705048,444.123565,10140.821405
1888.148335,919.314598,444.123565,10288.862594
1888.148652,1532.190996,296.082377,9918.759623
1888.148970,1685.410096,370.102971,9696.697840
1888.149287,2221.676944,888.247130,9548.656652
1888.149604,2834.553343,666.185348,9178.553681
1888.149921,3140.991542,740.205942,9030.512492
1888.150239,3217.601092,962.267725,8734.430116
1888.150556,2987.772442,962.267725,8512.368333
1888.150873,3524.039291,592.164754,8734.430116
1888.151191,2221.676944,740.205942,8068.244768
1888.151508,1762.019645,888.247130,7920.203579
1888.151825,1455.581446,740.205942,8068.244768
1888.152142,919.314598,444.123565,8068.244768
1888.152460,383.047749,-0.000000,8660.409521
1888.152777,153.219100,-296.082377,8734.430116
1888.153094,-459.657299,-740.205942,9252.574275
1888.153412,-919.314598,-1184.329507,9474.636058
1888.153729,-1302.362347,-1036.288319,9622.677246
1888.154046,-1149.143247,-888.247130,9622.677246
1888.154364,-919.314598,-814.226536,9548.656652
1888.154681,-229.828649,-370.102971,9622.677246
1888.154998,459.657299,-74.020594,9104.533087
1888.155315,842.705048,148.041188,8660.409521
1888.155633,1302.362347,-0.000000,8512.368333
1888.155950,1378.971896,-0.000000,8586.388927
1888.156267,842.705048,-0.000000,8438.347739
1888.156585,842.705048,-74.020594,8364.327145
1888.156902,842.705048,-148.041188,8734.430116
1888.157219,919.314598,-148.041188,8882.471304
1888.157536,766.095498,-222.061783,8734.430116
1888.157854,689.485948,-222.061783,8882.471304
1888.158171,306.438199,-518.144159,9400.615463
1888.158488,-153.219100,-666.185348,9918.759623
1888.158806,153.219100,-592.164754,9696.697840
1888.159123,0.000000,-518.144159,9844.739029
1888.159440,306.438199,-74.020594,10288.862594
1888.159757,689.485948,-74.020594,10140.821405
1888.160075,1455.581446,518.144159,10436.903782
1888.160392,1685.410096,666.185348,9844.739029
1888.160709,1685.410096,740.205942,9770.718434
1888.161027,1838.629195,666.185348,9622.677246
1888.161344,1762.019645,592.164754,9474.636058
1888.161661,1915.238745,1036.288319,9030.512492
1888.161978,1991.848295,1184.329507,8660.409521
1888.162296,1302.362347,1036.288319,9104.533087
1888.162613,1302.362347,740.205942,9326.594869
1888.162930,689.485948,148.041188,9474.636058
1888.163248,306.438199,-222.061783,9918.759623
1888.163565,0.000000,-444.123565,10214.842000
1888.163882,-842.705048,-962.267725,10362.883188
1888.164199,-842.705048,-592.164754,10658.965565
1888.164517,-536.266849,-222.061783,10807.006753
1888.164834,-76.609550,-0.000000,10584.944971
1888.165151,-229.828649,148.041188,10288.862594
1888.165469,459.657299,518.144159,10510.924376
1888.165786,536.266849,814.226536,9992.780217
1888.166103,536.266849,740.205942,9696.697840
1888.166420,1149.143247,814.226536,9474.636058
1888.166738,842.705048,1184.329507,9474.636058
1888.167055,1532.190996,1776.494261,9030.512492
1888.167372,1838.629195,1628.453072,9030.512492
1888.167690,2145.067394,1702.473667,8808.450710
1888.168007,1608.800546,1184.329507,9104.533087
1888.168324,1455.581446,1036.288319,8660.409521
1888.168641,919.314598,592.164754,9104.533087
1888.168959,689.485948,-0.000000,9696.697840
1888.169276,306.438199,592.164754,9622.677246
1888.169593,306.438199,444.123565,9474.636058
1888.169911,689.485948,740.205942,9696.697840
1888.170228,766.095498,888.247130,9548.656652
1888.170545,766.095498,888.247130,9474.636058
1888.170862,689.485948,888.247130,9474.636058
1888.171180,383.047749,592.164754,9844.739029
1888.171497,229.828649,814.226536,9548.656652
1888.171814,459.657299,962.267725,9252.574275
1888.172132,383.047749,1036.288319,9178.553681
1888.172449,612.876398,1258.350101,8956.491898
1888.172766,612.876398,1036.288319,8660.409521
1888.173083,459.657299,740.205942,8808.450710
1888.173401,153.219100,-0.000000,8734.430116
1888.173718,0.000000,-444.123565,8882.471304
1888.174035,-229.828649,-666.185348,9030.512492
1888.174353,-383.047749,-518.144159,9474.636058
1888.174670,-766.095498,-444.123565,9474.636058
1888.174987,-383.047749,-296.082377,9770.718434
1888.175305,76.609550,-0.000000,9622.677246
1888.175622,612.876398,-0.000000,9474.636058
1888.175939,842.705048,-0.000000,9474.636058
1888.176256,689.485948,-0.000000,9178.553681
1888.176574,995.924147,296.082377,9030.512492
1888.176891,995.924147,666.185348,8882.471304
1888.177208,1225.752797,962.267725,8734.430116
1888.177526,1532.190996,814.226536,8660.409521
1888.177843,1378.971896,740.205942,8734.430116
1888.178160,1838.629195,444.123565,8512.368333
1888.178477,1225.752797,74.020594,8956.491898
1888.178795,1455.581446,-0.000000,9030.512492
1888.179112,1149.143247,-0.000000,8956.491898
1888.179429,1225.752797,-222.061783,9474.636058
1888.179747,995.924147,-148.041188,9474.636058
1888.180064,1149.143247,-148.041188,9474.636058
1888.180381,1225.752797,-0.000000,9548.656652
1888.180698,1149.143247,222.061783,9696.697840
1888.181016,919.314598,-0.000000,9696.697840
1888.181333,995.924147,296.082377,9696.697840
1888.181650,766.095498,370.102971,9548.656652
1888.181968,842.705048,370.102971,9696.697840
1888.182285,612.876398,814.226536,9474.636058
1888.182602,689.485948,444.123565,9252.574275
1888.182919,1072.533697,-0.000000,9622.677246
1888.183237,919.314598,-444.123565,9770.718434
1888.183554,612.876398,-370.102971,9844.739029
1888.183871,383.047749,-518.144159,9770.718434
1888.184189,-153.219100,-1110.308913,10288.862594
1888.184506,-153.219100,-666.185348,10362.883188
1888.184823,-306.438199,-370.102971,10436.903782
1888.185140,0.000000,-222.061783,10362.883188
1888.185458,229.828649,-74.020594,10362.883188
1888.185775,536.266849,-222.061783,9548.656652
1888.186092,306.438199,-74.020594,9844.739029
1888.186410,459.657299,222.061783,9696.697840
1888.186727,842.705048,222.061783,9474.636058
1888.187044,1149.143247,666.185348,9474.636058
1888.187361,1149.143247,296.082377,9548.656652
1888.187679,919.314598,592.164754,9474.636058
1888.187996,1149.143247,740.205942,9622.677246
1888.188313,1302.362347,518.144159,9474.636058
1888.188631,1072.533697,148.041188,9252.574275
1888.188948,766.095498,222.061783,9474.636058
1888.189265,995.924147,148.041188,9326.594869
1888.189582,1072.533697,-0.000000,9252.574275
1888.189900,1149.143247,222.061783,9030.512492
1888.190217,1149.143247,296.082377,9474.636058
1888.190534,1225.752797,-0.000000,8882.471304
1888.190852,919.314598,148.041188,9104.533087
1888.191169,995.924147,370.102971,8808.450710
1888.191486,536.266849,370.102971,8956.491898
1888.191803,612.876398,518.144159,9104.533087
1888.192121,383.047749,592.164754,8660.409521
1888.192438,536.266849,740.205942,8660.409521
1888.192755,306.438199,592.164754,8512.368333
1888.193073,383.047749,518.144159,8808.450710
1888.193390,0.000000,592.164754,8586.388927
1888.193707,-689.485948,296.082377,9252.574275
1888.194024,-919.314598,370.102971,9326.594869
1888.194342,-1225.752797,-0.000000,9400.615463
1888.194659,-1455.581446,148.041188,9548.656652
1888.194976,-995.924147,-0.000000,9844.739029
1888.195294,-995.924147,148.041188,9844.739029
1888.195611,-689.485948,222.061783,9992.780217
1888.195928,-229.828649,222.061783,9696.697840
1888.196246,76.609550,148.041188,9474.636058
1888.196563,0.000000,592.164754,9548.656652
1888.196880,0.000000,666.185348,9252.574275
1888.197197,459.657299,888.247130,8956.491898
1888.197515,842.705048,1184.329507,9030.512492
1888.197832,536.266849,1480.411884,9326.594869
1888.198149,995.924147,1184.329507,9030.512492
1888.198467,919.314598,740.205942,9104.533087
1888.198784,842.705048,592.164754,9252.574275
1888.199101,995.924147,444.123565,9474.636058
1888.199418,842.705048,-0.000000,9622.677246
1888.199736,842.705048,148.041188,9696.697840
1888.200053,1685.410096,740.205942,9548.656652
1888.200370,1685.410096,888.247130,9622.677246
1888.200688,2298.286494,1036.288319,9548.656652
1888.201005,1608.800546,888.247130,9474.636058
1888.201322,1762.019645,740.205942,9400.615463
1888.201639,1455.581446,666.185348,9474.636058
1888.201957,1455.581446,222.061783,9474.636058
1888.202274,1838.629195,296.082377,9548.656652
1888.202591,1608.800546,888.247130,9326.594869
1888.202909,1378.971896,962.267725,8956.491898
1888.203226,1149.143247,666.185348,9104.533087
1888.203543,919.314598,296.082377,9104.533087
1888.203860,153.219100,-0.000000,9474.636058
1888.204178,0.000000,-222.061783,9696.697840
1888.204495,-459.657299,-444.123565,9992.780217
1888.204812,-689.485948,-740.205942,10436.903782
1888.205130,-766.095498,-666.185348,10955.047942
1888.205447,-229.828649,-518.144159,10807.006753
1888.205764,76.609550,-370.102971,10658.965565
1888.206081,842.705048,-148.041188,10214.842000
1888.206399,1072.533697,-222.061783,10288.862594
1888.206716,1532.190996,-222.061783,9622.677246
1888.207033,1302.362347,-0.000000,9622.677246
1888.207351,1685.410096,-0.000000,9474.636058
1888.207668,2374.896044,296.082377,9474.636058
1888.207985,1991.848295,296.082377,9252.574275
1888.208302,2298.286494,148.041188,9178.553681
1888.208620,1685.410096,-148.041188,9104.533087
1888.208937,1762.019645,-370.102971,9252.574275
1888.209254,1532.190996,-666.185348,9400.615463
1888.209572,1608.800546,-1110.308913,9252.574275
1888.209889,1915.238745,-962.267725,9548.656652
1888.210206,1838.629195,-740.205942,9622.677246
1888.210523,1838.629195,-888.247130,9844.739029
1888.210841,1991.848295,-592.164754,9770.718434
1888.211158,2145.067394,-370.102971,9696.697840
1888.211475,1915.238745,-148.041188,9622.677246
1888.211793,1762.019645,-0.000000,9178.553681
1888.212110,1685.410096,-0.000000,8882.471304
1888.212427,1608.800546,-0.000000,8808.450710
1888.212744,1915.238745,-148.041188,8660.409521
1888.213062,1915.238745,-222.061783,8438.347739
1888.213379,1302.362347,-740.205942,8512.368333
1888.213696,842.705048,-814.226536,8586.388927
1888.214014,306.438199,-1110.308913,8586.388927
1888.214331,-76.609550,-1480.411884,9178.553681
1888.214648,-536.266849,-1184.329507,9178.553681
1888.214965,-536.266849,-1184.329507,9030.512492
1888.215283,-536.266849,-888.247130,9474.636058
1888.215600,-306.438199,-888.247130,9030.512492
1888.215917,0.000000,-592.164754,9178.553681
1888.216235,383.047749,-666.185348,8808.450710
1888.216552,153.219100,-370.102971,8882.471304
1888.216869,229.828649,-222.061783,8956.491898
1888.217187,612.876398,222.061783,8438.347739
1888.217504,1608.800546,370.102971,8364.327145
1888.217821,1225.752797,1036.288319,8068.244768
1888.218138,1302.362347,1184.329507,8216.285956
1888.218456,1225.752797,814.226536,8216.285956
1888.218773,1302.362347,518.144159,8512.368333
1888.219090,459.657299,518.144159,8808.450710
1888.219408,995.924147,370.102971,9030.512492
1888.219725,612.876398,74.020594,9326.594869
1888.220042,919.314598,370.102971,9178.553681
1888.220359,1149.143247,592.164754,9474.636058
1888.220677,1378.971896,740.205942,9770.718434
1888.220994,1378.971896,740.205942,9474.636058
1888.221311,1072.533697,740.205942,9474.636058
1888.221629,919.314598,814.226536,9622.677246
1888.221946,1149.143247,814.226536,9474.636058
1888.222263,919.314598,1036.288319,9326.594869
1888.222580,1149.143247,1554.432478,9326.594869
1888.222898,842.705048,1332.370696,9474.636058
1888.223215,842.705048,1258.350101,9474.636058
1888.223532,612.876398,962.267725,9548.656652
1888.223850,0.000000,592.164754,9770.718434
1888.224167,-153.219100,370.102971,9918.759623
1888.224484,-766.095498,518.144159,10288.862594
1888.224801,-919.314598,666.185348,10362.883188
1888.225119,-689.485948,962.267725,10288.862594
1888.225436,-612.876398,1184.329507,10510.924376
1888.225753,-383.047749,962.267725,10658.965565
1888.226071,-229.828649,518.144159,10881.027347
1888.226388,-153.219100,740.205942,10584.944971
1888.226705,0.000000,-0.000000,10807.006753
1888.227022,0.000000,740.205942,10288.862594
1888.227340,153.219100,962.267725,10140.821405
1888.227657,689.485948,962.267725,9918.759623
1888.227974,842.705048,814.226536,9844.739029
1888.228292,383.047749,962.267725,9918.759623
1888.228609,919.314598,740.205942,9844.739029
1888.228926,995.924147,1036.288319,10140.821405
1888.229243,995.924147,592.164754,10288.862594
1888.229561,612.876398,-0.000000,10214.842000
1888.229878,1225.752797,222.061783,10288.862594
1888.230195,1838.629195,370.102971,9918.759623
1888.230512,2145.067394,370.102971,9992.780217
1888.230830,2911.162892,-0.000000,9918.759623
1888.231147,2604.724693,-0.000000,9622.677246
1888.231464,2681.334243,-518.144159,9622.677246
1888.231781,2298.286494,-296.082377,9844.739029
1888.232099,2298.286494,-296.082377,9400.615463
1888.232416,2528.115143,-74.020594,9474.636058
1888.232733,2221.676944,-148.041188,9474.636058
1888.233050,2145.067394,-148.041188,9252.574275
1888.233368,2451.505594,-222.061783,8882.471304
1888.233685,2145.067394,-296.082377,8660.409521
1888.234002,1532.190996,-444.123565,8734.430116
1888.234319,919.314598,-740.205942,8586.388927
1888.234637,995.924147,-740.205942,8734.430116
1888.234954,689.485948,-666.185348,8586.388927
1888.235271,306.438199,-592.164754,9104.533087
1888.235588,383.047749,-888.247130,9104.533087
1888.235906,536.266849,-592.164754,9030.512492
1888.236223,536.266849,-666.185348,8882.471304
1888.236540,0.000000,-740.205942,8956.491898
1888.236857,76.609550,-592.164754,8586.388927
1888.237174,0.000000,-370.102971,7994.224174
1888.237492,153.219100,-0.000000,7994.224174
1888.237809,0.000000,222.061783,8290.306550
1888.238126,0.000000,148.041188,7994.224174
1888.238443,459.657299,-0.000000,8068.244768
1888.238761,0.000000,-0.000000,8290.306550
1888.239078,-229.828649,-74.020594,8216.285956
1888.239395,-306.438199,-74.020594,8068.244768
1888.239712,-383.047749,-148.041188,8512.368333
1888.240030,76.609550,-370.102971,8586.388927
1888.240347,0.000000,-148.041188,8216.285956
1888.240664,459.657299,-0.000000,8734.430116
1888.240981,612.876398,-0.000000,8882.471304
1888.241299,842.705048,-148.041188,9252.574275
1888.241616,1072.533697,-0.000000,8808.450710
1888.241933,612.876398,666.185348,9104.533087
1888.242250,459.657299,740.205942,9474.636058
1888.242567,459.657299,740.205942,9178.553681
1888.242885,612.876398,962.267725,9474.636058
1888.243202,842.705048,888.247130,9474.636058
1888.243519,689.485948,962.267725,9474.636058
1888.243836,842.705048,666.185348,9474.636058
1888.244154,1072.533697,666.185348,9696.697840
1888.244471,383.047749,740.205942,9918.759623
1888.244788,689.485948,962.267725,10214.842000
1888.245105,306.438199,592.164754,10214.842000
1888.245423,536.266849,814.226536,10362.883188
1888.245740,536.266849,1036.288319,10584.944971
1888.246057,689.485948,1110.308913,10807.006753
1888.246374,612.876398,1036.288319,10881.027347
1888.246692,689.485948,814.226536,10732.986159
1888.247009,842.705048,814.226536,10732.986159
1888.247326,766.095498,1110.308913,10658.965565
1888.247643,766.095498,1110.308913,10288.862594
1888.247961,919.314598,1332.370696,10436.903782
1888.248278,995.924147,888.247130,10584.944971
1888.248595,842.705048,962.267725,10658.965565
1888.248912,842.705048,592.164754,10362.883188
1888.249229,995.924147,370.102971,10362.883188
1888.249547,919.314598,370.102971,10362.883188
1888.249864,689.485948,148.041188,10288.862594
1888.250181,766.095498,518.144159,10066.800811
1888.250498,1149.143247,666.185348,9992.780217
1888.250816,1378.971896,222.061783,9548.656652
1888.251133,1378.971896,296.082377,9548.656652
1888.251450,1608.800546,296.082377,9770.718434
1888.251767,1225.752797,-0.000000,9474.636058
1888.252085,919.314598,-74.020594,9918.759623
1888.252402,536.266849,222.061783,9696.697840
1888.252719,459.657299,296.082377,9548.656652
1888.253036,536.266849,296.082377,9474.636058
1888.253354,842.705048,370.102971,9326.594869
1888.253671,1302.362347,-0.000000,9178.553681
1888.253988,842.705048,296.082377,8808.450710
1888.254305,842.705048,296.082377,9030.512492
1888.254622,229.828649,-0.000000,8660.409521
1888.254940,76.609550,-222.061783,9030.512492
1888.255257,76.609550,-74.020594,9178.553681
1888.255574,383.047749,-74.020594,9400.615463
1888.255891,459.657299,-0.000000,8956.491898
1888.256209,842.705048,-0.000000,8956.491898
1888.256526,995.924147,-0.000000,8808.450710
1888.256843,842.705048,-0.000000,8660.409521
1888.257160,689.485948,-370.102971,8216.285956
1888.257478,536.266849,-0.000000,8142.265362
1888.257795,842.705048,222.061783,7994.224174
1888.258112,919.314598,370.102971,8290.306550
1888.258429,995.924147,-0.000000,8290.306550
1888.258747,536.266849,-74.020594,8364.327145
1888.259064,76.609550,-222.061783,8512.368333
1888.259381,76.609550,-370.102971,8364.327145
1888.259698,-153.219100,-222.061783,8364.327145
1888.260015,-153.219100,-666.185348,8142.265362
1888.260333,153.219100,-296.082377,8438.347739
1888.260650,459.657299,-74.020594,9030.512492
1888.260967,612.876398,-370.102971,8956.491898
1888.261284,536.266849,-370.102971,9030.512492
1888.261602,306.438199,-74.020594,9178.553681
1888.261919,229.828649,222.061783,9178.553681
1888.262236,153.219100,370.102971,9252.574275
1888.262553,306.438199,296.082377,9474.636058
1888.262871,919.314598,814.226536,9252.574275
1888.263188,459.657299,740.205942,9326.594869
1888.263505,1149.143247,888.247130,9326.594869
1888.263822,1378.971896,666.185348,9474.636058
1888.264140,842.705048,222.061783,9474.636058
1888.264457,919.314598,-0.000000,9992.780217
1888.264774,459.657299,148.041188,9844.739029
1888.265091,459.657299,444.123565,10214.842000
1888.265409,612.876398,592.164754,10140.821405
1888.265726,536.266849,1036.288319,10362.883188
1888.266043,1149.143247,888.247130,10362.883188
1888.266360,995.924147,518.144159,10510.924376
1888.266677,1072.533697,888.247130,10510.924376
1888.266995,919.314598,740.205942,10140.821405
1888.267312,842.705048,814.226536,10288.862594
1888.267629,689.485948,888.247130,9918.759623
1888.267946,383.047749,1406.391290,10066.800811
1888.268264,612.876398,1258.350101,10288.862594
1888.268581,383.047749,1110.308913,10066.800811
1888.268898,459.657299,740.205942,10436.903782
1888.269215,459.657299,296.082377,10362.883188
1888.269533,153.219100,222.061783,10510.924376
1888.269850,0.000000,-148.041188,10584.944971
1888.270167,76.609550,222.061783,10362.883188
1888.270484,383.047749,-0.000000,10214.842000
1888.270802,766.095498,592.164754,10140.821405
1888.271119,1378.971896,814.226536,9918.759623
1888.271436,1378.971896,1110.308913,9622.677246
1888.271753,1455.581446,592.164754,9548.656652
1888.272070,1149.143247,518.144159,9770.718434
1888.272388,1455.581446,592.164754,9400.615463
1888.272705,842.705048,740.205942,9104.533087
1888.273022,1149.143247,666.185348,8956.491898
1888.273339,1762.019645,444.123565,8882.471304
1888.273657,1378.971896,296.082377,8882.471304
1888.273974,1072.533697,-148.041188,8956.491898
1888.274291,842.705048,-666.185348,8956.491898
1888.274608,306.438199,-740.205942,9104.533087
1888.274926,229.828649,-666.185348,9252.574275
1888.275243,-229.828649,-666.185348,9400.615463
1888.275560,-153.219100,-444.123565,9400.615463
1888.275877,0.000000,-296.082377,9400.615463
1888.276195,612.876398,-370.102971,9030.512492
1888.276512,842.705048,-148.041188,9030.512492
1888.276829,766.095498,-518.144159,8660.409521
1888.277146,689.485948,-444.123565,8364.327145
1888.277463,612.876398,-444.123565,8142.265362
1888.277781,689.485948,-444.123565,8216.285956
1888.278098,766.095498,-74.020594,8068.244768
1888.278415,612.876398,-0.000000,8068.244768
1888.278732,153.219100,-296.082377,8290.306550
1888.279050,0.000000,-592.164754,8586.388927
1888.279367,0.000000,-888.247130,9178.553681
1888.279684,0.000000,-814.226536,8660.409521
1888.280001,-612.876398,-740.205942,8882.471304
1888.280319,0.000000,-444.123565,9030.512492
1888.280636,383.047749,-148.041188,8956.491898
1888.280953,383.047749,-74.020594,9326.594869
1888.281270,1302.362347,-0.000000,9030.512492
1888.281588,1532.190996,222.061783,8808.450710
1888.281905,1915.238745,148.041188,9030.512492
1888.282222,1685.410096,148.041188,8808.450710
1888.282539,2145.067394,-0.000000,9104.533087
1888.282857,1762.019645,370.102971,8808.450710
1888.283174,2145.067394,740.205942,8586.388927
1888.283491,2298.286494,740.205942,8438.347739
1888.283808,1991.848295,518.144159,8956.491898
1888.284125,1838.629195,-0.000000,9030.512492
1888.284443,1455.581446,-148.041188,9326.594869
1888.284760,919.314598,-518.144159,9622.677246
1888.285077,536.266849,-296.082377,9992.780217
1888.285394,76.609550,-518.144159,10732.986159
1888.285712,306.438199,-148.041188,10955.047942
1888.286029,459.657299,148.041188,11103.089130
1888.286346,689.485948,296.082377,10584.944971
1888.286663,1072.533697,444.123565,10436.903782
1888.286981,1532.190996,444.123565,10436.903782
1888.287298,1608.800546,592.164754,9918.759623
1888.287615,1762.019645,962.267725,9696.697840
1888.287932,1532.190996,1258.350101,9622.677246
1888.288250,1378.971896,1110.308913,9696.697840
1888.288567,1378.971896,592.164754,9696.697840
1888.288884,1072.533697,518.144159,9918.759623
1888.289201,842.705048,740.205942,9918.759623
1888.289518,383.047749,296.082377,10214.842000
1888.289836,383.047749,740.205942,9918.759623
1888.290153,0.000000,444.123565,9992.780217
1888.290470,0.000000,962.267725,9992.780217
1888.290787,153.219100,888.247130,10288.862594
1888.291105,306.438199,962.267725,10362.883188
1888.291422,459.657299,592.164754,10881.027347
1888.291739,383.047749,814.226536,10584.944971
1888.292056,306.438199,666.185348,10362.883188
1888.292374,229.828649,666.185348,10584.944971
1888.292691,383.047749,962.267725,9918.759623
1888.293008,919.314598,1184.329507,9548.656652
1888.293325,919.314598,1480.411884,9474.636058
1888.293643,1149.143247,1110.308913,8734.430116
1888.293960,1225.752797,740.205942,8956.491898
1888.294277,995.924147,222.061783,9104.533087
1888.294594,536.266849,-0.000000,9104.533087
1888.294911,383.047749,-74.020594,9252.574275
1888.295229,0.000000,-148.041188,9696.697840
1888.295546,153.219100,-0.000000,9696.697840
1888.295863,306.438199,-148.041188,9844.739029
1888.296180,0.000000,-666.185348,9770.718434
1888.296498,766.095498,-296.082377,9474.636058
1888.296815,995.924147,-444.123565,9400.615463
1888.297132,842.705048,-222.061783,9252.574275
1888.297449,1072.533697,-370.102971,9030.512492
1888.297767,842.705048,-74.020594,8734.430116
1888.298084,919.314598,148.041188,8586.388927
1888.298401,766.095498,296.082377,9030.512492
1888.298718,383.047749,296.082377,8734.430116
1888.299036,1072.533697,-74.020594,8882.471304
1888.299353,919.314598,-296.082377,8734.430116
1888.299670,766.095498,-370.102971,8512.368333
1888.299987,766.095498,-592.164754,8290.306550
1888.300305,766.095498,-592.164754,8290.306550
1888.300622,383.047749,-222.061783,8512.368333
1888.300939,919.314598,-0.000000,8586.388927
1888.301256,919.314598,-74.020594,8734.430116
1888.301573,919.314598,-0.000000,8882.471304
1888.301891,995.924147,-148.041188,8882.471304
1888.302208,766.095498,-0.000000,9178.553681
1888.302525,689.485948,-222.061783,9178.553681
1888.302842,919.314598,-74.020594,9178.553681
1888.303160,995.924147,222.061783,8882.471304
1888.303477,1225.752797,222.061783,8734.430116
1888.303794,1378.971896,-0.000000,8660.409521
1888.304111,1455.581446,-0.000000,9030.512492
1888.304429,1225.752797,-74.020594,8956.491898
1888.304746,766.095498,-222.061783,9326.594869
1888.305063,459.657299,-444.123565,9474.636058
1888.305380,459.657299,-370.102971,9696.697840
1888.305698,459.657299,-296.082377,9548.656652
1888.306015,766.095498,-296.082377,10140.821405
1888.306332,1072.533697,-370.102971,10140.821405
1888.306649,1455.581446,-370.102971,10140.821405
1888.306966,1455.581446,-666.185348,10066.800811
1888.307284,1302.362347,-814.226536,10140.821405
1888.307601,1225.752797,-666.185348,10288.862594
1888.307918,1302.362347,-148.041188,10214.842000
1888.308235,1532.190996,148.041188,9918.759623
1888.308553,1685.410096,888.247130,9918.759623
1888.308870,1225.752797,666.185348,9992.780217
1888.309187,1608.800546,518.144159,9992.780217
1888.309504,1532.190996,148.041188,9696.697840
1888.309822,1762.019645,-148.041188,9770.718434
1888.310139,1762.019645,-0.000000,9770.718434
1888.310456,1608.800546,-0.000000,9844.739029
1888.310773,1608.800546,518.144159,9622.677246
1888.311091,1455.581446,296.082377,9622.677246
1888.311408,1685.410096,592.164754,9770.718434
1888.311725,1455.581446,666.185348,9622.677246
1888.312042,1225.752797,444.123565,9622.677246
1888.312360,842.705048,814.226536,9622.677246
1888.312677,1225.752797,962.267725,9474.636058
1888.312994,919.314598,1332.370696,9326.594869
1888.313311,689.485948,1332.370696,9030.512492
1888.313628,612.876398,1480.411884,8734.430116
1888.313946,536.266849,1258.350101,8882.471304
1888.314263,459.657299,814.226536,8956.491898
1888.314580,383.047749,296.082377,9400.615463
1888.314897,-536.266849,-148.041188,9474.636058
1888.315215,-919.314598,-296.082377,10140.821405
1888.315532,-612.876398,-74.020594,9918.759623
1888.315849,-459.657299,148.041188,9696.697840
1888.316166,0.000000,592.164754,9400.615463
1888.316484,229.828649,814.226536,9030.512492
1888.316801,766.095498,814.226536,8956.491898
1888.317118,995.924147,666.185348,8734.430116
1888.317435,612.876398,518.144159,8660.409521
1888.317753,919.314598,592.164754,8808.450710
1888.318070,919.314598,962.267725,8512.368333
1888.318387,536.266849,1184.329507,8586.388927
1888.318704,536.266849,1258.350101,8734.430116
1888.319021,383.047749,962.267725,8882.471304
1888.319339,153.219100,888.247130,9104.533087
1888.319656,536.266849,666.185348,9178.553681
1888.319973,76.609550,222.061783,9030.512492
1888.320290,0.000000,-0.000000,9178.553681
1888.320608,-153.219100,222.061783,9548.656652
1888.320925,76.609550,592.164754,9326.594869
1888.321242,153.219100,666.185348,9696.697840
1888.321559,766.095498,1258.350101,9400.615463
1888.321877,919.314598,1332.370696,9178.553681
1888.322194,1302.362347,1110.308913,8808.450710
1888.322511,1072.533697,888.247130,8882.471304
1888.322828,995.924147,740.205942,9030.512492
1888.323146,995.924147,592.164754,8512.368333
1888.323463,1072.533697,518.144159,8438.347739
1888.323780,766.095498,592.164754,8660.409521
1888.324097,842.705048,962.267725,8956.491898
1888.324414,459.657299,222.061783,9252.574275
1888.324732,0.000000,-74.020594,9326.594869
1888.325049,-536.266849,-74.020594,9474.636058
1888.325366,-919.314598,-518.144159,9844.739029
1888.325683,-1072.533697,-296.082377,10214.842000
1888.326001,-919.314598,-148.041188,10732.986159
1888.326318,-459.657299,-296.082377,10881.027347
1888.326635,-153.219100,-444.123565,10732.986159
1888.326952,766.095498,-592.164754,10436.903782
1888.327270,842.705048,-74.020594,10658.965565
1888.327587,995.924147,-0.000000,10214.842000
1888.327904,1378.971896,148.041188,9918.759623
1888.328221,1378.971896,296.082377,9622.677246
1888.328539,1838.629195,814.226536,9474.636058
1888.328856,2145.067394,962.267725,9548.656652
1888.329173,2221.676944,222.061783,9696.697840
1888.329490,2068.457845,-74.020594,9622.677246
1888.329808,1685.410096,-370.102971,9696.697840
1888.330125,1608.800546,-444.123565,9844.739029
1888.330442,1378.971896,-444.123565,9918.759623
1888.330759,1685.410096,-370.102971,10140.821405
1888.331076,1455.581446,-370.102971,10288.862594
1888.331394,1532.190996,-74.020594,10066.800811
1888.331711,1455.581446,-370.102971,10436.903782
1888.332028,1685.410096,-222.061783,10436.903782
1888.332346,1685.410096,-74.020594,10214.842000
1888.332663,1685.410096,-0.000000,10140.821405
1888.332980,1608.800546,370.102971,9474.636058
1888.333297,1532.190996,370.102971,9400.615463
1888.333615,1685.410096,592.164754,8808.450710
1888.333932,1991.848295,592.164754,8290.306550
1888.334249,2145.067394,-0.000000,8290.306550
1888.334567,1072.533697,-0.000000,8290.306550
1888.334884,459.657299,-888.247130,8364.327145
1888.335201,0.000000,-888.247130,8586.388927
1888.335519,-306.438199,-592.164754,9030.512492
1888.335836,-766.095498,-1036.288319,9104.533087
1888.336153,-842.705048,-518.144159,9326.594869
1888.336470,-919.314598,-370.102971,9326.594869
1888.336788,-612.876398,-592.164754,9474.636058
1888.337105,-459.657299,-370.102971,9030.512492
1888.337422,-229.828649,-296.082377,9104.533087
1888.337740,153.219100,-222.061783,8956.491898
1888.338057,383.047749,-0.000000,8734.430116
1888.338374,689.485948,592.164754,8290.306550
1888.338692,766.095498,1110.308913,8142.265362
1888.339009,995.924147,1184.329507,7994.224174
1888.339326,919.314598,1184.329507,8364.327145
1888.339643,536.266849,666.185348,8290.306550
1888.339961,306.438199,370.102971,8586.388927
1888.340278,76.609550,-0.000000,8512.368333
1888.340595,383.047749,148.041188,8660.409521
1888.340913,229.828649,-0.000000,8882.471304
1888.341230,76.609550,-0.000000,9252.574275
1888.341547,229.828649,148.041188,9474.636058
1888.341865,76.609550,-0.000000,9918.759623
1888.342182,383.047749,296.082377,9770.718434
1888.342499,383.047749,444.123565,9992.780217
1888.342816,306.438199,592.164754,9992.780217
1888.343134,612.876398,962.267725,9696.697840
1888.343451,1072.533697,1406.391290,9474.636058
1888.343768,1455.581446,1554.432478,9178.553681
1888.344086,1685.410096,1554.432478,8956.491898
1888.344403,1762.019645,1554.432478,8734.430116
1888.344720,1685.410096,1110.308913,8882.471304
1888.345038,1532.190996,814.226536,9252.574275
1888.345355,1072.533697,962.267725,9326.594869
1888.345672,306.438199,814.226536,9622.677246
1888.345989,0.000000,518.144159,10066.800811
1888.346307,76.609550,888.247130,9992.780217
1888.346624,76.609550,296.082377,10140.821405
1888.346941,76.609550,370.102971,10436.903782
1888.347259,383.047749,-148.041188,10436.903782
1888.347576,689.485948,148.041188,10510.924376
1888.347893,383.047749,444.123565,10288.862594
1888.348210,612.876398,1036.288319,9992.780217
1888.348528,766.095498,1406.391290,9918.759623
1888.348845,1072.533697,1776.494261,10214.842000
1888.349162,995.924147,1554.432478,10066.800811
1888.349480,1378.971896,1332.370696,10362.883188
1888.349797,1455.581446,1110.308913,9844.739029
1888.350114,1302.362347,296.082377,9918.759623
1888.350432,1149.143247,148.041188,9770.718434
1888.350749,919.314598,-0.000000,10140.821405
1888.351066,995.924147,222.061783,10214.842000
1888.351383,1072.533697,370.102971,9770.718434
1888.351701,1149.143247,222.061783,10214.842000
1888.352018,1149.143247,-0.000000,9918.759623
1888.352335,1072.533697,-222.061783,10362.883188
1888.352653,842.705048,-592.164754,10288.862594
1888.352970,383.047749,-592.164754,10510.924376
1888.353287,689.485948,-370.102971,10288.862594
1888.353605,689.485948,-0.000000,9918.759623
1888.353922,919.314598,-0.000000,9770.718434
1888.354239,1225.752797,222.061783,9400.615463
1888.354556,1072.533697,148.041188,9178.553681
1888.354874,1149.143247,-0.000000,8882.471304
1888.355191,766.095498,-370.102971,8882.471304
1888.355508,536.266849,-592.164754,8956.491898
1888.355826,-229.828649,-814.226536,9326.594869
1888.356143,-153.219100,-666.185348,8808.450710
1888.356460,-153.219100,-740.205942,9252.574275
1888.356778,0.000000,-444.123565,9178.553681
1888.357095,0.000000,-370.102971,9178.553681
1888.357412,153.219100,-740.205942,8512.368333
1888.357729,153.219100,-814.226536,8808.450710
1888.358047,306.438199,-444.123565,8512.368333
1888.358364,306.438199,-148.041188,8290.306550
1888.358681,459.657299,148.041188,8290.306550
1888.358999,689.485948,296.082377,8512.368333
1888.359316,842.705048,-0.000000,8068.244768
1888.359633,995.924147,-74.020594,8290.306550
1888.359951,919.314598,-222.061783,8216.285956
1888.360268,766.095498,-296.082377,8586.388927
1888.360585,612.876398,-148.041188,8364.327145
1888.360902,459.657299,-148.041188,8216.285956
1888.361220,612.876398,-0.000000,8364.327145
1888.361537,842.705048,-444.123565,8512.368333
1888.361854,1225.752797,-444.123565,8956.491898
1888.362172,383.047749,-518.144159,9326.594869
1888.362489,0.000000,-296.082377,9326.594869
1888.362806,-612.876398,-296.082377,8660.409521
1888.363124,-612.876398,-888.247130,9252.574275
1888.363441,-612.876398,-1184.329507,9770.718434
1888.363758,-995.924147,-296.082377,9992.780217
1888.364075,-1378.971896,-296.082377,10288.862594
1888.364393,-689.485948,-814.226536,10362.883188
1888.364710,0.000000,-1702.473667,11325.150913
1888.365027,-383.047749,-1110.308913,9918.759623
1888.365345,0.000000,222.061783,9770.718434
1888.365662,842.705048,888.247130,10881.027347
1888.365979,1302.362347,666.185348,10140.821405
1888.366296,2068.457845,592.164754,9474.636058
1888.366614,2528.115143,1184.329507,9770.718434
1888.366931,2757.943793,1258.350101,10436.903782
1888.367248,3217.601092,740.205942,9622.677246
1888.367566,3753.867940,-0.000000,9474.636058
1888.367883,4213.525239,1036.288319,9400.615463
1888.368200,3294.210641,1406.391290,9548.656652
1888.368518,3294.210641,1332.370696,9474.636058
1888.368835,3217.601092,814.226536,9918.759623
1888.369152,2528.115143,1776.494261,9104.533087
1888.369469,2221.676944,2146.597232,9474.636058
1888.369787,1915.238745,1332.370696,10510.924376
1888.370104,1608.800546,444.123565,9844.739029
1888.370421,1072.533697,814.226536,9400.615463
1888.370739,383.047749,1332.370696,10140.821405
1888.371056,919.314598,518.144159,10436.903782
1888.371373,919.314598,962.267725,9622.677246
1888.371691,919.314598,1110.308913,9548.656652
1888.372008,995.924147,1036.288319,10288.862594
1888.372325,1149.143247,962.267725,9844.739029
1888.372642,1378.971896,814.226536,8882.471304
1888.372960,689.485948,1110.308913,8956.491898
1888.373277,76.609550,1036.288319,9252.574275
1888.373594,0.000000,1332.370696,9400.615463
1888.373912,-689.485948,666.185348,9178.553681
1888.374229,-383.047749,1036.288319,9030.512492
1888.374546,-766.095498,1036.288319,9030.512492
1888.374864,-995.924147,518.144159,9400.615463
1888.375181,-919.314598,-592.164754,9918.759623
1888.375498,-995.924147,-592.164754,9474.636058
1888.375815,-1149.143247,-0.000000,9918.759623
1888.376133,-1225.752797,-0.000000,10066.800811
1888.376450,-689.485948,-296.082377,9770.718434
1888.376767,0.000000,-222.061783,9696.697840
1888.377085,0.000000,370.102971,9474.636058
1888.377402,612.876398,-0.000000,10214.842000
1888.377719,1302.362347,-296.082377,9400.615463
1888.378037,1685.410096,-0.000000,9030.512492
1888.378354,1302.362347,370.102971,9030.512492
1888.378671,1225.752797,370.102971,9326.594869
1888.378988,1608.800546,592.164754,8290.306550
1888.379306,1762.019645,518.144159,7698.141797
1888.379623,1149.143247,-74.020594,8660.409521
1888.379940,1072.533697,-666.185348,8882.471304
1888.380258,766.095498,-1110.308913,9252.574275
1888.380575,919.314598,-1258.350101,9104.533087
1888.380892,536.266849,-1110.308913,9770.718434
1888.381210,995.924147,-666.185348,9696.697840
1888.381527,919.314598,-814.226536,9474.636058
1888.381844,1378.971896,-740.205942,9696.697840
1888.382161,1838.629195,-0.000000,9474.636058
1888.382479,2451.505594,-0.000000,8734.430116
1888.382796,2298.286494,-74.020594,9104.533087
1888.383113,1991.848295,-74.020594,9030.512492
1888.383431,1915.238745,-74.020594,8512.368333
1888.383748,1608.800546,-0.000000,8808.450710
1888.384065,1838.629195,-370.102971,8734.430116
1888.384382,1915.238745,-148.041188,8660.409521
1888.384700,1991.848295,-74.020594,8586.388927
1888.385017,1608.800546,-296.082377,8660.409521
1888.385334,1455.581446,-1110.308913,8734.430116
1888.385652,842.705048,-1406.391290,9326.594869
1888.385969,306.438199,-1110.308913,9696.697840
1888.386286,76.609550,-888.247130,9918.759623
1888.386604,0.000000,-1184.329507,10214.842000
1888.386921,-689.485948,-1406.391290,10584.944971
1888.387238,76.609550,-1110.308913,10807.006753
1888.387555,536.266849,-592.164754,10881.027347
1888.387873,1225.752797,-148.041188,10214.842000
1888.388190,1225.752797,-0.000000,9622.677246
1888.388507,1608.800546,444.123565,9474.636058
1888.388825,1838.629195,962.267725,8956.491898
1888.389142,1915.238745,1110.308913,8882.471304
1888.389459,1915.238745,1406.391290,8808.450710
1888.389777,1762.019645,1406.391290,8512.368333
1888.390094,1685.410096,1184.329507,8660.409521
1888.390411,1225.752797,814.226536,9326.594869
1888.390728,842.705048,296.082377,9622.677246
1888.391046,766.095498,-0.000000,9326.594869
1888.391363,0.000000,296.082377,9400.615463
1888.391680,0.000000,222.061783,9474.636058
1888.391998,-306.438199,592.164754,9992.780217
1888.392315,-76.609550,666.185348,10140.821405
1888.392632,-383.047749,592.164754,10066.800811
1888.392950,-842.705048,814.226536,9918.759623
1888.393267,-383.047749,814.226536,10288.862594
1888.393584,-536.266849,1184.329507,9770.718434
1888.393901,-383.047749,1480.411884,9622.677246
1888.394219,0.000000,2072.576638,8882.471304
1888.394536,459.657299,1924.535449,8586.388927
1888.394853,689.485948,1554.432478,8438.347739
1888.395171,919.314598,1332.370696,8586.388927
1888.395488,153.219100,1036.288319,8364.327145
1888.395805,153.219100,888.247130,8512.368333
1888.396123,0.000000,296.082377,9030.512492
1888.396440,-1072.533697,592.164754,9548.656652
1888.396757,-1072.533697,370.102971,9770.718434
1888.397074,-842.705048,518.144159,9918.759623
1888.397392,-612.876398,666.185348,10288.862594
1888.397709,0.000000,666.185348,10288.862594
1888.398026,-229.828649,740.205942,10288.862594
1888.398344,0.000000,888.247130,9992.780217
1888.398661,383.047749,1110.308913,9844.739029
1888.398978,536.266849,1776.494261,9474.636058
1888.399295,1455.581446,2220.617826,9104.533087
1888.399613,1762.019645,2294.638420,8882.471304
1888.399930,2374.896044,1702.473667,9252.574275
1888.400247,2145.067394,1036.288319,9474.636058
1888.400565,1762.019645,592.164754,9474.636058
1888.400882,1532.190996,148.041188,9474.636058
1888.401199,1378.971896,-0.000000,9622.677246
1888.401517,1608.800546,-0.000000,9474.636058
1888.401834,1455.581446,-0.000000,9474.636058
1888.402151,1685.410096,-222.061783,9770.718434
1888.402468,1225.752797,-518.144159,10288.862594
1888.402786,1608.800546,-666.185348,10288.862594
1888.403103,1685.410096,-814.226536,10362.883188
1888.403420,1378.971896,-740.205942,10436.903782
1888.403738,1225.752797,-592.164754,9770.718434
1888.404055,995.924147,-296.082377,9770.718434
1888.404372,1378.971896,-0.000000,9770.718434
1888.404690,1762.019645,-0.000000,9178.553681
1888.405007,2145.067394,-444.123565,8734.430116
1888.405324,1762.019645,-222.061783,8808.450710
1888.405641,995.924147,-814.226536,9178.553681
1888.405959,766.095498,-740.205942,9252.574275
1888.406276,459.657299,-888.247130,9474.636058
1888.406593,0.000000,-1480.411884,9474.636058
1888.406911,0.000000,-740.205942,9474.636058
1888.407228,0.000000,-666.185348,9770.718434
1888.407545,0.000000,-1036.288319,9770.718434
1888.407863,0.000000,-1036.288319,9918.759623
1888.408180,-612.876398,-962.267725,9992.780217
1888.408497,-229.828649,-740.205942,9548.656652
1888.408814,0.000000,-370.102971,9178.553681
1888.409132,76.609550,222.061783,9252.574275
1888.409449,842.705048,592.164754,8660.409521
1888.409766,1072.533697,814.226536,8216.285956
1888.410084,1685.410096,370.102971,8216.285956
1888.410401,1915.238745,370.102971,8438.347739
1888.410718,1991.848295,-0.000000,8290.306550
1888.411036,1685.410096,148.041188,8512.368333
1888.411353,1685.410096,-0.000000,8512.368333
1888.411670,1532.190996,518.144159,8734.430116
1888.411987,1762.019645,814.226536,8438.347739
1888.412305,1915.238745,666.185348,8660.409521
1888.412622,1608.800546,518.144159,8660.409521
1888.412939,1685.410096,-370.102971,8956.491898
1888.413257,1302.362347,-74.020594,8734.430116
1888.413574,1225.752797,-0.000000,9400.615463
1888.413891,766.095498,222.061783,9400.615463
1888.414209,1302.362347,370.102971,9622.677246
1888.414526,766.095498,444.123565,9474.636058
1888.414843,689.485948,740.205942,9474.636058
1888.415160,459.657299,592.164754,9474.636058
1888.415478,536.266849,518.144159,9548.656652
1888.415795,459.657299,-0.000000,9474.636058
1888.416112,-306.438199,148.041188,9548.656652
1888.416430,-689.485948,370.102971,9844.739029
1888.416747,-536.266849,444.123565,9918.759623
1888.417064,-536.266849,296.082377,9844.739029
1888.417381,-383.047749,-0.000000,10362.883188
1888.417699,-689.485948,148.041188,10436.903782
1888.418016,-612.876398,-0.000000,10584.944971
1888.418333,-459.657299,-74.020594,10362.883188
1888.418651,-536.266849,-0.000000,10436.903782
1888.418968,-383.047749,740.205942,10140.821405
1888.419285,-229.828649,518.144159,9548.656652
1888.419603,153.219100,666.185348,9696.697840
1888.419920,459.657299,666.185348,9622.677246
1888.420237,536.266849,666.185348,9474.636058
1888.420554,229.828649,296.082377,9548.656652
1888.420872,229.828649,518.144159,9548.656652
1888.421189,536.266849,370.102971,9770.718434
1888.421506,306.438199,740.205942,9696.697840
1888.421824,612.876398,1184.329507,9844.739029
1888.422141,1072.533697,1406.391290,9326.594869
1888.422458,995.924147,1110.308913,9474.636058
1888.422776,1532.190996,1480.411884,9326.594869
1888.423093,1838.629195,888.247130,9474.636058
1888.423410,1991.848295,740.205942,9326.594869
1888.423727,1608.800546,1184.329507,9030.512492
1888.424045,1302.362347,1258.350101,8882.471304
1888.424362,1225.752797,1184.329507,9104.533087
1888.424679,842.705048,1184.329507,9252.574275
1888.424997,689.485948,888.247130,9474.636058
1888.425314,842.705048,888.247130,9474.636058
1888.425631,612.876398,148.041188,9474.636058
1888.425949,76.609550,-0.000000,9622.677246
1888.426266,306.438199,-0.000000,9474.636058
1888.426583,383.047749,74.020594,9844.739029
1888.426900,153.219100,222.061783,9474.636058
1888.427218,306.438199,444.123565,9622.677246
1888.427535,306.438199,-74.020594,9622.677246
1888.427852,689.485948,-0.000000,9696.697840
1888.428170,306.438199,-962.267725,10066.800811
1888.428487,689.485948,-592.164754,9770.718434
1888.428804,995.924147,-74.020594,9474.636058
1888.429122,1072.533697,-0.000000,9474.636058
1888.429439,1072.533697,296.082377,9252.574275
1888.429756,1532.190996,148.041188,9030.512492
1888.430073,1455.581446,222.061783,8808.450710
1888.430391,1302.362347,-0.000000,8882.471304
1888.430708,1302.362347,-148.041188,9252.574275
1888.431025,995.924147,-518.144159,9252.574275
1888.431343,842.705048,-888.247130,9252.574275
1888.431660,919.314598,-444.123565,9474.636058
1888.431977,1072.533697,-148.041188,9548.656652
1888.432295,1225.752797,-74.020594,9178.553681
1888.432612,1608.800546,-0.000000,9400.615463
1888.432929,1915.238745,-0.000000,9178.553681
1888.433247,2068.457845,-0.000000,9030.512492
1888.433564,1838.629195,148.041188,8956.491898
1888.433881,1762.019645,-0.000000,8882.471304
1888.434199,1149.143247,444.123565,8660.409521
1888.434516,1149.143247,592.164754,8586.388927
1888.434834,842.705048,444.123565,8734.430116
1888.435151,689.485948,74.020594,9400.615463
1888.435468,689.485948,-296.082377,9474.636058
1888.435786,153.219100,-1258.350101,9548.656652
1888.436103,0.000000,-1554.432478,9696.697840
1888.436421,-306.438199,-1332.370696,10066.800811
1888.436738,-459.657299,-814.226536,9622.677246
1888.437056,0.000000,-444.123565,9474.636058
1888.437373,-153.219100,-148.041188,9252.574275
1888.437690,0.000000,-370.102971,9252.574275
1888.438008,229.828649,-592.164754,9622.677246
1888.438325,459.657299,-740.205942,9474.636058
1888.438643,919.314598,-592.164754,9844.739029
1888.438960,383.047749,-296.082377,9474.636058
1888.439278,689.485948,-0.000000,9474.636058
1888.439595,612.876398,-0.000000,9252.574275
1888.439912,612.876398,296.082377,9326.594869
1888.440230,995.924147,-0.000000,9326.594869
1888.440547,995.924147,296.082377,9178.553681
1888.440865,995.924147,222.061783,9400.615463
1888.441182,766.095498,518.144159,9474.636058
1888.441500,536.266849,222.061783,9474.636058
1888.441817,842.705048,444.123565,9474.636058
1888.442134,995.924147,518.144159,9474.636058
1888.442452,1302.362347,962.267725,9400.615463
1888.442769,1302.362347,1036.288319,9104.533087
1888.443087,1455.581446,1110.308913,9326.594869
1888.443404,1532.190996,1036.288319,9104.533087
1888.443722,1225.752797,1184.329507,8660.409521
1888.444039,1149.143247,1332.370696,8882.471304
1888.444356,919.314598,1258.350101,8882.471304
1888.444674,1072.533697,1184.329507,8882.471304
1888.444991,919.314598,1036.288319,8956.491898
1888.445309,689.485948,962.267725,9030.512492
1888.445626,459.657299,666.185348,9400.615463
1888.445943,383.047749,592.164754,9252.574275
1888.446261,0.000000,518.144159,9474.636058
1888.446578,0.000000,296.082377,9400.615463
1888.446896,-153.219100,518.144159,9548.656652
1888.447213,0.000000,370.102971,9326.594869
1888.447531,-306.438199,222.061783,9992.780217
1888.447848,229.828649,296.082377,9992.780217
1888.448165,306.438199,518.144159,9992.780217
1888.448483,536.266849,518.144159,9992.780217
1888.448800,459.657299,444.123565,9696.697840
1888.449118,689.485948,592.164754,9770.718434
1888.449435,536.266849,592.164754,9770.718434
1888.449753,536.266849,1110.308913,9474.636058
1888.450070,919.314598,1184.329507,9474.636058
1888.450387,1302.362347,1258.350101,9474.636058
1888.450705,919.314598,888.247130,9622.677246
1888.451022,1149.143247,444.123565,9770.718434
1888.451340,536.266849,-148.041188,9844.739029
1888.451657,459.657299,-74.020594,9844.739029
1888.451975,536.266849,-148.041188,9992.780217
1888.452292,842.705048,148.041188,10362.883188
1888.452609,1072.533697,222.061783,10288.862594
1888.452927,1378.971896,222.061783,10214.842000
1888.453244,1378.971896,222.061783,9918.759623
1888.453562,1302.362347,-0.000000,9622.677246
1888.453879,1608.800546,-0.000000,9474.636058
1888.454196,1378.971896,-0.000000,9474.636058
1888.454514,995.924147,222.061783,9400.615463
1888.454831,1302.362347,740.205942,9178.553681
1888.455149,1225.752797,814.226536,8734.430116
1888.455466,995.924147,518.144159,8660.409521
1888.455784,1302.362347,-0.000000,8882.471304
1888.456101,842.705048,-666.185348,9178.553681
1888.456418,153.219100,-962.267725,9178.553681
1888.456736,0.000000,-1036.288319,9548.656652
1888.457053,0.000000,-1036.288319,9770.718434
1888.457371,-306.438199,-592.164754,9696.697840
1888.457688,536.266849,-74.020594,9548.656652
1888.458006,536.266849,-0.000000,9474.636058
1888.458323,842.705048,-148.041188,9326.594869
1888.458640,1378.971896,-888.247130,9770.718434
1888.458958,1302.362347,-222.061783,9474.636058
1888.459275,1225.752797,-74.020594,8808.450710
1888.459593,1608.800546,370.102971,8734.430116
1888.459910,1532.190996,592.164754,8512.368333
1888.460228,1838.629195,592.164754,8142.265362
1888.460545,1838.629195,518.144159,8438.347739
1888.460862,1685.410096,-0.000000,8512.368333
1888.461180,1532.190996,-370.102971,8808.450710
1888.461497,1149.143247,-962.267725,9252.574275
1888.461815,766.095498,-888.247130,9400.615463
1888.462132,842.705048,-1036.288319,9770.718434
1888.462449,842.705048,-518.144159,9696.697840
1888.462767,689.485948,-296.082377,9622.677246
1888.463084,1149.143247,-592.164754,9918.759623
1888.463402,1072.533697,-222.061783,9918.759623
1888.463719,153.219100,-0.000000,7920.203579
1888.464037,-229.828649,148.041188,9400.615463
1888.464354,1072.533697,-1480.411884,10955.047942
1888.464671,-459.657299,-74.020594,8660.409521
1888.464989,-229.828649,-1332.370696,9030.512492
1888.465306,-612.876398,1184.329507,8882.471304
1888.465624,383.047749,-1036.288319,12361.439231
1888.465941,-612.876398,-962.267725,10510.924376
1888.466259,-1149.143247,-666.185348,8808.450710
1888.466576,0.000000,1702.473667,9474.636058
1888.466893,995.924147,1184.329507,10436.903782
1888.467211,0.000000,370.102971,8438.347739
1888.467528,1302.362347,666.185348,9030.512492
1888.467846,1149.143247,-148.041188,10510.924376
1888.468163,1455.581446,962.267725,8586.388927
1888.468481,2987.772442,-444.123565,10140.821405
1888.468798,1685.410096,1406.391290,8660.409521
1888.469115,2834.553343,296.082377,9474.636058
1888.469433,1608.800546,1850.514855,8068.244768
1888.469750,2528.115143,148.041188,10288.862594
1888.470068,2298.286494,1850.514855,7994.224174
1888.470385,1762.019645,2590.720797,7179.997637
1888.470703,1685.410096,1258.350101,9696.697840
1888.471020,1072.533697,-222.061783,9030.512492
1888.471337,689.485948,814.226536,7994.224174
1888.471655,0.000000,1406.391290,9474.636058
1888.471972,306.438199,148.041188,11251.130318
1888.472290,536.266849,370.102971,8956.491898
1888.472607,536.266849,444.123565,9918.759623
1888.472924,919.314598,1036.288319,10807.006753
1888.473242,1072.533697,370.102971,9178.553681
1888.473559,1685.410096,814.226536,8734.430116
1888.473877,1378.971896,444.123565,9474.636058
1888.474194,919.314598,1702.473667,9252.574275
1888.474512,842.705048,1258.350101,8808.450710
1888.474829,1378.971896,1184.329507,9548.656652
1888.475146,995.924147,1628.453072,8512.368333
1888.475464,842.705048,1776.494261,8660.409521
1888.475781,536.266849,1184.329507,9474.636058
1888.476099,153.219100,-74.020594,9992.780217
1888.476416,0.000000,-222.061783,9622.677246
1888.476734,-689.485948,666.185348,9548.656652
1888.477051,-919.314598,370.102971,10510.924376
1888.477368,-842.705048,-666.185348,10288.862594
1888.477686,-383.047749,-444.123565,10214.842000
1888.478003,-536.266849,666.185348,10066.800811
1888.478321,-612.876398,-148.041188,11251.130318
1888.478638,153.219100,-370.102971,10955.047942
1888.478956,459.657299,592.164754,9696.697840
1888.479273,383.047749,1036.288319,10066.800811
1888.479590,459.657299,444.123565,9770.718434
1888.479908,766.095498,1036.288319,8438.347739
1888.480225,1608.800546,1702.473667,7846.182985
1888.480543,1378.971896,962.267725,8512.368333
1888.480860,536.266849,296.082377,8956.491898
1888.481177,-306.438199,-444.123565,8956.491898
1888.481495,-919.314598,-1702.473667,9178.553681
1888.481812,-995.924147,-1998.556043,10436.903782
1888.482130,-1225.752797,-1776.494261,11103.089130
1888.482447,-1072.533697,-1036.288319,10658.965565
1888.482765,-766.095498,-1998.556043,11103.089130
1888.483082,0.000000,-888.247130,11029.068536
1888.483399,383.047749,-518.144159,10140.821405
1888.483717,1455.581446,592.164754,9326.594869
1888.484034,1838.629195,222.061783,9992.780217
1888.484352,1915.238745,592.164754,9178.553681
1888.484669,2834.553343,666.185348,8956.491898
1888.484987,2911.162892,888.247130,8660.409521
1888.485304,3830.477490,666.185348,8808.450710
1888.485621,3294.210641,148.041188,7994.224174
1888.485939,2834.553343,222.061783,7105.977043
1888.486256,3753.867940,-1036.288319,8068.244768
1888.486574,2451.505594,-444.123565,8216.285956
1888.486891,2145.067394,-1036.288319,9252.574275
1888.487209,1608.800546,-888.247130,9326.594869
1888.487526,995.924147,-666.185348,9474.636058
1888.487843,689.485948,-74.020594,9696.697840
1888.488161,1072.533697,-148.041188,10732.986159
1888.488478,995.924147,-222.061783,9992.780217
1888.488796,1149.143247,-0.000000,9622.677246
1888.489113,1378.971896,814.226536,9474.636058
1888.489431,1455.581446,518.144159,8956.491898
1888.489748,2068.457845,740.205942,8512.368333
1888.490065,1915.238745,740.205942,8142.265362
1888.490383,1685.410096,814.226536,8216.285956
1888.490700,2068.457845,1036.288319,7624.121203
1888.491018,1608.800546,666.185348,7772.162391
1888.491335,995.924147,222.061783,8586.388927
1888.491652,153.219100,-74.020594,8586.388927
1888.491970,-306.438199,-444.123565,8660.409521
1888.492287,-1608.800546,-518.144159,9030.512492
1888.492605,-1455.581446,-148.041188,9918.759623
1888.492922,-1378.971896,-148.041188,9696.697840
1888.493240,-1532.190996,-296.082377,9622.677246
1888.493557,-1608.800546,-518.144159,10362.883188
1888.493874,-1455.581446,-444.123565,10362.883188
1888.494192,-995.924147,-74.020594,10066.800811
1888.494509,-1149.143247,-0.000000,10214.842000
1888.494827,-689.485948,296.082377,10288.862594
1888.495144,0.000000,1110.308913,9400.615463
1888.495462,0.000000,1628.453072,8882.471304
1888.495779,153.219100,1258.350101,9400.615463
1888.496096,153.219100,962.267725,9104.533087
1888.496414,0.000000,666.185348,9030.512492
1888.496731,-229.828649,666.185348,9474.636058
1888.497049,-612.876398,222.061783,9844.739029
1888.497366,-766.095498,444.123565,9844.739029
1888.497684,-612.876398,666.185348,10140.821405
1888.498001,-536.266849,592.164754,10436.903782
1888.498318,-383.047749,296.082377,10732.986159
1888.498636,229.828649,-0.000000,11251.130318
1888.498953,612.876398,-0.000000,10584.944971
1888.499271,1149.143247,592.164754,10214.842000
1888.499588,1302.362347,962.267725,9696.697840
1888.499905,2068.457845,1702.473667,9252.574275
1888.500223,2374.896044,2146.597232,8734.430116
1888.500540,3217.601092,2442.679609,8512.368333
1888.500858,2987.772442,2294.638420,8512.368333
1888.501175,2528.115143,1702.473667,9030.512492
1888.501493,2374.896044,1258.350101,9178.553681
1888.501810,2374.896044,1110.308913,8734.430116
1888.502127,1685.410096,370.102971,9326.594869
1888.502445,1915.238745,-0.000000,9696.697840
1888.502762,1378.971896,-74.020594,9770.718434
1888.503080,1302.362347,148.041188,9474.636058
1888.503397,1608.800546,-370.102971,9918.759623
1888.503715,1455.581446,-592.164754,9918.759623
1888.504032,1685.410096,-370.102971,9918.759623
1888.504349,995.924147,-222.061783,9548.656652
1888.504667,995.924147,-0.000000,9770.718434
1888.504984,1302.362347,-0.000000,9622.677246
1888.505302,919.314598,740.205942,9326.594869
1888.505619,1455.581446,1036.288319,8882.471304
1888.505937,1225.752797,444.123565,9030.512492
1888.506254,1225.752797,-0.000000,8956.491898
1888.506571,995.924147,-148.041188,9104.533087
1888.506889,689.485948,-666.185348,9252.574275
1888.507206,153.219100,-1184.329507,9474.636058
1888.507524,-76.609550,-888.247130,9770.718434
1888.507841,0.000000,-740.205942,9696.697840
1888.508158,-612.876398,-888.247130,9474.636058
1888.508476,153.219100,-370.102971,9844.739029
1888.508793,0.000000,-444.123565,9696.697840
1888.509111,383.047749,-592.164754,9622.677246
1888.509428,153.219100,-370.102971,9474.636058
1888.509746,306.438199,-444.123565,9474.636058
1888.510063,459.657299,-814.226536,9474.636058
1888.510380,689.485948,-296.082377,9326.594869
1888.510698,1149.143247,444.123565,9030.512492
1888.511015,919.314598,444.123565,8734.430116
1888.511333,1378.971896,592.164754,8734.430116
1888.511650,1378.971896,-0.000000,8586.388927
1888.511968,842.705048,-0.000000,8734.430116
1888.512285,842.705048,-0.000000,8882.471304
1888.512602,1225.752797,-0.000000,8808.450710
1888.512920,1838.629195,-0.000000,8660.409521
1888.513237,1302.362347,-74.020594,9104.533087
1888.513555,1072.533697,-370.102971,9252.574275
1888.513872,1149.143247,-666.185348,9474.636058
1888.514190,842.705048,-814.226536,9844.739029
1888.514507,766.095498,-814.226536,9770.718434
1888.514824,0.000000,-962.267725,9992.780217
1888.515142,229.828649,-370.102971,9844.739029
1888.515459,306.438199,-148.041188,9622.677246
1888.515777,612.876398,-0.000000,9400.615463
1888.516094,1072.533697,-0.000000,9400.615463
1888.516412,1455.581446,-0.000000,9252.574275
1888.516729,1378.971896,-370.102971,9252.574275
1888.517046,1149.143247,-370.102971,9252.574275
1888.517364,459.657299,-296.082377,9400.615463
1888.517681,1302.362347,-74.020594,9622.677246
1888.517999,1302.362347,370.102971,9104.533087
1888.518316,1532.190996,370.102971,9548.656652
1888.518633,1685.410096,370.102971,9696.697840
1888.518951,1532.190996,296.082377,9548.656652
1888.519268,1532.190996,592.164754,9770.718434
1888.519586,1378.971896,666.185348,9770.718434
1888.519903,1225.752797,888.247130,9326.594869
1888.520221,919.314598,1406.391290,9326.594869
1888.520538,842.705048,1480.411884,9104.533087
1888.520855,1762.019645,1924.535449,9474.636058
1888.521173,1225.752797,1850.514855,9178.553681
1888.521490,995.924147,1776.494261,9326.594869
1888.521808,842.705048,1258.350101,9178.553681
1888.522125,383.047749,1110.308913,9104.533087
1888.522443,0.000000,740.205942,9474.636058
1888.522760,-153.219100,666.185348,9548.656652
1888.523077,76.609550,814.226536,9178.553681
1888.523395,76.609550,962.267725,9326.594869
1888.523712,306.438199,1110.308913,9548.656652
1888.524030,306.438199,518.144159,9548.656652
1888.524347,-383.047749,814.226536,9548.656652
1888.524665,-995.924147,296.082377,9844.739029
1888.524982,-1302.362347,518.144159,10066.800811
1888.525299,-1378.971896,592.164754,9770.718434
1888.525617,-1072.533697,1036.288319,9548.656652
1888.525934,-766.095498,814.226536,9696.697840
1888.526252,-612.876398,518.144159,9696.697840
1888.526569,-459.657299,444.123565,9400.615463
1888.526886,-229.828649,-0.000000,9548.656652
1888.527204,-76.609550,-370.102971,9696.697840
1888.527521,-612.876398,-444.123565,9548.656652
1888.527839,-383.047749,-0.000000,9696.697840
1888.528156,76.609550,-74.020594,10140.821405
1888.528474,612.876398,-444.123565,10510.924376
1888.528791,766.095498,148.041188,10288.862594
1888.529108,1149.143247,222.061783,9844.739029
1888.529426,1225.752797,148.041188,9918.759623
1888.529743,1915.238745,148.041188,9696.697840
1888.530061,1991.848295,296.082377,9030.512492
1888.530378,2451.505594,518.144159,8734.430116
1888.530696,2298.286494,888.247130,8956.491898
1888.531013,2834.553343,666.185348,8734.430116
1888.531330,2681.334243,444.123565,8734.430116
1888.531648,2681.334243,-0.000000,8882.471304
1888.531965,2374.896044,-148.041188,9326.594869
1888.532283,2221.676944,-222.061783,9326.594869
1888.532600,1991.848295,-296.082377,9326.594869
1888.532918,1685.410096,-444.123565,9474.636058
1888.533235,1838.629195,-0.000000,9326.594869
1888.533553,2604.724693,-0.000000,9104.533087
1888.533870,2374.896044,-74.020594,9178.553681
1888.534187,1991.848295,-444.123565,9400.615463
1888.534505,2374.896044,-518.144159,9400.615463
1888.534822,1685.410096,-370.102971,9326.594869
1888.535140,1302.362347,-148.041188,9252.574275
1888.535457,1225.752797,-148.041188,9178.553681
1888.535775,689.485948,-0.000000,9474.636058
1888.536092,1608.800546,-0.000000,8882.471304
1888.536409,1455.581446,-222.061783,8438.347739
1888.536727,842.705048,-518.144159,9030.512492
1888.537044,689.485948,-962.267725,9252.574275
1888.537362,0.000000,-1332.370696,9326.594869
1888.537679,-612.876398,-1628.453072,9844.739029
1888.537997,-536.266849,-814.226536,10140.821405
1888.538314,-536.266849,-518.144159,10066.800811
1888.538632,-306.438199,-148.041188,10288.862594
1888.538949,76.609550,-74.020594,10066.800811
1888.539266,153.219100,-222.061783,9770.718434
1888.539584,612.876398,-148.041188,9474.636058
1888.539901,689.485948,148.041188,9474.636058
1888.540219,1072.533697,296.082377,8882.471304
1888.540536,1302.362347,740.205942,8808.450710
1888.540854,1302.362347,592.164754,8660.409521
1888.541171,1302.362347,962.267725,8364.327145
1888.541489,1072.533697,592.164754,8660.409521
1888.541806,919.314598,148.041188,8734.430116
1888.542123,383.047749,-0.000000,9104.533087
1888.542441,306.438199,-0.000000,9252.574275
1888.542758,0.000000,-0.000000,9400.615463
1888.543076,153.219100,370.102971,9474.636058
1888.543393,0.000000,370.102971,9548.656652
1888.543711,-229.828649,444.123565,9770.718434
1888.544028,76.609550,592.164754,9918.759623
1888.544346,-229.828649,444.123565,9918.759623
1888.544663,0.000000,444.123565,9770.718434
1888.544980,153.219100,740.205942,9844.739029
1888.545298,153.219100,740.205942,9474.636058
1888.545615,229.828649,1184.329507,9178.553681
1888.545933,612.876398,1702.473667,8808.450710
1888.546250,766.095498,1554.432478,8734.430116
1888.546568,919.314598,1110.308913,8660.409521
1888.546885,766.095498,592.164754,8734.430116
1888.547202,306.438199,222.061783,9326.594869
1888.547520,0.000000,222.061783,9548.656652
1888.547837,0.000000,296.082377,9992.780217
1888.548155,0.000000,592.164754,10362.883188
1888.548472,-229.828649,666.185348,10510.924376
1888.548790,0.000000,518.144159,10362.883188
1888.549107,229.828649,666.185348,10066.800811
1888.549425,459.657299,740.205942,9992.780217
1888.549742,995.924147,666.185348,9992.780217
1888.550059,1072.533697,1110.308913,9474.636058
1888.550377,1302.362347,1036.288319,9400.615463
1888.550694,1532.190996,740.205942,9326.594869
1888.551012,1608.800546,888.247130,9400.615463
1888.551329,1838.629195,814.226536,9622.677246
1888.551647,1838.629195,888.247130,9474.636058
1888.551964,1378.971896,444.123565,9400.615463
1888.552282,1149.143247,148.041188,9548.656652
1888.552599,1302.362347,592.164754,9622.677246
1888.552916,1149.143247,518.144159,9622.677246
1888.553234,1225.752797,370.102971,9696.697840
1888.553551,1378.971896,148.041188,9548.656652
1888.553869,1532.190996,148.041188,9770.718434
1888.554186,1302.362347,-0.000000,9844.739029
1888.554504,1225.752797,-74.020594,10140.821405
1888.554821,842.705048,-0.000000,9844.739029
1888.555139,689.485948,148.041188,9844.739029
1888.555456,459.657299,222.061783,9548.656652
1888.555773,842.705048,148.041188,9178.553681
1888.556091,689.485948,296.082377,9400.615463
1888.556408,612.876398,296.082377,9178.553681
1888.556726,536.266849,-74.020594,9326.594869
1888.557043,76.609550,-370.102971,9400.615463
1888.557361,0.000000,-666.185348,9400.615463
1888.557678,-459.657299,-592.164754,9696.697840
1888.557996,-306.438199,-370.102971,9992.780217
1888.558313,-536.266849,-444.123565,9918.759623
1888.558630,153.219100,-518.144159,9622.677246
1888.558948,0.000000,-444.123565,9548.656652
1888.559265,612.876398,-814.226536,9400.615463
1888.559583,1302.362347,-592.164754,9326.594869
1888.559900,919.314598,-888.247130,9178.553681
1888.560218,1225.752797,-444.123565,8956.491898
1888.560535,1302.362347,-0.000000,9030.512492
1888.560852,1378.971896,296.082377,8512.368333
1888.561170,1685.410096,666.185348,8586.388927
1888.561487,1915.238745,592.164754,8882.471304
1888.561805,1838.629195,444.123565,8808.450710
1888.562122,2068.457845,-222.061783,9178.553681
1888.562440,1608.800546,222.061783,8734.430116
1888.562757,1455.581446,-0.000000,9104.533087
1888.563075,1532.190996,-0.000000,8882.471304
1888.563392,1455.581446,-0.000000,8882.471304
1888.563709,1455.581446,-222.061783,8660.409521
1888.564027,1532.190996,222.061783,9326.594869
1888.564344,1225.752797,296.082377,9030.512492
1888.564662,1149.143247,-0.000000,9474.636058
1888.564979,919.314598,-0.000000,9548.656652
1888.565297,612.876398,-222.061783,9326.594869
1888.565614,459.657299,222.061783,9548.656652
1888.565932,459.657299,666.185348,9030.512492
1888.566249,689.485948,814.226536,9326.594869
1888.566566,1302.362347,518.144159,9030.512492
1888.566884,459.657299,444.123565,9474.636058
1888.567201,229.828649,-0.000000,9178.553681
1888.567519,0.000000,296.082377,9474.636058
1888.567836,-153.219100,222.061783,9548.656652
1888.568154,-459.657299,518.144159,9696.697840
1888.568471,0.000000,370.102971,9548.656652
1888.568789,-229.828649,-74.020594,9622.677246
1888.569106,-306.438199,296.082377,9770.718434
1888.569423,76.609550,-0.000000,9770.718434
1888.569741,0.000000,296.082377,9622.677246
1888.570058,-306.438199,148.041188,9622.677246
1888.570376,-306.438199,814.226536,9474.636058
1888.570693,-229.828649,1036.288319,9474.636058
1888.571011,0.000000,1036.288319,9474.636058
1888.571328,76.609550,666.185348,9622.677246
1888.571645,0.000000,888.247130,9474.636058
1888.571963,153.219100,444.123565,10140.821405
1888.572280,459.657299,370.102971,9918.759623
1888.572598,383.047749,518.144159,9548.656652
1888.572915,689.485948,518.144159,9474.636058
1888.573233,1072.533697,666.185348,9326.594869
1888.573550,1302.362347,1036.288319,9326.594869
1888.573868,1838.629195,1036.288319,9400.615463
1888.574185,2298.286494,814.226536,9696.697840
1888.574502,1838.629195,962.267725,9474.636058
1888.574820,1762.019645,592.164754,9548.656652
1888.575137,1762.019645,444.123565,9474.636058
1888.575455,1608.800546,444.123565,9474.636058
1888.575772,1685.410096,666.185348,9474.636058
1888.576090,1608.800546,740.205942,9400.615463
1888.576407,1455.581446,814.226536,9326.594869
1888.576725,1838.629195,222.061783,9252.574275
1888.577042,1378.971896,222.061783,9104.533087
1888.577359,919.314598,-148.041188,9474.636058
1888.577677,459.657299,-666.185348,9326.594869
1888.577994,0.000000,-222.061783,9770.718434
1888.578312,-383.047749,-444.123565,10140.821405
1888.578629,-229.828649,-74.020594,10066.800811
1888.578947,0.000000,-296.082377,10436.903782
1888.579264,0.000000,-222.061783,9992.780217
1888.579582,229.828649,-518.144159,9918.759623
1888.579899,383.047749,-296.082377,9696.697840
1888.580216,459.657299,-370.102971,9252.574275
1888.580534,153.219100,-370.102971,9030.512492
1888.580851,229.828649,-74.020594,8956.491898
1888.581169,306.438199,222.061783,8882.471304
1888.581486,383.047749,296.082377,8808.450710
1888.581804,612.876398,370.102971,8882.471304
1888.582121,383.047749,-0.000000,9104.533087
1888.582438,306.438199,-592.164754,9178.553681
1888.582756,-229.828649,-814.226536,9252.574275
1888.583073,0.000000,-666.185348,9326.594869
1888.583391,153.219100,-222.061783,9326.594869
1888.583708,536.266849,-0.000000,9474.636058
1888.584026,919.314598,-0.000000,9326.594869
1888.584343,1225.752797,222.061783,9400.615463
1888.584661,1378.971896,-0.000000,9400.615463
1888.584978,1608.800546,-0.000000,9696.697840
1888.585295,1302.362347,-0.000000,9400.615463
1888.585613,1378.971896,370.102971,8808.450710
1888.585930,1532.190996,666.185348,8882.471304
1888.586248,1838.629195,592.164754,8512.368333
1888.586565,1991.848295,814.226536,8216.285956
1888.586883,2145.067394,444.123565,8290.306550
1888.587200,1915.238745,222.061783,9030.512492
1888.587518,1378.971896,-222.061783,9030.512492
1888.587835,842.705048,-444.123565,9474.636058
1888.588152,0.000000,-370.102971,9844.739029
1888.588470,0.000000,-370.102971,9844.739029
1888.588787,229.828649,-148.041188,9844.739029
1888.589105,229.828649,148.041188,10140.821405
1888.589422,459.657299,296.082377,10436.903782
1888.589740,689.485948,-74.020594,9918.759623
1888.590057,1149.143247,444.123565,9696.697840
1888.590375,842.705048,518.144159,9474.636058
1888.590692,1378.971896,814.226536,9252.574275
1888.591009,1072.533697,888.247130,9030.512492
1888.591327,1072.533697,1184.329507,9030.512492
1888.591644,1225.752797,1184.329507,9326.594869
1888.591962,1302.362347,814.226536,9474.636058
1888.592279,1225.752797,-0.000000,9622.677246
1888.592597,612.876398,222.061783,9474.636058
1888.592914,229.828649,-0.000000,9622.677246
1888.593232,229.828649,-0.000000,9622.677246
1888.593549,306.438199,-0.000000,9770.718434
1888.593866,459.657299,-222.061783,10214.842000
1888.594184,689.485948,148.041188,10288.862594
1888.594501,919.314598,740.205942,9992.780217
1888.594819,995.924147,518.144159,9696.697840
1888.595136,919.314598,518.144159,9844.739029
1888.595454,1072.533697,370.102971,9918.759623
1888.595771,612.876398,666.185348,9178.553681
1888.596088,919.314598,962.267725,9030.512492
1888.596406,1149.143247,1258.350101,9178.553681
1888.596723,1378.971896,1036.288319,9030.512492
1888.597041,1225.752797,666.185348,9178.553681
1888.597358,995.924147,444.123565,9030.512492
1888.597676,306.438199,-0.000000,9104.533087
1888.597993,0.000000,-74.020594,9474.636058
1888.598311,-612.876398,-148.041188,9844.739029
1888.598628,-612.876398,-0.000000,9918.759623
1888.598945,-842.705048,148.041188,10214.842000
1888.599263,-536.266849,296.082377,10066.800811
1888.599580,0.000000,222.061783,9918.759623
1888.599898,0.000000,296.082377,9622.677246
1888.600215,76.609550,-0.000000,9474.636058
1888.600533,383.047749,666.185348,9474.636058
1888.600850,229.828649,740.205942,8734.430116
1888.601168,612.876398,814.226536,8660.409521
1888.601485,689.485948,1332.370696,8586.388927
1888.601802,919.314598,962.267725,8808.450710
1888.602120,689.485948,888.247130,8512.368333
1888.602437,536.266849,370.102971,8882.471304
1888.602755,383.047749,-222.061783,9030.512492
1888.603072,76.609550,-370.102971,9400.615463
1888.603390,0.000000,-296.082377,9474.636058
1888.603707,0.000000,-740.205942,9770.718434
1888.604025,612.876398,-0.000000,9474.636058
1888.604342,919.314598,370.102971,9548.656652
1888.604659,1762.019645,296.082377,9548.656652
1888.604977,1149.143247,-0.000000,9474.636058
1888.605294,1302.362347,-74.020594,9622.677246
1888.605612,1302.362347,-222.061783,9548.656652
1888.605929,1302.362347,-0.000000,9326.594869
1888.606247,1991.848295,296.082377,9252.574275
1888.606564,2221.676944,740.205942,8882.471304
1888.606881,1915.238745,666.185348,8734.430116
1888.607199,2298.286494,-0.000000,8512.368333
1888.607516,1915.238745,-74.020594,8734.430116
1888.607834,1762.019645,-666.185348,8956.491898
1888.608151,919.314598,-592.164754,9622.677246
1888.608469,689.485948,-518.144159,9770.718434
1888.608786,306.438199,-592.164754,9992.780217
1888.609104,383.047749,-518.144159,10288.862594
1888.609421,612.876398,-888.247130,10214.842000
1888.609738,612.876398,-518.144159,10288.862594
1888.610056,1149.143247,-740.205942,9992.780217
1888.610373,1302.362347,-666.185348,10214.842000
1888.610691,1149.143247,-666.185348,9622.677246
1888.611008,1378.971896,-0.000000,9474.636058
1888.611326,2068.457845,444.123565,9030.512492
1888.611643,2145.067394,592.164754,9104.533087
1888.611961,1991.848295,740.205942,8734.430116
1888.612278,2451.505594,-74.020594,9030.512492
1888.612595,2068.457845,-296.082377,9400.615463
1888.612913,1455.581446,-222.061783,9104.533087
1888.613230,919.314598,-296.082377,9400.615463
1888.613548,612.876398,-296.082377,9548.656652
1888.613865,1072.533697,-74.020594,9326.594869
1888.614183,842.705048,-222.061783,9474.636058
1888.614500,1149.143247,-74.020594,9918.759623
1888.614818,919.314598,-148.041188,9622.677246
1888.615135,766.095498,-74.020594,9622.677246
1888.615452,536.266849,-74.020594,9770.718434
1888.615770,153.219100,518.144159,9548.656652
1888.616087,689.485948,962.267725,9252.574275
1888.616405,459.657299,1036.288319,9326.594869
1888.616722,536.266849,1184.329507,8734.430116
1888.617040,306.438199,518.144159,8512.368333
1888.617357,536.266849,296.082377,8882.471304
1888.617675,383.047749,-0.000000,9030.512492
1888.617992,0.000000,-0.000000,9030.512492
1888.618309,76.609550,-0.000000,9178.553681
1888.618627,-536.266849,74.020594,9474.636058
1888.618944,-612.876398,444.123565,9474.636058
1888.619262,-459.657299,592.164754,9474.636058
1888.619579,0.000000,666.185348,9474.636058
1888.619897,153.219100,592.164754,9474.636058
1888.620214,536.266849,370.102971,9400.615463
1888.620531,383.047749,740.205942,9252.574275
1888.620849,536.266849,592.164754,9252.574275
1888.621166,612.876398,1036.288319,9030.512492
1888.621484,612.876398,1258.350101,8808.450710
1888.621801,842.705048,1554.432478,9326.594869
1888.622119,995.924147,1110.308913,9178.553681
1888.622436,919.314598,1036.288319,9104.533087
1888.622754,612.876398,444.123565,9326.594869
1888.623071,0.000000,-0.000000,9696.697840
1888.623388,0.000000,296.082377,9548.656652
1888.623706,0.000000,444.123565,9770.718434
1888.624023,229.828649,370.102971,10140.821405
1888.624341,459.657299,370.102971,10436.903782
1888.624658,842.705048,-74.020594,10288.862594
1888.624976,1532.190996,444.123565,10214.842000
1888.625293,1378.971896,-0.000000,10214.842000
1888.625611,1608.800546,296.082377,10288.862594
1888.625928,1225.752797,888.247130,9622.677246
1888.626245,1608.800546,814.226536,9326.594869
1888.626563,1532.190996,1258.350101,9400.615463
1888.626880,1685.410096,814.226536,9400.615463
1888.627198,1378.971896,962.267725,9252.574275
1888.627515,1455.581446,444.123565,9548.656652
1888.627833,842.705048,-74.020594,9918.759623
1888.628150,689.485948,-296.082377,10066.800811
1888.628468,306.438199,-740.205942,10140.821405
1888.628785,153.219100,-444.123565,10140.821405
1888.629102,0.000000,-74.020594,10066.800811
1888.629420,76.609550,-0.000000,9992.780217
1888.629737,229.828649,-0.000000,10140.821405
1888.630055,689.485948,-0.000000,9918.759623
1888.630372,1072.533697,-0.000000,9548.656652
1888.630690,536.266849,148.041188,9474.636058
1888.631007,842.705048,222.061783,9104.533087
1888.631324,842.705048,296.082377,8956.491898
1888.631642,1225.752797,814.226536,8660.409521
1888.631959,1762.019645,518.144159,8216.285956
1888.632277,1532.190996,740.205942,8438.347739
1888.632594,1149.143247,-0.000000,8438.347739
1888.632912,995.924147,-74.020594,8734.430116
1888.633229,612.876398,-370.102971,8882.471304
1888.633546,383.047749,-518.144159,9474.636058
1888.633864,383.047749,-74.020594,9252.574275
1888.634181,229.828649,-0.000000,9326.594869
1888.634499,689.485948,-0.000000,9548.656652
1888.634816,919.314598,666.185348,9992.780217
1888.635133,1532.190996,-222.061783,9474.636058
1888.635451,1685.410096,-0.000000,9326.594869
1888.635768,1302.362347,-592.164754,9178.553681
1888.636085,1302.362347,-370.102971,9474.636058
1888.636403,1072.533697,-74.020594,9030.512492
1888.636720,1532.190996,-0.000000,8808.450710
1888.637038,1225.752797,296.082377,9474.636058
1888.637355,1378.971896,-0.000000,8956.491898
1888.637672,919.314598,-222.061783,8956.491898
1888.637990,536.266849,-666.185348,9400.615463
1888.638307,153.219100,-1184.329507,9400.615463
1888.638624,-153.219100,-962.267725,9474.636058
1888.638942,-229.828649,-888.247130,9770.718434
1888.639259,0.000000,-296.082377,9844.739029
1888.639577,153.219100,-222.061783,10140.821405
1888.639894,76.609550,-0.000000,10140.821405
1888.640211,536.266849,296.082377,9770.718434
1888.640529,995.924147,-0.000000,9696.697840
1888.640846,919.314598,296.082377,9400.615463
1888.641163,842.705048,444.123565,9178.553681
1888.641481,919.314598,1258.350101,9178.553681
1888.641798,1302.362347,1110.308913,8882.471304
1888.642116,1225.752797,1110.308913,8808.450710
1888.642433,1455.581446,1110.308913,8956.491898
1888.642750,1378.971896,740.205942,8882.471304
1888.643068,919.314598,592.164754,8882.471304
1888.643385,536.266849,296.082377,9252.574275
1888.643702,76.609550,-74.020594,9474.636058
1888.644020,76.609550,370.102971,9474.636058
1888.644337,153.219100,666.185348,9770.718434
1888.644655,689.485948,888.247130,9918.759623
1888.644972,1378.971896,962.267725,9474.636058
1888.645289,1149.143247,962.267725,9474.636058
1888.645607,1149.143247,740.205942,9474.636058
1888.645924,842.705048,666.185348,9548.656652
1888.646241,842.705048,740.205942,9326.594869
1888.646559,766.095498,1110.308913,9178.553681
1888.646876,1072.533697,1110.308913,9178.553681
1888.647194,1149.143247,888.247130,9474.636058
1888.647511,766.095498,370.102971,9548.656652
1888.647828,1302.362347,-0.000000,9622.677246
1888.648146,383.047749,-0.000000,9622.677246
1888.648463,0.000000,-148.041188,9622.677246
1888.648780,-459.657299,-74.020594,10214.842000
1888.649098,-536.266849,222.061783,10140.821405
1888.649415,-306.438199,444.123565,10066.800811
1888.649732,-153.219100,518.144159,9918.759623
1888.650050,76.609550,444.123565,10066.800811
1888.650367,76.609550,222.061783,10066.800811
1888.650685,0.000000,148.041188,9918.759623
1888.651002,383.047749,592.164754,9992.780217
1888.651319,229.828649,592.164754,9252.574275
1888.651637,612.876398,1332.370696,8808.450710
1888.651954,766.095498,1258.350101,8956.491898
1888.652271,1455.581446,1480.411884,8956.491898
1888.652589,766.095498,962.267725,8734.430116
1888.652906,919.314598,592.164754,9104.533087
1888.653224,689.485948,222.061783,9178.553681
1888.653541,536.266849,-148.041188,9400.615463
1888.653858,383.047749,-222.061783,9400.615463
1888.654176,536.266849,-0.000000,9474.636058
1888.654493,383.047749,74.020594,9696.697840
1888.654810,536.266849,-0.000000,9622.677246
1888.655128,766.095498,296.082377,9474.636058
1888.655445,612.876398,-0.000000,9696.697840
1888.655763,766.095498,-0.000000,9622.677246
1888.656080,919.314598,148.041188,9400.615463
1888.656397,766.095498,444.123565,9252.574275
1888.656715,919.314598,370.102971,9252.574275
1888.657032,1302.362347,592.164754,8956.491898
1888.657349,1378.971896,444.123565,8808.450710
1888.657667,919.314598,-0.000000,9400.615463
1888.657984,995.924147,-370.102971,9252.574275
1888.658302,766.095498,-518.144159,9474.636058
1888.658619,383.047749,-444.123565,9770.718434
1888.658936,153.219100,-444.123565,9622.677246
1888.659254,229.828649,-444.123565,9622.677246
1888.659571,536.266849,-222.061783,9992.780217
1888.659888,766.095498,-74.020594,10066.800811
1888.660206,1302.362347,-0.000000,9770.718434
1888.660523,1072.533697,-74.020594,9622.677246
1888.660841,1302.362347,-0.000000,9548.656652
1888.661158,1532.190996,-0.000000,9104.533087
1888.661475,1838.629195,592.164754,9030.512492
1888.661793,1685.410096,962.267725,8882.471304
1888.662110,1915.238745,1258.350101,8512.368333
1888.662427,1991.848295,1184.329507,8512.368333
1888.662745,1608.800546,592.164754,8734.430116
1888.663062,1378.971896,-74.020594,8808.450710
1888.663380,1072.533697,-148.041188,8956.491898
1888.663697,612.876398,-518.144159,9474.636058
1888.664014,0.000000,-370.102971,9622.677246
1888.664332,153.219100,-0.000000,9622.677246
1888.664649,229.828649,-74.020594,9770.718434
1888.664966,459.657299,-0.000000,10214.842000
1888.665284,536.266849,-148.041188,9918.759623
1888.665601,459.657299,-0.000000,9696.697840
1888.665919,536.266849,-296.082377,9770.718434
1888.666236,536.266849,-296.082377,9770.718434
1888.666553,766.095498,148.041188,9400.615463
1888.666871,1302.362347,814.226536,9030.512492
1888.667188,1762.019645,592.164754,8734.430116
1888.667505,1762.019645,296.082377,8660.409521
1888.667823,1608.800546,-0.000000,8808.450710
1888.668140,1225.752797,-592.164754,9030.512492
1888.668458,766.095498,-444.123565,9474.636058
1888.668775,306.438199,-666.185348,9474.636058
1888.669092,306.438199,-444.123565,9696.697840
1888.669410,-459.657299,-74.020594,9992.780217
1888.669727,153.219100,148.041188,9992.780217
1888.670044,0.000000,148.041188,9622.677246
1888.670362,229.828649,148.041188,9696.697840
1888.670679,0.000000,-0.000000,9918.759623
1888.670997,612.876398,-0.000000,9696.697840
1888.671314,919.314598,518.144159,9474.636058
1888.671631,1149.143247,666.185348,9474.636058
1888.671949,1149.143247,1258.350101,8808.450710
1888.672266,1608.800546,1332.370696,8956.491898
1888.672583,1608.800546,1332.370696,8512.368333
1888.672901,1762.019645,962.267725,8808.450710
1888.673218,1225.752797,592.164754,8808.450710
1888.673536,995.924147,592.164754,9030.512492
1888.673853,536.266849,-0.000000,9474.636058
1888.674170,153.219100,-0.000000,9252.574275
1888.674488,229.828649,296.082377,9548.656652
1888.674805,229.828649,370.102971,9474.636058
1888.675122,919.314598,592.164754,9622.677246
1888.675440,-306.438199,296.082377,9548.656652
1888.675757,229.828649,222.061783,9770.718434
1888.676075,-229.828649,296.082377,9918.759623
1888.676392,229.828649,222.061783,9474.636058
1888.676709,0.000000,518.144159,9548.656652
1888.677027,459.657299,962.267725,9474.636058
1888.677344,383.047749,666.185348,9474.636058
1888.677661,536.266849,814.226536,9400.615463
1888.677979,919.314598,296.082377,9696.697840
1888.678296,306.438199,-0.000000,9400.615463
1888.678613,76.609550,-74.020594,9548.656652
1888.678931,76.609550,-74.020594,9844.739029
1888.679248,0.000000,-296.082377,9696.697840
1888.679566,306.438199,-296.082377,9696.697840
1888.679883,229.828649,-222.061783,9918.759623
1888.680200,766.095498,-222.061783,9918.759623
1888.680518,995.924147,-222.061783,10066.800811
1888.680835,1302.362347,-296.082377,9696.697840
1888.681152,1455.581446,-0.000000,9548.656652
1888.681470,1378.971896,-0.000000,9548.656652
1888.681787,1685.410096,296.082377,9104.533087
1888.682105,1991.848295,888.247130,8586.388927
1888.682422,1991.848295,1184.329507,8808.450710
1888.682739,2528.115143,1184.329507,9030.512492
1888.683057,1838.629195,444.123565,8660.409521
1888.683374,1838.629195,444.123565,8734.430116
1888.683691,1455.581446,-0.000000,9104.533087
1888.684009,1225.752797,-74.020594,9326.594869
1888.684326,1072.533697,-148.041188,9474.636058
1888.684644,1149.143247,-148.041188,9326.594869
1888.684961,1302.362347,-222.061783,9474.636058
1888.685278,1302.362347,-222.061783,9326.594869
1888.685596,1302.362347,-0.000000,9326.594869
1888.685913,1378.971896,-148.041188,9252.574275
1888.686230,1149.143247,-0.000000,9326.594869
1888.686548,383.047749,-0.000000,9252.574275
1888.686865,306.438199,148.041188,9252.574275
1888.687183,842.705048,370.102971,9252.574275
1888.687500,536.266849,296.082377,9104.533087
1888.687817,689.485948,-0.000000,9178.553681
1888.688135,612.876398,-518.144159,9252.574275
1888.688452,0.000000,-740.205942,9474.636058
1888.688769,-153.219100,-518.144159,9326.594869
1888.689087,-459.657299,-222.061783,9844.739029
1888.689404,-689.485948,148.041188,9770.718434
1888.689722,-383.047749,-0.000000,9696.697840
1888.690039,-153.219100,370.102971,9918.759623
1888.690356,459.657299,-0.000000,9770.718434
1888.690674,459.657299,-0.000000,9992.780217
1888.690991,842.705048,-370.102971,9696.697840
1888.691308,766.095498,-0.000000,9770.718434
1888.691626,1149.143247,666.185348,9178.553681
1888.691943,1225.752797,1110.308913,8956.491898
1888.692261,1685.410096,962.267725,8364.327145
1888.692578,1685.410096,1184.329507,8660.409521
1888.692895,1838.629195,1036.288319,8660.409521
1888.693213,1532.190996,666.185348,8956.491898
1888.693530,1378.971896,444.123565,9178.553681
1888.693847,919.314598,-74.020594,9326.594869
1888.694165,689.485948,148.041188,9474.636058
1888.694482,919.314598,148.041188,9696.697840
1888.694800,1302.362347,518.144159,9474.636058
1888.695117,1378.971896,814.226536,9400.615463
1888.695434,1608.800546,1036.288319,9474.636058
1888.695752,1378.971896,666.185348,9474.636058
1888.696069,1455.581446,148.041188,9622.677246
1888.696386,766.095498,296.082377,9918.759623
1888.696704,995.924147,-0.000000,10066.800811
1888.697021,689.485948,666.185348,9770.718434
1888.697339,766.095498,740.205942,9400.615463
1888.697656,919.314598,444.123565,9326.594869
1888.697973,1225.752797,370.102971,9474.636058
1888.698291,919.314598,-0.000000,9474.636058
1888.698608,153.219100,-444.123565,9474.636058
1888.698925,76.609550,-296.082377,9622.677246
1888.699243,-306.438199,-148.041188,9548.656652
1888.699560,-306.438199,-0.000000,10066.800811
1888.699878,-459.657299,296.082377,10140.821405
1888.700195,-229.828649,370.102971,10288.862594
1888.700512,0.000000,296.082377,10214.842000
1888.700830,76.609550,148.041188,10140.821405
1888.701147,459.657299,-0.000000,9992.780217
1888.701464,689.485948,-74.020594,9622.677246
1888.701782,536.266849,222.061783,9326.594869
1888.702099,919.314598,962.267725,8882.471304
1888.702417,995.924147,1406.391290,8586.388927
1888.702734,1072.533697,888.247130,8660.409521
1888.703051,919.314598,1036.288319,8660.409521
1888.703369,919.314598,740.205942,9030.512492
1888.703686,842.705048,222.061783,8956.491898
1888.704003,383.047749,-0.000000,9104.533087
1888.704321,612.876398,-74.020594,9326.594869
1888.704638,842.705048,-0.000000,9252.574275
1888.704955,995.924147,-0.000000,9252.574275
1888.705273,995.924147,-0.000000,9400.615463
1888.705590,1455.581446,-0.000000,9326.594869
1888.705908,1302.362347,-222.061783,9252.574275
1888.706225,1149.143247,-222.061783,9474.636058
1888.706542,842.705048,-0.000000,9474.636058
