#time,accel_x,accel_y,accel_z
2021.200154,842.705048,148.041188,9326.594869
2021.200471,612.876398,222.061783,9474.636058
2021.200788,919.314598,148.041188,9400.615463
2021.201106,766.095498,-74.020594,9400.615463
2021.201423,612.876398,-0.000000,9252.574275
2021.201741,766.095498,-0.000000,9400.615463
2021.202058,689.485948,148.041188,9252.574275
2021.202375,919.314598,222.061783,9474.636058
2021.202693,612.876398,222.061783,9252.574275
2021.203010,689.485948,148.041188,9548.656652
2021.203327,612.876398,148.041188,9400.615463
2021.203645,919.314598,-0.000000,9326.594869
2021.203962,766.095498,296.082377,9474.636058
2021.204279,995.924147,-0.000000,9474.636058
2021.204597,612.876398,-0.000000,9474.636058
2021.204914,919.314598,-0.000000,9474.636058
2021.205232,689.485948,222.061783,9474.636058
2021.205549,689.485948,148.041188,9400.615463
2021.205866,919.314598,-0.000000,9622.677246
2021.206184,766.095498,296.082377,9474.636058
2021.206501,919.314598,370.102971,9400.615463
2021.206818,766.095498,148.041188,9474.636058
2021.207136,766.095498,74.020594,9622.677246
2021.207453,689.485948,-0.000000,9474.636058
2021.207770,459.657299,148.041188,9400.615463
2021.208088,766.095498,296.082377,9548.656652
2021.208405,842.705048,148.041188,9400.615463
2021.208723,536.266849,222.061783,9400.615463
2021.209040,995.924147,-0.000000,9474.636058
2021.209357,766.095498,-0.000000,9178.553681
2021.209675,842.705048,-0.000000,9178.553681
2021.209992,689.485948,222.061783,9400.615463
2021.210309,766.095498,222.061783,9400.615463
2021.210627,919.314598,148.041188,9474.636058
2021.210944,919.314598,370.102971,9326.594869
2021.211261,842.705048,444.123565,9474.636058
2021.211579,842.705048,148.041188,9474.636058
2021.211896,766.095498,148.041188,9326.594869
2021.212214,919.314598,370.102971,9548.656652
2021.212531,689.485948,-0.000000,9400.615463
2021.212848,612.876398,370.102971,9474.636058
2021.213166,766.095498,296.082377,9474.636058
2021.213483,689.485948,370.102971,9474.636058
2021.213800,612.876398,-0.000000,9474.636058
2021.214118,689.485948,222.061783,9474.636058
2021.214435,766.095498,518.144159,9474.636058
2021.214752,612.876398,296.082377,9548.656652
2021.215070,689.485948,444.123565,9400.615463
2021.215387,842.705048,148.041188,9474.636058
2021.215705,842.705048,370.102971,9474.636058
2021.216022,842.705048,222.061783,9474.636058
2021.216339,766.095498,222.061783,9326.594869
2021.216657,383.047749,-0.000000,9474.636058
2021.216974,689.485948,666.185348,9622.677246
2021.217291,1072.533697,444.123565,9474.636058
2021.217609,612.876398,296.082377,9474.636058
2021.217926,459.657299,444.123565,9400.615463
2021.218243,995.924147,518.144159,9474.636058
2021.218561,612.876398,444.123565,9474.636058
2021.218878,612.876398,296.082377,9326.594869
2021.219196,689.485948,296.082377,9474.636058
2021.219513,536.266849,296.082377,9400.615463
2021.219830,842.705048,-0.000000,9474.636058
2021.220148,766.095498,222.061783,9252.574275
2021.220465,612.876398,222.061783,9252.574275
2021.220782,612.876398,370.102971,9326.594869
2021.221100,536.266849,222.061783,9400.615463
2021.221417,995.924147,592.164754,9918.759623
2021.221734,689.485948,296.082377,9474.636058
2021.222052,459.657299,296.082377,9474.636058
2021.222369,612.876398,296.082377,9326.594869
2021.222687,612.876398,518.144159,9474.636058
2021.223004,536.266849,518.144159,9474.636058
2021.223321,383.047749,592.164754,9474.636058
2021.223639,689.485948,814.226536,9548.656652
2021.223956,306.438199,444.123565,9474.636058
2021.224273,612.876398,666.185348,9548.656652
2021.224591,612.876398,592.164754,9992.780217
2021.224908,536.266849,666.185348,9696.697840
2021.225225,536.266849,740.205942,9918.759623
2021.225543,383.047749,592.164754,9696.697840
2021.225860,306.438199,592.164754,9474.636058
2021.226178,0.000000,740.205942,9844.739029
2021.226495,459.657299,1036.288319,9770.718434
2021.226812,383.047749,888.247130,9696.697840
2021.227130,229.828649,666.185348,9696.697840
2021.227447,536.266849,814.226536,9548.656652
2021.227764,0.000000,962.267725,9474.636058
2021.228082,-612.876398,962.267725,8956.491898
2021.228399,-995.924147,1332.370696,9104.533087
2021.228716,-1225.752797,1332.370696,8882.471304
2021.229034,-1991.848295,1184.329507,9030.512492
2021.229351,-2681.334243,592.164754,9326.594869
2021.229669,-3064.381992,814.226536,9400.615463
2021.229986,-3907.087040,592.164754,9474.636058
2021.230303,-4060.306139,1258.350101,9474.636058
2021.230621,-3677.258390,1480.411884,9474.636058
2021.230938,-4443.353888,2220.617826,9326.594869
2021.231255,-4673.182538,2368.659014,9400.615463
2021.231573,-4596.572988,2738.761985,8956.491898
2021.231890,-4903.011187,2812.782580,9030.512492
2021.232207,-4596.572988,3108.864956,9178.553681
2021.232525,-5056.230287,3478.967927,8882.471304
2021.232842,-5209.449386,4071.132681,8438.347739
2021.233160,-5209.449386,4219.173869,8438.347739
2021.233477,-5362.668486,4515.256246,8142.265362
2021.233794,-5056.230287,4811.338623,7846.182985
2021.234112,-4903.011187,5033.400406,8216.285956
2021.234429,-4519.963438,4885.359217,8512.368333
2021.234746,-3064.381992,4589.276840,9252.574275
2021.235064,-3447.429741,4737.318029,7476.080014
2021.235381,-3447.429741,4441.235652,8364.327145
2021.235698,-3217.601092,4071.132681,8734.430116
2021.236016,-1991.848295,5625.565159,8956.491898
2021.236333,-1455.581446,5995.668130,6957.935855
2021.236651,-842.705048,8068.244768,5699.585753
2021.236968,-842.705048,6957.935855,7179.997637
2021.237285,-1149.143247,6883.915261,7550.100608
2021.237603,-1532.190996,5107.421000,8216.285956
2021.237920,-3064.381992,4219.173869,9400.615463
2021.238237,-3753.867940,4145.153275,9992.780217
2021.238555,-3370.820191,4737.318029,9696.697840
2021.238872,-2451.505594,4663.297435,10658.965565
2021.239189,-2221.676944,5477.523971,10362.883188
2021.239507,-2298.286494,6957.935855,8734.430116
2021.239824,-1838.629195,6069.688724,9548.656652
2021.240142,-2374.896044,5403.503377,10362.883188
2021.240459,-3064.381992,3775.050304,11251.130318
2021.240776,-3830.477490,3775.050304,10510.924376
2021.241094,-3907.087040,3108.864956,11769.274478
2021.241411,-3064.381992,3478.967927,12065.356855
2021.241728,-1991.848295,3182.885551,11991.336260
2021.242046,-766.095498,3997.112087,10955.047942
2021.242363,-306.438199,3034.844362,10807.006753
2021.242680,-766.095498,3997.112087,10214.842000
2021.242998,-842.705048,2294.638420,10066.800811
2021.243315,-1685.410096,1924.535449,10436.903782
2021.243632,-1838.629195,1702.473667,11399.171507
2021.243950,-1455.581446,2294.638420,11843.295072
2021.244267,-1149.143247,2442.679609,11695.253884
2021.244585,-766.095498,2368.659014,11547.212695
2021.244902,-1072.533697,2368.659014,12435.459826
2021.245219,-1072.533697,1628.453072,12361.439231
2021.245537,306.438199,1110.308913,11917.315666
2021.245854,766.095498,1628.453072,10732.986159
2021.246171,1915.238745,2072.576638,10214.842000
2021.246489,2068.457845,1850.514855,10066.800811
2021.246806,2145.067394,1702.473667,9400.615463
2021.247123,1225.752797,1998.556043,8734.430116
2021.247441,153.219100,2442.679609,8882.471304
2021.247758,-153.219100,1554.432478,9918.759623
2021.248076,-1302.362347,888.247130,10066.800811
2021.248393,-1838.629195,-74.020594,10584.944971
2021.248710,-1762.019645,-296.082377,9992.780217
2021.249028,-1685.410096,-222.061783,9474.636058
2021.249345,-1149.143247,-370.102971,9030.512492
2021.249662,-306.438199,-666.185348,9178.553681
2021.249980,-306.438199,-148.041188,8660.409521
2021.250297,-383.047749,592.164754,8142.265362
2021.250614,-995.924147,1110.308913,7550.100608
2021.250932,-1149.143247,666.185348,7846.182985
2021.251249,-766.095498,1258.350101,7698.141797
2021.251567,-1378.971896,962.267725,8438.347739
2021.251884,-1149.143247,518.144159,8438.347739
2021.252201,-919.314598,222.061783,7254.018232
2021.252519,-459.657299,-74.020594,7031.956449
2021.252836,0.000000,-0.000000,7476.080014
2021.253153,-153.219100,666.185348,6587.832884
2021.253471,-612.876398,962.267725,5699.585753
2021.253788,-1072.533697,2072.576638,6217.729913
2021.254105,-1378.971896,2368.659014,6439.791695
2021.254423,-1762.019645,1554.432478,7254.018232
2021.254740,-2911.162892,666.185348,8364.327145
2021.255058,-3983.696590,740.205942,8882.471304
2021.255375,-4366.744339,962.267725,8438.347739
2021.255692,-3524.039291,666.185348,8882.471304
2021.256010,-2298.286494,370.102971,9474.636058
2021.256327,-1685.410096,1480.411884,7920.203579
2021.256644,-995.924147,2516.700203,7031.956449
2021.256962,-383.047749,3034.844362,7105.977043
2021.257279,-306.438199,2812.782580,7402.059420
2021.257596,-842.705048,2368.659014,7920.203579
2021.257914,-2221.676944,2812.782580,8438.347739
2021.258231,-3064.381992,3330.926739,8808.450710
2021.258549,-3753.867940,3775.050304,8956.491898
2021.258866,-3140.991542,3923.091493,9474.636058
2021.259183,-2451.505594,3330.926739,11103.089130
2021.259501,-2451.505594,4071.132681,9844.739029
2021.259818,-2221.676944,3330.926739,10140.821405
2021.260135,-1378.971896,3627.009116,9326.594869
2021.260453,-1455.581446,3404.947333,10066.800811
2021.260770,-766.095498,3849.070898,10140.821405
2021.261087,-995.924147,4811.338623,9918.759623
2021.261405,-1302.362347,4811.338623,10066.800811
2021.261722,-919.314598,5329.482782,10510.924376
2021.262040,-1838.629195,5699.585753,10658.965565
2021.262357,-1915.238745,4293.194464,11029.068536
2021.262674,-2834.553343,4885.359217,10436.903782
2021.262991,-3064.381992,4515.256246,9474.636058
2021.263308,-2528.115143,3849.070898,11029.068536
2021.263626,-2068.457845,3478.967927,11473.192101
2021.263943,-1302.362347,3330.926739,11473.192101
2021.264260,-1685.410096,3701.029710,11103.089130
2021.264578,-1991.848295,3775.050304,12583.501014
2021.264895,-1838.629195,3627.009116,13323.706956
2021.265212,-3064.381992,3997.112087,13101.645173
2021.265529,-2834.553343,4293.194464,13323.706956
2021.265847,-1915.238745,4811.338623,12287.418637
2021.266164,-383.047749,5477.523971,10658.965565
2021.266481,995.924147,4885.359217,9474.636058
2021.266799,1455.581446,4663.297435,9474.636058
2021.267116,1532.190996,3701.029710,8956.491898
2021.267433,612.876398,3034.844362,8438.347739
2021.267751,0.000000,1998.556043,10584.944971
2021.268068,-1225.752797,1850.514855,11399.171507
2021.268385,-2451.505594,2146.597232,10881.027347
2021.268703,-2681.334243,2960.823768,12213.398043
2021.269020,-1838.629195,2516.700203,13397.727550
2021.269337,-1225.752797,3478.967927,11843.295072
2021.269655,229.828649,2368.659014,11843.295072
2021.269972,1149.143247,2220.617826,11473.192101
2021.270289,3217.601092,2146.597232,10362.883188
2021.270607,4290.134789,3108.864956,7476.080014
2021.270924,4673.182538,3404.947333,6513.812290
2021.271241,4060.306139,3330.926739,6365.771101
2021.271558,2757.943793,3256.906145,5921.647536
2021.271876,1225.752797,1998.556043,6365.771101
2021.272193,-1378.971896,518.144159,7772.162391
2021.272510,-3064.381992,-1258.350101,9030.512492
2021.272828,-4596.572988,-2516.700203,10288.862594
2021.273145,-4443.353888,-3701.029710,12213.398043
2021.273462,-3983.696590,-3701.029710,13249.686362
2021.273780,-1915.238745,-3182.885551,12213.398043
2021.274097,229.828649,-1924.535449,11103.089130
2021.274414,2451.505594,-1184.329507,9622.677246
2021.274732,4366.744339,-296.082377,8438.347739
2021.275049,4749.792088,518.144159,6513.812290
2021.275366,5362.668486,592.164754,5551.544565
2021.275684,4596.572988,296.082377,4441.235652
2021.276001,3600.648841,-0.000000,4219.173869
2021.276318,2374.896044,-666.185348,5033.400406
2021.276636,689.485948,-2368.659014,5847.626942
2021.276953,-536.266849,-4071.132681,7254.018232
2021.277270,-1149.143247,-5773.606348,9918.759623
2021.277587,-2145.067394,-7105.977043,12287.418637
2021.277905,-2374.896044,-7105.977043,12657.521608
2021.278222,-1608.800546,-5551.544565,12657.521608
2021.278539,-153.219100,-3849.070898,12583.501014
2021.278857,1532.190996,-1554.432478,9918.759623
2021.279174,2681.334243,370.102971,7476.080014
2021.279491,3677.258390,1406.391290,7402.059420
2021.279809,5362.668486,1850.514855,6143.709319
2021.280126,5515.887586,1554.432478,3923.091493
2021.280443,5132.839837,222.061783,4071.132681
2021.280761,4596.572988,-814.226536,4885.359217
2021.281078,4136.915689,-1850.514855,5995.668130
2021.281395,3294.210641,-2812.782580,7179.997637
2021.281713,1455.581446,-3108.864956,8956.491898
2021.282030,0.000000,-3701.029710,10584.944971
2021.282347,-995.924147,-3034.844362,11399.171507
2021.282664,-1072.533697,-2590.720797,12583.501014
2021.282982,-1608.800546,-2442.679609,13027.624579
2021.283299,-1532.190996,518.144159,11547.212695
2021.283616,-766.095498,1850.514855,9770.718434
2021.283934,919.314598,2442.679609,8364.327145
2021.284251,2911.162892,2442.679609,7994.224174
2021.284568,2834.553343,2368.659014,5773.606348
2021.284886,3447.429741,1628.453072,5551.544565
2021.285203,2987.772442,222.061783,6069.688724
2021.285520,2451.505594,-740.205942,7402.059420
2021.285838,612.876398,-370.102971,8290.306550
2021.286155,-766.095498,-296.082377,10584.944971
2021.286472,-1838.629195,-148.041188,11473.192101
2021.286790,-3294.210641,148.041188,13101.645173
2021.287107,-3294.210641,444.123565,13767.830521
2021.287424,-3294.210641,1998.556043,13027.624579
2021.287742,-2451.505594,2072.576638,12287.418637
2021.288059,-766.095498,2072.576638,10807.006753
2021.288376,536.266849,2072.576638,10214.842000
2021.288693,2068.457845,2368.659014,9104.533087
2021.289011,2757.943793,2960.823768,7698.141797
2021.289328,2911.162892,2220.617826,7254.018232
2021.289645,2221.676944,2220.617826,7328.038826
2021.289963,1225.752797,2072.576638,8882.471304
2021.290280,0.000000,1184.329507,10362.883188
2021.290597,-1608.800546,1258.350101,11769.274478
2021.290915,-1915.238745,1628.453072,12361.439231
2021.291232,-2221.676944,2368.659014,12583.501014
2021.291549,-1455.581446,2368.659014,13323.706956
2021.291867,-153.219100,2368.659014,12953.603985
2021.292184,919.314598,3256.906145,11029.068536
2021.292501,2221.676944,3701.029710,9622.677246
2021.292819,2834.553343,3404.947333,8882.471304
2021.293136,3447.429741,2812.782580,9030.512492
2021.293453,2604.724693,2146.597232,7994.224174
2021.293771,2145.067394,2294.638420,7476.080014
2021.294088,842.705048,2072.576638,7698.141797
2021.294405,-229.828649,1110.308913,9326.594869
2021.294722,-1149.143247,444.123565,9844.739029
2021.295040,-2298.286494,-0.000000,10510.924376
2021.295357,-2987.772442,-1628.453072,12139.377449
2021.295674,-2987.772442,-2442.679609,13619.789333
2021.295992,-1915.238745,-2960.823768,14211.954086
2021.296309,-842.705048,-2516.700203,13471.748144
2021.296626,1072.533697,-1036.288319,11843.295072
2021.296944,2221.676944,1332.370696,9770.718434
2021.297261,3907.087040,2220.617826,8512.368333
2021.297578,4596.572988,2220.617826,6587.832884
2021.297896,4136.915689,2294.638420,5329.482782
2021.298213,3447.429741,1258.350101,4811.338623
2021.298530,2374.896044,-0.000000,4589.276840
2021.298848,1762.019645,-1998.556043,6661.853478
2021.299165,-766.095498,-3404.947333,8216.285956
2021.299482,-1455.581446,-4663.297435,10658.965565
2021.299800,-1915.238745,-5033.400406,12435.459826
2021.300117,-1532.190996,-4885.359217,14211.954086
2021.300434,-612.876398,-3775.050304,13989.892304
2021.300751,842.705048,-2220.617826,12805.562797
2021.301069,2451.505594,-666.185348,10881.027347
2021.301386,4290.134789,222.061783,9104.533087
2021.301703,6435.202183,1924.535449,6957.935855
2021.302021,6894.859482,2294.638420,4219.173869
2021.302338,7048.078582,2442.679609,2960.823768
2021.302655,5745.716235,1628.453072,3034.844362
2021.302973,4136.915689,-740.205942,3997.112087
2021.303290,2221.676944,-1998.556043,6143.709319
2021.303607,0.000000,-3552.988522,8068.244768
2021.303925,-689.485948,-5181.441594,11177.109724
2021.304242,-1838.629195,-5921.647536,12509.480420
2021.304559,-1378.971896,-5995.668130,13545.768739
2021.304877,-383.047749,-4811.338623,13027.624579
2021.305194,766.095498,-3034.844362,11843.295072
2021.305511,2221.676944,-1998.556043,9770.718434
2021.305829,3140.991542,-222.061783,8438.347739
2021.306146,4903.011187,1998.556043,6809.894666
2021.306463,4826.401637,2812.782580,3775.050304
2021.306780,3830.477490,2886.803174,3330.926739
2021.307098,2604.724693,1184.329507,4293.194464
2021.307415,919.314598,-962.267725,5625.565159
2021.307732,-1072.533697,-2886.803174,7402.059420
2021.308050,-1685.410096,-4515.256246,10584.944971
2021.308367,-3600.648841,-4145.153275,12509.480420
2021.308684,-3753.867940,-3923.091493,14285.974681
2021.309002,-3370.820191,-3108.864956,14434.015869
2021.309319,-2451.505594,-962.267725,13471.748144
2021.309636,-1149.143247,814.226536,11769.274478
2021.309954,1302.362347,1554.432478,11251.130318
2021.310271,2451.505594,2294.638420,9400.615463
2021.310588,3907.087040,3478.967927,7328.038826
2021.310906,4290.134789,4071.132681,4737.318029
2021.311223,3983.696590,2664.741391,4737.318029
2021.311540,2604.724693,1332.370696,5477.523971
2021.311858,1455.581446,-0.000000,5773.606348
2021.312175,-153.219100,-592.164754,7105.977043
2021.312492,-2068.457845,-962.267725,8660.409521
2021.312809,-3447.429741,-1998.556043,12657.521608
2021.313127,-3524.039291,-2442.679609,14804.118840
2021.313444,-3983.696590,-444.123565,15470.304188
2021.313761,-3370.820191,814.226536,14508.036463
2021.314079,-1608.800546,2072.576638,13027.624579
2021.314396,536.266849,2664.741391,12657.521608
2021.314713,3217.601092,3552.988522,11103.089130
2021.315031,4673.182538,5329.482782,6809.894666
2021.315348,4903.011187,5847.626942,4959.379811
2021.315665,4903.011187,3478.967927,4589.276840
2021.315983,3600.648841,1924.535449,4663.297435
2021.316300,1378.971896,814.226536,5477.523971
2021.316617,-766.095498,-74.020594,7402.059420
2021.316935,-3294.210641,-888.247130,9252.574275
2021.317252,-4826.401637,-2368.659014,12213.398043
2021.317569,-4979.620737,-2368.659014,16062.468941
2021.317887,-5439.278036,-1184.329507,16506.592507
2021.318204,-3830.477490,148.041188,14434.015869
2021.318521,-1302.362347,1406.391290,13619.789333
2021.318838,2145.067394,2442.679609,12361.439231
2021.319156,4366.744339,3330.926739,9474.636058
2021.319473,5898.935335,5403.503377,6513.812290
2021.319790,6281.983084,5551.544565,4145.153275
2021.320108,5439.278036,5033.400406,3552.988522
2021.320425,3983.696590,3108.864956,5033.400406
2021.320742,1455.581446,1258.350101,6217.729913
2021.321060,-1225.752797,-444.123565,7772.162391
2021.321377,-3294.210641,-1776.494261,9474.636058
2021.321694,-4826.401637,-3256.906145,13027.624579
2021.322012,-4749.792088,-4811.338623,16358.551318
2021.322329,-3753.867940,-4441.235652,17542.880825
2021.322646,-1991.848295,-2146.597232,15100.201217
2021.322964,689.485948,-74.020594,12731.542202
2021.323281,3600.648841,962.267725,12065.356855
2021.323598,6052.154434,2886.803174,9622.677246
2021.323916,7814.174080,4959.379811,5625.565159
2021.324233,7354.516781,4959.379811,2590.720797
2021.324550,6818.249932,4737.318029,1924.535449
2021.324867,4519.963438,2146.597232,3701.029710
2021.325185,2145.067394,-370.102971,4885.359217
2021.325502,-459.657299,-2812.782580,5921.647536
2021.325819,-2221.676944,-4367.215058,10362.883188
2021.326137,-3983.696590,-6143.709319,13989.892304
2021.326454,-4213.525239,-6587.832884,16358.551318
2021.326771,-3447.429741,-5181.441594,16284.530724
2021.327089,-2374.896044,-2590.720797,15544.324782
2021.327406,0.000000,-518.144159,13841.851115
2021.327723,3064.381992,1850.514855,11399.171507
2021.328041,4979.620737,3108.864956,8216.285956
2021.328358,7507.735880,5255.462188,4737.318029
2021.328675,7431.126331,5699.585753,2146.597232
2021.328993,6511.811733,3849.070898,740.205942
2021.329310,3830.477490,1110.308913,2220.617826
2021.329627,995.924147,-1480.411884,4293.194464
2021.329944,-536.266849,-3478.967927,6661.853478
2021.330262,-2604.724693,-4515.256246,9770.718434
2021.330579,-3983.696590,-6661.853478,13693.809927
2021.330896,-4519.963438,-7031.956449,17394.839637
2021.331214,-3753.867940,-5255.462188,16580.613101
2021.331531,-2451.505594,-4071.132681,15322.262999
2021.331848,-383.047749,-1924.535449,13841.851115
2021.332166,2987.772442,592.164754,12361.439231
2021.332483,5975.544884,3923.091493,7624.121203
2021.332800,7737.564530,6661.853478,3256.906145
2021.333118,7660.954980,6809.894666,1184.329507
2021.333435,5669.106685,4737.318029,74.020594
2021.333752,2145.067394,1480.411884,1998.556043
2021.334070,-459.657299,-1924.535449,5255.462188
2021.334387,-3294.210641,-4219.173869,8438.347739
2021.334704,-5592.497135,-5477.523971,11695.253884
2021.335022,-6281.983084,-7179.997637,16654.633695
2021.335339,-5822.325785,-5921.647536,17690.922014
2021.335656,-4443.353888,-3256.906145,16506.592507
2021.335973,-2221.676944,-444.123565,13915.871710
2021.336291,689.485948,1702.473667,12953.603985
2021.336608,4060.306139,3330.926739,10732.986159
2021.336925,6358.592633,6291.750507,6069.688724
2021.337243,7048.078582,6735.874072,3478.967927
2021.337560,6511.811733,6513.812290,2146.597232
2021.337877,4366.744339,5773.606348,1036.288319
2021.338195,1532.190996,2738.761985,2294.638420
2021.338512,-919.314598,148.041188,4959.379811
2021.338829,-3600.648841,-1480.411884,7105.977043
2021.339147,-5592.497135,-3330.926739,11917.315666
2021.339464,-6894.859482,-5625.565159,15914.427753
2021.339781,-6435.202183,-4737.318029,17764.942608
2021.340099,-4673.182538,-2590.720797,17542.880825
2021.340416,-2987.772442,518.144159,14508.036463
2021.340733,153.219100,2960.823768,14063.912898
2021.341051,3447.429741,5477.523971,11695.253884
2021.341368,5898.935335,7550.100608,6883.915261
2021.341685,7354.516781,8512.368333,3775.050304
2021.342002,7048.078582,7846.182985,2738.761985
2021.342320,5056.230287,5847.626942,1332.370696
2021.342637,2451.505594,3034.844362,2886.803174
2021.342954,306.438199,-888.247130,6587.832884
2021.343272,-2298.286494,-4293.194464,7624.121203
2021.343589,-6205.373534,-5403.503377,12583.501014
2021.343906,-6128.763984,-5551.544565,18357.107362
2021.344224,-7277.907231,-4293.194464,18949.272115
2021.344541,-5439.278036,-3108.864956,18061.024985
2021.344858,-3064.381992,-222.061783,17024.736666
2021.345176,-306.438199,3182.885551,14137.933492
2021.345493,4903.011187,5255.462188,11695.253884
2021.345810,7660.954980,5847.626942,6217.729913
2021.346128,9346.365076,6661.853478,3849.070898
2021.346445,9806.022374,6513.812290,2368.659014
2021.346762,6435.202183,5329.482782,444.123565
2021.347080,4136.915689,1702.473667,3701.029710
2021.347397,612.876398,222.061783,5403.503377
2021.347714,-2068.457845,518.144159,7846.182985
2021.348031,-4366.744339,-3478.967927,12213.398043
2021.348349,-6971.469032,-4589.276840,18061.024985
2021.348666,-6128.763984,-6661.853478,19467.416275
2021.348983,-5669.106685,-4663.297435,17024.736666
2021.349301,-2451.505594,-2368.659014,16876.695478
2021.349618,1455.581446,-814.226536,14582.057057
2021.349935,5745.716235,2738.761985,10807.006753
2021.350253,9882.631924,5329.482782,6439.791695
2021.350570,10648.727422,6883.915261,1924.535449
2021.350887,9806.022374,7179.997637,-296.082377
2021.351205,7277.907231,6217.729913,-1406.391290
2021.351522,3217.601092,2960.823768,888.247130
2021.351839,-842.705048,-148.041188,2590.720797
2021.352157,-3140.991542,-4515.256246,7920.203579
2021.352474,-6971.469032,-6883.915261,13619.789333
2021.352791,-8350.440928,-8956.491898,19541.436869
2021.353109,-7967.393179,-8512.368333,21243.910535
2021.353426,-5898.935335,-6217.729913,19911.539840
2021.353743,-2374.896044,-3256.906145,18135.045579
2021.354060,1915.238745,-148.041188,14508.036463
2021.354378,5822.325785,3627.009116,9696.697840
2021.354695,9806.022374,5773.606348,4515.256246
2021.355012,11338.213370,7179.997637,-148.041188
2021.355330,10265.679673,8216.285956,-2516.700203
2021.355647,7124.688131,5477.523971,-3108.864956
2021.355964,3753.867940,2664.741391,-370.102971
2021.356282,-459.657299,-1110.308913,1924.535449
2021.356599,-3677.258390,-4589.276840,7994.224174
2021.356916,-6665.030833,-6809.894666,14063.912898
2021.357234,-8197.221829,-9770.718434,20207.622217
2021.357551,-7814.174080,-10066.800811,22724.322419
2021.357868,-6665.030833,-7624.121203,21688.034101
2021.358186,-2451.505594,-2812.782580,18061.024985
2021.358503,2374.896044,2072.576638,13101.645173
2021.358820,6894.859482,6513.812290,9770.718434
2021.359138,10495.508323,9178.553681,4367.215058
2021.359455,11184.994271,10807.006753,-444.123565
2021.359772,9576.193725,10288.862594,-3034.844362
2021.360089,6588.421283,6291.750507,-2442.679609
2021.360407,2451.505594,1998.556043,1184.329507
2021.360724,-842.705048,-1776.494261,3404.947333
2021.361041,-3370.820191,-4071.132681,7772.162391
2021.361359,-5898.935335,-7328.038826,15322.262999
2021.361676,-7584.345430,-10362.883188,21317.931130
2021.361993,-8044.002729,-8956.491898,22206.178260
2021.362311,-6818.249932,-5403.503377,21539.992912
2021.362628,-3524.039291,-1332.370696,17764.942608
2021.362945,919.314598,2368.659014,13915.871710
2021.363263,6205.373534,6661.853478,10288.862594
2021.363580,9806.022374,9844.739029,4663.297435
2021.363897,11338.213370,11103.089130,-1480.411884
2021.364215,9806.022374,9326.594869,-3256.906145
2021.364532,6052.154434,5625.565159,-2590.720797
2021.364850,2068.457845,-0.000000,1702.473667
2021.365167,-2374.896044,-2590.720797,5477.523971
2021.365485,-4673.182538,-4663.297435,9252.574275
2021.365802,-7124.688131,-5625.565159,15026.180623
2021.366120,-8427.050478,-7476.080014,21317.931130
2021.366437,-8120.612279,-6513.812290,22872.363608
2021.366755,-7201.297681,-4589.276840,20873.807564
2021.367073,-3524.039291,-1480.411884,19097.313304
2021.367390,-459.657299,518.144159,15988.448347
2021.367708,4903.011187,5255.462188,11103.089130
2021.368025,10035.851024,9474.636058,4219.173869
2021.368343,12870.404366,12213.398043,-1702.473667
2021.368660,11338.213370,10732.986159,-4145.153275
2021.368978,7660.954980,7550.100608,-4145.153275
2021.369295,4366.744339,1480.411884,-592.164754
2021.369613,-995.924147,-2590.720797,3256.906145
2021.369930,-3370.820191,-5921.647536,7698.141797
2021.370248,-7967.393179,-7031.956449,14582.057057
2021.370565,-9039.926876,-9622.677246,21243.910535
2021.370883,-9806.022374,-10066.800811,22724.322419
2021.371200,-8733.488677,-6069.688724,21836.075289
2021.371518,-4060.306139,-2886.803174,20355.663405
2021.371835,76.609550,1554.432478,15840.407159
2021.372153,5975.544884,5329.482782,11029.068536
2021.372471,9806.022374,8660.409521,5921.647536
2021.372788,11568.042020,10288.862594,-592.164754
2021.373106,10648.727422,10066.800811,-5329.482782
2021.373423,7814.174080,6809.894666,-4589.276840
2021.373741,4136.915689,1924.535449,-740.205942
2021.374058,306.438199,-666.185348,1702.473667
2021.374376,-2221.676944,-3330.926739,7179.997637
2021.374693,-6588.421283,-7031.956449,12953.603985
2021.375011,-8656.879127,-10732.986159,21539.992912
2021.375328,-9652.803275,-11177.109724,23390.507767
2021.375646,-8963.317327,-8068.244768,23094.425390
2021.375963,-4213.525239,-3923.091493,21465.972318
2021.376281,153.219100,1480.411884,15248.242405
2021.376598,5822.325785,5107.421000,11029.068536
2021.376916,10878.556072,8438.347739,5921.647536
2021.377233,12793.794817,10955.047942,-1110.308913
2021.377551,11491.432470,10955.047942,-5847.626942
2021.377869,8044.002729,6809.894666,-5847.626942
2021.378186,4366.744339,1554.432478,-1628.453072
2021.378504,1838.629195,-1628.453072,1924.535449
2021.378821,-1685.410096,-4293.194464,5625.565159
2021.379139,-4749.792088,-8142.265362,13323.706956
2021.379456,-6971.469032,-9770.718434,20429.683999
2021.379774,-7431.126331,-11399.171507,24574.837274
2021.380091,-6665.030833,-9104.533087,24278.754898
2021.380409,-4519.963438,-4589.276840,20873.807564
2021.380726,995.924147,1110.308913,17320.819043
2021.381044,6588.421283,5033.400406,10510.924376
2021.381361,12104.308868,10510.924376,5033.400406
2021.381679,14479.204912,12213.398043,-444.123565
2021.381996,13713.109414,13101.645173,-7105.977043
2021.382314,8963.317327,9474.636058,-8882.471304
2021.382631,5209.449386,1554.432478,-2294.638420
2021.382949,229.828649,-2294.638420,222.061783
2021.383267,-2834.553343,-5551.544565,7402.059420
2021.383584,-7737.564530,-8512.368333,14952.160028
2021.383902,-11108.384721,-11843.295072,24204.734303
2021.384219,-9959.241474,-11399.171507,26425.352129
2021.384537,-9576.193725,-6883.915261,25167.002028
2021.384854,-5209.449386,-3627.009116,21688.034101
2021.385172,-536.266849,1998.556043,16654.633695
2021.385489,5056.230287,5625.565159,12065.356855
2021.385807,11644.651570,10584.944971,5699.585753
2021.386124,14325.985813,13693.809927,-1998.556043
2021.386442,13023.623466,13767.830521,-7476.080014
2021.386759,8427.050478,11695.253884,-9548.656652
2021.387077,3370.820191,4145.153275,-2590.720797
2021.387394,0.000000,-1850.514855,4145.153275
2021.387712,-4290.134789,-6735.874072,5329.482782
2021.388029,-10495.508323,-9400.615463,13545.768739
2021.388347,-10035.851024,-12953.603985,23316.487173
2021.388665,-11414.822920,-12731.542202,27091.537477
2021.388982,-8733.488677,-10732.986159,26203.290347
2021.389300,-6205.373534,-6513.812290,22502.260637
2021.389617,-1685.410096,-0.000000,17246.798449
2021.389935,6281.983084,5107.421000,11473.192101
2021.390252,11721.261119,8512.368333,4885.359217
2021.390570,14709.033562,11917.315666,-1628.453072
2021.390887,14709.033562,15174.221811,-7254.018232
2021.391205,9729.412825,14434.015869,-10955.047942
2021.391522,6894.859482,6217.729913,-5329.482782
2021.391840,1532.190996,-592.164754,-592.164754
2021.392157,-1991.848295,-4071.132681,5107.421000
2021.392475,-9039.926876,-10066.800811,10807.006753
2021.392792,-11261.603821,-13915.871710,23760.610738
2021.393110,-10572.117872,-14878.139434,26647.413912
2021.393427,-10418.898773,-10955.047942,24648.857869
2021.393745,-6358.592633,-6809.894666,25759.166782
2021.394063,-3600.648841,-3182.885551,18949.272115
2021.394380,2681.334243,4737.318029,9548.656652
2021.394698,9959.241474,10732.986159,5033.400406
2021.395015,13559.890315,11769.274478,-222.061783
2021.395333,11721.261119,11991.336260,-7624.121203
2021.395650,10725.336972,11621.233289,-8734.430116
2021.395968,6358.592633,6217.729913,-6513.812290
2021.396285,3294.210641,444.123565,-1776.494261
2021.396603,-1302.362347,-4589.276840,1702.473667
2021.396920,-6971.469032,-7920.203579,10658.965565
2021.397238,-10725.336972,-12953.603985,21465.972318
2021.397555,-11031.775171,-15322.262999,27535.661042
2021.397873,-9806.022374,-11251.130318,26795.455100
2021.398190,-7737.564530,-8586.388927,27313.599260
2021.398508,-2451.505594,-740.205942,19837.519246
2021.398825,2757.943793,7624.121203,12435.459826
2021.399143,9346.365076,9400.615463,5255.462188
2021.399460,13713.109414,12657.521608,2294.638420
2021.399778,14096.157163,13027.624579,-5995.668130
2021.400096,11414.822920,11843.295072,-11621.233289
2021.400413,7737.564530,6291.750507,-6513.812290
2021.400731,3983.696590,-1406.391290,-1850.514855
2021.401048,-1149.143247,-4071.132681,1554.432478
2021.401366,-5056.230287,-10140.821405,10436.903782
2021.401683,-11031.775171,-14137.933492,21465.972318
2021.402001,-9499.584175,-14582.057057,27683.702231
2021.402318,-8656.879127,-10584.944971,24796.899057
2021.402636,-7201.297681,-4885.359217,24574.837274
2021.402953,-4366.744339,-3478.967927,21169.889941
2021.403271,766.095498,3923.091493,12657.521608
2021.403588,8120.612279,8068.244768,7920.203579
2021.403906,13636.499864,13693.809927,-1184.329507
2021.404223,15551.738609,14804.118840,-7254.018232
2021.404541,11951.089769,15174.221811,-11177.109724
2021.404858,8656.879127,7328.038826,-6291.750507
2021.405176,2681.334243,444.123565,-296.082377
2021.405494,-459.657299,-6217.729913,5773.606348
2021.405811,-7201.297681,-8290.306550,6957.935855
2021.406129,-11031.775171,-12065.356855,22206.178260
2021.406446,-10495.508323,-14211.954086,29682.258274
2021.406764,-9116.536426,-10288.862594,28942.052332
2021.407081,-6741.640382,-6365.771101,23538.548956
2021.407399,-4213.525239,2664.741391,19615.457463
2021.407716,842.705048,4071.132681,15840.407159
2021.408034,7048.078582,5699.585753,8734.430116
2021.408351,12563.966167,10066.800811,4663.297435
2021.408669,14632.424012,13989.892304,-5995.668130
2021.408986,12870.404366,15988.448347,-10658.965565
2021.409304,9576.193725,11251.130318,-8734.430116
2021.409621,2911.162892,1924.535449,-1850.514855
2021.409939,-459.657299,-5181.441594,6217.729913
2021.410256,-7431.126331,-8882.471304,9252.574275
2021.410574,-12334.137518,-14063.912898,19985.560434
2021.410892,-12257.527968,-15248.242405,28942.052332
2021.411209,-10035.851024,-14285.974681,28868.031738
2021.411527,-8044.002729,-8142.265362,28127.825796
2021.411844,-5209.449386,-2738.761985,22132.157666
2021.412162,306.438199,5921.647536,14359.995275
2021.412479,8197.221829,9252.574275,8956.491898
2021.412797,14325.985813,12213.398043,2590.720797
2021.413114,16394.443657,14137.933492,-4885.359217
2021.413432,13942.938064,16506.592507,-12879.583391
2021.413749,8963.317327,12435.459826,-12805.562797
2021.414067,5056.230287,3923.091493,-2146.597232
2021.414384,383.047749,-4441.235652,2072.576638
2021.414702,-4903.011187,-7254.018232,4959.379811
2021.415019,-11491.432470,-10955.047942,17394.839637
2021.415337,-13100.233016,-16358.551318,29756.278868
2021.415654,-11184.994271,-14656.077652,32050.917289
2021.415972,-9806.022374,-10436.903782,25537.104999
2021.416290,-6971.469032,-2664.741391,23094.425390
2021.416607,-2298.286494,6661.853478,17394.839637
2021.416925,4903.011187,11695.253884,8808.450710
2021.417242,12257.527968,14285.974681,4663.297435
2021.417560,14785.643111,15174.221811,-3849.070898
2021.417877,14172.766713,16432.571912,-12287.418637
2021.418195,10189.070123,13693.809927,-14063.912898
2021.418512,5822.325785,3256.906145,-5551.544565
2021.418830,306.438199,-4885.359217,-1110.308913
2021.419147,-2834.553343,-9474.636058,7550.100608
2021.419465,-10035.851024,-11103.089130,13619.789333
2021.419782,-10035.851024,-15766.386565,25463.084405
2021.420100,-9806.022374,-14508.036463,26425.352129
2021.420417,-9652.803275,-9326.594869,25389.063811
2021.420735,-6818.249932,-7031.956449,25685.146187
2021.421052,-4136.915689,-962.267725,17246.798449
2021.421370,2528.115143,6217.729913,7920.203579
2021.421688,10878.556072,11177.109724,3404.947333
2021.422005,15628.348159,13397.727550,-592.164754
2021.422323,15168.690860,13027.624579,-9844.739029
2021.422640,11108.384721,11399.171507,-13397.727550
2021.422958,7737.564530,4663.297435,-5477.523971
2021.423275,1991.848295,-3182.885551,-1332.370696
2021.423593,-1302.362347,-8660.409521,5625.565159
2021.423910,-6205.373534,-13989.892304,15470.304188
2021.424228,-10112.460574,-15914.427753,23834.631332
2021.424545,-9652.803275,-16358.551318,31384.731941
2021.424863,-7814.174080,-10732.986159,26943.496289
2021.425180,-5975.544884,-4367.215058,23464.528361
2021.425498,-1685.410096,-1850.514855,19245.354492
2021.425815,3370.820191,6661.853478,10362.883188
2021.426133,10725.336972,11843.295072,5847.626942
2021.426450,17850.025103,14285.974681,-1850.514855
2021.426768,16241.224558,13767.830521,-9548.656652
2021.427086,12104.308868,11769.274478,-12953.603985
2021.427403,7277.907231,3627.009116,-5403.503377
2021.427721,995.924147,-2368.659014,-1776.494261
2021.428038,-3294.210641,-7846.182985,7254.018232
2021.428356,-7201.297681,-10584.944971,14063.912898
2021.428673,-9269.755526,-14211.954086,22650.301825
2021.428991,-10035.851024,-15766.386565,27905.764013
2021.429308,-10418.898773,-11695.253884,26277.310941
2021.429626,-8044.002729,-7179.997637,26795.455100
2021.429943,-4366.744339,-1850.514855,21836.075289
2021.430261,1455.581446,7920.203579,10288.862594
2021.430578,9269.755526,11991.336260,4367.215058
2021.430896,14938.862211,15988.448347,0.000000
2021.431213,14785.643111,13767.830521,-7624.121203
2021.431531,10112.460574,13175.665768,-12953.603985
2021.431848,5592.497135,5847.626942,-6513.812290
2021.432166,459.657299,-148.041188,-1480.411884
2021.432484,-3677.258390,-5107.421000,2516.700203
2021.432801,-5898.935335,-10362.883188,12361.439231
2021.433119,-11108.384721,-13693.809927,22132.157666
2021.433436,-10112.460574,-15618.345376,30126.381839
2021.433754,-10112.460574,-10510.924376,25241.022622
2021.434071,-7277.907231,-5477.523971,26869.475695
2021.434389,-3753.867940,-1554.432478,21614.013506
2021.434706,1455.581446,11843.295072,15026.180623
2021.435024,8733.488677,11547.212695,7105.977043
2021.435341,15168.690860,14211.954086,1184.329507
2021.435659,15858.176809,15544.324782,-7328.038826
2021.435976,12410.747068,14137.933492,-13989.892304
2021.436294,7890.783629,8734.430116,-9992.780217
2021.436611,3830.477490,-0.000000,814.226536
2021.436929,-2145.067394,-5995.668130,3330.926739
2021.437246,-6435.202183,-8364.327145,8956.491898
2021.437564,-9806.022374,-11917.315666,22206.178260
2021.437882,-10801.946522,-14878.139434,30348.443622
2021.438199,-11491.432470,-13545.768739,28794.011144
2021.438517,-8580.269578,-7328.038826,26351.331535
2021.438834,-5056.230287,-0.000000,24352.775492
2021.439152,536.266849,6661.853478,14730.098246
2021.439469,9806.022374,12953.603985,5329.482782
2021.439787,15245.300410,17468.860231,814.226536
2021.440104,17390.367805,16210.510130,-6883.915261
2021.440422,13636.499864,16580.613101,-13101.645173
2021.440739,8733.488677,9844.739029,-11621.233289
2021.441057,4749.792088,222.061783,-1258.350101
2021.441374,-2221.676944,-4219.173869,666.185348
2021.441692,-5515.887586,-9474.636058,9252.574275
2021.442009,-11568.042020,-13767.830521,20873.807564
2021.442327,-12640.575717,-16062.468941,28719.990550
2021.442644,-11491.432470,-13471.748144,28794.011144
2021.442962,-9882.631924,-8882.471304,27239.578666
2021.443279,-6052.154434,-4145.153275,23538.548956
2021.443597,-2221.676944,7476.080014,14508.036463
2021.443915,6971.469032,10807.006753,10732.986159
2021.444232,13483.280765,12509.480420,3404.947333
2021.444550,16471.053207,14137.933492,-3923.091493
2021.444867,15092.081311,15248.242405,-11325.150913
2021.445185,9806.022374,10955.047942,-7698.141797
2021.445502,6052.154434,2516.700203,740.205942
2021.445820,842.705048,-2886.803174,1036.288319
2021.446137,-1915.238745,-8142.265362,6883.915261
2021.446455,-8427.050478,-13323.706956,17468.860231
2021.446772,-8733.488677,-13471.748144,25315.043216
2021.447090,-9882.631924,-15174.221811,28571.949361
2021.447407,-9652.803275,-11029.068536,26573.393318
2021.447725,-6435.202183,-7328.038826,26203.290347
2021.448042,-1991.848295,4145.153275,15766.386565
2021.448360,5822.325785,8216.285956,9992.780217
2021.448677,11644.651570,10436.903782,3034.844362
2021.448995,15398.519510,13767.830521,-2664.741391
2021.449313,14555.814462,13175.665768,-9178.553681
2021.449630,10112.460574,9770.718434,-10288.862594
2021.449948,6358.592633,1184.329507,-2738.761985
2021.450265,1302.362347,-4811.338623,0.000000
2021.450583,-1455.581446,-7550.100608,6883.915261
2021.450900,-6358.592633,-11029.068536,16802.674883
2021.451218,-9806.022374,-14730.098246,27535.661042
2021.451535,-9806.022374,-13767.830521,27387.619854
2021.451853,-9729.412825,-9252.574275,25981.228564
2021.452170,-7048.078582,-4737.318029,21984.116477
2021.452488,-2604.724693,2516.700203,17172.777854
2021.452805,2604.724693,10140.821405,7254.018232
2021.453123,9422.974625,12657.521608,2590.720797
2021.453440,13100.233016,14063.912898,-2664.741391
2021.453758,12104.308868,9474.636058,-8734.430116
2021.454075,7737.564530,7476.080014,-11177.109724
2021.454393,4366.744339,-888.247130,-3034.844362
2021.454711,612.876398,-5773.606348,1850.514855
2021.455028,-3140.991542,-10140.821405,5699.585753
2021.455346,-6358.592633,-12509.480420,16728.654289
2021.455663,-9499.584175,-14063.912898,23020.404796
2021.455981,-9959.241474,-12287.418637,25833.187376
2021.456298,-8350.440928,-8290.306550,25241.022622
2021.456616,-5439.278036,-2664.741391,23168.445985
2021.456933,-612.876398,8290.306550,17246.798449
2021.457251,6588.421283,13323.706956,8882.471304
2021.457568,12334.137518,15544.324782,740.205942
2021.457886,15781.567259,14359.995275,-4737.318029
2021.458203,15551.738609,12065.356855,-7105.977043
2021.458521,9346.365076,8808.450710,-10066.800811
2021.458838,5209.449386,1406.391290,-2368.659014
2021.459156,2068.457845,-4441.235652,2442.679609
2021.459473,-3064.381992,-5329.482782,4737.318029
2021.459791,-6052.154434,-10658.965565,16580.613101
2021.460109,-10265.679673,-13175.665768,24056.693115
2021.460426,-11261.603821,-11991.336260,27831.743419
2021.460744,-9806.022374,-6957.935855,25833.187376
2021.461061,-7354.516781,-814.226536,24574.837274
2021.461379,-1991.848295,3627.009116,18875.251521
2021.461696,3600.648841,13249.686362,9696.697840
2021.462014,10878.556072,16210.510130,3182.885551
2021.462331,13559.890315,16506.592507,-1998.556043
2021.462649,16011.395908,14582.057057,-4293.194464
2021.462966,10112.460574,10436.903782,-11621.233289
2021.463284,6128.763984,3330.926739,-3701.029710
2021.463601,153.219100,-3330.926739,814.226536
2021.463919,-3447.429741,-6883.915261,4885.359217
2021.464236,-6818.249932,-12065.356855,14137.933492
2021.464554,-10878.556072,-14211.954086,25537.104999
2021.464871,-12640.575717,-13545.768739,29386.175897
2021.465189,-12180.918418,-9474.636058,27387.619854
2021.465507,-9806.022374,-5625.565159,25759.166782
2021.465824,-5515.887586,296.082377,21910.095883
2021.466141,2604.724693,11843.295072,15100.201217
2021.466459,9652.803275,16876.695478,4737.318029
2021.466776,15092.081311,17764.942608,-1998.556043
2021.467094,16241.224558,13471.748144,-6957.935855
2021.467411,12257.527968,11103.089130,-11103.089130
2021.467728,7967.393179,3330.926739,-3330.926739
2021.468046,2451.505594,-3552.988522,444.123565
2021.468363,-919.314598,-7105.977043,3034.844362
2021.468681,-2604.724693,-12139.377449,14359.995275
2021.468998,-8733.488677,-13767.830521,21539.992912
2021.469316,-10112.460574,-13989.892304,28942.052332
2021.469633,-11108.384721,-10140.821405,26055.249158
2021.469950,-7507.735880,-3256.906145,24574.837274
2021.470268,-3524.039291,1332.370696,18949.272115
2021.470585,2221.676944,12065.356855,11695.253884
2021.470903,9193.145976,14137.933492,3404.947333
2021.471220,13176.842566,15470.304188,148.041188
2021.471537,15475.129060,11843.295072,-4515.256246
2021.471855,9959.241474,7698.141797,-11029.068536
2021.472172,6894.859482,1776.494261,-4367.215058
2021.472490,2987.772442,-3701.029710,1184.329507
2021.472807,-766.095498,-7846.182985,444.123565
2021.473124,-1532.190996,-10436.903782,11029.068536
2021.473442,-6894.859482,-11473.192101,18579.169144
2021.473759,-8886.707777,-13175.665768,25981.228564
2021.474077,-9576.193725,-10362.883188,23982.672521
2021.474394,-8273.831378,-3552.988522,21465.972318
2021.474712,-5362.668486,-1850.514855,21021.848753
2021.475029,0.000000,7105.977043,13841.851115
2021.475346,6052.154434,13323.706956,4959.379811
2021.475664,11338.213370,13619.789333,-3775.050304
2021.475981,13866.328514,12953.603985,-7624.121203
2021.476299,10725.336972,7105.977043,-9844.739029
2021.476616,6281.983084,-518.144159,-3775.050304
2021.476933,1225.752797,-5551.544565,518.144159
2021.477251,-1072.533697,-9474.636058,1776.494261
2021.477568,-4673.182538,-11251.130318,9474.636058
2021.477886,-5439.278036,-12435.459826,22280.198854
2021.478203,-9116.536426,-11621.233289,24130.713709
2021.478521,-10955.165621,-8512.368333,23982.672521
2021.478838,-8733.488677,-5107.421000,23168.445985
2021.479155,-6665.030833,444.123565,21688.034101
2021.479473,0.000000,7476.080014,14804.118840
2021.479790,7048.078582,15396.283594,3849.070898
2021.480108,11491.432470,15692.365970,-1332.370696
2021.480425,15704.957709,12287.418637,-3701.029710
2021.480742,13176.842566,8512.368333,-8586.388927
2021.481060,8810.098227,1554.432478,-5699.585753
2021.481377,3600.648841,-5995.668130,2664.741391
2021.481695,-842.705048,-9252.574275,3775.050304
2021.482012,-1991.848295,-11325.150913,10732.986159
2021.482330,-6971.469032,-11251.130318,17616.901420
2021.482647,-8427.050478,-12953.603985,26499.372724
2021.482964,-10342.289223,-8364.327145,26129.269753
2021.483282,-8503.660028,-1332.370696,22576.281231
2021.483599,-5209.449386,1924.535449,22058.137072
2021.483917,-842.705048,7846.182985,15322.262999
2021.484234,6665.030833,14211.954086,7624.121203
2021.484551,12257.527968,15396.283594,-3034.844362
2021.484869,15245.300410,14137.933492,-5551.544565
2021.485186,13789.718964,10214.842000,-6957.935855
2021.485504,8886.707777,5033.400406,-6587.832884
2021.485821,2987.772442,-1258.350101,-370.102971
2021.486138,-1072.533697,-7550.100608,1998.556043
2021.486456,-4596.572988,-10066.800811,9918.759623
2021.486773,-8733.488677,-12583.501014,18653.189738
2021.487091,-10648.727422,-14063.912898,26647.413912
2021.487408,-12257.527968,-11177.109724,28053.805202
2021.487726,-10418.898773,-5921.647536,26203.290347
2021.488043,-6665.030833,1480.411884,22354.219448
2021.488360,-1532.190996,7254.018232,17320.819043
2021.488678,4673.182538,13249.686362,7698.141797
2021.488995,12104.308868,17024.736666,1110.308913
2021.489313,15858.176809,15322.262999,-4219.173869
2021.489630,14632.424012,10807.006753,-7846.182985
2021.489947,9729.412825,5625.565159,-7698.141797
2021.490265,5056.230287,-3182.885551,2738.761985
2021.490582,-995.924147,-8364.327145,3552.988522
2021.490900,-2911.162892,-11547.212695,9474.636058
2021.491217,-6128.763984,-12879.583391,16654.633695
2021.491535,-7814.174080,-12065.356855,25389.063811
2021.491852,-9039.926876,-10362.883188,26055.249158
2021.492169,-7967.393179,-5773.606348,24130.713709
2021.492487,-5515.887586,370.102971,21762.054695
2021.492804,-2298.286494,8216.285956,16876.695478
2021.493122,4826.401637,11843.295072,9622.677246
2021.493439,9959.241474,15766.386565,740.205942
2021.493756,15398.519510,17394.839637,-2516.700203
2021.494074,15168.690860,12213.398043,-9104.533087
2021.494391,10878.556072,6883.915261,-9474.636058
2021.494709,5822.325785,-1702.473667,-1036.288319
2021.495026,2221.676944,-8882.471304,4219.173869
2021.495344,-3600.648841,-10881.027347,4515.256246
2021.495661,-6741.640382,-14063.912898,15988.448347
2021.495978,-7660.954980,-11621.233289,20725.766376
2021.496296,-9882.631924,-8068.244768,23390.507767
2021.496613,-9422.974625,-6735.874072,23390.507767
2021.496931,-9193.145976,-74.020594,21836.075289
2021.497248,-6894.859482,4589.276840,17024.736666
2021.497565,766.095498,10436.903782,9252.574275
2021.497883,6052.154434,14952.160028,3182.885551
2021.498200,10878.556072,12435.459826,-2072.576638
2021.498518,13253.452115,10881.027347,-5033.400406
2021.498835,9729.412825,4959.379811,-8586.388927
2021.499152,6358.592633,-2590.720797,-1110.308913
2021.499470,1991.848295,-9548.656652,2442.679609
2021.499787,-2834.553343,-11547.212695,4441.235652
2021.500105,-4443.353888,-14285.974681,15248.242405
2021.500422,-7890.783629,-11695.253884,20651.745782
2021.500740,-8120.612279,-11917.315666,24870.919651
2021.501057,-8656.879127,-5847.626942,21762.054695
2021.501374,-8120.612279,-0.000000,20577.725188
2021.501692,-4749.792088,4441.235652,15470.304188
2021.502009,612.876398,9992.780217,10510.924376
2021.502327,7814.174080,12953.603985,4367.215058
2021.502644,12793.794817,14137.933492,-2220.617826
2021.502961,15245.300410,11399.171507,-3997.112087
2021.503279,13023.623466,4367.215058,-6069.688724
2021.503596,8503.660028,-1924.535449,-2590.720797
2021.503914,2911.162892,-9326.594869,4885.359217
2021.504231,-2451.505594,-11917.315666,6143.709319
2021.504549,-4290.134789,-12509.480420,15766.386565
2021.504866,-5592.497135,-9918.759623,21688.034101
2021.505183,-7201.297681,-7550.100608,24204.734303
2021.505501,-8044.002729,-2886.803174,22650.301825
2021.505818,-7277.907231,2368.659014,19837.519246
2021.506136,-5132.839837,8068.244768,15988.448347
2021.506453,766.095498,11325.150913,11917.315666
2021.506770,5898.935335,12287.418637,7846.182985
2021.507088,11108.384721,11547.212695,1184.329507
2021.507405,15475.129060,10362.883188,-2516.700203
2021.507723,14019.547613,3923.091493,-4145.153275
2021.508040,9193.145976,-3627.009116,-2146.597232
2021.508358,2221.676944,-10436.903782,4071.132681
2021.508675,-3064.381992,-12953.603985,6439.791695
2021.508992,-5286.058936,-11769.274478,13915.871710
2021.509310,-6665.030833,-11251.130318,19541.436869
2021.509627,-8120.612279,-6661.853478,21984.116477
2021.509945,-9193.145976,-2812.782580,22798.343014
2021.510262,-9422.974625,2664.741391,17690.922014
2021.510579,-7507.735880,5625.565159,16580.613101
2021.510897,-2987.772442,5995.668130,15248.242405
2021.511214,3370.820191,12509.480420,9400.615463
2021.511532,11108.384721,13915.871710,2960.823768
2021.511849,14555.814462,13249.686362,-2294.638420
2021.512166,15168.690860,6735.874072,-3182.885551
2021.512484,9269.755526,444.123565,-4737.318029
2021.512801,3370.820191,-6513.812290,3034.844362
2021.513119,-1915.238745,-10732.986159,5625.565159
2021.513436,-3677.258390,-11843.295072,11177.109724
2021.513754,-6971.469032,-10362.883188,16580.613101
2021.514071,-7354.516781,-5847.626942,22354.219448
2021.514388,-8580.269578,-5107.421000,23538.548956
2021.514706,-10189.070123,592.164754,17690.922014
2021.515023,-7201.297681,3775.050304,18209.066173
2021.515341,-3140.991542,9030.512492,15100.201217
2021.515658,3140.991542,11251.130318,10807.006753
2021.515975,12410.747068,14211.954086,4367.215058
2021.516293,17160.539155,12287.418637,-1332.370696
2021.516610,17926.634653,6883.915261,-3404.947333
2021.516928,12257.527968,1036.288319,-7105.977043
2021.517245,6435.202183,-4885.359217,-1850.514855
2021.517563,229.828649,-10955.047942,4515.256246
2021.517880,-3370.820191,-10658.965565,7920.203579
2021.518197,-4519.963438,-10658.965565,16210.510130
2021.518515,-8197.221829,-7179.997637,18801.230927
2021.518832,-9499.584175,-7476.080014,24130.713709
2021.519150,-11568.042020,-1406.391290,16210.510130
2021.519467,-10572.117872,296.082377,16728.654289
2021.519784,-7201.297681,2812.782580,18949.272115
2021.520102,-919.314598,9326.594869,11621.233289
2021.520419,8044.002729,14508.036463,2960.823768
2021.520737,15015.471761,15914.427753,-2146.597232
2021.521054,16317.834107,8660.409521,-2368.659014
2021.521372,12410.747068,3256.906145,-7105.977043
2021.521689,7890.783629,-1702.473667,-1702.473667
2021.522006,766.095498,-7994.224174,1332.370696
2021.522324,-1685.410096,-9622.677246,6069.688724
2021.522641,-3294.210641,-8216.285956,12657.521608
2021.522959,-6818.249932,-7624.121203,19023.292709
2021.523276,-8656.879127,-8808.450710,25759.166782
2021.523593,-10418.898773,-2072.576638,20947.828159
2021.523911,-10648.727422,296.082377,16580.613101
2021.524228,-7277.907231,4145.153275,16876.695478
2021.524546,-2221.676944,8512.368333,14211.954086
2021.524863,4826.401637,12583.501014,6143.709319
2021.525180,13559.890315,12435.459826,2516.700203
2021.525498,16854.100956,8438.347739,370.102971
2021.525815,16088.005458,2590.720797,-3701.029710
2021.526133,11261.603821,-1258.350101,-2738.761985
2021.526450,5209.449386,-8142.265362,1924.535449
2021.526768,536.266849,-10732.986159,5625.565159
2021.527085,-1608.800546,-9992.780217,11029.068536
2021.527402,-6052.154434,-7920.203579,18061.024985
2021.527720,-6435.202183,-7328.038826,23020.404796
2021.528037,-9116.536426,-3627.009116,21910.095883
2021.528355,-10725.336972,-0.000000,16580.613101
2021.528672,-8733.488677,2146.597232,18949.272115
2021.528989,-6128.763984,7550.100608,13693.809927
2021.529307,1532.190996,12065.356855,6957.935855
2021.529624,10725.336972,14063.912898,4737.318029
2021.529942,14325.985813,11029.068536,1628.453072
2021.530259,12870.404366,2960.823768,-3404.947333
2021.530577,8273.831378,1036.288319,-4071.132681
2021.530894,3907.087040,-6439.791695,6291.750507
2021.531211,-2604.724693,-10362.883188,4737.318029
2021.531529,-5822.325785,-10214.842000,8216.285956
2021.531846,-9269.755526,-7550.100608,16654.633695
2021.532164,-8886.707777,-6365.771101,25611.125593
2021.532481,-9576.193725,-5477.523971,24130.713709
2021.532798,-12257.527968,1110.308913,16580.613101
2021.533116,-8886.707777,1850.514855,20429.683999
2021.533433,-6052.154434,6883.915261,14878.139434
2021.533751,919.314598,11695.253884,9030.512492
2021.534068,10265.679673,13101.645173,4663.297435
2021.534386,17620.196454,12583.501014,518.144159
2021.534703,19075.777900,6143.709319,-740.205942
2021.535020,16241.224558,2960.823768,-5921.647536
2021.535338,11261.603821,-3627.009116,-740.205942
2021.535655,4903.011187,-9770.718434,2516.700203
2021.535973,995.924147,-9696.697840,4737.318029
2021.536290,-2221.676944,-11621.233289,14063.912898
2021.536607,-7890.783629,-7698.141797,17468.860231
2021.536925,-5669.106685,-7328.038826,23834.631332
2021.537242,-9193.145976,-1036.288319,17542.880825
2021.537560,-8733.488677,-740.205942,16062.468941
2021.537877,-7124.688131,2664.741391,17764.942608
2021.538194,-1762.019645,9918.759623,12509.480420
2021.538512,9422.974625,12213.398043,5921.647536
2021.538829,15934.786358,13249.686362,0.000000
2021.539147,17160.539155,8216.285956,-3256.906145
2021.539464,15321.909960,4885.359217,-4959.379811
2021.539782,9729.412825,-740.205942,-3330.926739
2021.540099,2221.676944,-5921.647536,518.144159
2021.540416,-1762.019645,-9548.656652,2886.803174
2021.540734,-4749.792088,-8290.306550,11917.315666
2021.541051,-8503.660028,-10436.903782,19467.416275
2021.541369,-10342.289223,-10066.800811,26277.310941
2021.541686,-11797.870669,-8512.368333,22798.343014
2021.542003,-13713.109414,1036.288319,16876.695478
2021.542321,-10495.508323,1332.370696,18579.169144
2021.542638,-5975.544884,6957.935855,13915.871710
2021.542956,3294.210641,15100.201217,4219.173869
2021.543273,12104.308868,15174.221811,74.020594
2021.543591,14709.033562,10732.986159,-1036.288319
2021.543908,13330.061665,5033.400406,-3182.885551
2021.544225,9882.631924,-1406.391290,370.102971
2021.544543,2834.553343,-8142.265362,-222.061783
2021.544860,-1302.362347,-11399.171507,5107.421000
2021.545178,-3447.429741,-12139.377449,11695.253884
2021.545495,-5515.887586,-10510.924376,16728.654289
2021.545812,-7737.564530,-7550.100608,20799.786970
2021.546130,-8044.002729,-5551.544565,23982.672521
2021.546447,-12334.137518,148.041188,16358.551318
2021.546765,-9882.631924,2516.700203,17172.777854
2021.547082,-6971.469032,7772.162391,12435.459826
2021.547400,-76.609550,15396.283594,7254.018232
2021.547717,10112.460574,16284.530724,2738.761985
2021.548034,15245.300410,13619.789333,-1184.329507
2021.548352,16088.005458,7476.080014,-2516.700203
2021.548669,12334.137518,1184.329507,-2294.638420
2021.548987,7201.297681,-7402.059420,5625.565159
2021.549304,1149.143247,-11473.192101,6513.812290
2021.549621,-919.314598,-10955.047942,7698.141797
2021.549939,-3600.648841,-9548.656652,17987.004391
2021.550256,-6435.202183,-4811.338623,21465.972318
2021.550574,-6894.859482,-2294.638420,24796.899057
2021.550891,-8656.879127,2960.823768,17246.798449
2021.551208,-8427.050478,5995.668130,17394.839637
2021.551526,-4903.011187,10066.800811,14359.995275
2021.551843,76.609550,11399.171507,9548.656652
2021.552161,8886.707777,12731.542202,2072.576638
2021.552478,16394.443657,13027.624579,592.164754
2021.552796,18079.853753,5625.565159,-1480.411884
2021.553113,14096.157163,888.247130,-4663.297435
2021.553430,9039.926876,-7920.203579,4737.318029
2021.553748,1608.800546,-11399.171507,5403.503377
2021.554065,-995.924147,-11695.253884,7624.121203
2021.554383,-2528.115143,-12435.459826,17542.880825
2021.554700,-8197.221829,-7402.059420,20207.622217
2021.555017,-6971.469032,-5477.523971,23686.590144
2021.555335,-9193.145976,-0.000000,15914.427753
2021.555652,-9652.803275,5255.462188,15322.262999
2021.555970,-5592.497135,5699.585753,17246.798449
2021.556287,-2298.286494,11177.109724,8142.265362
2021.556605,6205.373534,13619.789333,2590.720797
2021.556922,13100.233016,16136.489536,-1776.494261
2021.557239,14325.985813,8290.306550,-1924.535449
2021.557557,12487.356617,370.102971,-2812.782580
2021.557874,5592.497135,-6513.812290,1776.494261
2021.558192,-1149.143247,-12139.377449,7698.141797
2021.558509,-4060.306139,-13693.809927,7402.059420
2021.558826,-3753.867940,-10510.924376,14211.954086
2021.559144,-6435.202183,-8734.430116,19023.292709
2021.559461,-7431.126331,-5847.626942,23020.404796
2021.559779,-9806.022374,-2442.679609,18653.189738
2021.560096,-10725.336972,3478.967927,14730.098246
2021.560414,-6971.469032,4737.318029,18357.107362
2021.560731,-2834.553343,8068.244768,12287.418637
2021.561048,4903.011187,14211.954086,4885.359217
2021.561366,12563.966167,15692.365970,0.000000
2021.561683,16930.710506,7402.059420,-592.164754
2021.562001,15245.300410,1184.329507,-3034.844362
2021.562318,10725.336972,-5551.544565,444.123565
2021.562635,3600.648841,-11177.109724,3330.926739
2021.562953,-1149.143247,-12583.501014,5699.585753
2021.563270,-919.314598,-12065.356855,11399.171507
2021.563588,-5515.887586,-9030.512492,16728.654289
2021.563905,-6511.811733,-8438.347739,22354.219448
2021.564222,-8273.831378,-3923.091493,20725.766376
2021.564540,-11568.042020,2146.597232,13767.830521
2021.564857,-7507.735880,1554.432478,18949.272115
2021.565175,-4903.011187,8438.347739,12583.501014
2021.565492,4366.744339,14730.098246,7031.956449
2021.565810,11951.089769,17616.901420,-2220.617826
2021.566127,16624.272307,13249.686362,-2738.761985
2021.566444,15781.567259,4515.256246,-3330.926739
2021.566762,10878.556072,-740.205942,-3108.864956
2021.567079,4443.353888,-8586.388927,5255.462188
2021.567397,-1838.629195,-10510.924376,4811.338623
2021.567714,-4290.134789,-9548.656652,9104.533087
2021.568031,-8656.879127,-8216.285956,16432.571912
2021.568349,-8580.269578,-7698.141797,24574.837274
2021.568666,-8886.707777,-5033.400406,23020.404796
2021.568984,-13942.938064,1998.556043,12435.459826
2021.569301,-10955.165621,1184.329507,18949.272115
2021.569618,-6281.983084,8438.347739,13397.727550
2021.569936,383.047749,11991.336260,10881.027347
2021.570253,7814.174080,13101.645173,3330.926739
2021.570571,13176.842566,11917.315666,814.226536
2021.570888,14019.547613,7846.182985,-2664.741391
2021.571205,14019.547613,-74.020594,-740.205942
2021.571523,7124.688131,-6735.874072,6143.709319
2021.571840,919.314598,-10955.047942,6883.915261
2021.572158,-1149.143247,-11695.253884,8586.388927
2021.572475,-1915.238745,-9844.739029,16210.510130
2021.572793,-4826.401637,-7105.977043,20577.725188
2021.573110,-4366.744339,-3182.885551,20947.828159
2021.573427,-7201.297681,1332.370696,14211.954086
2021.573745,-9652.803275,6069.688724,12953.603985
2021.574062,-3677.258390,5181.441594,15544.324782
2021.574380,0.000000,11473.192101,8660.409521
2021.574697,6818.249932,13915.871710,3923.091493
2021.575014,11261.603821,9622.677246,1702.473667
2021.575332,12410.747068,4441.235652,-592.164754
2021.575649,8580.269578,-1628.453072,148.041188
2021.575967,3907.087040,-8586.388927,6883.915261
2021.576284,-1685.410096,-11621.233289,11399.171507
2021.576601,-3217.601092,-9178.553681,7624.121203
2021.576919,-5056.230287,-7105.977043,16728.654289
2021.577236,-7814.174080,-4589.276840,21095.869347
2021.577554,-6052.154434,-2146.597232,21836.075289
2021.577871,-8350.440928,1924.535449,16506.592507
2021.578188,-7354.516781,5107.421000,14952.160028
2021.578506,-4903.011187,9696.697840,13619.789333
2021.578823,919.314598,11177.109724,9326.594869
2021.579141,9193.145976,11473.192101,4589.276840
2021.579458,13559.890315,12953.603985,-2368.659014
2021.579775,18003.244203,5403.503377,-814.226536
2021.580093,14709.033562,962.267725,-2738.761985
2021.580410,10418.898773,-6513.812290,3701.029710
2021.580728,3753.867940,-10658.965565,5403.503377
2021.581045,-229.828649,-11399.171507,5551.544565
2021.581363,-2451.505594,-10140.821405,10510.924376
2021.581680,-6511.811733,-7031.956449,20207.622217
2021.581997,-4519.963438,-5773.606348,20503.704593
2021.582315,-6741.640382,2146.597232,13471.748144
2021.582632,-8427.050478,3478.967927,13101.645173
2021.582950,-5975.544884,3849.070898,17616.901420
2021.583267,-1608.800546,7179.997637,10288.862594
2021.583584,5822.325785,11621.233289,5847.626942
2021.583902,10572.117872,12361.439231,0.000000
2021.584219,15168.690860,8364.327145,-1554.432478
2021.584537,13789.718964,1480.411884,-1850.514855
2021.584854,9499.584175,-4441.235652,2220.617826
2021.585171,919.314598,-9918.759623,5181.441594
2021.585489,-2987.772442,-11029.068536,7328.038826
2021.585806,-4519.963438,-9696.697840,11843.295072
2021.586124,-7890.783629,-7105.977043,16210.510130
2021.586441,-8810.098227,-6883.915261,23316.487173
2021.586758,-10801.946522,-2960.823768,16654.633695
2021.587076,-12717.185267,-592.164754,11917.315666
2021.587393,-9269.755526,1776.494261,20725.766376
2021.587711,-6128.763984,3256.906145,14211.954086
2021.588028,2528.115143,11917.315666,5551.544565
2021.588346,10265.679673,12435.459826,3034.844362
2021.588663,15628.348159,8438.347739,3034.844362
2021.588980,15168.690860,2442.679609,-2072.576638
2021.589298,11721.261119,-888.247130,444.123565
2021.589615,4826.401637,-7031.956449,2812.782580
2021.589933,-153.219100,-10214.842000,7476.080014
2021.590250,-2221.676944,-8512.368333,8882.471304
2021.590567,-5669.106685,-8364.327145,15248.242405
2021.590885,-6971.469032,-6069.688724,21762.054695
2021.591202,-8120.612279,-2960.823768,20133.601622
2021.591520,-11721.261119,2220.617826,11917.315666
2021.591837,-8350.440928,3997.112087,16580.613101
2021.592154,-4596.572988,7031.956449,16950.716072
2021.592472,2757.943793,10955.047942,7846.182985
2021.592789,11797.870669,12065.356855,1036.288319
2021.593107,15704.957709,9252.574275,-592.164754
2021.593424,16700.881856,4515.256246,-1702.473667
2021.593741,14325.985813,1184.329507,666.185348
2021.594059,7967.393179,-5625.565159,3404.947333
2021.594376,229.828649,-5995.668130,5551.544565
2021.594694,-1455.581446,-8808.450710,7846.182985
2021.595011,-6511.811733,-7698.141797,16654.633695
2021.595328,-7967.393179,-6365.771101,23242.466579
2021.595646,-8044.002729,-518.144159,21243.910535
2021.595963,-9499.584175,3775.050304,11843.295072
2021.596281,-5975.544884,5477.523971,16950.716072
2021.596598,-4443.353888,7105.977043,14508.036463
2021.596916,995.924147,8734.430116,8216.285956
2021.597233,8044.002729,9252.574275,5625.565159
2021.597550,12717.185267,9770.718434,2072.576638
2021.597868,15015.471761,4515.256246,1924.535449
2021.598185,12334.137518,1850.514855,-296.082377
2021.598503,8656.879127,-4441.235652,7105.977043
2021.598820,1225.752797,-7105.977043,6883.915261
2021.599137,-2757.943793,-9474.636058,7994.224174
2021.599455,-4136.915689,-9622.677246,14211.954086
2021.599772,-7967.393179,-5921.647536,18949.272115
2021.600090,-7431.126331,-2220.617826,20281.642811
2021.600407,-9422.974625,222.061783,13693.809927
2021.600724,-9806.022374,4959.379811,14804.118840
2021.601042,-7048.078582,5551.544565,16580.613101
2021.601359,-1455.581446,10288.862594,8882.471304
2021.601677,4290.134789,10510.924376,4145.153275
2021.601994,9576.193725,9622.677246,1628.453072
2021.602311,11184.994271,5033.400406,0.000000
2021.602629,10112.460574,1258.350101,-518.144159
2021.602946,7201.297681,-5551.544565,8142.265362
2021.603264,766.095498,-6661.853478,5773.606348
2021.603581,-1302.362347,-7550.100608,5477.523971
2021.603899,-5132.839837,-6143.709319,11843.295072
2021.604216,-8810.098227,-6291.750507,19541.436869
2021.604533,-8656.879127,-3404.947333,21021.848753
2021.604851,-9806.022374,814.226536,14285.974681
2021.605168,-12257.527968,4811.338623,12953.603985
2021.605486,-8503.660028,6291.750507,18357.107362
2021.605803,-3600.648841,9400.615463,10214.842000
2021.606120,4443.353888,12139.377449,2812.782580
2021.606438,10112.460574,12139.377449,1332.370696
2021.606755,13942.938064,3478.967927,2664.741391
2021.607073,12717.185267,-740.205942,1332.370696
2021.607390,11031.775171,-6513.812290,8660.409521
2021.607707,3907.087040,-10288.862594,5551.544565
2021.608025,2145.067394,-9400.615463,6439.791695
2021.608342,383.047749,-9622.677246,12583.501014
2021.608660,-5898.935335,-5625.565159,17320.819043
2021.608977,-5592.497135,-4589.276840,20429.683999
2021.609294,-7507.735880,2738.761985,13693.809927
2021.609612,-7967.393179,4145.153275,14211.954086
2021.609929,-4519.963438,5181.441594,15322.262999
2021.610247,-612.876398,7402.059420,9474.636058
2021.610564,6818.249932,9474.636058,4959.379811
2021.610881,11568.042020,8068.244768,1406.391290
2021.611199,16011.395908,3404.947333,296.082377
2021.611516,14479.204912,-1258.350101,296.082377
2021.611834,11414.822920,-4663.297435,4367.215058
2021.612151,4596.572988,-6365.771101,4959.379811
2021.612469,76.609550,-7031.956449,5329.482782
2021.612786,-459.657299,-6883.915261,11251.130318
2021.613103,-7814.174080,-2590.720797,15248.242405
2021.613421,-7890.783629,-5329.482782,21762.054695
2021.613738,-8963.317327,-148.041188,17912.983796
2021.614056,-9039.926876,2368.659014,13619.789333
2021.614373,-6052.154434,4367.215058,17394.839637
2021.614690,-2911.162892,7994.224174,9992.780217
2021.615008,4979.620737,11325.150913,4293.194464
2021.615325,10189.070123,11177.109724,74.020594
2021.615643,13176.842566,6587.832884,-888.247130
2021.615960,11644.651570,148.041188,-1406.391290
2021.616277,7737.564530,-3108.864956,4737.318029
2021.616595,2528.115143,-7624.121203,6661.853478
2021.616912,-919.314598,-9400.615463,5773.606348
2021.617230,-2374.896044,-11177.109724,10881.027347
2021.617547,-7890.783629,-7994.224174,16580.613101
2021.617864,-7507.735880,-8956.491898,23242.466579
2021.618182,-9422.974625,-2294.638420,15914.427753
2021.618499,-9576.193725,1406.391290,10732.986159
2021.618817,-7124.688131,4663.297435,17098.757260
2021.619134,-4213.525239,9400.615463,12361.439231
2021.619451,3447.429741,12287.418637,4959.379811
2021.619769,7048.078582,10955.047942,814.226536
2021.620086,11261.603821,6661.853478,2368.659014
2021.620404,9806.022374,296.082377,740.205942
2021.620721,8656.879127,-2516.700203,4811.338623
2021.621039,4826.401637,-7031.956449,7698.141797
2021.621356,229.828649,-8734.430116,8734.430116
2021.621673,-1838.629195,-9622.677246,10288.862594
2021.621991,-4213.525239,-7920.203579,15544.324782
2021.622308,-6665.030833,-5329.482782,20503.704593
2021.622626,-6588.421283,148.041188,16358.551318
2021.622943,-6741.640382,3108.864956,11843.295072
2021.623260,-6281.983084,7550.100608,15100.201217
2021.623578,-2374.896044,7254.018232,14582.057057
2021.623895,3600.648841,10510.924376,4441.235652
2021.624213,9269.755526,10436.903782,1258.350101
2021.624530,12717.185267,6513.812290,2812.782580
2021.624847,12257.527968,-0.000000,222.061783
2021.625165,8580.269578,-3997.112087,3701.029710
2021.625482,6741.640382,-8660.409521,11843.295072
2021.625800,919.314598,-7179.997637,6735.874072
2021.626117,-766.095498,-6957.935855,9178.553681
2021.626434,-2757.943793,-6365.771101,16210.510130
2021.626752,-7124.688131,-4145.153275,18875.251521
2021.627069,-6894.859482,-1924.535449,18653.189738
2021.627387,-7814.174080,592.164754,13101.645173
2021.627704,-7124.688131,4737.318029,15470.304188
2021.628022,-2145.067394,7105.977043,14063.912898
2021.628339,3830.477490,7402.059420,5995.668130
2021.628656,8886.707777,8438.347739,2812.782580
2021.628974,12180.918418,6291.750507,2072.576638
2021.629291,12640.575717,296.082377,-1036.288319
2021.629609,9269.755526,-3701.029710,1702.473667
2021.629926,6894.859482,-7254.018232,11843.295072
2021.630243,-383.047749,-6587.832884,4663.297435
2021.630561,-2374.896044,-6513.812290,9178.553681
2021.630878,-3217.601092,-7920.203579,17987.004391
2021.631196,-5975.544884,-4663.297435,19171.333898
2021.631513,-6205.373534,-1850.514855,16876.695478
2021.631830,-6128.763984,666.185348,14211.954086
2021.632148,-6205.373534,3627.009116,15988.448347
2021.632465,-612.876398,5625.565159,16284.530724
2021.632783,6511.811733,7920.203579,6217.729913
2021.633100,9882.631924,9844.739029,1924.535449
2021.633417,13330.061665,5625.565159,2960.823768
2021.633735,13023.623466,1110.308913,-1850.514855
2021.634052,9959.241474,-2664.741391,2146.597232
2021.634370,5898.935335,-6587.832884,7254.018232
2021.634687,-1149.143247,-7254.018232,5477.523971
2021.635004,-3140.991542,-7624.121203,9696.697840
2021.635322,-5286.058936,-7105.977043,14285.974681
2021.635639,-7277.907231,-6365.771101,17912.983796
2021.635957,-8810.098227,-3404.947333,16506.592507
2021.636274,-8273.831378,-0.000000,12361.439231
2021.636592,-7201.297681,1702.473667,15100.201217
2021.636909,-3907.087040,3775.050304,15322.262999
2021.637226,2451.505594,7624.121203,6883.915261
2021.637544,6588.421283,7772.162391,3330.926739
2021.637861,9346.365076,5329.482782,3404.947333
2021.638179,9269.755526,2812.782580,-1998.556043
2021.638496,7048.078582,-0.000000,1184.329507
2021.638813,4673.182538,-4145.153275,8216.285956
2021.639131,-612.876398,-5699.585753,5995.668130
2021.639448,-2987.772442,-6513.812290,8216.285956
2021.639766,-6281.983084,-6069.688724,14063.912898
2021.640083,-7124.688131,-6217.729913,19393.395680
2021.640400,-8580.269578,-3627.009116,17912.983796
2021.640718,-6128.763984,-1628.453072,15470.304188
2021.641035,-6128.763984,1776.494261,14656.077652
2021.641353,-1455.581446,3552.988522,17764.942608
2021.641670,6511.811733,7920.203579,8142.265362
2021.641987,11031.775171,8364.327145,1702.473667
2021.642305,13406.671215,6661.853478,888.247130
2021.642622,13023.623466,3627.009116,-4219.173869
2021.642940,9576.193725,518.144159,222.061783
2021.643257,6128.763984,-3775.050304,6365.771101
2021.643575,1762.019645,-5625.565159,4663.297435
2021.643892,-1915.238745,-5477.523971,10955.047942
2021.644209,-4903.011187,-7698.141797,17098.757260
2021.644527,-6818.249932,-6809.894666,20947.828159
2021.644844,-8273.831378,-3701.029710,18283.086767
2021.645162,-7201.297681,-962.267725,14656.077652
2021.645479,-6128.763984,2368.659014,16136.489536
2021.645796,-2068.457845,4737.318029,15100.201217
2021.646114,4366.744339,10140.821405,5847.626942
2021.646431,9193.145976,10955.047942,888.247130
2021.646749,11644.651570,8216.285956,-296.082377
2021.647066,11261.603821,5477.523971,-2886.803174
2021.647383,7354.516781,-370.102971,148.041188
2021.647701,4213.525239,-3552.988522,6217.729913
2021.648018,-995.924147,-5921.647536,7476.080014
2021.648336,-3907.087040,-5773.606348,12435.459826
2021.648653,-6052.154434,-4737.318029,15100.201217
2021.648970,-7277.907231,-2738.761985,19615.457463
2021.649288,-8197.221829,-518.144159,17394.839637
2021.649605,-7967.393179,814.226536,14730.098246
2021.649923,-7507.735880,2886.803174,14211.954086
2021.650240,-3677.258390,5551.544565,15988.448347
2021.650557,2604.724693,8660.409521,7254.018232
2021.650875,7354.516781,9104.533087,2590.720797
2021.651192,11338.213370,8142.265362,2516.700203
2021.651510,10878.556072,2294.638420,-1258.350101
2021.651827,6971.469032,-1776.494261,3034.844362
2021.652145,5056.230287,-8068.244768,8808.450710
2021.652462,536.266849,-7994.224174,7846.182985
2021.652779,-2374.896044,-9326.594869,13323.706956
2021.653097,-4136.915689,-6809.894666,17987.004391
2021.653414,-5898.935335,-4145.153275,18431.127956
2021.653732,-5975.544884,-888.247130,16728.654289
2021.654049,-4826.401637,1110.308913,14211.954086
2021.654366,-4749.792088,4515.256246,14359.995275
2021.654684,0.000000,4959.379811,12953.603985
2021.655001,4366.744339,7179.997637,5773.606348
2021.655319,9269.755526,6143.709319,4589.276840
2021.655636,11874.480219,3330.926739,2664.741391
2021.655953,12027.699319,740.205942,-370.102971
2021.656271,9039.926876,-3034.844362,2146.597232
2021.656588,5669.106685,-6439.791695,7550.100608
2021.656906,1762.019645,-6809.894666,8068.244768
2021.657223,-1149.143247,-4737.318029,12213.398043
2021.657540,-3753.867940,-3034.844362,15026.180623
2021.657858,-5515.887586,-814.226536,17172.777854
2021.658175,-5975.544884,1332.370696,15544.324782
2021.658493,-4596.572988,296.082377,12361.439231
2021.658810,-5209.449386,3256.906145,10807.006753
2021.659128,-919.314598,4293.194464,12583.501014
2021.659445,3294.210641,7402.059420,5995.668130
2021.659762,7431.126331,7031.956449,2294.638420
2021.660080,11184.994271,5255.462188,962.267725
2021.660397,9116.536426,-0.000000,-2368.659014
2021.660715,6358.592633,-4515.256246,3478.967927
2021.661032,2604.724693,-7698.141797,6365.771101
2021.661349,-1991.848295,-7105.977043,6439.791695
2021.661667,-4060.306139,-7920.203579,12879.583391
2021.661984,-8044.002729,-4737.318029,15544.324782
2021.662302,-7967.393179,-3775.050304,18431.127956
2021.662619,-8044.002729,888.247130,14804.118840
2021.662936,-8044.002729,1480.411884,10288.862594
2021.663254,-6818.249932,3627.009116,13249.686362
2021.663571,-2911.162892,5847.626942,11917.315666
2021.663889,2757.943793,7624.121203,5329.482782
2021.664206,6435.202183,8882.471304,2812.782580
2021.664523,10189.070123,4293.194464,4145.153275
2021.664841,9039.926876,962.267725,-222.061783
2021.665158,7354.516781,-1776.494261,4441.235652
2021.665476,4136.915689,-6291.750507,6957.935855
2021.665793,0.000000,-6439.791695,6439.791695
2021.666111,-3907.087040,-5699.585753,12805.562797
2021.666428,-5898.935335,-4737.318029,18283.086767
2021.666746,-6128.763984,-1184.329507,19763.498651
2021.667063,-5898.935335,2294.638420,16136.489536
2021.667381,-5132.839837,2886.803174,13545.768739
2021.667698,-4213.525239,5625.565159,12583.501014
2021.668016,-612.876398,4811.338623,11769.274478
2021.668333,4213.525239,5773.606348,7328.038826
2021.668651,8350.440928,4811.338623,4737.318029
2021.668968,12717.185267,5181.441594,2442.679609
2021.669286,11874.480219,2294.638420,-962.267725
2021.669603,9576.193725,-1554.432478,3552.988522
2021.669921,5286.058936,-4663.297435,4737.318029
2021.670238,-153.219100,-6069.688724,8586.388927
2021.670556,-3677.258390,-7105.977043,15100.201217
2021.670873,-7354.516781,-4737.318029,17394.839637
2021.671190,-7354.516781,-3256.906145,22132.157666
2021.671508,-6894.859482,1702.473667,17616.901420
2021.671825,-5975.544884,2738.761985,13619.789333
2021.672143,-4060.306139,6069.688724,11473.192101
2021.672460,0.000000,6661.853478,11325.150913
2021.672778,3830.477490,7994.224174,5699.585753
2021.673095,7277.907231,8216.285956,3701.029710
2021.673413,10265.679673,5477.523971,2294.638420
2021.673730,9346.365076,2146.597232,0.000000
2021.674048,7354.516781,-1776.494261,3849.070898
2021.674365,3753.867940,-6513.812290,6661.853478
2021.674683,-1915.238745,-5773.606348,7772.162391
2021.675000,-2987.772442,-6439.791695,15322.262999
2021.675318,-6358.592633,-3404.947333,17246.798449
2021.675635,-6281.983084,-1036.288319,20281.642811
2021.675953,-6281.983084,2220.617826,17468.860231
2021.676270,-5362.668486,3923.091493,11547.212695
2021.676588,-4136.915689,6957.935855,9474.636058
2021.676905,-76.609550,7179.997637,9030.512492
2021.677223,2987.772442,7698.141797,5329.482782
2021.677540,4903.011187,6069.688724,2442.679609
2021.677858,9269.755526,3404.947333,4145.153275
2021.678175,8197.221829,-1184.329507,2886.803174
2021.678493,7354.516781,-4589.276840,7105.977043
2021.678810,4136.915689,-6957.935855,5033.400406
2021.679128,-229.828649,-7254.018232,7179.997637
2021.679445,-3294.210641,-8512.368333,14285.974681
2021.679763,-6205.373534,-6883.915261,16210.510130
2021.680080,-6511.811733,-3478.967927,18801.230927
2021.680398,-5745.716235,2738.761985,15766.386565
2021.680715,-4136.915689,3997.112087,11103.089130
2021.681033,-3140.991542,8438.347739,7550.100608
2021.681350,536.266849,7328.038826,8438.347739
2021.681668,2451.505594,7698.141797,3775.050304
2021.681985,4519.963438,4589.276840,2590.720797
2021.682303,7431.126331,1332.370696,4071.132681
2021.682620,7201.297681,-2368.659014,2294.638420
2021.682938,7201.297681,-4663.297435,5477.523971
2021.683255,3983.696590,-6439.791695,6291.750507
2021.683573,-612.876398,-5995.668130,7476.080014
2021.683890,-3140.991542,-5477.523971,12509.480420
2021.684208,-6665.030833,-2886.803174,15470.304188
2021.684525,-6894.859482,-1332.370696,19245.354492
2021.684843,-6818.249932,3701.029710,15988.448347
2021.685160,-4366.744339,5403.503377,12139.377449
2021.685478,-2604.724693,8290.306550,7698.141797
2021.685795,1149.143247,6809.894666,8438.347739
2021.686113,3370.820191,5403.503377,5033.400406
2021.686430,5209.449386,1924.535449,3775.050304
2021.686747,8733.488677,-1110.308913,5921.647536
2021.687065,7890.783629,-3552.988522,4885.359217
2021.687382,7967.393179,-5329.482782,8068.244768
2021.687700,6665.030833,-6143.709319,6735.874072
2021.688017,2374.896044,-4959.379811,7105.977043
2021.688335,-1225.752797,-5329.482782,12435.459826
2021.688652,-3983.696590,-4219.173869,15840.407159
2021.688970,-5822.325785,-1702.473667,17024.736666
2021.689287,-5592.497135,2368.659014,16506.592507
2021.689605,-3524.039291,3256.906145,14656.077652
2021.689922,-1532.190996,7772.162391,8882.471304
2021.690240,3064.381992,6661.853478,8216.285956
2021.690557,4290.134789,5995.668130,5477.523971
2021.690875,5669.106685,1776.494261,5551.544565
2021.691192,7967.393179,-1110.308913,7179.997637
2021.691510,7737.564530,-2812.782580,5625.565159
2021.691827,8197.221829,-3701.029710,6957.935855
2021.692145,4366.744339,-2516.700203,4589.276840
2021.692462,1455.581446,-2590.720797,7105.977043
2021.692780,-2604.724693,-1184.329507,9918.759623
2021.693097,-5439.278036,-1036.288319,14359.995275
2021.693415,-7660.954980,888.247130,16580.613101
2021.693732,-7354.516781,3108.864956,17912.983796
2021.694050,-4903.011187,4293.194464,14656.077652
2021.694367,-2068.457845,6957.935855,10214.842000
2021.694685,2451.505594,5921.647536,9474.636058
2021.695002,3600.648841,5329.482782,5181.441594
2021.695320,5898.935335,2220.617826,4367.215058
2021.695637,7737.564530,-814.226536,5551.544565
2021.695955,7660.954980,-2812.782580,5181.441594
2021.696272,7967.393179,-2960.823768,5625.565159
2021.696590,4596.572988,-3775.050304,5033.400406
2021.696907,842.705048,-2886.803174,4737.318029
2021.697225,-2374.896044,-2516.700203,9400.615463
2021.697542,-6205.373534,-2442.679609,13545.768739
2021.697860,-8350.440928,-3256.906145,17542.880825
2021.698177,-9882.631924,-666.185348,17616.901420
2021.698495,-7967.393179,1924.535449,15618.345376
2021.698812,-4979.620737,4663.297435,11547.212695
2021.699130,-536.266849,4737.318029,10881.027347
2021.699447,2145.067394,5033.400406,6513.812290
2021.699765,4749.792088,3404.947333,5255.462188
2021.700082,6358.592633,888.247130,6217.729913
2021.700400,6894.859482,-3256.906145,6809.894666
2021.700717,6205.373534,-3775.050304,6883.915261
2021.701035,3753.867940,-2368.659014,3701.029710
2021.701352,1225.752797,-592.164754,4959.379811
2021.701670,-1149.143247,370.102971,8512.368333
2021.701987,-3217.601092,814.226536,12065.356855
2021.702305,-5822.325785,1480.411884,13693.809927
2021.702622,-6665.030833,2442.679609,15988.448347
2021.702939,-5745.716235,3256.906145,14804.118840
2021.703257,-2528.115143,3997.112087,11917.315666
2021.703574,1991.848295,4811.338623,8808.450710
2021.703892,4443.353888,5477.523971,6587.832884
2021.704209,6971.469032,3775.050304,5551.544565
2021.704527,9039.926876,888.247130,5477.523971
2021.704844,8580.269578,-2812.782580,5699.585753
2021.705162,8197.221829,-4145.153275,7105.977043
2021.705479,4749.792088,-4367.215058,5255.462188
2021.705797,3064.381992,-3330.926739,5921.647536
2021.706114,229.828649,-2368.659014,9474.636058
2021.706432,-2145.067394,-1036.288319,11917.315666
2021.706749,-3677.258390,-0.000000,14359.995275
2021.707067,-5362.668486,1702.473667,13989.892304
2021.707384,-4826.401637,1406.391290,15026.180623
2021.707702,-3677.258390,2812.782580,12287.418637
2021.708019,306.438199,2960.823768,10584.944971
2021.708337,2834.553343,3478.967927,7994.224174
2021.708654,5592.497135,1998.556043,7550.100608
2021.708972,8427.050478,-740.205942,7624.121203
2021.709289,8656.879127,-4145.153275,6069.688724
2021.709607,8656.879127,-5995.668130,7994.224174
2021.709924,4903.011187,-4959.379811,5551.544565
2021.710242,3217.601092,-2886.803174,8142.265362
2021.710559,536.266849,148.041188,9252.574275
2021.710877,-1378.971896,1406.391290,10807.006753
2021.711194,-3217.601092,2442.679609,13101.645173
2021.711512,-5286.058936,4145.153275,13619.789333
2021.711829,-4443.353888,2812.782580,14582.057057
2021.712147,-3753.867940,3552.988522,11991.336260
2021.712464,689.485948,2072.576638,11843.295072
2021.712782,3447.429741,2664.741391,8882.471304
2021.713099,5592.497135,1480.411884,7772.162391
2021.713417,8044.002729,-2146.597232,8586.388927
2021.713734,8580.269578,-5329.482782,7402.059420
2021.714052,7967.393179,-5181.441594,6661.853478
2021.714369,4903.011187,-3923.091493,3775.050304
2021.714687,1608.800546,-2368.659014,4219.173869
2021.715004,-1225.752797,-1036.288319,7846.182985
2021.715322,-4519.963438,-296.082377,10066.800811
2021.715639,-6741.640382,518.144159,13323.706956
2021.715957,-8197.221829,1554.432478,13397.727550
2021.716274,-7814.174080,1110.308913,13471.748144
2021.716592,-6894.859482,1998.556043,10214.842000
2021.716909,-3677.258390,-0.000000,13323.706956
2021.717227,-1072.533697,740.205942,10362.883188
2021.717544,3524.039291,444.123565,9030.512492
2021.717862,7354.516781,148.041188,7772.162391
2021.718179,8963.317327,-2368.659014,6957.935855
2021.718496,8350.440928,-2220.617826,4441.235652
2021.718814,5669.106685,-1406.391290,2516.700203
2021.719131,2298.286494,-888.247130,3182.885551
2021.719449,-1915.238745,444.123565,4811.338623
2021.719766,-3677.258390,1184.329507,9104.533087
2021.720084,-6511.811733,3182.885551,11917.315666
2021.720401,-7277.907231,2220.617826,14582.057057
2021.720719,-6818.249932,1702.473667,13397.727550
2021.721036,-6052.154434,2294.638420,12139.377449
2021.721354,-1991.848295,592.164754,13767.830521
2021.721671,842.705048,888.247130,9918.759623
2021.721989,4136.915689,444.123565,9104.533087
2021.722306,9269.755526,888.247130,9548.656652
2021.722624,10418.898773,222.061783,5033.400406
2021.722941,11184.994271,-592.164754,4441.235652
2021.723259,8656.879127,-0.000000,3404.947333
2021.723576,3140.991542,222.061783,1924.535449
2021.723894,-383.047749,-148.041188,6217.729913
2021.724211,-3217.601092,-370.102971,11103.089130
2021.724529,-5056.230287,-592.164754,13767.830521
2021.724846,-6205.373534,296.082377,14434.015869
2021.725164,-5209.449386,1332.370696,14434.015869
2021.725481,-4136.915689,2294.638420,11843.295072
2021.725799,-995.924147,222.061783,12953.603985
2021.726116,383.047749,296.082377,11473.192101
2021.726434,2298.286494,-0.000000,10140.821405
2021.726751,5822.325785,814.226536,9992.780217
2021.727069,8044.002729,296.082377,7328.038826
2021.727386,8427.050478,148.041188,5033.400406
2021.727704,6741.640382,1036.288319,2812.782580
2021.728021,3217.601092,666.185348,3997.112087
2021.728339,-612.876398,-518.144159,7031.956449
2021.728656,-2757.943793,-740.205942,12583.501014
2021.728974,-4826.401637,592.164754,14211.954086
2021.729291,-6281.983084,2664.741391,14656.077652
2021.729609,-5286.058936,2220.617826,16062.468941
2021.729926,-4903.011187,2220.617826,12065.356855
2021.730244,-1685.410096,1554.432478,13323.706956
2021.730561,153.219100,1036.288319,12805.562797
2021.730879,3447.429741,-148.041188,12361.439231
2021.731196,7124.688131,-296.082377,11325.150913
2021.731514,10572.117872,-1702.473667,8882.471304
2021.731831,11951.089769,-1776.494261,4737.318029
2021.732149,10878.556072,-1776.494261,2812.782580
2021.732466,7814.174080,-1924.535449,1924.535449
2021.732784,3907.087040,-1998.556043,4515.256246
2021.733101,0.000000,-740.205942,9252.574275
2021.733419,-2451.505594,-222.061783,11843.295072
2021.733736,-5439.278036,1554.432478,13323.706956
2021.734054,-5745.716235,444.123565,13471.748144
2021.734371,-5592.497135,1036.288319,12805.562797
2021.734688,-4213.525239,-74.020594,12361.439231
2021.735006,-1532.190996,-888.247130,12657.521608
2021.735323,0.000000,-2072.576638,10955.047942
2021.735641,4213.525239,-4441.235652,12287.418637
2021.735958,6971.469032,-4145.153275,10288.862594
2021.736276,9039.926876,-3404.947333,6143.709319
2021.736593,9116.536426,-592.164754,1998.556043
2021.736911,6128.763984,1628.453072,0.000000
2021.737228,2604.724693,2664.741391,2368.659014
2021.737546,-1608.800546,2516.700203,5699.585753
2021.737863,-4903.011187,2220.617826,9474.636058
2021.738181,-7660.954980,1480.411884,11843.295072
2021.738498,-8580.269578,962.267725,13027.624579
2021.738816,-7354.516781,1332.370696,12065.356855
2021.739133,-4903.011187,1036.288319,11177.109724
2021.739451,-1991.848295,-1628.453072,13175.665768
2021.739768,-383.047749,-3478.967927,12213.398043
2021.740086,4673.182538,-4959.379811,13323.706956
2021.740403,7507.735880,-4219.173869,11177.109724
2021.740721,10342.289223,-2368.659014,7254.018232
2021.741038,10418.898773,148.041188,2146.597232
2021.741356,7967.393179,3034.844362,-1184.329507
2021.741673,4673.182538,3108.864956,1702.473667
2021.741991,459.657299,3627.009116,4885.359217
2021.742308,-2374.896044,2664.741391,7994.224174
2021.742626,-5439.278036,1924.535449,9918.759623
2021.742943,-6052.154434,1332.370696,14137.933492
2021.743261,-6818.249932,-740.205942,13619.789333
2021.743578,-4979.620737,-1850.514855,13619.789333
2021.743896,-2834.553343,-2738.761985,14952.160028
2021.744213,-919.314598,-2812.782580,13915.871710
2021.744531,2834.553343,-3404.947333,14434.015869
2021.744848,6281.983084,-2442.679609,12139.377449
2021.745166,8886.707777,-1776.494261,8216.285956
2021.745483,7584.345430,1554.432478,2886.803174
2021.745801,5822.325785,3330.926739,518.144159
2021.746118,2451.505594,4293.194464,1850.514855
2021.746436,-995.924147,5033.400406,5033.400406
2021.746753,-3447.429741,2812.782580,10584.944971
2021.747071,-6205.373534,2146.597232,12509.480420
2021.747388,-6741.640382,148.041188,15174.221811
2021.747706,-6281.983084,-222.061783,15618.345376
2021.748023,-3983.696590,-962.267725,15174.221811
2021.748341,-1608.800546,-444.123565,14508.036463
2021.748658,383.047749,-1480.411884,13841.851115
2021.748976,4213.525239,-1480.411884,13027.624579
2021.749293,8350.440928,-444.123565,11843.295072
2021.749611,9959.241474,-222.061783,7476.080014
2021.749928,10189.070123,1480.411884,3182.885551
2021.750245,8350.440928,3404.947333,1036.288319
2021.750563,4673.182538,3330.926739,2368.659014
2021.750880,1378.971896,1110.308913,5921.647536
2021.751198,-2068.457845,1110.308913,9252.574275
2021.751515,-4519.963438,592.164754,12657.521608
2021.751833,-5669.106685,444.123565,14434.015869
2021.752150,-4596.572988,296.082377,15840.407159
2021.752468,-3064.381992,-0.000000,13619.789333
2021.752785,-1685.410096,-0.000000,13249.686362
2021.753103,-76.609550,-370.102971,12657.521608
2021.753420,1532.190996,-2368.659014,13471.748144
2021.753738,5439.278036,-2072.576638,12657.521608
2021.754055,8427.050478,-888.247130,8068.244768
2021.754373,8656.879127,2146.597232,2368.659014
2021.754690,8120.612279,3849.070898,-296.082377
2021.755008,4596.572988,2812.782580,1184.329507
2021.755325,-229.828649,1110.308913,4367.215058
2021.755643,-3064.381992,740.205942,9104.533087
2021.755960,-6588.421283,888.247130,11251.130318
2021.756278,-8044.002729,-0.000000,14508.036463
2021.756595,-7507.735880,148.041188,14804.118840
2021.756913,-6205.373534,666.185348,13027.624579
2021.757230,-2604.724693,-74.020594,13249.686362
2021.757548,-1608.800546,-444.123565,12065.356855
2021.757865,1455.581446,-2812.782580,12879.583391
2021.758183,4903.011187,-3478.967927,11695.253884
2021.758500,7431.126331,-3330.926739,9474.636058
2021.758818,8350.440928,-1554.432478,3997.112087
2021.759135,6511.811733,740.205942,0.000000
2021.759453,4366.744339,1702.473667,74.020594
2021.759770,612.876398,1258.350101,3775.050304
2021.760088,-1685.410096,444.123565,8586.388927
2021.760405,-6281.983084,814.226536,8734.430116
2021.760723,-7048.078582,222.061783,12287.418637
2021.761040,-7737.564530,-0.000000,13249.686362
2021.761358,-4903.011187,740.205942,11177.109724
2021.761675,-2221.676944,-2072.576638,11621.233289
2021.761993,-766.095498,-518.144159,12361.439231
2021.762310,2374.896044,-3034.844362,14063.912898
2021.762628,5745.716235,-4589.276840,13767.830521
2021.762945,8350.440928,-3923.091493,11325.150913
2021.763263,9806.022374,-148.041188,6143.709319
2021.763580,8810.098227,3923.091493,-296.082377
2021.763898,5898.935335,5107.421000,-888.247130
2021.764215,2911.162892,4515.256246,3108.864956
2021.764533,-536.266849,4515.256246,6291.750507
2021.764850,-3600.648841,1998.556043,9104.533087
2021.765168,-5439.278036,222.061783,13545.768739
2021.765485,-5975.544884,-962.267725,15100.201217
2021.765802,-3294.210641,-1332.370696,13841.851115
2021.766120,-1762.019645,-1776.494261,12879.583391
2021.766437,-459.657299,-3478.967927,14063.912898
2021.766755,2987.772442,-4367.215058,14656.077652
2021.767072,6281.983084,-3627.009116,13323.706956
2021.767390,9806.022374,-3627.009116,11547.212695
2021.767707,10648.727422,-0.000000,6883.915261
2021.768025,9346.365076,4219.173869,-740.205942
2021.768342,6281.983084,5181.441594,518.144159
2021.768660,1838.629195,5255.462188,2368.659014
2021.768977,-1838.629195,3775.050304,7179.997637
2021.769295,-5592.497135,3108.864956,9178.553681
2021.769612,-6818.249932,1406.391290,15248.242405
2021.769930,-7277.907231,-962.267725,15914.427753
2021.770247,-5209.449386,-2442.679609,15248.242405
2021.770565,-3217.601092,-3552.988522,15248.242405
2021.770882,-2145.067394,-2368.659014,14359.995275
2021.771200,1685.410096,-2960.823768,15692.365970
2021.771517,6205.373534,-2368.659014,15248.242405
2021.771835,10112.460574,-1702.473667,11991.336260
2021.772152,10648.727422,2368.659014,4441.235652
2021.772470,10418.898773,6291.750507,-740.205942
2021.772787,6665.030833,8068.244768,-3182.885551
2021.773105,2221.676944,7846.182985,148.041188
2021.773422,-1225.752797,5921.647536,3701.029710
2021.773740,-5745.716235,5921.647536,6069.688724
2021.774057,-8044.002729,740.205942,12953.603985
2021.774375,-10112.460574,-2812.782580,16580.613101
2021.774692,-9269.755526,-4515.256246,17616.901420
2021.775010,-5898.935335,-4219.173869,17987.004391
2021.775327,-4060.306139,-3997.112087,16580.613101
2021.775645,-995.924147,-4367.215058,15692.365970
2021.775962,3830.477490,-3330.926739,15026.180623
2021.776280,7584.345430,-3478.967927,13249.686362
2021.776597,9269.755526,666.185348,6439.791695
2021.776915,8427.050478,5995.668130,-1554.432478
2021.777232,6818.249932,8734.430116,-4737.318029
2021.777550,1915.238745,7624.121203,-1184.329507
2021.777867,-459.657299,6069.688724,3775.050304
2021.778185,-5975.544884,2368.659014,6439.791695
2021.778502,-7814.174080,-592.164754,11695.253884
2021.778820,-9269.755526,-4737.318029,13989.892304
2021.779137,-9116.536426,-4885.359217,16210.510130
2021.779455,-4443.353888,-7254.018232,17468.860231
2021.779772,-3600.648841,-5033.400406,14434.015869
2021.780090,-383.047749,-4145.153275,15692.365970
2021.780407,3524.039291,-2368.659014,15248.242405
2021.780725,8350.440928,-1480.411884,12361.439231
2021.781042,9422.974625,2960.823768,6513.812290
2021.781360,10648.727422,8068.244768,74.020594
2021.781677,7277.907231,10288.862594,-4663.297435
2021.781995,6128.763984,8882.471304,-518.144159
2021.782312,1991.848295,4959.379811,3478.967927
2021.782629,-1302.362347,3404.947333,6439.791695
2021.782947,-2298.286494,-1258.350101,11251.130318
2021.783264,-4749.792088,-1628.453072,13471.748144
2021.783582,-2604.724693,-5551.544565,15544.324782
2021.783899,-1072.533697,-3923.091493,13471.748144
2021.784217,0.000000,-4737.318029,12805.562797
2021.784534,919.314598,-4367.215058,14063.912898
2021.784852,3753.867940,-4145.153275,14434.015869
2021.785169,7890.783629,-3701.029710,11843.295072
2021.785487,9422.974625,-518.144159,8142.265362
2021.785804,9269.755526,1850.514855,4145.153275
2021.786122,6971.469032,4737.318029,-666.185348
2021.786439,4290.134789,3775.050304,518.144159
2021.786757,536.266849,3256.906145,5329.482782
2021.787074,-2911.162892,1406.391290,7698.141797
2021.787392,-5822.325785,1850.514855,10732.986159
2021.787709,-5132.839837,-2072.576638,15026.180623
2021.788027,-6205.373534,-2516.700203,14582.057057
2021.788344,-3677.258390,-3849.070898,14211.954086
2021.788662,-2987.772442,-3997.112087,14211.954086
2021.788979,-1838.629195,-4145.153275,14211.954086
2021.789297,3830.477490,-5033.400406,16728.654289
2021.789614,7277.907231,-4737.318029,13841.851115
2021.789932,9806.022374,-1628.453072,8068.244768
2021.790249,9576.193725,3701.029710,2812.782580
2021.790567,7584.345430,6069.688724,-1036.288319
2021.790884,5362.668486,6513.812290,592.164754
2021.791202,1532.190996,6513.812290,2960.823768
2021.791519,-3370.820191,5255.462188,6661.853478
2021.791837,-5975.544884,4441.235652,8290.306550
2021.792154,-6971.469032,814.226536,15322.262999
2021.792472,-7124.688131,-2960.823768,14211.954086
2021.792789,-6128.763984,-5773.606348,16876.695478
2021.793107,-5056.230287,-4589.276840,14359.995275
2021.793424,-2451.505594,-7105.977043,16654.633695
2021.793742,2221.676944,-5921.647536,16876.695478
2021.794059,6511.811733,-6069.688724,16062.468941
2021.794377,8733.488677,-1702.473667,8734.430116
2021.794694,10112.460574,3701.029710,2738.761985
2021.795012,7660.954980,7624.121203,-1702.473667
2021.795329,3753.867940,8660.409521,-1776.494261
2021.795647,153.219100,7698.141797,2442.679609
2021.795964,-5132.839837,6291.750507,3923.091493
2021.796282,-6894.859482,3108.864956,9548.656652
2021.796599,-7890.783629,-0.000000,12435.459826
2021.796917,-7354.516781,-3330.926739,13989.892304
2021.797234,-4903.011187,-4737.318029,14804.118840
2021.797552,-3983.696590,-6587.832884,15618.345376
2021.797869,-2298.286494,-5995.668130,15840.407159
2021.798187,1991.848295,-3923.091493,15396.283594
2021.798504,6205.373534,-2812.782580,15100.201217
2021.798822,8886.707777,-222.061783,10066.800811
2021.799139,9806.022374,5551.544565,4663.297435
2021.799456,8044.002729,10288.862594,-1554.432478
2021.799774,5286.058936,11695.253884,-1924.535449
2021.800091,2911.162892,10510.924376,666.185348
2021.800409,-689.485948,8438.347739,4219.173869
2021.800726,-3677.258390,4441.235652,6439.791695
2021.801044,-4213.525239,-0.000000,11769.274478
2021.801361,-4826.401637,-3330.926739,13471.748144
2021.801679,-2451.505594,-6143.709319,15470.304188
2021.801996,-2528.115143,-7105.977043,15100.201217
2021.802314,-1455.581446,-7105.977043,16210.510130
2021.802631,995.924147,-6735.874072,17616.901420
2021.802949,4826.401637,-5625.565159,16210.510130
2021.803266,8197.221829,-3330.926739,11029.068536
2021.803584,8580.269578,3034.844362,3997.112087
2021.803901,7660.954980,7476.080014,-296.082377
2021.804219,5132.839837,8068.244768,-222.061783
2021.804536,1991.848295,7031.956449,3108.864956
2021.804854,-1455.581446,4219.173869,5625.565159
2021.805171,-4136.915689,1406.391290,9104.533087
2021.805489,-5592.497135,-888.247130,13397.727550
2021.805806,-5209.449386,-3404.947333,14211.954086
2021.806124,-3753.867940,-5329.482782,14508.036463
2021.806441,-1608.800546,-5847.626942,15100.201217
2021.806759,0.000000,-6735.874072,15840.407159
2021.807076,2681.334243,-6513.812290,16580.613101
2021.807394,6511.811733,-6439.791695,15100.201217
2021.807711,9499.584175,-3330.926739,10807.006753
2021.808029,10572.117872,2442.679609,3775.050304
2021.808346,9039.926876,7105.977043,-1554.432478
2021.808664,6205.373534,9104.533087,-444.123565
2021.808981,3064.381992,8068.244768,2442.679609
2021.809299,-1302.362347,6291.750507,3997.112087
2021.809616,-4673.182538,3182.885551,7402.059420
2021.809934,-6128.763984,-0.000000,13101.645173
2021.810251,-7124.688131,-3552.988522,14063.912898
2021.810569,-5439.278036,-6439.791695,14359.995275
2021.810886,-5056.230287,-7031.956449,15618.345376
2021.811204,-3524.039291,-7031.956449,15914.427753
2021.811521,0.000000,-6957.935855,16580.613101
2021.811839,3830.477490,-6291.750507,15840.407159
2021.812156,8120.612279,-3478.967927,12065.356855
2021.812474,9193.145976,1850.514855,4737.318029
2021.812791,7967.393179,6587.832884,-1628.453072
2021.813109,5745.716235,7624.121203,-1184.329507
2021.813426,2298.286494,7179.997637,962.267725
2021.813744,-1072.533697,6143.709319,2220.617826
2021.814061,-4673.182538,4145.153275,5329.482782
2021.814379,-6818.249932,1036.288319,10658.965565
2021.814696,-7124.688131,-1998.556043,12879.583391
2021.815014,-5439.278036,-5033.400406,13693.809927
2021.815331,-5209.449386,-7105.977043,15914.427753
2021.815649,-4443.353888,-7698.141797,16580.613101
2021.815966,-1149.143247,-7624.121203,18061.024985
2021.816283,3140.991542,-5773.606348,16876.695478
2021.816601,7967.393179,-2738.761985,14285.974681
2021.816918,9652.803275,3108.864956,5181.441594
2021.817236,9576.193725,8512.368333,-518.144159
2021.817553,7584.345430,11843.295072,-2368.659014
2021.817871,4903.011187,10881.027347,222.061783
2021.818188,995.924147,9252.574275,1480.411884
2021.818506,-1991.848295,5921.647536,5181.441594
2021.818823,-4519.963438,2368.659014,9474.636058
2021.819141,-5515.887586,-1850.514855,12065.356855
2021.819458,-3600.648841,-5625.565159,14878.139434
2021.819776,-3370.820191,-7550.100608,14582.057057
2021.820093,-2068.457845,-7920.203579,17024.736666
2021.820411,459.657299,-7920.203579,18357.107362
2021.820728,4136.915689,-8216.285956,18875.251521
2021.821046,7507.735880,-5625.565159,14285.974681
2021.821363,9882.631924,1332.370696,7550.100608
2021.821681,10035.851024,7476.080014,1036.288319
2021.821998,8197.221829,11177.109724,-2516.700203
2021.822316,5362.668486,11473.192101,-1036.288319
2021.822633,383.047749,10140.821405,1184.329507
2021.822951,-4136.915689,5625.565159,4811.338623
2021.823268,-7124.688131,1036.288319,10140.821405
2021.823586,-8350.440928,-3330.926739,14137.933492
2021.823903,-7431.126331,-7179.997637,15914.427753
2021.824221,-6511.811733,-9178.553681,18357.107362
2021.824538,-5132.839837,-9992.780217,18505.148550
2021.824856,-2145.067394,-8956.491898,19615.457463
2021.825173,2145.067394,-7254.018232,18949.272115
2021.825491,6358.592633,-4589.276840,15692.365970
2021.825808,8963.317327,1776.494261,8364.327145
2021.826126,9652.803275,8438.347739,888.247130
2021.826443,8350.440928,12213.398043,-2590.720797
2021.826761,5362.668486,13027.624579,-1702.473667
2021.827078,2068.457845,11177.109724,814.226536
2021.827396,-1608.800546,7772.162391,3034.844362
2021.827713,-4366.744339,2960.823768,7624.121203
2021.828031,-5362.668486,-2886.803174,13249.686362
2021.828348,-5515.887586,-6957.935855,15248.242405
2021.828666,-4519.963438,-10066.800811,16802.674883
2021.828983,-4979.620737,-9992.780217,17764.942608
2021.829301,-2451.505594,-9326.594869,19097.313304
2021.829618,1378.971896,-7105.977043,17987.004391
2021.829936,4903.011187,-4367.215058,14211.954086
2021.830253,7201.297681,1258.350101,8660.409521
2021.830571,7507.735880,6957.935855,1628.453072
2021.830888,7431.126331,10658.965565,-2368.659014
2021.831206,5056.230287,11917.315666,-2072.576638
2021.831523,1455.581446,9326.594869,-444.123565
2021.831841,-2221.676944,7031.956449,1554.432478
2021.832158,-4903.011187,2368.659014,6143.709319
2021.832476,-6741.640382,-2738.761985,10510.924376
2021.832793,-7354.516781,-6439.791695,13693.809927
2021.833110,-5975.544884,-8216.285956,15692.365970
2021.833428,-5362.668486,-8586.388927,16654.633695
2021.833745,-3753.867940,-8142.265362,18653.189738
2021.834063,-995.924147,-6735.874072,17987.004391
2021.834380,2528.115143,-3923.091493,14878.139434
2021.834698,5975.544884,592.164754,9030.512492
2021.835015,6741.640382,6587.832884,3849.070898
2021.835333,7431.126331,10732.986159,888.247130
2021.835650,6741.640382,12509.480420,-370.102971
2021.835968,3447.429741,11547.212695,-296.082377
2021.836285,842.705048,8660.409521,1776.494261
2021.836603,-2298.286494,4663.297435,5773.606348
2021.836920,-5132.839837,148.041188,10066.800811
2021.837238,-4596.572988,-4737.318029,13841.851115
2021.837555,-4979.620737,-6143.709319,15840.407159
2021.837873,-4136.915689,-7254.018232,18357.107362
2021.838190,-2068.457845,-8068.244768,18727.210333
2021.838508,76.609550,-8290.306550,18801.230927
2021.838825,4749.792088,-7402.059420,18357.107362
2021.839143,7124.688131,-4145.153275,12361.439231
2021.839460,8810.098227,3182.885551,5847.626942
2021.839778,9959.241474,8438.347739,592.164754
2021.840095,8886.707777,11695.253884,74.020594
2021.840413,5822.325785,11251.130318,74.020594
2021.840730,1991.848295,9104.533087,1036.288319
2021.841048,-2374.896044,5181.441594,3923.091493
2021.841365,-4596.572988,-962.267725,10288.862594
2021.841683,-6205.373534,-5625.565159,14434.015869
2021.842000,-5898.935335,-9178.553681,17172.777854
2021.842318,-6358.592633,-10436.903782,18505.148550
2021.842635,-3983.696590,-9844.739029,19467.416275
2021.842953,-306.438199,-9622.677246,20059.581028
2021.843270,4060.306139,-7698.141797,18209.066173
2021.843588,7584.345430,-2516.700203,13101.645173
2021.843905,9959.241474,3627.009116,5773.606348
2021.844223,10112.460574,9548.656652,1110.308913
2021.844540,9269.755526,12953.603985,-1628.453072
2021.844858,6205.373534,13545.768739,-1258.350101
2021.845175,2757.943793,11473.192101,-740.205942
2021.845493,-1455.581446,6957.935855,1702.473667
2021.845810,-4366.744339,1998.556043,7031.956449
2021.846128,-5286.058936,-4589.276840,12509.480420
2021.846445,-5592.497135,-8956.491898,15396.283594
2021.846763,-4979.620737,-11769.274478,18061.024985
2021.847080,-3983.696590,-11991.336260,20281.642811
2021.847398,-1838.629195,-11325.150913,20429.683999
2021.847715,2911.162892,-7179.997637,18579.169144
2021.848033,5515.887586,-2812.782580,12213.398043
2021.848350,8120.612279,3478.967927,6291.750507
2021.848668,8886.707777,9770.718434,0.000000
2021.848985,8427.050478,14211.954086,-3923.091493
2021.849303,4749.792088,15026.180623,-5033.400406
2021.849620,536.266849,12139.377449,-2738.761985
2021.849938,-3753.867940,7031.956449,148.041188
2021.850255,-6511.811733,222.061783,6735.874072
2021.850572,-8963.317327,-6513.812290,12657.521608
2021.850890,-9499.584175,-11103.089130,17987.004391
2021.851207,-9576.193725,-13545.768739,19837.519246
2021.851525,-7354.516781,-11769.274478,22354.219448
2021.851842,-4290.134789,-9918.759623,21614.013506
2021.852160,-612.876398,-6365.771101,18357.107362
2021.852477,3830.477490,-666.185348,13693.809927
2021.852795,6665.030833,4885.359217,7031.956449
2021.853112,8273.831378,10881.027347,888.247130
2021.853430,8120.612279,14285.974681,-3108.864956
2021.853747,6894.859482,15766.386565,-3552.988522
2021.854065,2987.772442,13175.665768,-2812.782580
2021.854382,-536.266849,7105.977043,370.102971
2021.854700,-2757.943793,666.185348,6809.894666
2021.855017,-5056.230287,-4293.194464,11769.274478
2021.855335,-5286.058936,-7920.203579,16062.468941
2021.855652,-5132.839837,-11103.089130,18949.272115
2021.855970,-3677.258390,-11103.089130,21465.972318
2021.856287,-1991.848295,-8808.450710,21317.931130
2021.856605,1685.410096,-5995.668130,19319.375086
2021.856922,6205.373534,-1406.391290,14508.036463
2021.857240,9729.412825,3552.988522,7994.224174
2021.857557,11644.651570,8660.409521,2738.761985
2021.857875,11261.603821,12509.480420,-2072.576638
2021.858192,9116.536426,13101.645173,-2442.679609
2021.858510,6511.811733,11325.150913,-2146.597232
2021.858827,2757.943793,8956.491898,-370.102971
2021.859145,-459.657299,2738.761985,4145.153275
2021.859462,-3294.210641,-3256.906145,10066.800811
2021.859780,-5592.497135,-8512.368333,15544.324782
2021.860097,-6818.249932,-11473.192101,18801.230927
2021.860415,-6665.030833,-11917.315666,21391.951724
2021.860732,-5669.106685,-10214.842000,22576.281231
2021.861050,-2528.115143,-7328.038826,19615.457463
2021.861367,1225.752797,-4441.235652,16136.489536
2021.861685,4290.134789,740.205942,9548.656652
2021.862002,7048.078582,6291.750507,4959.379811
2021.862320,7660.954980,10510.924376,148.041188
2021.862637,6358.592633,12213.398043,-1480.411884
2021.862955,3677.258390,11843.295072,-592.164754
2021.863272,689.485948,8290.306550,1406.391290
2021.863590,-3140.991542,3108.864956,4885.359217
2021.863907,-4826.401637,-2516.700203,11621.233289
2021.864225,-5898.935335,-6587.832884,15692.365970
2021.864542,-5745.716235,-7994.224174,17320.819043
2021.864860,-4290.134789,-9474.636058,18431.127956
2021.865177,-2068.457845,-8586.388927,19985.560434
2021.865495,842.705048,-7402.059420,18579.169144
2021.865812,4290.134789,-4811.338623,15174.221811
2021.866130,7048.078582,-1258.350101,9474.636058
2021.866447,9346.365076,4589.276840,4071.132681
2021.866765,9806.022374,9252.574275,-666.185348
2021.867082,8427.050478,12361.439231,-2812.782580
2021.867399,4903.011187,11325.150913,-1258.350101
2021.867717,842.705048,8068.244768,-1702.473667
2021.868034,-3140.991542,3182.885551,3330.926739
2021.868352,-6052.154434,-1998.556043,9178.553681
2021.868669,-7124.688131,-7031.956449,14359.995275
2021.868987,-7584.345430,-9844.739029,17394.839637
2021.869304,-7124.688131,-10140.821405,19541.436869
2021.869622,-4290.134789,-10214.842000,22132.157666
2021.869939,-1532.190996,-8512.368333,20133.601622
2021.870256,3217.601092,-5255.462188,18209.066173
2021.870574,6741.640382,-370.102971,11029.068536
2021.870891,8886.707777,4959.379811,3997.112087
2021.871208,11491.432470,9696.697840,-1702.473667
2021.871526,10189.070123,12953.603985,-4293.194464
2021.871843,6435.202183,12509.480420,-5403.503377
2021.872160,2451.505594,9474.636058,-4589.276840
2021.872478,-2451.505594,5403.503377,-370.102971
2021.872795,-5362.668486,-1776.494261,7772.162391
2021.873113,-7814.174080,-7179.997637,14434.015869
2021.873430,-9806.022374,-10436.903782,18061.024985
2021.873747,-8656.879127,-12657.521608,21688.034101
2021.874065,-6128.763984,-11547.212695,23612.569550
2021.874382,-3140.991542,-9178.553681,22058.137072
2021.874699,1991.848295,-5551.544565,18653.189738
2021.875017,6128.763984,-296.082377,13101.645173
2021.875334,9806.022374,5033.400406,6661.853478
2021.875651,12487.356617,10436.903782,888.247130
2021.875969,11184.994271,15322.262999,-5773.606348
2021.876286,9039.926876,14804.118840,-6513.812290
2021.876604,5209.449386,12509.480420,-5033.400406
2021.876921,1225.752797,6291.750507,-444.123565
2021.877238,-3447.429741,-592.164754,5625.565159
2021.877556,-6128.763984,-5995.668130,12731.542202
2021.877873,-7354.516781,-9844.739029,17616.901420
2021.878190,-7660.954980,-12065.356855,22058.137072
2021.878508,-5975.544884,-13101.645173,24796.899057
2021.878825,-3907.087040,-9844.739029,23464.528361
2021.879142,-536.266849,-7105.977043,20281.642811
2021.879460,4443.353888,-2368.659014,15396.283594
2021.879777,7737.564530,3775.050304,8882.471304
2021.880095,9193.145976,9770.718434,1480.411884
2021.880412,8810.098227,14582.057057,-3552.988522
2021.880729,6435.202183,15692.365970,-3478.967927
2021.881047,3294.210641,12657.521608,-2886.803174
2021.881364,-229.828649,8068.244768,888.247130
2021.881681,-3677.258390,518.144159,7031.956449
2021.881999,-5898.935335,-4589.276840,13989.892304
2021.882316,-7354.516781,-10066.800811,17320.819043
2021.882633,-7354.516781,-11769.274478,20873.807564
2021.882951,-5439.278036,-11769.274478,23982.672521
2021.883268,-3217.601092,-9622.677246,23612.569550
2021.883586,153.219100,-5995.668130,19393.395680
2021.883903,4060.306139,-2072.576638,14508.036463
2021.884220,7048.078582,3478.967927,7846.182985
2021.884538,9729.412825,8290.306550,3182.885551
2021.884855,10189.070123,11029.068536,-2294.638420
2021.885172,8197.221829,12583.501014,-4145.153275
2021.885490,5209.449386,10584.944971,-3108.864956
2021.885807,1685.410096,6439.791695,-666.185348
2021.886124,-689.485948,666.185348,4885.359217
2021.886442,-3447.429741,-3034.844362,9474.636058
2021.886759,-5669.106685,-7179.997637,13989.892304
2021.887077,-6435.202183,-9030.512492,18283.086767
2021.887394,-5592.497135,-9918.759623,22946.384202
2021.887711,-4290.134789,-7550.100608,21317.931130
2021.888029,-1302.362347,-6587.832884,19097.313304
2021.888346,2911.162892,-4589.276840,16284.530724
2021.888663,6665.030833,-1184.329507,10881.027347
2021.888981,10189.070123,4663.297435,3034.844362
2021.889298,11414.822920,9474.636058,-2072.576638
2021.889615,10035.851024,11547.212695,-4515.256246
2021.889933,6971.469032,11473.192101,-4737.318029
2021.890250,2604.724693,8512.368333,-2516.700203
2021.890568,-2221.676944,3627.009116,1554.432478
2021.890885,-5209.449386,-1850.514855,8142.265362
2021.891202,-7507.735880,-6513.812290,14137.933492
2021.891520,-8656.879127,-9548.656652,17616.901420
2021.891837,-7354.516781,-10362.883188,20725.766376
2021.892154,-5439.278036,-10140.821405,21762.054695
2021.892472,-2757.943793,-9918.759623,20133.601622
2021.892789,1991.848295,-7402.059420,17912.983796
2021.893106,6128.763984,-1850.514855,11547.212695
2021.893424,9499.584175,3552.988522,5329.482782
2021.893741,11184.994271,9696.697840,-444.123565
2021.894059,10265.679673,13027.624579,-4071.132681
2021.894376,6971.469032,14508.036463,-5477.523971
2021.894693,2145.067394,11029.068536,-3849.070898
2021.895011,-2604.724693,5699.585753,444.123565
2021.895328,-5439.278036,370.102971,7031.956449
2021.895645,-7507.735880,-5403.503377,12435.459826
2021.895963,-8427.050478,-9622.677246,17764.942608
2021.896280,-8350.440928,-11547.212695,20725.766376
2021.896597,-5592.497135,-13471.748144,24500.816680
2021.896915,-3294.210641,-10584.944971,22058.137072
2021.897232,1685.410096,-7328.038826,20281.642811
2021.897549,5822.325785,-3552.988522,15100.201217
2021.897867,10112.460574,2960.823768,9696.697840
2021.898184,13176.842566,8216.285956,3330.926739
2021.898502,12947.013916,12805.562797,-3256.906145
2021.898819,12257.527968,13841.851115,-4145.153275
2021.899136,8963.317327,12065.356855,-4293.194464
2021.899454,5515.887586,7254.018232,0.000000
2021.899771,2298.286494,-74.020594,6069.688724
2021.900088,-612.876398,-5847.626942,11103.089130
2021.900406,-2221.676944,-11547.212695,17394.839637
2021.900723,-2298.286494,-14211.954086,21614.013506
2021.901040,-842.705048,-13767.830521,23242.466579
2021.901358,153.219100,-13175.665768,22280.198854
2021.901675,2681.334243,-11251.130318,20873.807564
2021.901993,4903.011187,-8068.244768,16580.613101
2021.902310,7584.345430,-1924.535449,10807.006753
2021.902627,9882.631924,5329.482782,4293.194464
2021.902945,10342.289223,9030.512492,1184.329507
2021.903262,9806.022374,9992.780217,0.000000
2021.903579,7814.174080,7624.121203,296.082377
2021.903897,4903.011187,3923.091493,1850.514855
2021.904214,3600.648841,-1480.411884,6957.935855
2021.904531,2604.724693,-6661.853478,10732.986159
2021.904849,2987.772442,-9474.636058,13101.645173
2021.905166,2757.943793,-10140.821405,13915.871710
2021.905484,1225.752797,-11029.068536,14211.954086
2021.905801,459.657299,-9770.718434,15988.448347
2021.906118,766.095498,-8734.430116,16876.695478
2021.906436,1378.971896,-5773.606348,13915.871710
2021.906753,1915.238745,-0.000000,8882.471304
2021.907070,3447.429741,2442.679609,7031.956449
2021.907388,5669.106685,3997.112087,5329.482782
2021.907705,6281.983084,2738.761985,3775.050304
2021.908022,6281.983084,2146.597232,1924.535449
2021.908340,5975.544884,592.164754,1850.514855
2021.908657,5745.716235,-1184.329507,3849.070898
2021.908975,5056.230287,-2960.823768,4737.318029
2021.909292,2834.553343,-4293.194464,5033.400406
2021.909609,153.219100,-5477.523971,6735.874072
2021.909927,-2757.943793,-6143.709319,10510.924376
2021.910244,-4443.353888,-6883.915261,13693.809927
2021.910561,-4213.525239,-7772.162391,16062.468941
2021.910879,-3447.429741,-6735.874072,14730.098246
2021.911196,-2374.896044,-5403.503377,12583.501014
2021.911513,0.000000,-4219.173869,10658.965565
2021.911831,3064.381992,-1702.473667,8438.347739
2021.912148,5669.106685,-74.020594,5255.462188
2021.912466,7277.907231,3256.906145,3256.906145
2021.912783,7660.954980,5107.421000,2886.803174
2021.913100,6511.811733,4737.318029,2516.700203
2021.913418,4596.572988,1924.535449,3108.864956
2021.913735,1762.019645,-1924.535449,6809.894666
2021.914052,-1532.190996,-4737.318029,10066.800811
2021.914370,-2911.162892,-5625.565159,12731.542202
2021.914687,-1455.581446,-6439.791695,14804.118840
2021.915004,0.000000,-6661.853478,15470.304188
2021.915322,1915.238745,-6217.729913,14137.933492
2021.915639,3447.429741,-3034.844362,9992.780217
2021.915957,5669.106685,-1110.308913,8142.265362
2021.916274,6052.154434,1184.329507,7624.121203
2021.916591,6052.154434,3478.967927,7624.121203
2021.916909,4903.011187,5403.503377,6661.853478
2021.917226,3447.429741,5773.606348,7031.956449
2021.917543,2528.115143,2960.823768,8364.327145
2021.917861,1685.410096,-370.102971,9918.759623
2021.918178,2068.457845,-1924.535449,10955.047942
2021.918495,2374.896044,-2960.823768,11325.150913
2021.918813,3830.477490,-3849.070898,12509.480420
2021.919130,4366.744339,-5477.523971,13619.789333
2021.919448,4903.011187,-5255.462188,13545.768739
2021.919765,4060.306139,-2146.597232,10288.862594
2021.920082,3447.429741,1036.288319,8660.409521
2021.920400,3140.991542,2590.720797,8734.430116
2021.920717,2145.067394,3701.029710,11029.068536
2021.921034,1302.362347,4293.194464,11103.089130
2021.921352,612.876398,2516.700203,10362.883188
2021.921669,1072.533697,-0.000000,10807.006753
2021.921986,2757.943793,-2442.679609,11547.212695
2021.922304,3830.477490,-4811.338623,10955.047942
2021.922621,5132.839837,-5477.523971,11103.089130
2021.922939,5439.278036,-5403.503377,11399.171507
2021.923256,5745.716235,-3256.906145,12065.356855
2021.923573,5439.278036,-1036.288319,12065.356855
2021.923891,4673.182538,1258.350101,11843.295072
2021.924208,3140.991542,2368.659014,9844.739029
2021.924525,1915.238745,2886.803174,8882.471304
2021.924843,1838.629195,2590.720797,9104.533087
2021.925160,1608.800546,1036.288319,9548.656652
2021.925477,2757.943793,-1110.308913,9326.594869
2021.925795,3907.087040,-3478.967927,8956.491898
2021.926112,4366.744339,-5107.421000,8660.409521
2021.926430,4979.620737,-6957.935855,8882.471304
2021.926747,4826.401637,-7402.059420,9252.574275
2021.927064,3983.696590,-7031.956449,10807.006753
2021.927382,3140.991542,-4293.194464,11325.150913
2021.927699,2451.505594,-1332.370696,11103.089130
2021.928016,2068.457845,-0.000000,10362.883188
2021.928334,1608.800546,222.061783,9548.656652
2021.928651,1149.143247,370.102971,7624.121203
2021.928968,2068.457845,592.164754,6365.771101
2021.929286,2374.896044,-0.000000,5033.400406
2021.929603,3217.601092,-1332.370696,5625.565159
2021.929921,3677.258390,-2590.720797,5995.668130
2021.930238,2834.553343,-4367.215058,6513.812290
2021.930555,2604.724693,-6439.791695,7920.203579
2021.930873,1991.848295,-7402.059420,9178.553681
2021.931190,1685.410096,-7476.080014,10066.800811
2021.931507,995.924147,-5995.668130,10214.842000
2021.931825,766.095498,-4293.194464,10214.842000
2021.932142,1072.533697,-2886.803174,9326.594869
2021.932459,1532.190996,-1924.535449,9178.553681
2021.932777,2374.896044,-296.082377,7772.162391
2021.933094,3217.601092,740.205942,6735.874072
2021.933412,4060.306139,1850.514855,5699.585753
2021.933729,4596.572988,1554.432478,5699.585753
2021.934046,4596.572988,-296.082377,6513.812290
2021.934364,4136.915689,-2294.638420,7105.977043
2021.934681,3370.820191,-4959.379811,7920.203579
2021.934998,3447.429741,-5847.626942,8512.368333
2021.935316,3217.601092,-5773.606348,8956.491898
2021.935633,2604.724693,-4811.338623,8586.388927
2021.935950,2528.115143,-4293.194464,9992.780217
2021.936268,1991.848295,-3404.947333,10288.862594
2021.936585,1991.848295,-2072.576638,10881.027347
2021.936903,1302.362347,-666.185348,10955.047942
2021.937220,1762.019645,222.061783,11029.068536
2021.937537,1838.629195,962.267725,11029.068536
2021.937855,1685.410096,1332.370696,10362.883188
2021.938172,2374.896044,1184.329507,9178.553681
2021.938489,2528.115143,814.226536,8956.491898
2021.938807,2987.772442,-666.185348,8512.368333
2021.939124,3753.867940,-1406.391290,8882.471304
2021.939441,4060.306139,-1776.494261,9104.533087
2021.939759,3907.087040,-2368.659014,9474.636058
2021.940076,3294.210641,-3108.864956,10288.862594
2021.940394,2987.772442,-2442.679609,11103.089130
2021.940711,2681.334243,-1554.432478,11843.295072
2021.941028,1991.848295,-666.185348,12139.377449
2021.941346,1685.410096,222.061783,12509.480420
2021.941663,1608.800546,592.164754,12509.480420
2021.941980,1838.629195,1850.514855,11695.253884
2021.942298,1685.410096,2220.617826,10288.862594
2021.942615,689.485948,2812.782580,7550.100608
2021.942932,76.609550,2812.782580,7624.121203
2021.943250,3447.429741,666.185348,10732.986159
2021.943567,2604.724693,-1332.370696,9844.739029
2021.943885,2374.896044,-4737.318029,11473.192101
2021.944202,1225.752797,-3330.926739,10584.944971
2021.944519,1532.190996,-2220.617826,10881.027347
2021.944837,2834.553343,-2442.679609,10658.965565
2021.945154,2374.896044,-1924.535449,10658.965565
2021.945471,2451.505594,-592.164754,11325.150913
2021.945789,3294.210641,1258.350101,10955.047942
2021.946106,3677.258390,2368.659014,9696.697840
2021.946423,2451.505594,2294.638420,7254.018232
2021.946741,383.047749,3552.988522,6735.874072
2021.947058,2604.724693,3034.844362,7550.100608
2021.947376,612.876398,740.205942,6217.729913
2021.947693,2374.896044,-3256.906145,9992.780217
2021.948010,1378.971896,-3108.864956,9178.553681
2021.948328,383.047749,-2590.720797,8882.471304
2021.948645,1838.629195,-5033.400406,10436.903782
2021.948962,1302.362347,-5477.523971,11399.171507
2021.949280,919.314598,-4885.359217,9770.718434
2021.949597,1149.143247,-1998.556043,9770.718434
2021.949914,842.705048,518.144159,8808.450710
2021.950232,1685.410096,1776.494261,7550.100608
2021.950549,3370.820191,3923.091493,7031.956449
2021.950867,2451.505594,2960.823768,5477.523971
2021.951184,2068.457845,888.247130,6661.853478
2021.951501,1762.019645,-1184.329507,6661.853478
2021.951819,1608.800546,-2368.659014,6587.832884
2021.952136,1608.800546,-3478.967927,7476.080014
2021.952453,1608.800546,-4737.318029,9696.697840
2021.952771,1225.752797,-5403.503377,9178.553681
2021.953088,919.314598,-5625.565159,9770.718434
2021.953405,842.705048,-5329.482782,11621.233289
2021.953723,229.828649,-4293.194464,11103.089130
2021.954040,1072.533697,-2960.823768,11103.089130
2021.954358,2451.505594,-1258.350101,9992.780217
2021.954675,3830.477490,-148.041188,9178.553681
2021.954992,5745.716235,-74.020594,9030.512492
2021.955310,7814.174080,-0.000000,7476.080014
2021.955627,9193.145976,370.102971,5699.585753
2021.955944,10035.851024,814.226536,5995.668130
2021.956262,10495.508323,-74.020594,6143.709319
2021.956579,9576.193725,-962.267725,6365.771101
2021.956896,9346.365076,-1628.453072,7624.121203
2021.957214,7507.735880,-2368.659014,8586.388927
2021.957531,6052.154434,-3627.009116,9696.697840
2021.957849,4749.792088,-3775.050304,10807.006753
2021.958166,3907.087040,-3849.070898,11251.130318
2021.958483,2987.772442,-3923.091493,12065.356855
2021.958801,2298.286494,-4885.359217,12583.501014
2021.959118,2145.067394,-5107.421000,12287.418637
2021.959435,2374.896044,-4441.235652,11917.315666
2021.959753,3217.601092,-3627.009116,11843.295072
2021.960070,3524.039291,-3182.885551,11325.150913
2021.960387,3983.696590,-2812.782580,11103.089130
2021.960705,4213.525239,-2442.679609,11251.130318
2021.961022,4596.572988,-2516.700203,10955.047942
2021.961340,4826.401637,-3108.864956,10732.986159
2021.961657,4749.792088,-3701.029710,10362.883188
2021.961974,4290.134789,-3923.091493,10066.800811
2021.962292,3983.696590,-4663.297435,10214.842000
2021.962609,4060.306139,-5477.523971,10732.986159
2021.962926,4136.915689,-6143.709319,11399.171507
2021.963244,3294.210641,-5847.626942,11769.274478
2021.963561,2221.676944,-5477.523971,11843.295072
2021.963878,2145.067394,-5477.523971,11547.212695
2021.964196,1685.410096,-5181.441594,11769.274478
2021.964513,995.924147,-5329.482782,12139.377449
2021.964831,995.924147,-4293.194464,11991.336260
2021.965148,2221.676944,-2664.741391,11325.150913
2021.965465,3370.820191,-1850.514855,10436.903782
2021.965783,3983.696590,-1332.370696,9474.636058
2021.966100,4596.572988,-1332.370696,9030.512492
2021.966417,4749.792088,-1406.391290,7328.038826
2021.966735,4903.011187,-1998.556043,7179.997637
2021.967052,4979.620737,-1998.556043,7624.121203
2021.967369,5132.839837,-1258.350101,7105.977043
2021.967687,4979.620737,-1036.288319,6513.812290
2021.968004,3753.867940,-1258.350101,6143.709319
2021.968321,3140.991542,-2442.679609,7328.038826
2021.968639,2451.505594,-2886.803174,7550.100608
2021.968956,1762.019645,-2516.700203,7698.141797
2021.969273,1532.190996,-2516.700203,8808.450710
2021.969591,1455.581446,-1776.494261,8364.327145
2021.969908,1915.238745,-1110.308913,7328.038826
2021.970225,2221.676944,-740.205942,6883.915261
