#time,accel_x,accel_y,accel_z
2056.688369,842.705048,-0.000000,9252.574275
2056.688687,842.705048,148.041188,9474.636058
2056.689004,766.095498,222.061783,9474.636058
2056.689321,842.705048,148.041188,9474.636058
2056.689638,919.314598,-0.000000,9400.615463
2056.689955,919.314598,148.041188,9178.553681
2056.690273,689.485948,222.061783,9326.594869
2056.690590,919.314598,-0.000000,9474.636058
2056.690907,1149.143247,-0.000000,9474.636058
2056.691224,766.095498,-0.000000,9474.636058
2056.691541,919.314598,296.082377,9178.553681
2056.691858,766.095498,222.061783,9474.636058
2056.692176,153.219100,222.061783,9474.636058
2056.692493,689.485948,148.041188,9326.594869
2056.692810,383.047749,370.102971,9326.594869
2056.693127,612.876398,148.041188,9474.636058
2056.693444,842.705048,-0.000000,9400.615463
2056.693762,536.266849,148.041188,9400.615463
2056.694079,766.095498,148.041188,9548.656652
2056.694396,689.485948,222.061783,9400.615463
2056.694713,536.266849,148.041188,9326.594869
2056.695030,1072.533697,-148.041188,9400.615463
2056.695348,842.705048,222.061783,9400.615463
2056.695665,612.876398,-0.000000,9474.636058
2056.695982,612.876398,-0.000000,9474.636058
2056.696299,689.485948,222.061783,9326.594869
2056.696616,689.485948,370.102971,9474.636058
2056.696933,689.485948,148.041188,9400.615463
2056.697251,919.314598,148.041188,9326.594869
2056.697568,995.924147,-0.000000,9548.656652
2056.697885,766.095498,-0.000000,9326.594869
2056.698202,689.485948,-0.000000,9548.656652
2056.698519,459.657299,148.041188,9622.677246
2056.698837,689.485948,296.082377,9474.636058
2056.699154,689.485948,-0.000000,9474.636058
2056.699471,459.657299,-0.000000,9400.615463
2056.699788,766.095498,296.082377,9400.615463
2056.700105,842.705048,222.061783,9326.594869
2056.700423,919.314598,-0.000000,9474.636058
2056.700740,842.705048,-0.000000,9326.594869
2056.701057,842.705048,-148.041188,9400.615463
2056.701374,995.924147,74.020594,9326.594869
2056.701691,842.705048,148.041188,9326.594869
2056.702008,689.485948,222.061783,9252.574275
2056.702326,842.705048,-0.000000,9474.636058
2056.702643,766.095498,-148.041188,9770.718434
2056.702960,536.266849,370.102971,9474.636058
2056.703277,766.095498,148.041188,9474.636058
2056.703594,612.876398,222.061783,9400.615463
2056.703912,536.266849,-0.000000,9326.594869
2056.704229,842.705048,222.061783,9548.656652
2056.704546,995.924147,148.041188,9474.636058
2056.704863,459.657299,148.041188,9252.574275
2056.705180,842.705048,296.082377,9326.594869
2056.705498,612.876398,148.041188,9474.636058
2056.705815,1072.533697,-0.000000,9474.636058
2056.706132,1149.143247,-0.000000,9252.574275
2056.706449,766.095498,222.061783,9400.615463
2056.706766,536.266849,-0.000000,9474.636058
2056.707083,536.266849,444.123565,9474.636058
2056.707401,1072.533697,444.123565,9548.656652
2056.707718,766.095498,296.082377,9326.594869
2056.708035,612.876398,148.041188,9548.656652
2056.708352,842.705048,-0.000000,9326.594869
2056.708669,766.095498,-0.000000,9252.574275
2056.708987,536.266849,222.061783,9400.615463
2056.709304,612.876398,370.102971,9474.636058
2056.709621,766.095498,148.041188,9474.636058
2056.709938,689.485948,222.061783,9400.615463
2056.710255,459.657299,444.123565,9696.697840
2056.710573,536.266849,296.082377,9548.656652
2056.710890,766.095498,814.226536,9474.636058
2056.711207,536.266849,666.185348,9474.636058
2056.711524,612.876398,888.247130,9400.615463
2056.711841,536.266849,370.102971,9622.677246
2056.712158,612.876398,666.185348,9696.697840
2056.712476,612.876398,592.164754,9474.636058
2056.712793,536.266849,518.144159,9844.739029
2056.713110,612.876398,888.247130,9770.718434
2056.713427,842.705048,592.164754,9696.697840
2056.713744,459.657299,814.226536,9918.759623
2056.714062,536.266849,1036.288319,9622.677246
2056.714379,229.828649,1036.288319,9474.636058
2056.714696,383.047749,1184.329507,9474.636058
2056.715013,-306.438199,1332.370696,9030.512492
2056.715330,-306.438199,1554.432478,9104.533087
2056.715648,-842.705048,1480.411884,9030.512492
2056.715965,-1302.362347,1184.329507,9178.553681
2056.716282,-1762.019645,666.185348,9474.636058
2056.716599,-2911.162892,518.144159,9918.759623
2056.716916,-2757.943793,518.144159,9844.739029
2056.717234,-3677.258390,518.144159,9622.677246
2056.717551,-3830.477490,888.247130,9918.759623
2056.717868,-4060.306139,962.267725,9696.697840
2056.718185,-4136.915689,1554.432478,9548.656652
2056.718502,-3983.696590,1924.535449,9178.553681
2056.718819,-4136.915689,2294.638420,9252.574275
2056.719137,-4519.963438,2368.659014,8882.471304
2056.719454,-4749.792088,2294.638420,8956.491898
2056.719771,-4903.011187,2146.597232,9104.533087
2056.720088,-5209.449386,2294.638420,8956.491898
2056.720405,-5056.230287,3034.844362,8808.450710
2056.720723,-4903.011187,3627.009116,8438.347739
2056.721040,-4826.401637,3775.050304,8290.306550
2056.721357,-4596.572988,4515.256246,8438.347739
2056.721674,-3677.258390,4589.276840,8586.388927
2056.721991,-3064.381992,4811.338623,8660.409521
2056.722309,-3140.991542,5329.482782,7920.203579
2056.722626,-2757.943793,5551.544565,8142.265362
2056.722943,-2451.505594,5551.544565,8438.347739
2056.723260,-1532.190996,6883.915261,7994.224174
2056.723577,-919.314598,6735.874072,6661.853478
2056.723894,-612.876398,7846.182985,5255.462188
2056.724212,-766.095498,7476.080014,6809.894666
2056.724529,-1149.143247,7476.080014,6439.791695
2056.724846,-1608.800546,6217.729913,7105.977043
2056.725163,-2681.334243,5625.565159,7994.224174
2056.725480,-2987.772442,4959.379811,9178.553681
2056.725798,-3753.867940,5033.400406,9252.574275
2056.726115,-3753.867940,4885.359217,10436.903782
2056.726432,-3600.648841,5329.482782,9622.677246
2056.726749,-3600.648841,6217.729913,8808.450710
2056.727066,-2987.772442,5847.626942,9400.615463
2056.727384,-2834.553343,5477.523971,9770.718434
2056.727701,-2681.334243,4885.359217,10066.800811
2056.728018,-3217.601092,4441.235652,9474.636058
2056.728335,-3677.258390,3478.967927,10362.883188
2056.728652,-4213.525239,3256.906145,11399.171507
2056.728969,-3753.867940,2442.679609,11991.336260
2056.729287,-3140.991542,2664.741391,12139.377449
2056.729604,-2451.505594,2886.803174,11991.336260
2056.729921,-1915.238745,2812.782580,11621.233289
2056.730238,-1378.971896,2812.782580,10881.027347
2056.730555,-1378.971896,1998.556043,11547.212695
2056.730873,-1608.800546,1850.514855,10955.047942
2056.731190,-1532.190996,1628.453072,11843.295072
2056.731507,-1378.971896,1702.473667,12065.356855
2056.731824,-1072.533697,1850.514855,11843.295072
2056.732141,-612.876398,2146.597232,12435.459826
2056.732459,-306.438199,1406.391290,13027.624579
2056.732776,306.438199,1332.370696,12953.603985
2056.733093,842.705048,962.267725,11843.295072
2056.733410,2145.067394,1480.411884,11695.253884
2056.733727,2221.676944,1110.308913,10732.986159
2056.734044,2528.115143,1110.308913,10140.821405
2056.734362,3140.991542,1776.494261,9844.739029
2056.734679,2451.505594,2146.597232,9252.574275
2056.734996,1762.019645,2294.638420,9030.512492
2056.735313,766.095498,1702.473667,9770.718434
2056.735630,0.000000,666.185348,10584.944971
2056.735948,-766.095498,296.082377,10658.965565
2056.736265,-766.095498,-296.082377,10510.924376
2056.736582,-536.266849,-666.185348,10362.883188
2056.736899,0.000000,-296.082377,9696.697840
2056.737216,229.828649,370.102971,8142.265362
2056.737534,689.485948,1332.370696,7328.038826
2056.737851,0.000000,1628.453072,7105.977043
2056.738168,-766.095498,1702.473667,6809.894666
2056.738485,-1762.019645,1554.432478,6513.812290
2056.738802,-2451.505594,962.267725,7772.162391
2056.739119,-3370.820191,148.041188,8364.327145
2056.739437,-3983.696590,-222.061783,9178.553681
2056.739754,-3217.601092,-370.102971,9178.553681
2056.740071,-2911.162892,-222.061783,8216.285956
2056.740388,-2145.067394,-444.123565,7105.977043
2056.740705,-1608.800546,518.144159,7624.121203
2056.741023,-1149.143247,1184.329507,6513.812290
2056.741340,-995.924147,1554.432478,6291.750507
2056.741657,-995.924147,2368.659014,6439.791695
2056.741974,-842.705048,2516.700203,6143.709319
2056.742291,-1838.629195,2072.576638,6513.812290
2056.742609,-1608.800546,740.205942,7254.018232
2056.742926,-2451.505594,-148.041188,8068.244768
2056.743243,-2681.334243,296.082377,7328.038826
2056.743560,-1991.848295,444.123565,8364.327145
2056.743877,-1378.971896,1036.288319,8142.265362
2056.744195,-842.705048,1776.494261,7402.059420
2056.744512,-842.705048,2590.720797,6291.750507
2056.744829,-842.705048,2516.700203,7846.182985
2056.745146,-1762.019645,2738.761985,7994.224174
2056.745463,-2604.724693,2738.761985,7846.182985
2056.745780,-3983.696590,3182.885551,8808.450710
2056.746098,-4903.011187,2664.741391,10288.862594
2056.746415,-4366.744339,3330.926739,10510.924376
2056.746732,-3907.087040,3404.947333,10584.944971
2056.747049,-2757.943793,3775.050304,11843.295072
2056.747366,-2374.896044,4219.173869,10584.944971
2056.747684,-1838.629195,4293.194464,9474.636058
2056.748001,-689.485948,4441.235652,9918.759623
2056.748318,-995.924147,4293.194464,9400.615463
2056.748635,-995.924147,4589.276840,9104.533087
2056.748952,-1378.971896,4737.318029,9548.656652
2056.749270,-1685.410096,5403.503377,9548.656652
2056.749587,-1915.238745,5181.441594,9474.636058
2056.749904,-2451.505594,4811.338623,10584.944971
2056.750221,-3140.991542,3627.009116,11621.233289
2056.750539,-3447.429741,3478.967927,10807.006753
2056.750856,-3983.696590,3775.050304,11177.109724
2056.751173,-2911.162892,2738.761985,12361.439231
2056.751491,-2451.505594,3182.885551,12213.398043
2056.751808,-2221.676944,3923.091493,11473.192101
2056.752126,-2068.457845,4811.338623,11991.336260
2056.752443,-1991.848295,5033.400406,13175.665768
2056.752760,-1378.971896,5403.503377,13175.665768
2056.753078,-919.314598,5255.462188,13027.624579
2056.753395,-919.314598,5403.503377,13249.686362
2056.753713,459.657299,6217.729913,12213.398043
2056.754030,1302.362347,5551.544565,9992.780217
2056.754347,2451.505594,4737.318029,9548.656652
2056.754665,2834.553343,3997.112087,9474.636058
2056.754982,1838.629195,3627.009116,8142.265362
2056.755300,2068.457845,3034.844362,9178.553681
2056.755617,76.609550,2590.720797,10288.862594
2056.755934,-1455.581446,1628.453072,11769.274478
2056.756252,-3677.258390,1850.514855,12435.459826
2056.756569,-3753.867940,1998.556043,14137.933492
2056.756887,-3524.039291,2368.659014,12805.562797
2056.757204,-2451.505594,2738.761985,12583.501014
2056.757521,-689.485948,1924.535449,12065.356855
2056.757839,306.438199,2072.576638,10288.862594
2056.758156,919.314598,2590.720797,9178.553681
2056.758474,1685.410096,2368.659014,8216.285956
2056.758791,1532.190996,2368.659014,7402.059420
2056.759108,383.047749,2220.617826,6957.935855
2056.759426,-919.314598,1480.411884,6957.935855
2056.759743,-2298.286494,1258.350101,7402.059420
2056.760060,-3600.648841,666.185348,8734.430116
2056.760378,-5975.544884,-0.000000,7994.224174
2056.760695,-6281.983084,-1332.370696,10955.047942
2056.761013,-6971.469032,-1850.514855,11177.109724
2056.761330,-5669.106685,-1628.453072,11695.253884
2056.761647,-3830.477490,-518.144159,9474.636058
2056.761965,-2298.286494,-0.000000,9844.739029
2056.762282,153.219100,-222.061783,8068.244768
2056.762600,536.266849,-0.000000,5403.503377
2056.762917,1608.800546,296.082377,6069.688724
2056.763234,995.924147,1332.370696,5403.503377
2056.763552,153.219100,1924.535449,3775.050304
2056.763869,0.000000,1406.391290,3923.091493
2056.764187,-995.924147,1776.494261,4367.215058
2056.764504,-1072.533697,1110.308913,4885.359217
2056.764821,-995.924147,-0.000000,6661.853478
2056.765139,-1378.971896,-1406.391290,8512.368333
2056.765456,-766.095498,-1776.494261,10214.842000
2056.765774,306.438199,-1258.350101,11251.130318
2056.766091,995.924147,222.061783,9548.656652
2056.766408,2528.115143,666.185348,9326.594869
2056.766726,3524.039291,2516.700203,8438.347739
2056.767043,4443.353888,3775.050304,8364.327145
2056.767361,5286.058936,4885.359217,5847.626942
2056.767678,5286.058936,4367.215058,4811.338623
2056.767995,4903.011187,4219.173869,5033.400406
2056.768313,4366.744339,2442.679609,4811.338623
2056.768630,2834.553343,814.226536,4811.338623
2056.768947,2451.505594,-1480.411884,8808.450710
2056.769265,612.876398,-1850.514855,9844.739029
2056.769582,-229.828649,-2886.803174,11843.295072
2056.769900,-1302.362347,-3256.906145,13619.789333
2056.770217,-1225.752797,-3256.906145,15248.242405
2056.770534,-1455.581446,-2368.659014,15174.221811
2056.770852,-383.047749,-1554.432478,14359.995275
2056.771169,995.924147,-518.144159,13619.789333
2056.771487,2604.724693,1628.453072,11473.192101
2056.771804,5209.449386,2960.823768,8586.388927
2056.772121,6511.811733,2368.659014,7105.977043
2056.772439,6665.030833,962.267725,7105.977043
2056.772756,5286.058936,814.226536,5625.565159
2056.773074,2911.162892,-592.164754,7031.956449
2056.773391,306.438199,-2960.823768,10510.924376
2056.773708,-2298.286494,-4589.276840,13323.706956
2056.774026,-4136.915689,-4737.318029,14878.139434
2056.774343,-5669.106685,-5329.482782,17764.942608
2056.774661,-4826.401637,-3849.070898,18061.024985
2056.774978,-2757.943793,-2146.597232,17172.777854
2056.775295,-536.266849,-518.144159,15692.365970
2056.775613,1915.238745,1036.288319,13027.624579
2056.775930,4903.011187,2368.659014,9844.739029
2056.776248,7431.126331,3330.926739,7624.121203
2056.776565,8656.879127,3627.009116,4959.379811
2056.776882,7354.516781,3627.009116,3552.988522
2056.777200,5362.668486,3330.926739,4071.132681
2056.777517,2911.162892,1998.556043,6291.750507
2056.777835,0.000000,-0.000000,8068.244768
2056.778152,-2681.334243,-1332.370696,9326.594869
2056.778469,-3830.477490,-2738.761985,13027.624579
2056.778787,-4903.011187,-3552.988522,14804.118840
2056.779104,-3907.087040,-3997.112087,15470.304188
2056.779421,-2374.896044,-2590.720797,13989.892304
2056.779739,-612.876398,-666.185348,12213.398043
2056.780056,2987.772442,740.205942,10066.800811
2056.780374,4596.572988,3182.885551,7031.956449
2056.780691,6588.421283,4515.256246,5995.668130
2056.781008,7124.688131,5921.647536,3182.885551
2056.781326,5592.497135,5477.523971,592.164754
2056.781643,3600.648841,3701.029710,1702.473667
2056.781961,919.314598,1924.535449,1850.514855
2056.782278,-1991.848295,-1036.288319,3775.050304
2056.782595,-3217.601092,-3552.988522,6957.935855
2056.782913,-5056.230287,-5551.544565,9548.656652
2056.783230,-6052.154434,-7550.100608,13693.809927
2056.783548,-5745.716235,-6513.812290,15544.324782
2056.783865,-4060.306139,-5329.482782,15470.304188
2056.784182,-2911.162892,-2590.720797,13545.768739
2056.784500,0.000000,592.164754,11991.336260
2056.784817,2451.505594,2960.823768,9252.574275
2056.785135,6358.592633,6069.688724,5699.585753
2056.785452,7277.907231,7254.018232,740.205942
2056.785769,6971.469032,5255.462188,-740.205942
2056.786087,5362.668486,2960.823768,666.185348
2056.786404,3064.381992,962.267725,1850.514855
2056.786722,-306.438199,-1702.473667,4737.318029
2056.787039,-3447.429741,-3701.029710,7254.018232
2056.787356,-5592.497135,-6143.709319,13175.665768
2056.787674,-7354.516781,-6143.709319,16580.613101
2056.787991,-6665.030833,-6587.832884,19763.498651
2056.788308,-4903.011187,-4737.318029,19319.375086
2056.788626,-2298.286494,-1850.514855,15766.386565
2056.788943,2374.896044,518.144159,14211.954086
2056.789261,6588.421283,2886.803174,11991.336260
2056.789578,10572.117872,5995.668130,7402.059420
2056.789895,13406.671215,8068.244768,962.267725
2056.790213,12027.699319,7698.141797,-1998.556043
2056.790530,9193.145976,5329.482782,-444.123565
2056.790848,5132.839837,2368.659014,2812.782580
2056.791165,-536.266849,-222.061783,4737.318029
2056.791482,-3753.867940,-3997.112087,9474.636058
2056.791800,-6511.811733,-4811.338623,14285.974681
2056.792117,-8120.612279,-5995.668130,19541.436869
2056.792435,-7814.174080,-4737.318029,22354.219448
2056.792752,-5745.716235,-4811.338623,21762.054695
2056.793069,-4060.306139,-888.247130,17468.860231
2056.793387,1608.800546,1406.391290,17320.819043
2056.793704,5592.497135,3701.029710,13397.727550
2056.794022,9269.755526,5477.523971,7846.182985
2056.794339,11414.822920,8956.491898,2220.617826
2056.794656,11031.775171,9030.512492,-814.226536
2056.794974,8273.831378,7328.038826,-1258.350101
2056.795291,3677.258390,3256.906145,666.185348
2056.795609,-689.485948,222.061783,5551.544565
2056.795926,-4213.525239,-2368.659014,7624.121203
2056.796243,-6511.811733,-4737.318029,11547.212695
2056.796561,-9806.022374,-8512.368333,17690.922014
2056.796878,-9882.631924,-9178.553681,24278.754898
2056.797195,-7354.516781,-6439.791695,23094.425390
2056.797513,-6205.373534,-2664.741391,18579.169144
2056.797830,-995.924147,-2294.638420,16654.633695
2056.798148,3524.039291,962.267725,15248.242405
2056.798465,8656.879127,5625.565159,10584.944971
2056.798782,12027.699319,8808.450710,2960.823768
2056.799100,13253.452115,8438.347739,-1628.453072
2056.799417,10801.946522,7476.080014,-4737.318029
2056.799735,7431.126331,5181.441594,-4589.276840
2056.800052,4136.915689,666.185348,740.205942
2056.800369,-2145.067394,-3330.926739,2664.741391
2056.800687,-4979.620737,-3997.112087,7031.956449
2056.801004,-9346.365076,-7402.059420,15174.221811
2056.801322,-9959.241474,-9918.759623,23168.445985
2056.801639,-10189.070123,-11473.192101,23982.672521
2056.801956,-9422.974625,-7254.018232,19985.560434
2056.802274,-5132.839837,-4737.318029,17987.004391
2056.802591,-383.047749,-0.000000,14211.954086
2056.802909,8503.660028,4219.173869,11473.192101
2056.803226,12180.918418,10140.821405,1258.350101
2056.803543,15551.738609,10140.821405,-3330.926739
2056.803861,13789.718964,11547.212695,-9696.697840
2056.804178,10418.898773,8882.471304,-8586.388927
2056.804496,6665.030833,3108.864956,-2886.803174
2056.804813,0.000000,-2220.617826,-814.226536
2056.805130,-5209.449386,-3627.009116,4145.153275
2056.805448,-10572.117872,-9326.594869,14137.933492
2056.805765,-12410.747068,-12583.501014,24574.837274
2056.806083,-12640.575717,-13471.748144,25833.187376
2056.806400,-11721.261119,-8660.409521,20133.601622
2056.806717,-7354.516781,-7105.977043,23686.590144
2056.807035,-2757.943793,1554.432478,15766.386565
2056.807352,6588.421283,6143.709319,9992.780217
2056.807669,13559.890315,8808.450710,4367.215058
2056.807987,15628.348159,9326.594869,-2812.782580
2056.808304,15551.738609,12287.418637,-8290.306550
2056.808622,13789.718964,10140.821405,-11991.336260
2056.808939,9882.631924,4811.338623,-5847.626942
2056.809256,4366.744339,-222.061783,666.185348
2056.809574,-1685.410096,-4219.173869,3182.885551
2056.809891,-9729.412825,-7402.059420,8512.368333
2056.810209,-11184.994271,-13471.748144,24722.878463
2056.810526,-12104.308868,-15766.386565,29830.299463
2056.810843,-10342.289223,-11251.130318,25611.125593
2056.811161,-8427.050478,-8586.388927,23390.507767
2056.811478,-5898.935335,-370.102971,19097.313304
2056.811796,1915.238745,3478.967927,17024.736666
2056.812113,11184.994271,5699.585753,9548.656652
2056.812430,16777.491406,9474.636058,4145.153275
2056.812748,18309.682402,12657.521608,-6069.688724
2056.813065,16624.272307,14804.118840,-10436.903782
2056.813383,14019.547613,7105.977043,-4367.215058
2056.813700,5822.325785,1332.370696,-4515.256246
2056.814017,1302.362347,-2072.576638,3478.967927
2056.814335,-6894.859482,-7476.080014,9030.512492
2056.814652,-13866.328514,-13397.727550,18283.086767
2056.814970,-12947.013916,-16580.613101,33087.205607
2056.815287,-14709.033562,-12583.501014,29682.258274
2056.815604,-10878.556072,-10362.883188,28868.031738
2056.815922,-9959.241474,-1776.494261,22280.198854
2056.816239,-4826.401637,4811.338623,18801.230927
2056.816556,5286.058936,9844.739029,14804.118840
2056.816874,13023.623466,12287.418637,7698.141797
2056.817191,17160.539155,12805.562797,-1628.453072
2056.817509,18156.463303,14582.057057,-8364.327145
2056.817826,14555.814462,13619.789333,-11103.089130
2056.818143,10265.679673,2812.782580,-3775.050304
2056.818461,4596.572988,-2960.823768,74.020594
2056.818778,-1302.362347,-5625.565159,4145.153275
2056.819096,-9576.193725,-11177.109724,10584.944971
2056.819413,-13253.452115,-13767.830521,24648.857869
2056.819730,-12334.137518,-15988.448347,33161.226202
2056.820048,-12717.185267,-8660.409521,22206.178260
2056.820365,-9806.022374,-6957.935855,20947.828159
2056.820683,-9346.365076,-370.102971,19615.457463
2056.821000,-2757.943793,6365.771101,16358.551318
2056.821317,8580.269578,6883.915261,10140.821405
2056.821635,14555.814462,11621.233289,2072.576638
2056.821952,18539.511052,16062.468941,-7402.059420
2056.822270,18845.949251,15618.345376,-11621.233289
2056.822587,16088.005458,9104.533087,-12361.439231
2056.822904,10418.898773,1110.308913,-8734.430116
2056.823222,2298.286494,-2886.803174,-2220.617826
2056.823539,-1455.581446,-7920.203579,7624.121203
2056.823857,-12257.527968,-11843.295072,11917.315666
2056.824174,-11951.089769,-18727.210333,31680.814318
2056.824491,-12334.137518,-13841.851115,30718.546593
2056.824809,-13559.890315,-8882.471304,20799.786970
2056.825126,-11797.870669,-4515.256246,20873.807564
2056.825443,-9346.365076,148.041188,16950.716072
2056.825761,-995.924147,8586.388927,15914.427753
2056.826078,10035.851024,11769.274478,9252.574275
2056.826396,14479.204912,13175.665768,-2516.700203
2056.826713,16394.443657,13027.624579,-7994.224174
2056.827030,17237.148705,14582.057057,-15618.345376
2056.827348,14019.547613,6291.750507,-7698.141797
2056.827665,6818.249932,-1628.453072,-3997.112087
2056.827983,-2221.676944,-7328.038826,-814.226536
2056.828300,-7124.688131,-11843.295072,8882.471304
2056.828617,-13406.671215,-15100.201217,23908.651927
2056.828935,-12870.404366,-22206.178260,36640.194129
2056.829252,-17543.586904,-12213.398043,21688.034101
2056.829570,-13406.671215,-8142.265362,23242.466579
2056.829887,-12563.966167,-148.041188,22058.137072
2056.830204,-7201.297681,8586.388927,15248.242405
2056.830522,4903.011187,9696.697840,13915.871710
2056.830839,10572.117872,13323.706956,6069.688724
2056.831157,16241.224558,15618.345376,-6661.853478
2056.831474,18922.558801,16210.510130,-7550.100608
2056.831791,18769.339701,13619.789333,-13693.809927
2056.832109,14096.157163,4515.256246,-8142.265362
2056.832426,5898.935335,-1110.308913,0.000000
2056.832744,-1532.190996,-5255.462188,2590.720797
2056.833061,-8733.488677,-11251.130318,11843.295072
2056.833378,-11184.994271,-19171.333898,30940.608376
2056.833696,-11261.603821,-19023.292709,38786.791361
2056.834013,-15934.786358,-5921.647536,19245.354492
2056.834331,-12257.527968,-296.082377,21762.054695
2056.834648,-11874.480219,1702.473667,21021.848753
2056.834965,-3294.210641,11917.315666,17764.942608
2056.835283,8886.707777,11843.295072,12287.418637
2056.835600,12717.185267,16062.468941,-666.185348
2056.835917,18462.901502,13693.809927,-7772.162391
2056.836235,21067.626195,15766.386565,-9622.677246
2056.836552,16394.443657,8290.306550,-9030.512492
2056.836870,9806.022374,-518.144159,-1258.350101
2056.837187,2221.676944,-5699.585753,3034.844362
2056.837504,-4673.182538,-4737.318029,6291.750507
2056.837822,-9959.241474,-13249.686362,19763.498651
2056.838139,-11797.870669,-16358.551318,34863.699868
2056.838457,-8580.269578,-16728.654289,37380.400071
2056.838774,-14096.157163,-5625.565159,14804.118840
2056.839091,-12180.918418,-2442.679609,24056.693115
2056.839409,-10955.165621,2960.823768,20059.581028
2056.839726,-842.705048,10881.027347,15026.180623
2056.840044,12334.137518,10140.821405,9474.636058
2056.840361,14249.376263,18579.169144,-2072.576638
2056.840678,18233.072852,16506.592507,-7105.977043
2056.840996,19612.044749,16950.716072,-21243.910535
2056.841313,16394.443657,3256.906145,-3034.844362
2056.841631,5975.544884,-4293.194464,-1776.494261
2056.841948,-1378.971896,-8882.471304,-666.185348
2056.842265,-5439.278036,-10214.842000,6883.915261
2056.842583,-10418.898773,-16210.510130,27461.640448
2056.842900,-7890.783629,-23094.425390,38786.791361
2056.843218,-14785.643111,-7994.224174,21465.972318
2056.843535,-13176.842566,-2812.782580,21243.910535
2056.843852,-14172.766713,1332.370696,22798.343014
2056.844170,-9039.926876,10436.903782,16580.613101
2056.844487,4443.353888,14359.995275,9326.594869
2056.844804,11414.822920,15544.324782,3701.029710
2056.845122,13330.061665,17690.922014,-5699.585753
2056.845439,18922.558801,14804.118840,-9474.636058
2056.845757,19688.654299,15026.180623,-22280.198854
2056.846074,16241.224558,-2516.700203,-3849.070898
2056.846391,4979.620737,-4885.359217,518.144159
2056.846709,-2298.286494,-10288.862594,-3256.906145
2056.847026,-7431.126331,-15396.283594,8956.491898
2056.847344,-9959.241474,-21095.869347,35159.782245
2056.847661,-9806.022374,-22354.219448,33161.226202
2056.847978,-17160.539155,-8586.388927,13249.686362
2056.848296,-15092.081311,-7105.977043,21465.972318
2056.848613,-16164.615008,1332.370696,21317.931130
2056.848931,-4136.915689,13471.748144,15396.283594
2056.849248,8810.098227,14804.118840,7920.203579
2056.849565,10648.727422,15100.201217,-1258.350101
2056.849883,14785.643111,18875.251521,-4293.194464
2056.850200,19382.216099,17098.757260,-15174.221811
2056.850518,18999.168350,6291.750507,-14508.036463
2056.850835,11414.822920,-4071.132681,4885.359217
2056.851152,766.095498,-7105.977043,1258.350101
2056.851470,-1915.238745,-10510.924376,1628.453072
2056.851787,-7354.516781,-15544.324782,23760.610738
2056.852105,-9422.974625,-26055.249158,39008.853143
2056.852422,-13023.623466,-17838.963202,23760.610738
2056.852740,-14325.985813,-6439.791695,15914.427753
2056.853057,-13636.499864,-4737.318029,22280.198854
2056.853374,-13559.890315,7920.203579,16580.613101
2056.853692,4366.744339,15618.345376,13989.892304
2056.854009,15092.081311,15100.201217,9696.697840
2056.854327,11644.651570,21095.869347,-2146.597232
2056.854644,20148.311597,16728.654289,-5847.626942
2056.854962,22216.769442,17542.880825,-20281.642811
2056.855279,19995.092498,3108.864956,2516.700203
2056.855597,9116.536426,-2960.823768,4367.215058
2056.855914,-1455.581446,-7402.059420,-3849.070898
2056.856231,-612.876398,-9474.636058,9104.533087
2056.856549,-8427.050478,-14730.098246,29608.237680
2056.856866,-8120.612279,-23538.548956,35899.988187
2056.857184,-11261.603821,-9770.718434,20651.745782
2056.857501,-13789.718964,-5477.523971,17246.798449
2056.857819,-16317.834107,-2738.761985,23242.466579
2056.858136,-10265.679673,7105.977043,18653.189738
2056.858454,4903.011187,13101.645173,10584.944971
2056.858771,10648.727422,16358.551318,4293.194464
2056.859089,13023.623466,21317.931130,-4589.276840
2056.859406,18769.339701,17690.922014,-4293.194464
2056.859723,17237.148705,16062.468941,-18653.189738
2056.860041,14019.547613,-2664.741391,2886.803174
2056.860358,2528.115143,-5033.400406,5921.647536
2056.860676,-3294.210641,-4811.338623,74.020594
2056.860993,-5898.935335,-14582.057057,8512.368333
2056.861311,-9346.365076,-19541.436869,34123.493926
2056.861628,-9039.926876,-20947.828159,37528.441259
2056.861946,-14096.157163,-7105.977043,15026.180623
2056.862263,-14709.033562,-3108.864956,19763.498651
2056.862580,-15858.176809,-1332.370696,27313.599260
2056.862898,-8580.269578,7994.224174,15174.221811
2056.863215,7507.735880,14063.912898,11103.089130
2056.863533,9346.365076,17542.880825,-962.267725
2056.863850,13789.718964,17542.880825,-3256.906145
2056.864168,21680.502593,14952.160028,-9104.533087
2056.864485,19152.387450,12213.398043,-15766.386565
2056.864803,14709.033562,-4367.215058,3330.926739
2056.865120,2911.162892,-9474.636058,2146.597232
2056.865437,-2451.505594,-10881.027347,222.061783
2056.865755,-6741.640382,-15766.386565,16654.633695
2056.866072,-8427.050478,-25463.084405,39452.976709
2056.866390,-11568.042020,-18431.127956,22354.219448
2056.866707,-14709.033562,-6513.812290,15840.407159
2056.867025,-17466.977354,-4959.379811,23760.610738
2056.867342,-15245.300410,4589.276840,19615.457463
2056.867660,-536.266849,15692.365970,13915.871710
2056.867977,8810.098227,17172.777854,5699.585753
2056.868295,8580.269578,18949.272115,-2664.741391
2056.868612,15628.348159,15988.448347,-6883.915261
2056.868929,22676.426741,18431.127956,-17542.880825
2056.869247,18616.120601,4589.276840,-7772.162391
2056.869564,10878.556072,-5625.565159,5329.482782
2056.869882,-612.876398,-9178.553681,-888.247130
2056.870199,-3907.087040,-10066.800811,2442.679609
2056.870517,-7737.564530,-17246.798449,24648.857869
2056.870834,-8580.269578,-24870.919651,37380.400071
2056.871152,-12487.356617,-12731.542202,18209.066173
2056.871469,-13023.623466,-7402.059420,13693.809927
2056.871786,-16317.834107,-2886.803174,19467.416275
2056.872104,-9422.974625,6809.894666,20133.601622
2056.872421,5822.325785,15470.304188,7476.080014
2056.872739,12104.308868,17320.819043,2812.782580
2056.873056,12870.404366,16062.468941,2072.576638
2056.873374,19841.873398,14804.118840,-4515.256246
2056.873691,21986.940793,13915.871710,-18727.210333
2056.874009,18769.339701,-2886.803174,4663.297435
2056.874326,4826.401637,-6957.935855,5329.482782
2056.874643,-842.705048,-12287.418637,814.226536
2056.874961,-3830.477490,-9252.574275,9696.697840
2056.875278,-5132.839837,-18727.210333,35825.967593
2056.875596,-7890.783629,-17912.983796,29386.175897
2056.875913,-11568.042020,-9326.594869,17320.819043
2056.876231,-15551.738609,-8290.306550,18357.107362
2056.876548,-17543.586904,814.226536,21984.116477
2056.876866,-5362.668486,14285.974681,22798.343014
2056.877183,7967.393179,15988.448347,7550.100608
2056.877501,9346.365076,21317.931130,-888.247130
2056.877818,15321.909960,17987.004391,3478.967927
2056.878135,20454.749797,18801.230927,-11399.171507
2056.878453,19841.873398,6661.853478,-9770.718434
2056.878770,13406.671215,-9548.656652,8290.306550
2056.879088,689.485948,-8586.388927,222.061783
2056.879405,-2374.896044,-8512.368333,370.102971
2056.879723,-7048.078582,-12879.583391,17987.004391
2056.880040,-6281.983084,-23020.404796,39304.935520
2056.880358,-10112.460574,-8660.409521,21836.075289
2056.880675,-13789.718964,-3404.947333,12657.521608
2056.880992,-18003.244203,-962.267725,15840.407159
2056.881310,-16777.491406,5329.482782,22724.322419
2056.881627,-3983.696590,12879.583391,19541.436869
2056.881945,4596.572988,12213.398043,4219.173869
2056.882262,6588.421283,18283.086767,-4959.379811
2056.882580,13406.671215,12361.439231,-1924.535449
2056.882897,19688.654299,15396.283594,-13027.624579
2056.883215,19688.654299,-740.205942,1332.370696
2056.883532,9346.365076,-5995.668130,4589.276840
2056.883849,-766.095498,-11251.130318,0.000000
2056.884167,-6435.202183,-10140.821405,2294.638420
2056.884484,-8427.050478,-16284.530724,27313.599260
2056.884802,-5975.544884,-20281.642811,37528.441259
2056.885119,-11414.822920,-9178.553681,13619.789333
2056.885437,-13253.452115,-4663.297435,14434.015869
2056.885754,-17696.806004,-740.205942,18801.230927
2056.886072,-12717.185267,8364.327145,16654.633695
2056.886389,2298.286494,11399.171507,13915.871710
2056.886707,7507.735880,17172.777854,1554.432478
2056.887024,8733.488677,15100.201217,-592.164754
2056.887341,18539.511052,13619.789333,592.164754
2056.887659,20071.702048,12435.459826,-17764.942608
2056.887976,21680.502593,-2738.761985,6069.688724
2056.888294,7660.954980,-5551.544565,4441.235652
2056.888611,-76.609550,-10362.883188,-4145.153275
2056.888929,-4366.744339,-9104.533087,6143.709319
2056.889246,-5822.325785,-17616.901420,34789.679274
2056.889564,-8427.050478,-18431.127956,32124.937883
2056.889881,-10418.898773,-5255.462188,14211.954086
2056.890198,-12793.794817,-1110.308913,14063.912898
2056.890516,-14709.033562,666.185348,21836.075289
2056.890833,-6588.421283,8660.409521,17024.736666
2056.891151,6511.811733,11621.233289,3108.864956
2056.891468,10572.117872,15026.180623,814.226536
2056.891786,11797.870669,13693.809927,4293.194464
2056.892103,19688.654299,10955.047942,-6143.709319
2056.892421,20684.578446,7179.997637,-12805.562797
2056.892738,17007.320056,-2886.803174,5255.462188
2056.893055,3370.820191,-5847.626942,1850.514855
2056.893373,-995.924147,-11029.068536,-296.082377
2056.893690,-4979.620737,-13101.645173,12731.542202
2056.894008,-9422.974625,-20503.704593,36788.235317
2056.894325,-10801.946522,-17912.983796,28719.990550
2056.894643,-14249.376263,-7031.956449,13175.665768
2056.894960,-16700.881856,-4145.153275,16876.695478
2056.895278,-13253.452115,3849.070898,23908.651927
2056.895595,-5132.839837,13175.665768,14952.160028
2056.895913,7201.297681,13989.892304,5995.668130
2056.896230,9193.145976,17912.983796,-888.247130
2056.896547,13023.623466,10510.924376,4811.338623
2056.896865,18386.291952,14137.933492,-13027.624579
2056.897182,20761.187996,4367.215058,-3256.906145
2056.897500,12410.747068,-3182.885551,5181.441594
2056.897817,1991.848295,-6957.935855,740.205942
2056.898135,-2068.457845,-9474.636058,2812.782580
2056.898452,-5515.887586,-14137.933492,20725.766376
2056.898770,-8886.707777,-21391.951724,34789.679274
2056.899087,-13176.842566,-13693.809927,20947.828159
2056.899404,-14785.643111,-6291.750507,16580.613101
2056.899722,-19382.216099,-1258.350101,19171.333898
2056.900039,-13100.233016,5847.626942,18579.169144
2056.900357,153.219100,14582.057057,9474.636058
2056.900674,8350.440928,15618.345376,5921.647536
2056.900992,8810.098227,15618.345376,-3034.844362
2056.901309,17160.539155,11843.295072,2664.741391
2056.901627,18539.511052,13397.727550,-11621.233289
2056.901944,17850.025103,1406.391290,-518.144159
2056.902261,8273.831378,-4441.235652,1554.432478
2056.902579,153.219100,-7105.977043,-222.061783
2056.902896,-4979.620737,-9548.656652,5625.565159
2056.903214,-6894.859482,-14211.954086,27609.681637
2056.903531,-7507.735880,-20355.663405,36418.132346
2056.903849,-13942.938064,-9178.553681,19763.498651
2056.904166,-14402.595362,-6809.894666,15248.242405
2056.904484,-16394.443657,1480.411884,19319.375086
2056.904801,-9959.241474,14285.974681,17394.839637
2056.905119,4903.011187,12361.439231,9178.553681
2056.905436,8427.050478,17690.922014,-1776.494261
2056.905753,12717.185267,14434.015869,2960.823768
2056.906071,19612.044749,12361.439231,-2664.741391
2056.906388,17850.025103,9474.636058,-12731.542202
2056.906706,17160.539155,-5773.606348,6365.771101
2056.907023,6511.811733,-7105.977043,1554.432478
2056.907341,-919.314598,-7920.203579,962.267725
2056.907658,-6818.249932,-7328.038826,10436.903782
2056.907976,-5362.668486,-17542.880825,37898.544230
2056.908293,-7354.516781,-14063.912898,30496.484810
2056.908610,-11797.870669,-3182.885551,13471.748144
2056.908928,-12717.185267,-2294.638420,15396.283594
2056.909245,-13023.623466,1850.514855,22650.301825
2056.909563,-2221.676944,13027.624579,13693.809927
2056.909880,9576.193725,12213.398043,3701.029710
2056.910198,10572.117872,15692.365970,962.267725
2056.910515,16241.224558,8660.409521,3775.050304
2056.910833,20224.921147,12805.562797,-15100.201217
2056.911150,19152.387450,962.267725,-6291.750507
2056.911467,11261.603821,-10881.027347,6439.791695
2056.911785,2068.457845,-10288.862594,148.041188
2056.912102,-1991.848295,-9696.697840,1036.288319
2056.912420,-7890.783629,-12879.583391,22576.281231
2056.912737,-7354.516781,-21317.931130,37010.297100
2056.913055,-12640.575717,-11399.171507,16136.489536
2056.913372,-14709.033562,-6809.894666,14730.098246
2056.913690,-18003.244203,-3701.029710,16950.716072
2056.914007,-13023.623466,6809.894666,19985.560434
2056.914325,1149.143247,15618.345376,10732.986159
2056.914642,6665.030833,13767.830521,1480.411884
2056.914959,9806.022374,13249.686362,0.000000
2056.915277,13713.109414,9918.759623,3330.926739
2056.915594,15858.176809,10214.842000,-11843.295072
2056.915912,15858.176809,-3701.029710,-666.185348
2056.916229,9193.145976,-5625.565159,2368.659014
2056.916547,919.314598,-4663.297435,-1036.288319
2056.916864,-2068.457845,-8068.244768,4293.194464
2056.917182,-6052.154434,-16210.510130,27831.743419
2056.917499,-7277.907231,-19393.395680,34567.617491
2056.917816,-14325.985813,-7624.121203,13841.851115
2056.918134,-13866.328514,-1776.494261,13545.768739
2056.918451,-14938.862211,1332.370696,18875.251521
2056.918769,-9269.755526,14656.077652,13545.768739
2056.919086,6052.154434,11843.295072,9104.533087
2056.919404,7814.174080,16432.571912,-222.061783
2056.919721,12257.527968,10658.965565,-666.185348
2056.920039,17466.977354,8290.306550,-444.123565
2056.920356,14862.252661,3701.029710,-8438.347739
2056.920674,12793.794817,-7105.977043,4293.194464
2056.920991,5515.887586,-6439.791695,4145.153275
2056.921308,0.000000,-7254.018232,1258.350101
2056.921626,-6818.249932,-4959.379811,11103.089130
2056.921943,-6435.202183,-16580.613101,32569.061448
2056.922261,-9576.193725,-12805.562797,28719.990550
2056.922578,-14709.033562,-4071.132681,15026.180623
2056.922896,-15168.690860,-148.041188,17320.819043
2056.923213,-14249.376263,3997.112087,20577.725188
2056.923531,-3140.991542,16284.530724,12509.480420
2056.923848,9269.755526,15470.304188,2368.659014
2056.924165,11338.213370,17912.983796,-1184.329507
2056.924483,15168.690860,9548.656652,-296.082377
2056.924800,18769.339701,12213.398043,-10510.924376
2056.925118,15551.738609,814.226536,-148.041188
2056.925435,9806.022374,-5477.523971,5921.647536
2056.925753,1608.800546,-4737.318029,444.123565
2056.926070,-2068.457845,-6069.688724,6143.709319
2056.926388,-8120.612279,-10881.027347,21762.054695
2056.926705,-10265.679673,-13989.892304,33975.452738
2056.927022,-10648.727422,-9030.512492,25611.125593
2056.927340,-14938.862211,2146.597232,15322.262999
2056.927657,-12640.575717,148.041188,17024.736666
2056.927975,-11721.261119,7772.162391,16432.571912
2056.928292,1225.752797,14359.995275,13693.809927
2056.928610,8197.221829,14063.912898,814.226536
2056.928927,13100.233016,12361.439231,1554.432478
2056.929245,15858.176809,6069.688724,4367.215058
2056.929562,16241.224558,8956.491898,-9918.759623
2056.929880,15475.129060,-4663.297435,3849.070898
2056.930197,7967.393179,-8068.244768,5403.503377
2056.930514,1991.848295,-7254.018232,592.164754
2056.930832,-1762.019645,-5699.585753,6439.791695
2056.931149,-8350.440928,-13101.645173,23390.507767
2056.931467,-8503.660028,-15618.345376,35529.885216
2056.931784,-12563.966167,-7254.018232,19393.395680
2056.932102,-15015.471761,-740.205942,13027.624579
2056.932419,-12563.966167,1184.329507,21021.848753
2056.932737,-8350.440928,9104.533087,16210.510130
2056.933054,5669.106685,12509.480420,8438.347739
2056.933371,10418.898773,15322.262999,148.041188
2056.933689,13483.280765,11103.089130,-2220.617826
2056.934006,16011.395908,5329.482782,370.102971
2056.934324,15321.909960,5255.462188,-7105.977043
2056.934641,11491.432470,-5403.503377,1554.432478
2056.934959,6511.811733,-7402.059420,2960.823768
2056.935276,-153.219100,-8216.285956,2516.700203
2056.935594,-5822.325785,-7254.018232,9622.677246
2056.935911,-7354.516781,-14952.160028,30200.402434
2056.936228,-9576.193725,-12509.480420,26499.372724
2056.936546,-14096.157163,-4145.153275,11991.336260
2056.936863,-12640.575717,1110.308913,13989.892304
2056.937181,-10418.898773,3701.029710,18061.024985
2056.937498,-2757.943793,11843.295072,6587.832884
2056.937816,9269.755526,13397.727550,3182.885551
2056.938133,13176.842566,12435.459826,444.123565
2056.938451,13713.109414,5847.626942,-1776.494261
2056.938768,17543.586904,6587.832884,-8586.388927
2056.939086,13330.061665,-1850.514855,-1850.514855
2056.939403,7660.954980,-5625.565159,2590.720797
2056.939720,4443.353888,-5625.565159,1258.350101
2056.940038,-536.266849,-5181.441594,3330.926739
2056.940355,-5132.839837,-9622.677246,16950.716072
2056.940673,-7967.393179,-15248.242405,33309.267390
2056.940990,-10495.508323,-11843.295072,22280.198854
2056.941308,-14709.033562,-4737.318029,12435.459826
2056.941625,-11338.213370,296.082377,19615.457463
2056.941943,-10955.165621,8734.430116,16210.510130
2056.942260,3217.601092,17764.942608,7105.977043
2056.942577,10801.946522,16506.592507,-444.123565
2056.942895,14325.985813,11843.295072,740.205942
2056.943212,14325.985813,6661.853478,-962.267725
2056.943530,14938.862211,5921.647536,-7105.977043
2056.943847,10801.946522,-4811.338623,296.082377
2056.944165,4519.963438,-8068.244768,6439.791695
2056.944482,0.000000,-7920.203579,7105.977043
2056.944800,-7201.297681,-5329.482782,9104.533087
2056.945117,-8120.612279,-12361.439231,27091.537477
2056.945434,-9806.022374,-10140.821405,31384.731941
2056.945752,-13942.938064,-3849.070898,17764.942608
2056.946069,-11031.775171,1184.329507,15470.304188
2056.946387,-10572.117872,4811.338623,18209.066173
2056.946704,-5745.716235,14137.933492,10881.027347
2056.947022,6435.202183,10288.862594,8734.430116
2056.947339,10801.946522,11843.295072,2294.638420
2056.947657,14096.157163,6439.791695,-2368.659014
2056.947974,17543.586904,6661.853478,-1184.329507
2056.948292,12180.918418,1924.535449,-3997.112087
2056.948609,9576.193725,-6291.750507,4145.153275
2056.948926,4443.353888,-6587.832884,3034.844362
2056.949244,-1838.629195,-5847.626942,6661.853478
2056.949561,-8120.612279,-8216.285956,17542.880825
2056.949879,-10572.117872,-13545.768739,28127.825796
2056.950196,-10265.679673,-12213.398043,27905.764013
2056.950514,-16088.005458,-2516.700203,19763.498651
2056.950831,-11874.480219,-1554.432478,22724.322419
2056.951148,-10495.508323,5995.668130,16358.551318
2056.951466,0.000000,17542.880825,8068.244768
2056.951783,9422.974625,15396.283594,7105.977043
2056.952101,11797.870669,13323.706956,-1480.411884
2056.952418,15858.176809,6957.935855,-1110.308913
2056.952736,17083.929605,7624.121203,-9178.553681
2056.953053,13866.328514,-1036.288319,1776.494261
2056.953370,7660.954980,-5773.606348,3775.050304
2056.953688,4366.744339,-7179.997637,4737.318029
2056.954005,-766.095498,-7031.956449,8808.450710
2056.954323,-7584.345430,-8734.430116,20873.807564
2056.954640,-9806.022374,-10510.924376,28942.052332
2056.954958,-10648.727422,-5033.400406,19245.354492
2056.955275,-12717.185267,-74.020594,12213.398043
2056.955592,-8273.831378,3108.864956,16062.468941
2056.955910,-6588.421283,11695.253884,10066.800811
2056.956227,4519.963438,13471.748144,6143.709319
2056.956545,11721.261119,12805.562797,2294.638420
2056.956862,14938.862211,8364.327145,1850.514855
2056.957180,16011.395908,2886.803174,-1850.514855
2056.957497,13636.499864,3997.112087,-6513.812290
2056.957814,9806.022374,-6291.750507,1702.473667
2056.958132,5056.230287,-5921.647536,3404.947333
2056.958449,-1915.238745,-6143.709319,3701.029710
2056.958767,-4290.134789,-4367.215058,12583.501014
2056.959084,-9576.193725,-11843.295072,23760.610738
2056.959402,-11184.994271,-12731.542202,29978.340651
2056.959719,-18309.682402,-6439.791695,12583.501014
2056.960036,-15398.519510,-1406.391290,21243.910535
2056.960354,-13866.328514,1776.494261,23612.569550
2056.960671,-8733.488677,11843.295072,8364.327145
2056.960989,5515.887586,16358.551318,6809.894666
2056.961306,10112.460574,15174.221811,2072.576638
2056.961624,13406.671215,5699.585753,-2294.638420
2056.961941,13176.842566,7105.977043,-4811.338623
2056.962258,13023.623466,-1554.432478,3330.926739
2056.962576,6818.249932,-9252.574275,2590.720797
2056.962893,2987.772442,-11177.109724,6809.894666
2056.963211,-2068.457845,-11917.315666,8216.285956
2056.963528,-5822.325785,-9548.656652,20059.581028
2056.963846,-6205.373534,-11325.150913,26573.393318
2056.964163,-8580.269578,-2442.679609,21317.931130
2056.964480,-7814.174080,2072.576638,14656.077652
2056.964798,-6435.202183,7550.100608,11769.274478
2056.965115,-4903.011187,10807.006753,7846.182985
2056.965433,4749.792088,10584.944971,7772.162391
2056.965750,13253.452115,6513.812290,3627.009116
2056.966068,15321.909960,5551.544565,-1332.370696
2056.966385,16011.395908,1110.308913,-1628.453072
2056.966702,16164.615008,-740.205942,-4737.318029
2056.967020,11108.384721,-7624.121203,4145.153275
2056.967337,6052.154434,-9844.739029,5699.585753
2056.967655,0.000000,-11325.150913,8808.450710
2056.967972,-5745.716235,-7105.977043,12139.377449
2056.968290,-7354.516781,-4441.235652,21762.054695
2056.968607,-7354.516781,-4663.297435,26351.331535
2056.968924,-7890.783629,-962.267725,15248.242405
2056.969242,-9039.926876,1184.329507,14878.139434
2056.969559,-7277.907231,3775.050304,18949.272115
2056.969877,-5898.935335,9696.697840,7994.224174
2056.970194,6894.859482,10955.047942,5329.482782
2056.970512,13406.671215,10807.006753,814.226536
2056.970829,14019.547613,4959.379811,1258.350101
2056.971146,12640.575717,3034.844362,-5033.400406
2056.971464,9269.755526,-1702.473667,-3849.070898
2056.971781,4673.182538,-6809.894666,148.041188
2056.972099,1608.800546,-7920.203579,5699.585753
2056.972416,-1302.362347,-7328.038826,11103.089130
2056.972734,-9499.584175,-5477.523971,14434.015869
2056.973051,-8963.317327,-5773.606348,26573.393318
2056.973369,-10725.336972,-5403.503377,23760.610738
2056.973686,-13866.328514,1110.308913,14434.015869
2056.974003,-10112.460574,814.226536,22280.198854
2056.974321,-9499.584175,8660.409521,13619.789333
2056.974638,-383.047749,14211.954086,5995.668130
2056.974956,9806.022374,13249.686362,4737.318029
2056.975273,14249.376263,8660.409521,2590.720797
2056.975591,15321.909960,4515.256246,2220.617826
2056.975908,14938.862211,5255.462188,-5995.668130
2056.976225,11108.384721,-2960.823768,814.226536
2056.976543,4979.620737,-8438.347739,962.267725
2056.976860,1608.800546,-10584.944971,9992.780217
2056.977178,-4290.134789,-7994.224174,9992.780217
2056.977495,-6971.469032,-8586.388927,20577.725188
2056.977813,-8733.488677,-6069.688724,26499.372724
2056.978130,-12180.918418,-1850.514855,19171.333898
2056.978447,-12640.575717,740.205942,17542.880825
2056.978765,-11491.432470,3552.988522,17616.901420
2056.979082,-6894.859482,9252.574275,10658.965565
2056.979400,4596.572988,13915.871710,7328.038826
2056.979717,13176.842566,10436.903782,6439.791695
2056.980035,16777.491406,5107.421000,74.020594
2056.980352,18999.168350,4219.173869,-592.164754
2056.980669,16624.272307,740.205942,-370.102971
2056.980987,9269.755526,-5551.544565,-1998.556043
2056.981304,3524.039291,-4811.338623,740.205942
2056.981622,-842.705048,-6143.709319,10955.047942
2056.981939,-8197.221829,-5107.421000,14285.974681
2056.982257,-8656.879127,-4071.132681,20281.642811
2056.982574,-7814.174080,-5551.544565,26721.434506
2056.982891,-15245.300410,148.041188,13915.871710
2056.983209,-10189.070123,-3108.864956,21169.889941
2056.983526,-10265.679673,592.164754,15174.221811
2056.983844,-3447.429741,7031.956449,9474.636058
2056.984161,8810.098227,6883.915261,9104.533087
2056.984479,14709.033562,9104.533087,740.205942
2056.984796,18003.244203,4219.173869,-1332.370696
2056.985113,17850.025103,3701.029710,-1702.473667
2056.985431,12870.404366,-2146.597232,0.000000
2056.985748,7967.393179,-4071.132681,-2368.659014
2056.986066,2528.115143,-5847.626942,2368.659014
2056.986383,-1608.800546,-6217.729913,12435.459826
2056.986701,-5515.887586,-6661.853478,17320.819043
2056.987018,-7890.783629,-5773.606348,21836.075289
2056.987335,-10725.336972,-5107.421000,20947.828159
2056.987653,-13483.280765,-148.041188,15026.180623
2056.987970,-10189.070123,814.226536,19171.333898
2056.988288,-8120.612279,3775.050304,12361.439231
2056.988605,229.828649,10214.842000,7920.203579
2056.988923,10648.727422,12213.398043,5255.462188
2056.989240,14632.424012,9104.533087,1184.329507
2056.989557,16854.100956,4811.338623,-1554.432478
2056.989875,13636.499864,-370.102971,-370.102971
2056.990192,8350.440928,-5033.400406,1258.350101
2056.990510,4136.915689,-5995.668130,-1036.288319
2056.990827,0.000000,-5033.400406,6587.832884
2056.991145,-5056.230287,-5107.421000,13767.830521
2056.991462,-8963.317327,-7994.224174,19319.375086
2056.991779,-11568.042020,-5921.647536,22798.343014
2056.992097,-16777.491406,-1332.370696,14804.118840
2056.992414,-14709.033562,-4589.276840,19837.519246
2056.992732,-13330.061665,1850.514855,15692.365970
2056.993049,-8120.612279,7254.018232,9474.636058
2056.993367,1915.238745,11917.315666,7994.224174
2056.993684,11108.384721,6957.935855,10955.047942
2056.994001,14479.204912,2294.638420,3923.091493
2056.994319,14402.595362,4441.235652,-2368.659014
2056.994636,14019.547613,-2294.638420,2960.823768
2056.994954,8503.660028,-7254.018232,740.205942
2056.995271,4060.306139,-6809.894666,1998.556043
2056.995589,0.000000,-5255.462188,9474.636058
2056.995906,-5669.106685,-4293.194464,13989.892304
2056.996223,-5898.935335,-3775.050304,22354.219448
2056.996541,-8120.612279,-3034.844362,23168.445985
2056.996858,-13100.233016,3034.844362,13989.892304
2056.997176,-8656.879127,3330.926739,17468.860231
2056.997493,-7737.564530,7254.018232,12435.459826
2056.997811,1072.533697,9992.780217,6513.812290
2056.998128,14249.376263,7698.141797,6513.812290
2056.998445,18309.682402,8586.388927,592.164754
2056.998763,20071.702048,2590.720797,-2368.659014
2056.999080,16241.224558,-370.102971,-3775.050304
2056.999398,11108.384721,-5329.482782,888.247130
2056.999715,2681.334243,-7328.038826,1702.473667
2057.000033,-1532.190996,-8512.368333,9474.636058
2057.000350,-6894.859482,-4663.297435,11325.150913
2057.000667,-8963.317327,-2368.659014,19467.416275
2057.000985,-7890.783629,-3627.009116,25463.084405
2057.001302,-13866.328514,444.123565,13693.809927
2057.001620,-13023.623466,-148.041188,18209.066173
2057.001937,-13483.280765,3552.988522,18135.045579
2057.002255,-8197.221829,9844.739029,9178.553681
2057.002572,2451.505594,10955.047942,5921.647536
2057.002889,9269.755526,10658.965565,7698.141797
2057.003207,13253.452115,1406.391290,3034.844362
2057.003524,14402.595362,4663.297435,-1480.411884
2057.003842,12870.404366,-5477.523971,6069.688724
2057.004159,6741.640382,-8586.388927,2072.576638
2057.004477,3983.696590,-9992.780217,3923.091493
2057.004794,1685.410096,-7994.224174,9696.697840
2057.005111,-7201.297681,-4737.318029,9696.697840
2057.005429,-6358.592633,-2368.659014,20429.683999
2057.005746,-6511.811733,-740.205942,20873.807564
2057.006064,-10572.117872,2812.782580,13175.665768
2057.006381,-9193.145976,1554.432478,14952.160028
2057.006699,-9346.365076,6735.874072,13027.624579
2057.007016,-2221.676944,9622.677246,9326.594869
2057.007333,7048.078582,7402.059420,8882.471304
2057.007651,13100.233016,5551.544565,5847.626942
2057.007968,14709.033562,2516.700203,888.247130
2057.008286,15168.690860,2072.576638,-1702.473667
2057.008603,12487.356617,-5551.544565,3849.070898
2057.008921,8197.221829,-5033.400406,-444.123565
2057.009238,4443.353888,-5847.626942,3330.926739
2057.009555,-1685.410096,-3997.112087,9918.759623
2057.009873,-10035.851024,-2442.679609,16728.654289
2057.010190,-8656.879127,-4441.235652,26499.372724
2057.010508,-10955.165621,-1480.411884,18357.107362
2057.010825,-13100.233016,3478.967927,15618.345376
2057.011143,-9193.145976,3182.885551,17838.963202
2057.011460,-7967.393179,7328.038826,6365.771101
2057.011777,3064.381992,10140.821405,5181.441594
2057.012095,11261.603821,8364.327145,8734.430116
2057.012412,14172.766713,592.164754,4219.173869
2057.012730,16624.272307,1850.514855,-2368.659014
2057.013047,15781.567259,-2072.576638,1628.453072
2057.013365,9652.803275,-7105.977043,1702.473667
2057.013682,6128.763984,-7402.059420,1850.514855
2057.013999,1455.581446,-5921.647536,7402.059420
2057.014317,-4979.620737,-4811.338623,14137.933492
2057.014634,-8886.707777,-5699.585753,17838.963202
2057.014952,-8350.440928,-4737.318029,25537.104999
2057.015269,-13789.718964,-444.123565,13545.768739
2057.015587,-11568.042020,888.247130,18727.210333
2057.015904,-8427.050478,5551.544565,14211.954086
2057.016221,-2068.457845,10214.842000,7105.977043
2057.016539,7354.516781,10955.047942,7550.100608
2057.016856,13942.938064,6883.915261,5477.523971
2057.017174,14785.643111,2072.576638,962.267725
2057.017491,13866.328514,888.247130,-296.082377
2057.017809,12487.356617,-7624.121203,8142.265362
2057.018126,4136.915689,-8438.347739,222.061783
2057.018443,3064.381992,-8290.306550,2960.823768
2057.018761,-2604.724693,-5107.421000,10214.842000
2057.019078,-6894.859482,-3627.009116,16284.530724
2057.019396,-7277.907231,-3775.050304,18875.251521
2057.019713,-11031.775171,-2294.638420,14952.160028
2057.020031,-13559.890315,740.205942,14952.160028
2057.020348,-10572.117872,2886.803174,19171.333898
2057.020665,-8120.612279,5921.647536,9696.697840
2057.020983,1608.800546,8364.327145,3627.009116
2057.021300,9499.584175,9474.636058,8734.430116
2057.021618,13866.328514,4145.153275,3849.070898
2057.021935,14938.862211,2590.720797,-1702.473667
2057.022253,11721.261119,-2072.576638,296.082377
2057.022570,7584.345430,-6809.894666,3330.926739
2057.022887,3447.429741,-5699.585753,1406.391290
2057.023205,-383.047749,-5477.523971,5921.647536
2057.023522,-5592.497135,-4811.338623,12435.459826
2057.023840,-8656.879127,-4515.256246,18875.251521
2057.024157,-8044.002729,-4293.194464,23834.631332
2057.024475,-14862.252661,2368.659014,13471.748144
2057.024792,-10725.336972,888.247130,20725.766376
2057.025109,-9346.365076,4811.338623,15322.262999
2057.025427,-919.314598,13915.871710,6883.915261
2057.025744,8886.707777,11917.315666,4441.235652
2057.026062,14709.033562,9326.594869,4441.235652
2057.026379,18309.682402,4367.215058,814.226536
2057.026697,16394.443657,2738.761985,-2812.782580
2057.027014,13100.233016,-4589.276840,5773.606348
2057.027331,4979.620737,-8290.306550,888.247130
2057.027649,3140.991542,-7402.059420,4737.318029
2057.027966,-995.924147,-8438.347739,14359.995275
2057.028284,-5898.935335,-5551.544565,17394.839637
2057.028601,-7737.564530,-1406.391290,20799.786970
2057.028919,-8886.707777,1628.453072,17838.963202
2057.029236,-10648.727422,5773.606348,15322.262999
2057.029553,-7584.345430,4219.173869,19541.436869
2057.029871,-5822.325785,7846.182985,9474.636058
2057.030188,3140.991542,9844.739029,2960.823768
2057.030506,11874.480219,8660.409521,6365.771101
2057.030823,15475.129060,2072.576638,4589.276840
2057.031141,15551.738609,148.041188,2738.761985
2057.031458,11568.042020,-4811.338623,1110.308913
2057.031775,6358.592633,-7179.997637,5625.565159
2057.032093,2145.067394,-7994.224174,4293.194464
2057.032410,-1072.533697,-6661.853478,7402.059420
2057.032728,-6128.763984,-5329.482782,15174.221811
2057.033045,-9576.193725,-3849.070898,18579.169144
2057.033363,-9806.022374,-4219.173869,21465.972318
2057.033680,-15781.567259,-444.123565,11769.274478
2057.033997,-14785.643111,-3108.864956,26277.310941
2057.034315,-13713.109414,222.061783,19319.375086
2057.034632,-5822.325785,12139.377449,5329.482782
2057.034950,5362.668486,11325.150913,5255.462188
2057.035267,11261.603821,6883.915261,7846.182985
2057.035585,13406.671215,814.226536,1776.494261
2057.035902,12870.404366,1110.308913,-1110.308913
2057.036219,11338.213370,-4811.338623,5551.544565
2057.036537,4290.134789,-6809.894666,1554.432478
2057.036854,4290.134789,-8142.265362,3997.112087
2057.037172,-1302.362347,-4737.318029,9548.656652
2057.037489,-5209.449386,-4811.338623,17024.736666
2057.037807,-6435.202183,-962.267725,17838.963202
2057.038124,-8350.440928,2368.659014,14063.912898
2057.038441,-10495.508323,2220.617826,16358.551318
2057.038759,-8120.612279,3034.844362,17764.942608
2057.039076,-5439.278036,7772.162391,7920.203579
2057.039394,2987.772442,10066.800811,2294.638420
2057.039711,12257.527968,4737.318029,6143.709319
2057.040029,14709.033562,2294.638420,4293.194464
2057.040346,17007.320056,222.061783,1184.329507
2057.040663,14325.985813,-3997.112087,2146.597232
2057.040981,8197.221829,-6513.812290,2590.720797
2057.041298,6128.763984,-9474.636058,4885.359217
2057.041616,2834.553343,-5921.647536,6883.915261
2057.041933,-6511.811733,-3108.864956,13471.748144
2057.042251,-4903.011187,-962.267725,17246.798449
2057.042568,-6435.202183,2664.741391,16210.510130
2057.042885,-8886.707777,5107.421000,13323.706956
2057.043203,-8273.831378,370.102971,17246.798449
2057.043520,-7890.783629,4441.235652,11769.274478
2057.043838,-919.314598,5847.626942,7105.977043
2057.044155,7048.078582,6809.894666,7846.182985
2057.044473,11568.042020,2960.823768,3997.112087
2057.044790,14325.985813,-2664.741391,3775.050304
2057.045107,12563.966167,-1554.432478,1924.535449
2057.045425,8197.221829,-4589.276840,5255.462188
2057.045742,4290.134789,-5921.647536,2886.803174
2057.046060,2068.457845,-3997.112087,3997.112087
2057.046377,-2145.067394,-2738.761985,13027.624579
2057.046695,-8273.831378,-0.000000,14508.036463
2057.047012,-9422.974625,814.226536,18505.148550
2057.047329,-13406.671215,-222.061783,13767.830521
2057.047647,-13713.109414,-148.041188,21243.910535
2057.047964,-10572.117872,1924.535449,20429.683999
2057.048282,-7201.297681,7846.182985,10510.924376
2057.048599,1302.362347,9844.739029,6661.853478
2057.048917,7890.783629,8438.347739,7994.224174
2057.049234,13789.718964,444.123565,8364.327145
2057.049551,14019.547613,444.123565,3849.070898
2057.049869,12180.918418,-1036.288319,1850.514855
2057.050186,8656.879127,-3775.050304,2294.638420
2057.050504,5975.544884,-5033.400406,2220.617826
2057.050821,2987.772442,-5255.462188,7476.080014
2057.051139,-4596.572988,-5699.585753,12953.603985
2057.051456,-7354.516781,-5329.482782,16950.716072
2057.051773,-11414.822920,-1850.514855,16506.592507
2057.052091,-13942.938064,-222.061783,16284.530724
2057.052408,-11491.432470,2220.617826,18135.045579
2057.052726,-8656.879127,3627.009116,14434.015869
2057.053043,-2451.505594,10732.986159,6957.935855
2057.053361,6281.983084,8512.368333,7254.018232
2057.053678,12027.699319,2442.679609,7328.038826
2057.053995,15092.081311,-1776.494261,7105.977043
2057.054313,12947.013916,-2664.741391,4367.215058
2057.054630,9806.022374,-4737.318029,5773.606348
2057.054948,6128.763984,-4737.318029,2664.741391
2057.055265,3524.039291,-3775.050304,3330.926739
2057.055583,-842.705048,-1998.556043,11917.315666
2057.055900,-5592.497135,-666.185348,13767.830521
2057.056217,-7048.078582,3182.885551,15692.365970
2057.056535,-9729.412825,3849.070898,13619.789333
2057.056852,-7660.954980,3108.864956,17690.922014
2057.057170,-5745.716235,4219.173869,14359.995275
2057.057487,-1225.752797,4885.359217,8068.244768
2057.057805,5056.230287,6291.750507,3330.926739
2057.058122,12257.527968,2368.659014,6217.729913
2057.058439,15628.348159,-1554.432478,6069.688724
2057.058757,13789.718964,-2368.659014,3775.050304
2057.059074,10189.070123,-4071.132681,3330.926739
2057.059392,5132.839837,-2738.761985,666.185348
2057.059709,3217.601092,-2368.659014,1184.329507
2057.060027,-842.705048,-4441.235652,8956.491898
2057.060344,-7277.907231,-2220.617826,12953.603985
2057.060661,-8733.488677,-1776.494261,16432.571912
2057.060979,-11951.089769,-74.020594,16284.530724
2057.061296,-12334.137518,444.123565,16950.716072
2057.061614,-9116.536426,1776.494261,21021.848753
2057.061931,-6665.030833,4293.194464,11843.295072
2057.062249,919.314598,11325.150913,5403.503377
2057.062566,6741.640382,10732.986159,4367.215058
2057.062883,11797.870669,2368.659014,7994.224174
2057.063201,13023.623466,-1036.288319,4219.173869
2057.063518,10418.898773,-0.000000,3034.844362
2057.063836,7048.078582,-1406.391290,1406.391290
2057.064153,3830.477490,-4367.215058,1184.329507
2057.064471,2451.505594,-7698.141797,5921.647536
2057.064788,-4979.620737,-7328.038826,11843.295072
2057.065105,-7507.735880,-5255.462188,18283.086767
2057.065423,-10265.679673,1258.350101,16802.674883
2057.065740,-10955.165621,1998.556043,13915.871710
2057.066058,-9576.193725,1332.370696,18579.169144
2057.066375,-7814.174080,3478.967927,17024.736666
2057.066692,-3064.381992,10288.862594,8142.265362
2057.067010,4596.572988,7254.018232,4515.256246
2057.067327,10265.679673,1628.453072,6513.812290
2057.067645,11797.870669,-3108.864956,7402.059420
2057.067962,12334.137518,-2368.659014,4441.235652
2057.068280,10725.336972,-4811.338623,7550.100608
2057.068597,4903.011187,-4293.194464,-518.144159
2057.068914,4596.572988,-4071.132681,4071.132681
2057.069232,153.219100,-5033.400406,12287.418637
2057.069549,-5592.497135,-2960.823768,15988.448347
2057.069867,-8733.488677,-296.082377,17320.819043
2057.070184,-9806.022374,1998.556043,13323.706956
2057.070502,-9116.536426,3997.112087,15322.262999
2057.070819,-5898.935335,1998.556043,20725.766376
2057.071136,-2604.724693,2812.782580,11843.295072
2057.071454,3064.381992,6883.915261,3182.885551
2057.071771,11338.213370,3849.070898,5551.544565
2057.072089,13942.938064,-3108.864956,5847.626942
2057.072406,14709.033562,-3627.009116,3034.844362
2057.072724,11568.042020,-1776.494261,3404.947333
2057.073041,5362.668486,-74.020594,-962.267725
2057.073358,3983.696590,-1554.432478,3923.091493
2057.073676,3140.991542,-6365.771101,11177.109724
2057.073993,-7124.688131,-1258.350101,13693.809927
2057.074311,-6894.859482,-3997.112087,19837.519246
2057.074628,-10418.898773,-222.061783,15766.386565
2057.074946,-9269.755526,-1184.329507,15840.407159
2057.075263,-5822.325785,-2072.576638,22946.384202
2057.075580,-4826.401637,1332.370696,11621.233289
2057.075898,2681.334243,9326.594869,2886.803174
2057.076215,9806.022374,7328.038826,3923.091493
2057.076533,12947.013916,1554.432478,5181.441594
2057.076850,13253.452115,-2146.597232,3627.009116
2057.077168,11108.384721,222.061783,4071.132681
2057.077485,6052.154434,-1850.514855,-148.041188
2057.077802,2987.772442,-3775.050304,1702.473667
2057.078120,842.705048,-5773.606348,9474.636058
2057.078437,-2834.553343,-6365.771101,12435.459826
2057.078755,-10035.851024,-4071.132681,16358.551318
2057.079072,-9499.584175,-2368.659014,16580.613101
2057.079390,-14096.157163,222.061783,8512.368333
2057.079707,-10112.460574,-888.247130,21984.116477
2057.080024,-8810.098227,962.267725,17690.922014
2057.080342,-3600.648841,12287.418637,4811.338623
2057.080659,4519.963438,12287.418637,4219.173869
2057.080977,9193.145976,6735.874072,4293.194464
2057.081294,11108.384721,-0.000000,3330.926739
2057.081612,11491.432470,592.164754,5995.668130
2057.081929,7584.345430,-2664.741391,5921.647536
2057.082246,1838.629195,-740.205942,-1554.432478
2057.082564,3447.429741,-4959.379811,7105.977043
2057.082881,-1072.533697,-4219.173869,10436.903782
2057.083199,-8120.612279,-5403.503377,14063.912898
2057.083516,-9576.193725,-740.205942,15914.427753
2057.083834,-11568.042020,1110.308913,12065.356855
2057.084151,-11491.432470,1554.432478,15396.283594
2057.084468,-7814.174080,-0.000000,20947.828159
2057.084786,-5132.839837,5699.585753,11547.212695
2057.085103,2987.772442,8290.306550,4293.194464
2057.085421,9806.022374,4811.338623,6365.771101
2057.085738,12870.404366,-1702.473667,5403.503377
2057.086056,14325.985813,-148.041188,5551.544565
2057.086373,12410.747068,-1480.411884,6365.771101
2057.086690,5515.887586,-2146.597232,0.000000
2057.087008,4596.572988,-3478.967927,3701.029710
2057.087325,1455.581446,-4959.379811,10732.986159
2057.087643,-4903.011187,-4367.215058,14211.954086
2057.087960,-8656.879127,-4071.132681,19911.539840
2057.088278,-9576.193725,-296.082377,17172.777854
2057.088595,-11031.775171,3478.967927,14359.995275
2057.088912,-6281.983084,1332.370696,23686.590144
2057.089230,-3600.648841,1850.514855,15988.448347
2057.089547,2145.067394,9030.512492,5255.462188
2057.089865,10878.556072,7476.080014,4071.132681
2057.090182,14632.424012,2886.803174,3701.029710
2057.090500,14019.547613,-3627.009116,4441.235652
2057.090817,12257.527968,-2516.700203,4959.379811
2057.091134,6511.811733,-1702.473667,1184.329507
2057.091452,1608.800546,-2146.597232,3256.906145
2057.091769,76.609550,-5551.544565,12287.418637
2057.092087,-4596.572988,-2960.823768,12879.583391
2057.092404,-6971.469032,-222.061783,17764.942608
2057.092721,-7814.174080,1110.308913,17468.860231
2057.093039,-9806.022374,2072.576638,12287.418637
2057.093356,-6665.030833,-518.144159,16358.551318
2057.093674,-3600.648841,-814.226536,16580.613101
2057.093991,-842.705048,5329.482782,8068.244768
2057.094309,5439.278036,5403.503377,3256.906145
2057.094626,10189.070123,2664.741391,3330.926739
2057.094943,12334.137518,-2368.659014,4885.359217
2057.095261,10112.460574,-2220.617826,5995.668130
2057.095578,6511.811733,-5921.647536,4663.297435
2057.095896,1455.581446,-4367.215058,1628.453072
2057.096213,842.705048,-6735.874072,7402.059420
2057.096531,-1302.362347,-5773.606348,12879.583391
2057.096848,-4673.182538,-2442.679609,14211.954086
2057.097165,-5669.106685,1776.494261,14656.077652
2057.097483,-6128.763984,1628.453072,10510.924376
2057.097800,-5669.106685,1406.391290,11473.192101
2057.098118,-3294.210641,-370.102971,18061.024985
2057.098435,-612.876398,3330.926739,9696.697840
2057.098753,4290.134789,6217.729913,1332.370696
2057.099070,11414.822920,3552.988522,2738.761985
2057.099387,12334.137518,-3701.029710,2812.782580
2057.099705,10265.679673,-2886.803174,3552.988522
2057.100022,8656.879127,-4293.194464,5477.523971
2057.100340,3753.867940,-3182.885551,74.020594
2057.100657,153.219100,-4293.194464,3849.070898
2057.100975,-2451.505594,-6069.688724,12879.583391
2057.101292,-7890.783629,-4737.318029,13693.809927
2057.101609,-8733.488677,-1850.514855,18135.045579
2057.101927,-9729.412825,-740.205942,11325.150913
2057.102244,-9576.193725,1406.391290,13915.871710
2057.102562,-6358.592633,-518.144159,19689.478057
2057.102879,-2528.115143,4737.318029,10807.006753
2057.103197,2374.896044,7550.100608,2516.700203
2057.103514,7354.516781,4515.256246,4885.359217
2057.103831,9576.193725,296.082377,3849.070898
2057.104149,10572.117872,-2516.700203,3923.091493
2057.104466,9499.584175,-2442.679609,6291.750507
2057.104784,4979.620737,-3552.988522,888.247130
2057.105101,1225.752797,-4219.173869,3404.947333
2057.105419,-1762.019645,-7031.956449,14137.933492
2057.105736,-7048.078582,-5403.503377,14508.036463
2057.106053,-7737.564530,-0.000000,16654.633695
2057.106371,-7048.078582,2220.617826,14730.098246
2057.106688,-7890.783629,3034.844362,13323.706956
2057.107006,-4443.353888,1184.329507,16432.571912
2057.107323,-2068.457845,3404.947333,13693.809927
2057.107641,2374.896044,5847.626942,6957.935855
2057.107958,9422.974625,3923.091493,5403.503377
2057.108275,13023.623466,2738.761985,2220.617826
2057.108593,15704.957709,1110.308913,4959.379811
2057.108910,13483.280765,1332.370696,3849.070898
2057.109228,9269.755526,-222.061783,1480.411884
2057.109545,3294.210641,-592.164754,2812.782580
2057.109863,0.000000,-4071.132681,12805.562797
2057.110180,-6358.592633,-1554.432478,13545.768739
2057.110497,-6971.469032,-592.164754,18209.066173
2057.110815,-8350.440928,2886.803174,17764.942608
2057.111132,-6435.202183,1628.453072,16580.613101
2057.111450,-5439.278036,3182.885551,14063.912898
2057.111767,-2681.334243,1702.473667,16802.674883
2057.112085,0.000000,3404.947333,11769.274478
2057.112402,3677.258390,3330.926739,5921.647536
2057.112719,9499.584175,1406.391290,6143.709319
2057.113037,11797.870669,-370.102971,5329.482782
2057.113354,9959.241474,-0.000000,1998.556043
2057.113672,7584.345430,-148.041188,3997.112087
2057.113989,2604.724693,-370.102971,3330.926739
2057.114307,153.219100,-3404.947333,7698.141797
2057.114624,-5056.230287,-4441.235652,15544.324782
2057.114941,-8886.707777,-3923.091493,18283.086767
2057.115259,-10035.851024,-296.082377,18209.066173
2057.115576,-8350.440928,-148.041188,15544.324782
2057.115894,-6665.030833,2220.617826,12509.480420
2057.116211,-3294.210641,3108.864956,16728.654289
2057.116529,-995.924147,5181.441594,9770.718434
2057.116846,1915.238745,5403.503377,4737.318029
2057.117163,6281.983084,3775.050304,5773.606348
2057.117481,9959.241474,-740.205942,4885.359217
2057.117798,9499.584175,1036.288319,4367.215058
2057.118116,8427.050478,-0.000000,3182.885551
2057.118433,4443.353888,-1924.535449,74.020594
2057.118750,919.314598,-3923.091493,4515.256246
2057.119068,-2604.724693,-5255.462188,13693.809927
2057.119385,-8810.098227,-3849.070898,14730.098246
2057.119703,-8656.879127,-2220.617826,17172.777854
2057.120020,-8656.879127,2442.679609,12657.521608
2057.120338,-6205.373534,5181.441594,10362.883188
2057.120655,-2834.553343,4293.194464,13915.871710
2057.120972,-1072.533697,4293.194464,9474.636058
2057.121290,2451.505594,4811.338623,5625.565159
2057.121607,7201.297681,444.123565,5477.523971
2057.121925,10035.851024,-2220.617826,6365.771101
2057.122242,10955.165621,-3849.070898,5403.503377
2057.122560,10265.679673,-2886.803174,6069.688724
2057.122877,7354.516781,-2368.659014,888.247130
2057.123194,2221.676944,-2442.679609,3701.029710
2057.123512,919.314598,-5625.565159,13471.748144
2057.123829,-4826.401637,-2516.700203,13693.809927
2057.124147,-6818.249932,-1480.411884,16432.571912
2057.124464,-7354.516781,2664.741391,13249.686362
2057.124782,-4903.011187,4737.318029,12731.542202
2057.125099,-2298.286494,4589.276840,11251.130318
2057.125416,1608.800546,3182.885551,10881.027347
2057.125734,2681.334243,2738.761985,5847.626942
2057.126051,6741.640382,592.164754,6735.874072
2057.126369,11874.480219,-3034.844362,6217.729913
2057.126686,11644.651570,-2590.720797,4663.297435
2057.127004,11184.994271,-2812.782580,6365.771101
2057.127321,6818.249932,-888.247130,1776.494261
2057.127638,2374.896044,-1332.370696,3330.926739
2057.127956,-2068.457845,-3849.070898,12213.398043
2057.128273,-6894.859482,-3034.844362,14656.077652
2057.128591,-9116.536426,-666.185348,16876.695478
2057.128908,-9806.022374,2738.761985,16802.674883
2057.129226,-6588.421283,3923.091493,14804.118840
2057.129543,-4903.011187,5403.503377,11473.192101
2057.129860,-536.266849,4589.276840,11251.130318
2057.130178,1225.752797,5033.400406,8364.327145
2057.130495,4060.306139,1998.556043,5995.668130
2057.130813,8733.488677,-962.267725,8290.306550
2057.131130,10418.898773,-4959.379811,8956.491898
2057.131448,10112.460574,-2812.782580,7328.038826
2057.131765,9346.365076,-2516.700203,5477.523971
2057.132082,4903.011187,-0.000000,222.061783
2057.132400,1072.533697,-1110.308913,6809.894666
2057.132717,-2987.772442,-1776.494261,12657.521608
2057.133035,-7354.516781,370.102971,14063.912898
2057.133352,-9499.584175,888.247130,15248.242405
2057.133670,-7890.783629,1702.473667,16062.468941
2057.133987,-5898.935335,4737.318029,12213.398043
2057.134304,-2451.505594,3627.009116,11991.336260
2057.134622,-1302.362347,2442.679609,9474.636058
2057.134939,995.924147,1850.514855,8290.306550
2057.135257,5592.497135,-2664.741391,11547.212695
2057.135574,8886.707777,-3552.988522,9030.512492
2057.135892,8886.707777,-2516.700203,7402.059420
2057.136209,8580.269578,-962.267725,3849.070898
2057.136526,6818.249932,1258.350101,74.020594
2057.136844,2145.067394,888.247130,3775.050304
2057.137161,-1838.629195,-296.082377,12213.398043
2057.137479,-6588.421283,1998.556043,13397.727550
2057.137796,-8810.098227,3849.070898,13989.892304
2057.138114,-7814.174080,4737.318029,15174.221811
2057.138431,-6511.811733,5403.503377,11029.068536
2057.138748,-3217.601092,4663.297435,9326.594869
2057.139066,-229.828649,3108.864956,9474.636058
2057.139383,1838.629195,296.082377,9030.512492
2057.139701,5362.668486,-3775.050304,10510.924376
2057.140018,9269.755526,-5403.503377,11177.109724
2057.140336,9422.974625,-4885.359217,7402.059420
2057.140653,9652.803275,-1554.432478,4737.318029
2057.140970,8656.879127,1332.370696,-148.041188
2057.141288,4673.182538,2516.700203,1998.556043
2057.141605,153.219100,2442.679609,9474.636058
2057.141923,-5132.839837,3701.029710,9474.636058
2057.142240,-7124.688131,2294.638420,13619.789333
2057.142558,-8044.002729,1776.494261,14285.974681
2057.142875,-6818.249932,148.041188,13915.871710
2057.143192,-4826.401637,1554.432478,10362.883188
2057.143510,-842.705048,518.144159,10955.047942
2057.143827,1915.238745,1110.308913,9104.533087
2057.144145,4826.401637,-2368.659014,10066.800811
2057.144462,9652.803275,-4219.173869,11547.212695
2057.144779,10035.851024,-4885.359217,8364.327145
2057.145097,8580.269578,-1036.288319,4589.276840
2057.145414,7584.345430,1702.473667,814.226536
2057.145732,4290.134789,3034.844362,2294.638420
2057.146049,1685.410096,2516.700203,8068.244768
2057.146367,-3217.601092,2886.803174,10881.027347
2057.146684,-7354.516781,1776.494261,13471.748144
2057.147001,-9116.536426,1702.473667,15248.242405
2057.147319,-7507.735880,-0.000000,14952.160028
2057.147636,-5515.887586,518.144159,12879.583391
2057.147954,-1991.848295,-222.061783,13323.706956
2057.148271,689.485948,814.226536,10658.965565
2057.148589,4826.401637,-2738.761985,11103.089130
2057.148906,10801.946522,-4811.338623,14285.974681
2057.149223,11568.042020,-5847.626942,9844.739029
2057.149541,11184.994271,-2368.659014,4811.338623
2057.149858,11031.775171,370.102971,1406.391290
2057.150176,9116.536426,3034.844362,-370.102971
2057.150493,5132.839837,3552.988522,3478.967927
2057.150811,-229.828649,4145.153275,7031.956449
2057.151128,-5056.230287,3108.864956,9326.594869
2057.151445,-9269.755526,2368.659014,11843.295072
2057.151763,-9269.755526,-1628.453072,16210.510130
2057.152080,-9652.803275,-1036.288319,13545.768739
2057.152398,-6971.469032,-1998.556043,14656.077652
2057.152715,-4903.011187,-1776.494261,14730.098246
2057.153033,-1225.752797,-1924.535449,12509.480420
2057.153350,5515.887586,-3330.926739,14582.057057
2057.153667,9882.631924,-4219.173869,11991.336260
2057.153985,9729.412825,-2812.782580,7105.977043
2057.154302,9729.412825,1184.329507,2220.617826
2057.154619,8580.269578,4145.153275,-1036.288319
2057.154937,4519.963438,5477.523971,148.041188
2057.155254,919.314598,6513.812290,4219.173869
2057.155572,-4443.353888,6735.874072,6661.853478
2057.155889,-7967.393179,3849.070898,9474.636058
2057.156206,-10265.679673,1110.308913,13545.768739
2057.156524,-10189.070123,-1776.494261,14878.139434
2057.156841,-8503.660028,-3997.112087,15248.242405
2057.157158,-6741.640382,-3330.926739,13989.892304
2057.157476,-3064.381992,-3330.926739,13989.892304
2057.157793,2911.162892,-4885.359217,15692.365970
2057.158110,8963.317327,-5181.441594,14656.077652
2057.158428,12027.699319,-3108.864956,9622.677246
2057.158745,11568.042020,962.267725,2664.741391
2057.159063,11414.822920,3182.885551,814.226536
2057.159380,8197.221829,6143.709319,-148.041188
2057.159697,2374.896044,6439.791695,2368.659014
2057.160015,-1149.143247,5699.585753,5255.462188
2057.160332,-6205.373534,5329.482782,7179.997637
2057.160649,-8427.050478,4219.173869,11991.336260
2057.160967,-7890.783629,-518.144159,14285.974681
2057.161284,-8963.317327,-1258.350101,13027.624579
2057.161601,-6358.592633,-3923.091493,15248.242405
2057.161919,-4903.011187,-4219.173869,16580.613101
2057.162236,0.000000,-5403.503377,17764.942608
2057.162554,6971.469032,-5107.421000,16728.654289
2057.162871,11261.603821,-3330.926739,12361.439231
2057.163188,12947.013916,-444.123565,6143.709319
2057.163506,12793.794817,4293.194464,0.000000
2057.163823,10265.679673,7994.224174,-3182.885551
2057.164140,6818.249932,8734.430116,-370.102971
2057.164458,1378.971896,8068.244768,1036.288319
2057.164775,-4213.525239,8956.491898,4959.379811
2057.165092,-6741.640382,6513.812290,8142.265362
2057.165410,-8886.707777,2220.617826,13249.686362
2057.165727,-9729.412825,-3108.864956,16210.510130
2057.166045,-9269.755526,-5329.482782,15766.386565
2057.166362,-7967.393179,-5329.482782,17394.839637
2057.166679,-3064.381992,-5847.626942,20133.601622
2057.166997,3217.601092,-7179.997637,21317.931130
2057.167314,7431.126331,-6143.709319,16136.489536
2057.167631,11491.432470,-2590.720797,9178.553681
2057.167949,11414.822920,2294.638420,1184.329507
2057.168266,11261.603821,4737.318029,-370.102971
2057.168583,7814.174080,6735.874072,-1850.514855
2057.168901,2298.286494,7254.018232,-1184.329507
2057.169218,-1685.410096,5847.626942,4515.256246
2057.169536,-8120.612279,5551.544565,5995.668130
2057.169853,-8273.831378,1110.308913,12361.439231
2057.170170,-9422.974625,296.082377,12731.542202
2057.170488,-9806.022374,-3775.050304,12213.398043
2057.170805,-9652.803275,-8216.285956,16654.633695
2057.171122,-7814.174080,-8438.347739,23316.487173
2057.171440,-1762.019645,-8660.409521,21465.972318
2057.171757,4673.182538,-7105.977043,18949.272115
2057.172074,11031.775171,-3182.885551,13693.809927
2057.172392,12793.794817,888.247130,5773.606348
2057.172709,13100.233016,5625.565159,-962.267725
2057.173027,12410.747068,8364.327145,-4071.132681
2057.173344,6665.030833,10362.883188,-2442.679609
2057.173661,2451.505594,9548.656652,740.205942
2057.173979,-3370.820191,9474.636058,2146.597232
2057.174296,-4443.353888,6069.688724,8364.327145
2057.174613,-6741.640382,2738.761985,11843.295072
2057.174931,-8120.612279,-2738.761985,11695.253884
2057.175248,-8427.050478,-5847.626942,14063.912898
2057.175565,-8120.612279,-9252.574275,19171.333898
2057.175883,-3600.648841,-11473.192101,21614.013506
2057.176200,1455.581446,-11769.274478,19911.539840
2057.176518,8273.831378,-9030.512492,17616.901420
2057.176835,11184.994271,-3182.885551,8364.327145
2057.177152,13789.718964,2812.782580,1036.288319
2057.177470,13176.842566,7476.080014,-2368.659014
2057.177787,9729.412825,10362.883188,-3701.029710
2057.178104,3753.867940,10955.047942,-3404.947333
2057.178422,-3217.601092,8068.244768,2368.659014
2057.178739,-6665.030833,4737.318029,6883.915261
2057.179056,-8427.050478,1850.514855,11991.336260
2057.179374,-8733.488677,-1628.453072,13471.748144
2057.179691,-8886.707777,-5699.585753,11843.295072
2057.180009,-8273.831378,-8660.409521,17246.798449
2057.180326,-6665.030833,-10732.986159,22428.240043
2057.180643,-689.485948,-11103.089130,23242.466579
2057.180961,5745.716235,-8956.491898,19097.313304
2057.181278,10725.336972,-3997.112087,11399.171507
2057.181595,14402.595362,1924.535449,4145.153275
2057.181913,16317.834107,7772.162391,-888.247130
2057.182230,14325.985813,11621.233289,-3627.009116
2057.182547,9346.365076,11695.253884,-3775.050304
2057.182865,2068.457845,11103.089130,-1776.494261
2057.183182,-3447.429741,9104.533087,1776.494261
2057.183500,-5822.325785,4589.276840,9252.574275
2057.183817,-8197.221829,-888.247130,12509.480420
2057.184134,-9499.584175,-5773.606348,13767.830521
2057.184452,-9652.803275,-8438.347739,16284.530724
2057.184769,-9729.412825,-10658.965565,21836.075289
2057.185086,-5898.935335,-13323.706956,25018.960840
2057.185404,-1072.533697,-13101.645173,23982.672521
2057.185721,5745.716235,-8882.471304,18357.107362
2057.186038,9882.631924,-2516.700203,10436.903782
2057.186356,14249.376263,4441.235652,2812.782580
2057.186673,14862.252661,8216.285956,-2368.659014
2057.186991,11491.432470,13175.665768,-5921.647536
2057.187308,6128.763984,12731.542202,-5921.647536
2057.187625,-2911.162892,9030.512492,-740.205942
2057.187943,-7048.078582,4663.297435,5033.400406
2057.188260,-9193.145976,3108.864956,9548.656652
2057.188577,-10801.946522,-1702.473667,13175.665768
2057.188895,-11261.603821,-6883.915261,15100.201217
2057.189212,-12410.747068,-10362.883188,18283.086767
2057.189529,-10112.460574,-13397.727550,25759.166782
2057.189847,-4826.401637,-12361.439231,25389.063811
2057.190164,2451.505594,-10214.842000,21317.931130
2057.190482,9039.926876,-4293.194464,13767.830521
2057.190799,14096.157163,3627.009116,7550.100608
2057.191116,17466.977354,9992.780217,370.102971
2057.191434,16624.272307,15396.283594,-7624.121203
2057.191751,12257.527968,19689.478057,-7846.182985
2057.192068,5286.058936,15100.201217,-5477.523971
2057.192386,-1838.629195,10436.903782,-1036.288319
2057.192703,-4596.572988,6143.709319,7105.977043
2057.193020,-7507.735880,1036.288319,9252.574275
2057.193338,-9576.193725,-3923.091493,11843.295072
2057.193655,-7507.735880,-8882.471304,18727.210333
2057.193973,-8197.221829,-11399.171507,21465.972318
2057.194290,-6665.030833,-13027.624579,24278.754898
2057.194607,-1608.800546,-15100.201217,22946.384202
2057.194925,3983.696590,-11325.150913,20059.581028
2057.195242,9729.412825,-3552.988522,12953.603985
2057.195559,13789.718964,4293.194464,3997.112087
2057.195877,14862.252661,10066.800811,-2146.597232
2057.196194,12793.794817,15988.448347,-4663.297435
2057.196511,7048.078582,16950.716072,-9104.533087
2057.196829,-383.047749,10510.924376,-2516.700203
2057.197146,-5515.887586,4737.318029,4663.297435
2057.197464,-8580.269578,296.082377,11103.089130
2057.197781,-10495.508323,-1110.308913,10658.965565
2057.198098,-8656.879127,-4885.359217,16432.571912
2057.198416,-8503.660028,-8216.285956,18579.169144
2057.198733,-8580.269578,-12287.418637,22946.384202
2057.199050,-5975.544884,-14063.912898,26869.475695
2057.199368,-1072.533697,-13027.624579,23908.651927
2057.199685,5745.716235,-7328.038826,17246.798449
2057.200002,10725.336972,592.164754,10140.821405
2057.200320,14785.643111,5403.503377,4219.173869
2057.200637,16088.005458,12953.603985,-4219.173869
2057.200955,11568.042020,17987.004391,-10658.965565
2057.201272,6358.592633,15544.324782,-7179.997637
2057.201589,-919.314598,9622.677246,-1554.432478
2057.201907,-5132.839837,3552.988522,6143.709319
2057.202224,-9193.145976,1332.370696,10066.800811
2057.202541,-10342.289223,-3478.967927,14211.954086
2057.202859,-9806.022374,-8290.306550,15840.407159
2057.203176,-8197.221829,-10807.006753,20059.581028
2057.203493,-6971.469032,-13471.748144,25389.063811
2057.203811,-2451.505594,-14952.160028,25907.207970
2057.204128,1991.848295,-11103.089130,20725.766376
2057.204446,8427.050478,-5699.585753,14582.057057
2057.204763,13330.061665,2886.803174,6735.874072
2057.205080,15475.129060,10288.862594,-1184.329507
2057.205398,13866.328514,15840.407159,-9030.512492
2057.205715,8810.098227,17764.942608,-9326.594869
2057.206032,2298.286494,13101.645173,-3478.967927
2057.206350,-4060.306139,7328.038826,2812.782580
2057.206667,-7124.688131,2812.782580,7920.203579
2057.206984,-8580.269578,518.144159,11473.192101
2057.207302,-8120.612279,-4959.379811,14211.954086
2057.207619,-8580.269578,-10140.821405,16654.633695
2057.207937,-9039.926876,-14285.974681,22576.281231
2057.208254,-4749.792088,-15174.221811,25092.981434
2057.208571,-536.266849,-13323.706956,22946.384202
2057.208889,5362.668486,-9696.697840,19837.519246
2057.209206,10035.851024,-2368.659014,11103.089130
2057.209523,14402.595362,6143.709319,3701.029710
2057.209841,15551.738609,13101.645173,-3701.029710
2057.210158,12104.308868,18209.066173,-8512.368333
2057.210476,6588.421283,16728.654289,-7402.059420
2057.210793,76.609550,11917.315666,-3404.947333
2057.211110,-2834.553343,7105.977043,5403.503377
2057.211428,-5745.716235,1110.308913,9104.533087
2057.211745,-7737.564530,-4515.256246,11769.274478
2057.212062,-6894.859482,-9030.512492,15544.324782
2057.212380,-8273.831378,-12065.356855,20281.642811
2057.212697,-8350.440928,-17098.757260,25759.166782
2057.213014,-4290.134789,-16432.571912,25759.166782
2057.213332,1225.752797,-11695.253884,21317.931130
2057.213649,8273.831378,-4737.318029,15840.407159
2057.213967,13942.938064,2738.761985,5699.585753
2057.214284,15858.176809,10066.800811,-1924.535449
2057.214601,15321.909960,15618.345376,-6883.915261
2057.214919,9346.365076,17616.901420,-9178.553681
2057.215236,2221.676944,15322.262999,-6587.832884
2057.215553,-2451.505594,10066.800811,666.185348
2057.215871,-5515.887586,5477.523971,6513.812290
2057.216188,-7737.564530,-74.020594,10881.027347
2057.216505,-8810.098227,-5551.544565,13989.892304
2057.216823,-9806.022374,-11177.109724,17912.983796
2057.217140,-10801.946522,-14063.912898,23538.548956
2057.217458,-8503.660028,-17320.819043,28423.908173
2057.217775,-5056.230287,-15692.365970,26203.290347
2057.218092,995.924147,-8956.491898,21095.869347
2057.218410,8044.002729,-814.226536,12953.603985
2057.218727,13483.280765,7476.080014,4145.153275
2057.219044,16088.005458,12953.603985,-2886.803174
2057.219362,11414.822920,18801.230927,-9178.553681
2057.219679,6205.373534,17024.736666,-6957.935855
2057.219996,-1149.143247,11843.295072,-4441.235652
2057.220314,-4673.182538,4441.235652,5033.400406
2057.220631,-7277.907231,444.123565,8216.285956
2057.220949,-8733.488677,-2738.761985,9030.512492
2057.221266,-8810.098227,-8364.327145,15914.427753
2057.221583,-10725.336972,-13545.768739,21910.095883
2057.221901,-9729.412825,-18135.045579,27239.578666
2057.222218,-6971.469032,-17912.983796,27461.640448
2057.222535,-1378.971896,-13101.645173,24500.816680
2057.222853,5209.449386,-4811.338623,17542.880825
2057.223170,13253.452115,3478.967927,9770.718434
2057.223487,18539.511052,11547.212695,296.082377
2057.223805,17543.586904,17616.901420,-8216.285956
2057.224122,12180.918418,20207.622217,-10955.047942
2057.224440,7277.907231,17024.736666,-7994.224174
2057.224757,306.438199,11029.068536,-3256.906145
2057.225074,-3140.991542,4367.215058,4589.276840
2057.225392,-6818.249932,-296.082377,8142.265362
2057.225709,-8503.660028,-3997.112087,12065.356855
2057.226026,-9193.145976,-9770.718434,16358.551318
2057.226344,-9422.974625,-16136.489536,26425.352129
2057.226661,-9499.584175,-16876.695478,27683.702231
2057.226978,-5669.106685,-16062.468941,27313.599260
2057.227296,76.609550,-9252.574275,21762.054695
2057.227613,7660.954980,-3034.844362,15322.262999
2057.227931,15475.129060,6883.915261,7031.956449
2057.228248,19152.387450,13397.727550,-1776.494261
2057.228565,15934.786358,19023.292709,-10140.821405
2057.228883,9959.241474,19393.395680,-10955.047942
2057.229200,3600.648841,14211.954086,-8290.306550
2057.229517,-2221.676944,6143.709319,518.144159
2057.229835,-4903.011187,1258.350101,6883.915261
2057.230152,-8350.440928,-1480.411884,7624.121203
2057.230469,-10495.508323,-6143.709319,12805.562797
2057.230787,-9882.631924,-12805.562797,21539.992912
2057.231104,-10418.898773,-18283.086767,29238.134709
2057.231422,-10572.117872,-17468.860231,29312.155303
2057.231739,-5515.887586,-14582.057057,27387.619854
2057.232056,536.266849,-7476.080014,21910.095883
2057.232374,9346.365076,1110.308913,15914.427753
2057.232691,16394.443657,8586.388927,4589.276840
2057.233008,18539.511052,14952.160028,-3627.009116
2057.233326,15015.471761,21614.013506,-12139.377449
2057.233643,10112.460574,20355.663405,-11399.171507
2057.233960,4903.011187,12879.583391,-7105.977043
2057.234278,-229.828649,5329.482782,1036.288319
2057.234595,-4673.182538,518.144159,5255.462188
2057.234913,-8273.831378,-3182.885551,8364.327145
2057.235230,-11184.994271,-7105.977043,15100.201217
2057.235547,-11414.822920,-14508.036463,23242.466579
2057.235865,-12104.308868,-17024.736666,30126.381839
2057.236182,-10572.117872,-16284.530724,31162.670158
2057.236499,-7124.688131,-13545.768739,25907.207970
2057.236817,76.609550,-7105.977043,19393.395680
2057.237134,9882.631924,-962.267725,14285.974681
2057.237451,15475.129060,6883.915261,5033.400406
2057.237769,16164.615008,14730.098246,-6439.791695
2057.238086,12563.966167,20207.622217,-12509.480420
2057.238404,7584.345430,19245.354492,-11177.109724
2057.238721,3064.381992,10732.986159,-4071.132681
2057.239038,-3140.991542,5107.421000,-222.061783
2057.239356,-7354.516781,1258.350101,5255.462188
2057.239673,-10801.946522,-3256.906145,10807.006753
2057.239990,-12334.137518,-9030.512492,17320.819043
2057.240308,-10801.946522,-15988.448347,27239.578666
2057.240625,-10342.289223,-17764.942608,30496.484810
2057.240942,-8963.317327,-18061.024985,27757.722825
2057.241260,-2528.115143,-11621.233289,23316.487173
2057.241577,6511.811733,-4663.297435,18357.107362
2057.241895,15475.129060,962.267725,11103.089130
2057.242212,18769.339701,11251.130318,-74.020594
2057.242529,18309.682402,19985.560434,-9326.594869
2057.242847,12870.404366,22798.343014,-11769.274478
2057.243164,8656.879127,18801.230927,-12953.603985
2057.243481,4213.525239,11325.150913,-2072.576638
2057.243799,-1302.362347,8290.306550,962.267725
2057.244116,-6052.154434,2294.638420,2368.659014
2057.244433,-9193.145976,-5477.523971,10288.862594
2057.244751,-10418.898773,-15322.262999,20577.725188
2057.245068,-10265.679673,-20725.766376,29534.217086
2057.245386,-11491.432470,-18135.045579,27683.702231
2057.245703,-8580.269578,-18209.066173,29830.299463
2057.246020,-1915.238745,-9474.636058,24722.878463
2057.246338,7507.735880,-518.144159,15396.283594
2057.246655,16011.395908,6069.688724,9400.615463
2057.246972,18003.244203,12361.439231,0.000000
2057.247290,17237.148705,20059.581028,-10881.027347
2057.247607,12563.966167,21539.992912,-14063.912898
2057.247924,8580.269578,16062.468941,-9178.553681
2057.248242,3294.210641,9474.636058,-4663.297435
2057.248559,-2374.896044,6883.915261,-2368.659014
2057.248877,-8350.440928,962.267725,1776.494261
2057.249194,-12027.699319,-7105.977043,12953.603985
2057.249511,-13406.671215,-16062.468941,25463.084405
2057.249829,-14479.204912,-20133.601622,30274.423028
2057.250146,-15168.690860,-19837.519246,33753.390955
2057.250463,-12640.575717,-19763.498651,32272.979071
2057.250781,-4290.134789,-12065.356855,23686.590144
2057.251098,8886.707777,-2738.761985,18135.045579
2057.251415,14938.862211,7328.038826,6291.750507
2057.251733,18462.901502,14804.118840,-1924.535449
2057.252050,18156.463303,22058.137072,-11251.130318
2057.252368,12563.966167,24722.878463,-13841.851115
2057.252685,7354.516781,16358.551318,-10214.842000
2057.253002,919.314598,7698.141797,-3108.864956
2057.253320,-5822.325785,5847.626942,-1406.391290
2057.253637,-10495.508323,-1480.411884,5699.585753
2057.253954,-12793.794817,-8660.409521,15692.365970
2057.254272,-11874.480219,-16136.489536,26795.455100
2057.254589,-11644.651570,-19985.560434,30866.587781
2057.254912,-12870.404366,-21688.034101,31902.876100
2057.255229,-9269.755526,-18727.210333,28275.866984
2057.255546,0.000000,-9474.636058,22206.178260
2057.255864,13176.842566,-0.000000,18357.107362
2057.256181,18079.853753,7846.182985,4293.194464
2057.256499,19918.482948,18505.148550,-4367.215058
2057.256816,18079.853753,24796.899057,-13471.748144
2057.257133,12487.356617,22132.157666,-14063.912898
2057.257451,7124.688131,12435.459826,-6143.709319
2057.257768,1072.533697,6439.791695,-592.164754
2057.258085,-6358.592633,3552.988522,-2146.597232
2057.258403,-7814.174080,-1110.308913,7624.121203
2057.258720,-8963.317327,-9030.512492,16506.592507
2057.259037,-7201.297681,-17764.942608,27683.702231
2057.259355,-8733.488677,-20503.704593,27757.722825
2057.259672,-11414.822920,-21243.910535,29460.196492
2057.259989,-6281.983084,-18727.210333,28201.846390
2057.260307,1991.848295,-10436.903782,22576.281231
2057.260624,12870.404366,-148.041188,14878.139434
2057.260941,17620.196454,9696.697840,2368.659014
2057.261259,19612.044749,20355.663405,-7698.141797
2057.261576,16471.053207,24648.857869,-14952.160028
2057.261894,11184.994271,20059.581028,-13249.686362
2057.262211,4290.134789,10436.903782,-5847.626942
2057.262528,-1762.019645,5773.606348,-666.185348
2057.262846,-7890.783629,2146.597232,2886.803174
2057.263163,-10725.336972,-2442.679609,9918.759623
2057.263480,-10495.508323,-11843.295072,20725.766376
2057.263798,-9959.241474,-17987.004391,25759.166782
2057.264115,-11184.994271,-20355.663405,30052.361245
2057.264432,-13176.842566,-20873.807564,30348.443622
2057.264750,-7354.516781,-13249.686362,25907.207970
2057.265067,3830.477490,-5107.421000,21095.869347
2057.265384,12257.527968,4589.276840,10955.047942
2057.265702,15704.957709,13101.645173,592.164754
2057.266019,18233.072852,20355.663405,-7846.182985
2057.266336,15475.129060,23760.610738,-13915.871710
2057.266654,12257.527968,19319.375086,-12805.562797
2057.266971,3677.258390,8808.450710,-5773.606348
2057.267289,-4673.182538,5329.482782,-814.226536
2057.267606,-9576.193725,-518.144159,6661.853478
2057.267923,-12334.137518,-3997.112087,10584.944971
2057.268241,-11951.089769,-12583.501014,22576.281231
2057.268558,-10418.898773,-15100.201217,26203.290347
2057.268875,-11031.775171,-17468.860231,29238.134709
2057.269193,-11874.480219,-16580.613101,28794.011144
2057.269510,-5362.668486,-14211.954086,25389.063811
2057.269827,4903.011187,-7031.956449,20133.601622
2057.270145,12334.137518,3552.988522,10436.903782
2057.270462,17237.148705,13027.624579,962.267725
2057.270779,18003.244203,21688.034101,-11621.233289
2057.271097,14709.033562,23020.404796,-11991.336260
2057.271414,11031.775171,18579.169144,-7772.162391
2057.271731,2604.724693,10881.027347,-3404.947333
2057.272049,-5286.058936,5033.400406,-1406.391290
2057.272366,-9422.974625,-2072.576638,7402.059420
2057.272684,-12104.308868,-5181.441594,13693.809927
2057.273001,-13023.623466,-13545.768739,22502.260637
2057.273318,-10342.289223,-18949.272115,29682.258274
2057.273636,-11184.994271,-17912.983796,29904.320057
2057.273953,-10035.851024,-15248.242405,26055.249158
2057.274270,-2681.334243,-11695.253884,24130.713709
2057.274588,8963.317327,-1998.556043,19837.519246
2057.274905,14632.424012,4885.359217,8142.265362
2057.275222,18309.682402,15396.283594,-592.164754
2057.275540,18616.120601,22354.219448,-13323.706956
2057.275857,13483.280765,23094.425390,-13545.768739
2057.276174,10801.946522,15100.201217,-7031.956449
2057.276492,4060.306139,10881.027347,-2072.576638
2057.276809,-3294.210641,6587.832884,-4293.194464
2057.277127,-7660.954980,-2146.597232,5847.626942
2057.277444,-9576.193725,-8734.430116,17690.922014
2057.277761,-10035.851024,-12583.501014,24722.878463
2057.278079,-9193.145976,-16950.716072,27239.578666
2057.278396,-9882.631924,-20577.725188,28349.887579
2057.278713,-7814.174080,-16580.613101,25833.187376
2057.279031,612.876398,-7994.224174,23168.445985
2057.279348,9959.241474,-2146.597232,16580.613101
2057.279665,16317.834107,8068.244768,7402.059420
2057.279983,17466.977354,17246.798449,-3256.906145
2057.280300,15321.909960,23686.590144,-14730.098246
2057.280617,10878.556072,17838.963202,-11695.253884
2057.280935,5439.278036,9622.677246,-2368.659014
2057.281252,-842.705048,4515.256246,1554.432478
2057.281569,-6588.421283,3108.864956,222.061783
2057.281887,-9422.974625,-3627.009116,7698.141797
2057.282204,-9576.193725,-9918.759623,20725.766376
2057.282522,-9499.584175,-14952.160028,24796.899057
2057.282839,-10265.679673,-18283.086767,26647.413912
2057.283156,-9269.755526,-18505.148550,28497.928767
2057.283474,-5209.449386,-11695.253884,26721.434506
2057.283791,2221.676944,-5329.482782,19985.560434
2057.284108,12334.137518,1628.453072,13397.727550
2057.284426,16854.100956,8586.388927,4071.132681
2057.284743,16471.053207,19245.354492,-7476.080014
2057.285060,13330.061665,22872.363608,-16654.633695
2057.285378,9806.022374,17024.736666,-10732.986159
2057.285695,3983.696590,7624.121203,-2516.700203
2057.286012,-4519.963438,5625.565159,-2442.679609
2057.286330,-9729.412825,-518.144159,2442.679609
2057.286647,-12104.308868,-7698.141797,13915.871710
2057.286964,-13176.842566,-12879.583391,21614.013506
2057.287282,-11568.042020,-13175.665768,22650.301825
2057.287599,-9959.241474,-17764.942608,29978.340651
2057.287917,-9269.755526,-17394.839637,29238.134709
2057.288234,-4519.963438,-11251.130318,21169.889941
2057.288551,6665.030833,-4071.132681,18209.066173
2057.288869,13559.890315,1480.411884,8512.368333
2057.289186,16777.491406,12953.603985,-888.247130
2057.289503,17160.539155,22576.281231,-13767.830521
2057.289821,13713.109414,23538.548956,-13989.892304
2057.290138,9806.022374,16136.489536,-9178.553681
2057.290455,1915.238745,8068.244768,-888.247130
2057.290773,-6818.249932,3108.864956,-962.267725
2057.291090,-9729.412825,-4515.256246,7179.997637
2057.291407,-12257.527968,-9104.533087,17616.901420
2057.291725,-11797.870669,-12805.562797,24796.899057
2057.292042,-9346.365076,-15248.242405,25092.981434
2057.292359,-6588.421283,-17024.736666,28201.846390
2057.292677,-5132.839837,-12287.418637,25685.146187
2057.292994,1455.581446,-6661.853478,21021.848753
2057.293312,9729.412825,-2368.659014,14730.098246
2057.293629,15704.957709,5033.400406,9252.574275
2057.293946,16088.005458,12953.603985,-1184.329507
2057.294264,14019.547613,23538.548956,-13619.789333
2057.294581,11568.042020,21539.992912,-12287.418637
2057.294898,6818.249932,14137.933492,-5773.606348
2057.295216,459.657299,6513.812290,74.020594
2057.295533,-6205.373534,4071.132681,0.000000
2057.295850,-10495.508323,-5329.482782,10807.006753
2057.296168,-10725.336972,-10066.800811,20355.663405
2057.296485,-9882.631924,-12657.521608,27831.743419
2057.296802,-7584.345430,-14211.954086,28201.846390
2057.297120,-6511.811733,-15100.201217,28571.949361
2057.297437,-3064.381992,-11029.068536,23094.425390
2057.297754,4366.744339,-5107.421000,16580.613101
2057.298072,13176.842566,296.082377,12583.501014
2057.298389,15781.567259,7698.141797,2812.782580
2057.298707,15168.690860,19171.333898,-7402.059420
2057.299024,12640.575717,25611.125593,-15692.365970
2057.299341,10648.727422,20577.725188,-11843.295072
2057.299659,5515.887586,11473.192101,-2960.823768
2057.299976,-2298.286494,7254.018232,-2516.700203
2057.300293,-7584.345430,-962.267725,3849.070898
2057.300611,-11568.042020,-10066.800811,15840.407159
2057.300928,-12257.527968,-14285.974681,27239.578666
2057.301245,-11568.042020,-15396.283594,26943.496289
2057.301563,-8963.317327,-16654.633695,28571.949361
2057.301880,-6588.421283,-15544.324782,27905.764013
2057.302197,-3370.820191,-7476.080014,18653.189738
2057.302515,5056.230287,-3701.029710,15840.407159
2057.302832,11031.775171,3404.947333,9844.739029
2057.303149,12563.966167,10807.006753,0.000000
2057.303467,11184.994271,21539.992912,-13841.851115
2057.303784,7507.735880,23390.507767,-13767.830521
2057.304102,7354.516781,13027.624579,-5625.565159
2057.304419,-1072.533697,6217.729913,-2294.638420
2057.304736,-5898.935335,-2886.803174,7254.018232
2057.305054,-11874.480219,-9474.636058,9622.677246
2057.305371,-9806.022374,-14878.139434,23686.590144
2057.305688,-11568.042020,-17838.963202,27757.722825
2057.306006,-8580.269578,-18653.189738,31680.814318
2057.306323,-2604.724693,-16210.510130,29534.217086
2057.306640,995.924147,-11473.192101,18949.272115
2057.306958,6435.202183,-7550.100608,16284.530724
2057.307275,13713.109414,-222.061783,9918.759623
2057.307592,18386.291952,7846.182985,222.061783
2057.307910,17007.320056,14211.954086,-6217.729913
2057.308227,12870.404366,16136.489536,-7105.977043
2057.308544,12947.013916,17764.942608,-8882.471304
2057.308862,9193.145976,11991.336260,-7624.121203
2057.309179,5745.716235,-444.123565,1554.432478
2057.309497,3677.258390,-8586.388927,13397.727550
2057.309814,-842.705048,-11399.171507,14582.057057
2057.310131,-612.876398,-16654.633695,18653.189738
2057.310449,919.314598,-21021.848753,27017.516883
2057.310766,1149.143247,-19171.333898,22206.178260
2057.311083,3294.210641,-17912.983796,16284.530724
2057.311401,6281.983084,-9696.697840,14656.077652
2057.311718,9806.022374,-2960.823768,11843.295072
2057.312035,12947.013916,8586.388927,5107.421000
2057.312353,11644.651570,14508.036463,-9474.636058
2057.312670,7737.564530,15026.180623,-6217.729913
2057.312987,3294.210641,9992.780217,-1924.535449
2057.313305,-3447.429741,4589.276840,-2072.576638
2057.313622,-1685.410096,-5699.585753,6513.812290
2057.313940,612.876398,-10288.862594,18579.169144
2057.314257,153.219100,-9622.677246,16580.613101
2057.314574,2068.457845,-10881.027347,14656.077652
2057.314892,1608.800546,-14211.954086,18209.066173
2057.315209,3524.039291,-13915.871710,19615.457463
2057.315526,2681.334243,-12953.603985,12213.398043
2057.315844,4136.915689,-6661.853478,9104.533087
2057.316161,7354.516781,444.123565,7328.038826
2057.316478,10342.289223,9474.636058,1554.432478
2057.316796,11108.384721,13397.727550,-1702.473667
2057.317113,5745.716235,8956.491898,-3701.029710
2057.317430,1685.410096,2072.576638,3775.050304
2057.317748,-3294.210641,1036.288319,4515.256246
2057.318065,-2911.162892,-1702.473667,6957.935855
2057.318382,153.219100,-6291.750507,13915.871710
2057.318700,2298.286494,-7846.182985,19171.333898
2057.319017,689.485948,-3552.988522,11103.089130
2057.319335,-919.314598,-5255.462188,10436.903782
2057.319652,-1838.629195,-12287.418637,19245.354492
2057.319969,-3830.477490,-12213.398043,19541.436869
2057.320287,-2757.943793,-5699.585753,16210.510130
2057.320604,-1532.190996,-518.144159,11621.233289
2057.320921,2911.162892,2368.659014,11621.233289
2057.321239,5898.935335,5847.626942,4885.359217
2057.321556,7737.564530,5625.565159,2812.782580
2057.321873,6205.373534,5107.421000,74.020594
2057.322191,4060.306139,6069.688724,-296.082377
2057.322508,2221.676944,4071.132681,2812.782580
2057.322825,1915.238745,-518.144159,8438.347739
2057.323143,-229.828649,-4885.359217,10732.986159
2057.323460,-3140.991542,-4737.318029,10732.986159
2057.323777,-5439.278036,-7031.956449,15026.180623
2057.324095,-4903.011187,-9178.553681,21910.095883
2057.324412,-2681.334243,-7920.203579,23834.631332
2057.324730,0.000000,-5403.503377,20429.683999
2057.325047,2298.286494,-3997.112087,16728.654289
2057.325364,7048.078582,-814.226536,13915.871710
2057.325682,11491.432470,4219.173869,6365.771101
2057.325999,15858.176809,8512.368333,1258.350101
2057.326316,16394.443657,12213.398043,-2146.597232
2057.326634,14555.814462,14730.098246,-2886.803174
2057.326951,11338.213370,11843.295072,-2516.700203
2057.327268,6818.249932,4219.173869,1702.473667
2057.327586,1608.800546,-4441.235652,7328.038826
2057.327903,-1838.629195,-9844.739029,12509.480420
2057.328220,-3524.039291,-12879.583391,15026.180623
2057.328538,-2068.457845,-15100.201217,20133.601622
2057.328855,0.000000,-14878.139434,21539.992912
2057.329172,1915.238745,-10140.821405,19171.333898
2057.329490,3447.429741,-6217.729913,14359.995275
2057.329807,4443.353888,-74.020594,11177.109724
2057.330125,5745.716235,4737.318029,8512.368333
2057.330442,5898.935335,9548.656652,5773.606348
2057.330759,4596.572988,11991.336260,3404.947333
2057.331077,2911.162892,10955.047942,3034.844362
2057.331394,1838.629195,7920.203579,2886.803174
2057.331711,2604.724693,-296.082377,5921.647536
2057.332029,1915.238745,-6587.832884,7624.121203
2057.332346,2451.505594,-11991.336260,10955.047942
2057.332663,2221.676944,-15766.386565,12509.480420
2057.332981,1762.019645,-16284.530724,14063.912898
2057.333298,1838.629195,-12509.480420,13841.851115
2057.333615,612.876398,-6809.894666,12287.418637
2057.333933,-995.924147,-1406.391290,10140.821405
2057.334250,-1915.238745,1110.308913,7624.121203
2057.334567,-2221.676944,4811.338623,7846.182985
2057.334885,-2068.457845,6143.709319,7846.182985
2057.335202,-383.047749,4367.215058,7994.224174
2057.335520,-536.266849,1332.370696,5773.606348
2057.335837,2221.676944,-3256.906145,6957.935855
2057.336154,4596.572988,-6439.791695,6883.915261
2057.336472,6665.030833,-9030.512492,8142.265362
2057.336789,7890.783629,-9548.656652,9622.677246
2057.337106,7277.907231,-6883.915261,8512.368333
2057.337424,7354.516781,-2960.823768,9178.553681
2057.337741,5209.449386,-1110.308913,10066.800811
2057.338058,2834.553343,-222.061783,9696.697840
2057.338376,1225.752797,666.185348,8734.430116
2057.338693,153.219100,1332.370696,7550.100608
2057.339010,1225.752797,-222.061783,8882.471304
2057.339328,2987.772442,-1406.391290,8512.368333
2057.339645,4443.353888,-3034.844362,7772.162391
2057.339962,5898.935335,-4589.276840,7254.018232
2057.340280,4979.620737,-5403.503377,7402.059420
2057.340597,5209.449386,-7254.018232,9696.697840
2057.340915,4826.401637,-6513.812290,9770.718434
2057.341232,4290.134789,-3627.009116,10732.986159
2057.341549,3677.258390,-296.082377,11177.109724
2057.341867,3447.429741,1258.350101,11029.068536
2057.342184,3447.429741,962.267725,9918.759623
2057.342501,3677.258390,1258.350101,9918.759623
2057.342819,2681.334243,518.144159,8290.306550
2057.343136,3370.820191,-666.185348,8808.450710
2057.343453,3524.039291,-888.247130,8068.244768
2057.343771,3907.087040,-1332.370696,8216.285956
2057.344088,3907.087040,-1702.473667,8438.347739
2057.344405,2757.943793,-2220.617826,9474.636058
2057.344723,2298.286494,-4367.215058,11029.068536
2057.345040,1608.800546,-4737.318029,11251.130318
2057.345357,1532.190996,-4219.173869,11325.150913
2057.345675,1532.190996,-2442.679609,10584.944971
2057.345992,2145.067394,-1406.391290,9992.780217
2057.346310,2911.162892,-1036.288319,9622.677246
2057.346627,3294.210641,962.267725,9178.553681
2057.346944,3677.258390,2368.659014,9622.677246
2057.347262,2987.772442,2590.720797,9548.656652
2057.347579,2987.772442,3404.947333,9622.677246
2057.347896,2374.896044,2368.659014,9622.677246
2057.348214,1685.410096,-0.000000,9770.718434
2057.348531,1072.533697,-1702.473667,10510.924376
2057.348848,1455.581446,-3404.947333,9548.656652
2057.349166,1608.800546,-4071.132681,9622.677246
2057.349483,2298.286494,-4293.194464,9696.697840
2057.349800,2451.505594,-3552.988522,9696.697840
2057.350118,1838.629195,-2664.741391,9474.636058
2057.350435,1762.019645,-1110.308913,10288.862594
2057.350753,612.876398,-222.061783,10140.821405
2057.351070,76.609550,888.247130,10584.944971
2057.351387,-153.219100,1924.535449,11103.089130
2057.351705,-229.828649,1628.453072,11103.089130
2057.352022,0.000000,740.205942,10807.006753
2057.352339,383.047749,444.123565,9844.739029
2057.352657,1455.581446,-888.247130,9474.636058
2057.352974,2451.505594,-1776.494261,8956.491898
2057.353291,3753.867940,-3034.844362,8068.244768
2057.353609,4060.306139,-3478.967927,8438.347739
2057.353926,4136.915689,-3849.070898,8882.471304
2057.354244,4673.182538,-2960.823768,8956.491898
2057.354561,4366.744339,-1702.473667,8660.409521
2057.354879,4213.525239,-1332.370696,9252.574275
2057.355196,2834.553343,-1036.288319,9104.533087
2057.355514,2681.334243,-518.144159,9622.677246
2057.355831,2145.067394,-0.000000,9474.636058
2057.356148,2528.115143,74.020594,9474.636058
2057.356466,3140.991542,592.164754,8586.388927
2057.356783,2757.943793,444.123565,7105.977043
2057.357101,3600.648841,-444.123565,7550.100608
2057.357418,3983.696590,-1628.453072,7624.121203
2057.357736,4060.306139,-3478.967927,8364.327145
2057.358053,4136.915689,-4441.235652,8882.471304
2057.358370,3600.648841,-4515.256246,9474.636058
2057.358688,2987.772442,-3849.070898,9770.718434
2057.359005,2451.505594,-3330.926739,9844.739029
2057.359323,1991.848295,-2886.803174,10436.903782
2057.359640,1608.800546,-1406.391290,10214.842000
2057.359958,1608.800546,148.041188,9326.594869
2057.360275,1685.410096,1258.350101,8290.306550
2057.360593,1991.848295,1776.494261,7846.182985
2057.360910,1532.190996,1184.329507,7031.956449
2057.361227,1149.143247,-222.061783,6883.915261
2057.361545,76.609550,-2294.638420,6809.894666
2057.361862,0.000000,-3997.112087,9252.574275
2057.362180,0.000000,-4441.235652,9622.677246
2057.362497,0.000000,-4885.359217,10214.842000
2057.362815,-536.266849,-5699.585753,11325.150913
2057.363132,-459.657299,-5477.523971,12287.418637
2057.363450,76.609550,-3552.988522,11769.274478
2057.363767,459.657299,-1332.370696,10140.821405
2057.364084,1455.581446,1184.329507,8808.450710
2057.364402,2834.553343,2812.782580,7698.141797
2057.364719,3524.039291,4515.256246,5921.647536
2057.365037,4290.134789,4145.153275,5181.441594
2057.365354,4290.134789,3108.864956,5403.503377
2057.365672,3907.087040,814.226536,6661.853478
2057.365989,4136.915689,-1332.370696,8216.285956
2057.366307,3140.991542,-2368.659014,8956.491898
2057.366624,2221.676944,-3627.009116,9992.780217
2057.366941,2451.505594,-3552.988522,11399.171507
2057.367259,2757.943793,-2812.782580,10955.047942
2057.367576,2911.162892,-1628.453072,10732.986159
2057.367894,3294.210641,-518.144159,10955.047942
2057.368211,2911.162892,296.082377,10214.842000
2057.368529,3907.087040,1110.308913,9770.718434
2057.368846,4443.353888,1776.494261,9400.615463
2057.369164,4519.963438,1776.494261,8290.306550
2057.369481,5515.887586,1628.453072,7994.224174
2057.369798,6205.373534,1036.288319,8068.244768
2057.370116,6358.592633,592.164754,8216.285956
2057.370433,6358.592633,-370.102971,8882.471304
2057.370751,5515.887586,-1184.329507,9844.739029
2057.371068,4826.401637,-1998.556043,10436.903782
2057.371386,3753.867940,-2368.659014,11399.171507
2057.371703,2834.553343,-2738.761985,12065.356855
2057.372020,2757.943793,-2886.803174,12065.356855
2057.372338,1685.410096,-2516.700203,12731.542202
2057.372655,1455.581446,-2664.741391,12583.501014
2057.372973,1149.143247,-3034.844362,12509.480420
2057.373290,995.924147,-3775.050304,12361.439231
2057.373608,1915.238745,-3108.864956,12435.459826
2057.373925,2145.067394,-4367.215058,11399.171507
2057.374243,2681.334243,-4293.194464,11251.130318
2057.374560,3753.867940,-4145.153275,11769.274478
2057.374877,4366.744339,-3701.029710,12065.356855
2057.375195,4596.572988,-3627.009116,11251.130318
2057.375512,4979.620737,-3775.050304,11029.068536
2057.375830,5439.278036,-3923.091493,10288.862594
2057.376147,5439.278036,-3997.112087,10214.842000
2057.376465,5209.449386,-3997.112087,9696.697840
2057.376782,4826.401637,-4663.297435,9474.636058
2057.377100,4213.525239,-5255.462188,9548.656652
2057.377417,3753.867940,-5625.565159,9770.718434
2057.377734,3064.381992,-5699.585753,10362.883188
2057.378052,2681.334243,-6809.894666,10658.965565
2057.378369,2145.067394,-6513.812290,10436.903782
2057.378687,2681.334243,-6439.791695,10658.965565
2057.379004,3217.601092,-5847.626942,10955.047942
2057.379322,4213.525239,-5033.400406,10584.944971
2057.379639,5362.668486,-4145.153275,9400.615463
2057.379957,5975.544884,-3404.947333,7772.162391
2057.380274,6741.640382,-3182.885551,7031.956449
2057.380591,6205.373534,-3404.947333,6587.832884
2057.380909,6281.983084,-2664.741391,5921.647536
2057.381226,5898.935335,-2368.659014,5181.441594
2057.381544,5669.106685,-2220.617826,5551.544565
2057.381861,5975.544884,-2960.823768,5847.626942
2057.382179,4136.915689,-3108.864956,5255.462188
2057.382496,3524.039291,-5181.441594,6809.894666
2057.382814,2528.115143,-5403.503377,7624.121203
2057.383131,2068.457845,-5551.544565,8364.327145
2057.383448,2604.724693,-4219.173869,8734.430116
2057.383766,2451.505594,-3182.885551,7994.224174
2057.384083,2987.772442,-2442.679609,7846.182985
2057.384401,2681.334243,-1924.535449,7476.080014
2057.384718,2068.457845,-1702.473667,7105.977043
2057.385036,2528.115143,-1406.391290,7328.038826
2057.385353,1915.238745,-296.082377,6291.750507
2057.385670,2221.676944,-74.020594,5995.668130
2057.385988,2528.115143,-296.082377,6143.709319
2057.386305,1915.238745,-888.247130,6365.771101
2057.386623,1762.019645,-2220.617826,7624.121203
2057.386940,612.876398,-2886.803174,7994.224174
2057.387258,919.314598,-2516.700203,9622.677246
2057.387575,306.438199,-1850.514855,10066.800811
2057.387893,536.266849,-1554.432478,10584.944971
2057.388210,383.047749,-1554.432478,10658.965565
2057.388527,612.876398,-1332.370696,11251.130318
2057.388845,919.314598,-666.185348,11029.068536
2057.389162,1608.800546,444.123565,10807.006753
2057.389480,2757.943793,888.247130,10584.944971
2057.389797,3447.429741,1110.308913,10362.883188
2057.390115,3983.696590,1184.329507,9992.780217
2057.390432,4366.744339,1480.411884,9474.636058
2057.390750,4826.401637,666.185348,10066.800811
2057.391067,4749.792088,518.144159,10066.800811
2057.391384,5745.716235,296.082377,10881.027347
2057.391702,4443.353888,296.082377,11177.109724
2057.392019,3524.039291,296.082377,11695.253884
2057.392337,2987.772442,-222.061783,12213.398043
2057.392654,1685.410096,-148.041188,12287.418637
2057.392972,995.924147,444.123565,12953.603985
2057.393289,306.438199,1332.370696,12657.521608
2057.393607,76.609550,962.267725,13027.624579
2057.393924,689.485948,370.102971,13841.851115
2057.394241,1455.581446,-370.102971,13619.789333
2057.394559,2221.676944,-0.000000,13175.665768
2057.394876,3907.087040,-592.164754,12213.398043
2057.395194,4749.792088,-1184.329507,11621.233289
2057.395511,5515.887586,-1554.432478,10955.047942
2057.395829,5362.668486,-888.247130,9918.759623
2057.396146,4749.792088,-444.123565,8734.430116
2057.396463,5439.278036,-0.000000,7920.203579
2057.396781,4443.353888,-148.041188,7846.182985
2057.397098,3907.087040,-74.020594,7994.224174
2057.397416,2451.505594,-592.164754,7550.100608
2057.397733,1762.019645,-1258.350101,8660.409521
2057.398051,1225.752797,-2812.782580,10955.047942
2057.398368,0.000000,-2812.782580,10732.986159
2057.398686,0.000000,-3478.967927,10732.986159
2057.399003,153.219100,-3330.926739,10584.944971
2057.399320,766.095498,-3182.885551,11695.253884
2057.399638,1302.362347,-2960.823768,11103.089130
2057.399955,2068.457845,-2294.638420,10140.821405
2057.400273,3294.210641,-2146.597232,10288.862594
2057.400590,3983.696590,-1702.473667,9104.533087
2057.400908,4903.011187,-1924.535449,6957.935855
2057.401225,4749.792088,-2072.576638,5255.462188
2057.401543,4443.353888,-2664.741391,5181.441594
2057.401860,4290.134789,-2812.782580,5255.462188
2057.402177,3907.087040,-2812.782580,5107.421000
2057.402495,3140.991542,-3478.967927,5403.503377
2057.402812,2374.896044,-3552.988522,6513.812290
2057.403130,1532.190996,-4737.318029,7328.038826
2057.403447,306.438199,-5773.606348,8512.368333
2057.403765,0.000000,-6809.894666,10214.842000
2057.404082,153.219100,-5921.647536,11177.109724
2057.404400,1302.362347,-5773.606348,11473.192101
2057.404717,2681.334243,-4811.338623,11103.089130
2057.405034,3830.477490,-4071.132681,10436.903782
2057.405352,5209.449386,-2812.782580,8660.409521
2057.405669,5745.716235,-2516.700203,7031.956449
2057.405987,5975.544884,-2442.679609,5995.668130
2057.406304,6128.763984,-1628.453072,4737.318029
2057.406622,5592.497135,-1776.494261,4219.173869
2057.406939,4673.182538,-2146.597232,4441.235652
2057.407257,3753.867940,-2960.823768,5477.523971
2057.407574,2298.286494,-3701.029710,6217.729913
2057.407891,1455.581446,-4589.276840,8068.244768
2057.408209,612.876398,-5107.421000,10288.862594
2057.408526,612.876398,-5403.503377,11991.336260
2057.408844,766.095498,-4811.338623,12139.377449
2057.409161,2145.067394,-3552.988522,12509.480420
2057.409479,3907.087040,-2664.741391,12435.459826
2057.409796,4596.572988,-1480.411884,10214.842000
2057.410113,4673.182538,222.061783,7846.182985
2057.410431,6205.373534,1184.329507,9104.533087
2057.410748,5515.887586,3034.844362,7402.059420
2057.411066,6511.811733,2368.659014,7179.997637
2057.411383,4060.306139,1554.432478,5625.565159
2057.411701,4136.915689,1628.453072,7698.141797
2057.412018,2834.553343,-222.061783,8734.430116
2057.412336,2298.286494,-592.164754,9770.718434
2057.412653,2528.115143,-1332.370696,11621.233289
2057.412970,2451.505594,-1110.308913,11917.315666
2057.413288,3677.258390,-1924.535449,14137.933492
2057.413605,2911.162892,-2960.823768,13841.851115
2057.413923,3447.429741,-2886.803174,14211.954086
2057.414240,3600.648841,-592.164754,11843.295072
2057.414558,4673.182538,222.061783,11843.295072
2057.414875,5056.230287,1332.370696,10510.924376
2057.415193,4290.134789,1702.473667,8364.327145
2057.415510,2987.772442,2664.741391,7254.018232
2057.415827,2068.457845,2368.659014,8290.306550
2057.416145,919.314598,1850.514855,7624.121203
2057.416462,0.000000,2220.617826,8068.244768
2057.416780,-1838.629195,962.267725,10140.821405
2057.417097,-3370.820191,148.041188,11547.212695
2057.417415,-4519.963438,-1258.350101,13027.624579
2057.417732,-5286.058936,-1776.494261,14582.057057
2057.418050,-4903.011187,-1924.535449,14952.160028
2057.418367,-4290.134789,-2146.597232,15174.221811
2057.418684,-3217.601092,-2368.659014,15618.345376
2057.419002,-1762.019645,-1406.391290,13841.851115
2057.419319,153.219100,592.164754,10288.862594
2057.419637,1149.143247,2294.638420,7402.059420
2057.419954,1915.238745,3552.988522,6957.935855
2057.420272,2604.724693,4737.318029,4367.215058
2057.420589,1838.629195,6217.729913,3108.864956
2057.420907,536.266849,5551.544565,4145.153275
2057.421224,-1149.143247,4589.276840,5699.585753
2057.421541,-3370.820191,3108.864956,6143.709319
2057.421859,-5209.449386,962.267725,9178.553681
2057.422176,-6511.811733,-1110.308913,12287.418637
2057.422494,-6052.154434,-3182.885551,14285.974681
2057.422811,-4903.011187,-3034.844362,14137.933492
2057.423129,-2451.505594,-2442.679609,14137.933492
2057.423446,1302.362347,-2220.617826,13619.789333
2057.423763,3830.477490,-962.267725,11473.192101
2057.424081,5669.106685,1998.556043,7550.100608
2057.424398,7660.954980,5255.462188,4663.297435
2057.424716,7584.345430,7179.997637,3108.864956
2057.425033,7890.783629,6883.915261,2368.659014
2057.425351,6205.373534,7031.956449,1332.370696
2057.425668,3830.477490,6217.729913,3034.844362
2057.425986,1608.800546,3404.947333,4589.276840
2057.426303,-459.657299,666.185348,6217.729913
2057.426620,-2451.505594,-2368.659014,9918.759623
2057.426938,-3983.696590,-4959.379811,12139.377449
2057.427255,-4366.744339,-6661.853478,14508.036463
2057.427573,-3983.696590,-7105.977043,16136.489536
2057.427890,-1762.019645,-6513.812290,16654.633695
2057.428208,689.485948,-3552.988522,15322.262999
2057.428525,2911.162892,-1480.411884,12805.562797
2057.428843,4673.182538,888.247130,10510.924376
2057.429160,6281.983084,2960.823768,7698.141797
2057.429477,7048.078582,5699.585753,4367.215058
2057.429795,7048.078582,6883.915261,1776.494261
2057.430112,6128.763984,6587.832884,1628.453072
2057.430430,3600.648841,4885.359217,2442.679609
2057.430747,1149.143247,3034.844362,4441.235652
2057.431065,-1838.629195,814.226536,6365.771101
2057.431382,-4903.011187,-3404.947333,10288.862594
2057.431700,-6665.030833,-7179.997637,15100.201217
2057.432017,-7660.954980,-7920.203579,17024.736666
2057.432334,-6281.983084,-8956.491898,19763.498651
2057.432652,-3983.696590,-7772.162391,19689.478057
2057.432969,306.438199,-5773.606348,17764.942608
2057.433287,3600.648841,-2812.782580,14285.974681
2057.433604,7201.297681,-0.000000,10436.903782
2057.433922,7890.783629,2812.782580,4663.297435
2057.434239,7737.564530,6587.832884,1036.288319
2057.434556,7354.516781,8586.388927,-444.123565
2057.434874,4826.401637,9770.718434,-1998.556043
2057.435191,1915.238745,8734.430116,0.000000
2057.435509,-1991.848295,4737.318029,3775.050304
2057.435826,-6588.421283,962.267725,6883.915261
2057.436144,-8733.488677,-2368.659014,12287.418637
2057.436461,-9193.145976,-6661.853478,18283.086767
2057.436779,-8580.269578,-9030.512492,19393.395680
2057.437096,-4903.011187,-9030.512492,22354.219448
2057.437413,-995.924147,-7328.038826,19837.519246
2057.437731,3140.991542,-4367.215058,17912.983796
2057.438048,7048.078582,-1850.514855,14211.954086
2057.438366,8810.098227,2368.659014,8512.368333
2057.438683,8810.098227,7476.080014,2072.576638
2057.439001,8427.050478,10807.006753,-518.144159
2057.439318,6511.811733,12361.439231,-3997.112087
2057.439636,4290.134789,10955.047942,-3330.926739
2057.439953,842.705048,9104.533087,-1110.308913
2057.440270,-2757.943793,4515.256246,3849.070898
2057.440588,-6894.859482,-666.185348,7476.080014
2057.440905,-9499.584175,-5699.585753,14211.954086
2057.441223,-9959.241474,-9918.759623,20429.683999
2057.441540,-8273.831378,-10288.862594,23464.528361
2057.441858,-4519.963438,-9992.780217,22650.301825
2057.442175,383.047749,-7105.977043,21021.848753
2057.442493,6128.763984,-3923.091493,17542.880825
2057.442810,9499.584175,-1776.494261,11325.150913
2057.443127,10342.289223,1332.370696,6735.874072
2057.443445,10418.898773,5329.482782,1998.556043
2057.443762,10112.460574,11029.068536,-4441.235652
2057.444080,9499.584175,14434.015869,-7624.121203
2057.444397,7354.516781,14508.036463,-5477.523971
2057.444715,3140.991542,12065.356855,-3478.967927
2057.445032,-2528.115143,7105.977043,444.123565
2057.445350,-7660.954980,-0.000000,7772.162391
2057.445667,-11261.603821,-6513.812290,17764.942608
2057.445984,-11797.870669,-13101.645173,24944.940245
2057.446302,-11797.870669,-11547.212695,22058.137072
2057.446619,-6205.373534,-12435.459826,26203.290347
2057.446937,-995.924147,-10214.842000,27535.661042
2057.447254,5209.449386,-5847.626942,18431.127956
2057.447572,9499.584175,-2960.823768,13545.768739
2057.447889,10878.556072,-740.205942,9918.759623
2057.448206,11874.480219,6513.812290,3182.885551
2057.448524,13330.061665,12509.480420,-6069.688724
2057.448841,12180.918418,16728.654289,-9030.512492
2057.449159,10572.117872,17468.860231,-8290.306550
2057.449476,5132.839837,15692.365970,-7550.100608
2057.449794,-2145.067394,8438.347739,-1628.453072
2057.450111,-8197.221829,-814.226536,8660.409521
2057.450429,-15628.348159,-8882.471304,16506.592507
2057.450746,-16547.662757,-16136.489536,25907.207970
2057.451063,-16317.834107,-17024.736666,24130.713709
2057.451381,-11568.042020,-18357.107362,29904.320057
2057.451698,-5975.544884,-13989.892304,28794.011144
2057.452016,2604.724693,-6735.874072,21021.848753
2057.452333,8810.098227,-3182.885551,16802.674883
2057.452651,10112.460574,-962.267725,13545.768739
2057.452968,10878.556072,5033.400406,4367.215058
2057.453286,13789.718964,13249.686362,-4515.256246
2057.453603,12717.185267,19615.457463,-7994.224174
2057.453920,13023.623466,21021.848753,-11029.068536
2057.454238,9806.022374,20947.828159,-13693.809927
2057.454555,2757.943793,14730.098246,-7328.038826
