#time,accel_x,accel_y,accel_z
1649.260326,842.705048,222.061783,9474.636058
1649.260643,766.095498,222.061783,9474.636058
1649.260960,766.095498,-0.000000,9252.574275
1649.261278,995.924147,-0.000000,9400.615463
1649.261595,842.705048,148.041188,9326.594869
1649.261912,689.485948,148.041188,9474.636058
1649.262230,689.485948,74.020594,9326.594869
1649.262547,919.314598,-0.000000,9474.636058
1649.262864,689.485948,222.061783,9474.636058
1649.263181,612.876398,222.061783,9474.636058
1649.263499,842.705048,-0.000000,9474.636058
1649.263816,766.095498,296.082377,9474.636058
1649.264133,612.876398,148.041188,9474.636058
1649.264451,689.485948,222.061783,9474.636058
1649.264768,689.485948,296.082377,9474.636058
1649.265085,612.876398,370.102971,9622.677246
1649.265402,842.705048,-0.000000,9474.636058
1649.265720,919.314598,296.082377,9400.615463
1649.266037,689.485948,296.082377,9474.636058
1649.266354,766.095498,222.061783,9326.594869
1649.266672,1302.362347,222.061783,9474.636058
1649.266989,842.705048,296.082377,9474.636058
1649.267306,842.705048,148.041188,9474.636058
1649.267623,689.485948,222.061783,9400.615463
1649.267941,766.095498,-0.000000,9474.636058
1649.268258,1532.190996,222.061783,9400.615463
1649.268575,689.485948,148.041188,9400.615463
1649.268893,612.876398,-0.000000,9400.615463
1649.269210,766.095498,296.082377,9400.615463
1649.269527,536.266849,-0.000000,9474.636058
1649.269844,1072.533697,-0.000000,9474.636058
1649.270162,766.095498,148.041188,9474.636058
1649.270479,766.095498,-0.000000,9326.594869
1649.270796,536.266849,222.061783,9474.636058
1649.271113,689.485948,296.082377,9326.594869
1649.271431,842.705048,296.082377,9474.636058
1649.271748,842.705048,-0.000000,9400.615463
1649.272065,842.705048,148.041188,9400.615463
1649.272383,766.095498,296.082377,9400.615463
1649.272700,689.485948,148.041188,9326.594869
1649.273017,766.095498,370.102971,9326.594869
1649.273334,689.485948,148.041188,9400.615463
1649.273652,689.485948,222.061783,9474.636058
1649.273969,842.705048,296.082377,9326.594869
1649.274286,1149.143247,222.061783,9474.636058
1649.274604,689.485948,-0.000000,9400.615463
1649.274921,536.266849,444.123565,9622.677246
1649.275238,766.095498,-0.000000,9326.594869
1649.275555,612.876398,370.102971,9474.636058
1649.275873,842.705048,222.061783,9474.636058
1649.276190,766.095498,-0.000000,9474.636058
1649.276507,766.095498,370.102971,9474.636058
1649.276825,766.095498,370.102971,9474.636058
1649.277142,689.485948,296.082377,9400.615463
1649.277459,689.485948,222.061783,9474.636058
1649.277776,919.314598,-0.000000,9474.636058
1649.278094,766.095498,370.102971,9252.574275
1649.278411,842.705048,296.082377,9400.615463
1649.278728,995.924147,-0.000000,9474.636058
1649.279046,919.314598,-0.000000,9622.677246
1649.279363,766.095498,370.102971,9474.636058
1649.279680,842.705048,296.082377,9400.615463
1649.279997,612.876398,370.102971,9474.636058
1649.280315,612.876398,296.082377,9474.636058
1649.280632,612.876398,-0.000000,9252.574275
1649.280949,229.828649,148.041188,9474.636058
1649.281267,919.314598,222.061783,9252.574275
1649.281584,612.876398,-0.000000,9474.636058
1649.281901,842.705048,296.082377,9622.677246
1649.282218,612.876398,148.041188,9400.615463
1649.282536,919.314598,296.082377,9474.636058
1649.282853,766.095498,370.102971,9474.636058
1649.283170,995.924147,296.082377,9400.615463
1649.283488,766.095498,370.102971,9474.636058
1649.283805,919.314598,518.144159,9622.677246
1649.284122,689.485948,-0.000000,9400.615463
1649.284439,766.095498,222.061783,9178.553681
1649.284757,689.485948,148.041188,9474.636058
1649.285074,842.705048,-0.000000,9474.636058
1649.285391,612.876398,148.041188,9252.574275
1649.285709,919.314598,222.061783,9474.636058
1649.286026,842.705048,222.061783,9400.615463
1649.286343,842.705048,370.102971,9326.594869
1649.286660,612.876398,-0.000000,9326.594869
1649.286978,766.095498,296.082377,9474.636058
1649.287295,1072.533697,222.061783,9474.636058
1649.287612,612.876398,-0.000000,9474.636058
1649.287930,536.266849,222.061783,9474.636058
1649.288247,842.705048,148.041188,9326.594869
1649.288564,842.705048,370.102971,9474.636058
1649.288881,689.485948,296.082377,9474.636058
1649.289199,766.095498,370.102971,9474.636058
1649.289516,842.705048,296.082377,9474.636058
1649.289833,536.266849,-0.000000,9326.594869
1649.290151,842.705048,222.061783,9178.553681
1649.290468,459.657299,-0.000000,9474.636058
1649.290785,459.657299,148.041188,9326.594869
1649.291102,1149.143247,222.061783,9474.636058
1649.291420,689.485948,296.082377,9474.636058
1649.291737,766.095498,222.061783,9326.594869
1649.292054,689.485948,370.102971,9326.594869
1649.292372,766.095498,-0.000000,9474.636058
1649.292689,612.876398,148.041188,9326.594869
1649.293006,995.924147,296.082377,9474.636058
1649.293323,842.705048,-0.000000,9400.615463
1649.293641,612.876398,-0.000000,9474.636058
1649.293958,995.924147,-0.000000,9548.656652
1649.294275,689.485948,148.041188,9400.615463
1649.294592,842.705048,148.041188,9400.615463
1649.294910,689.485948,370.102971,9474.636058
1649.295227,612.876398,222.061783,9400.615463
1649.295544,842.705048,-0.000000,9400.615463
1649.295862,536.266849,222.061783,9474.636058
1649.296179,842.705048,-0.000000,9400.615463
1649.296496,766.095498,-0.000000,9326.594869
1649.296813,766.095498,370.102971,9474.636058
1649.297131,766.095498,148.041188,9622.677246
1649.297448,306.438199,444.123565,9474.636058
1649.297765,766.095498,370.102971,9474.636058
1649.298083,689.485948,296.082377,9474.636058
1649.298400,842.705048,222.061783,9326.594869
1649.298717,766.095498,-0.000000,9474.636058
1649.299034,842.705048,296.082377,9474.636058
1649.299352,536.266849,-0.000000,9326.594869
1649.299669,612.876398,222.061783,9474.636058
1649.299986,919.314598,370.102971,9474.636058
1649.300304,459.657299,370.102971,9252.574275
1649.300621,612.876398,296.082377,9178.553681
1649.300938,459.657299,222.061783,9030.512492
1649.301255,383.047749,-0.000000,9104.533087
1649.301573,306.438199,-370.102971,8956.491898
1649.301890,-306.438199,-148.041188,9474.636058
1649.302207,-306.438199,-444.123565,9474.636058
1649.302525,-459.657299,-814.226536,9548.656652
1649.302842,-306.438199,-814.226536,9548.656652
1649.303159,-383.047749,-592.164754,9252.574275
1649.303476,-612.876398,-518.144159,9252.574275
1649.303794,-612.876398,-592.164754,9104.533087
1649.304111,-689.485948,-740.205942,8660.409521
1649.304428,-995.924147,-1110.308913,8734.430116
1649.304746,-1149.143247,-1628.453072,9252.574275
1649.305063,-1072.533697,-1702.473667,9252.574275
1649.305380,-1072.533697,-1628.453072,9400.615463
1649.305697,-689.485948,-1332.370696,9400.615463
1649.306015,-842.705048,-1184.329507,9030.512492
1649.306332,-689.485948,-666.185348,8882.471304
1649.306649,-536.266849,-592.164754,8364.327145
1649.306967,-306.438199,-814.226536,8216.285956
1649.307284,-766.095498,-1332.370696,8216.285956
1649.307601,0.000000,-2294.638420,8808.450710
1649.307918,-842.705048,-2886.803174,9548.656652
1649.308236,-689.485948,-3034.844362,9770.718434
1649.308553,-842.705048,-2738.761985,10066.800811
1649.308870,-459.657299,-2368.659014,9844.739029
1649.309188,76.609550,-1924.535449,9474.636058
1649.309505,-459.657299,-1332.370696,8660.409521
1649.309822,-383.047749,-814.226536,8216.285956
1649.310139,-689.485948,-1258.350101,8586.388927
1649.310457,-1149.143247,-2146.597232,8956.491898
1649.310774,-1991.848295,-3330.926739,9400.615463
1649.311091,-2604.724693,-4293.194464,10214.842000
1649.311409,-2987.772442,-4589.276840,10658.965565
1649.311726,-3830.477490,-4663.297435,10807.006753
1649.312043,-3983.696590,-4441.235652,10584.944971
1649.312360,-4060.306139,-4145.153275,10584.944971
1649.312678,-4979.620737,-3627.009116,10584.944971
1649.312995,-4749.792088,-3552.988522,10510.924376
1649.313312,-4903.011187,-3701.029710,10288.862594
1649.313630,-5362.668486,-3552.988522,10362.883188
1649.313947,-5209.449386,-3478.967927,10510.924376
1649.314264,-5209.449386,-3552.988522,10362.883188
1649.314581,-5362.668486,-3627.009116,10362.883188
1649.314899,-5362.668486,-3552.988522,10214.842000
1649.315216,-5362.668486,-3701.029710,10288.862594
1649.315533,-5132.839837,-3330.926739,10658.965565
1649.315851,-4749.792088,-3256.906145,10955.047942
1649.316168,-4443.353888,-3182.885551,11177.109724
1649.316485,-3983.696590,-2886.803174,10807.006753
1649.316802,-3830.477490,-2368.659014,10436.903782
1649.317120,-3140.991542,-1554.432478,9844.739029
1649.317437,-2911.162892,-1332.370696,9400.615463
1649.317754,-2298.286494,-1628.453072,9326.594869
1649.318071,-2068.457845,-2368.659014,9474.636058
1649.318389,-1838.629195,-3330.926739,10066.800811
1649.318706,-1455.581446,-3182.885551,10214.842000
1649.319023,-919.314598,-3404.947333,10140.821405
1649.319341,-919.314598,-3478.967927,10362.883188
1649.319658,-306.438199,-2886.803174,9844.739029
1649.319975,229.828649,-2664.741391,9548.656652
1649.320292,1072.533697,-2146.597232,9474.636058
1649.320610,1149.143247,-1628.453072,8290.306550
1649.320927,2145.067394,-2072.576638,9178.553681
1649.321244,1302.362347,-1924.535449,8882.471304
1649.321562,2145.067394,-2368.659014,8808.450710
1649.321879,1608.800546,-2886.803174,8142.265362
1649.322196,1378.971896,-2738.761985,8438.347739
1649.322513,1762.019645,-2738.761985,8438.347739
1649.322831,1608.800546,-2442.679609,7772.162391
1649.323148,1608.800546,-2294.638420,8290.306550
1649.323465,766.095498,-2738.761985,8734.430116
1649.323783,459.657299,-2886.803174,9178.553681
1649.324100,536.266849,-2664.741391,9400.615463
1649.324417,306.438199,-2368.659014,9400.615463
1649.324734,153.219100,-1406.391290,8956.491898
1649.325052,229.828649,-370.102971,9030.512492
1649.325369,383.047749,-0.000000,8660.409521
1649.325686,689.485948,-0.000000,8808.450710
1649.326004,536.266849,518.144159,8290.306550
1649.326321,306.438199,1036.288319,7994.224174
1649.326638,153.219100,518.144159,7920.203579
1649.326955,0.000000,-222.061783,8216.285956
1649.327273,-383.047749,-888.247130,9400.615463
1649.327590,-919.314598,-1554.432478,10362.883188
1649.327907,-1149.143247,-1258.350101,10732.986159
1649.328225,-1149.143247,-222.061783,10288.862594
1649.328542,-1455.581446,1258.350101,9474.636058
1649.328859,-1532.190996,1776.494261,9548.656652
1649.329176,-2068.457845,1332.370696,8512.368333
1649.329494,-2911.162892,1332.370696,8290.306550
1649.329811,-3753.867940,1332.370696,7920.203579
1649.330128,-4519.963438,-0.000000,8364.327145
1649.330446,-5515.887586,-1184.329507,10066.800811
1649.330763,-5822.325785,-2368.659014,11103.089130
1649.331080,-6741.640382,-3256.906145,12065.356855
1649.331397,-6588.421283,-3404.947333,12657.521608
1649.331715,-5898.935335,-3034.844362,12731.542202
1649.332032,-5286.058936,-2516.700203,12583.501014
1649.332349,-4366.744339,-1110.308913,11399.171507
1649.332667,-4060.306139,222.061783,10214.842000
1649.332984,-3064.381992,518.144159,9178.553681
1649.333301,-2221.676944,518.144159,9104.533087
1649.333618,-1608.800546,-370.102971,9400.615463
1649.333936,-1149.143247,-1258.350101,9326.594869
1649.334253,-2298.286494,-1702.473667,9474.636058
1649.334570,-1072.533697,-2516.700203,11029.068536
1649.334888,-1685.410096,-2368.659014,10510.924376
1649.335205,-1608.800546,-3330.926739,11547.212695
1649.335522,-1608.800546,-3108.864956,10066.800811
1649.335839,-2374.896044,-2220.617826,9474.636058
1649.336157,-1149.143247,-2812.782580,11177.109724
1649.336474,-1762.019645,-3775.050304,11547.212695
1649.336791,-2068.457845,-4071.132681,11695.253884
1649.337109,-2145.067394,-5255.462188,12731.542202
1649.337426,-2451.505594,-4737.318029,12287.418637
1649.337743,-612.876398,-4737.318029,12509.480420
1649.338061,153.219100,-4071.132681,11695.253884
1649.338378,1378.971896,-2812.782580,9474.636058
1649.338695,2911.162892,-2368.659014,9326.594869
1649.339013,3294.210641,-1480.411884,7772.162391
1649.339330,4749.792088,-1924.535449,7624.121203
1649.339647,4366.744339,-2442.679609,6661.853478
1649.339965,3907.087040,-2146.597232,6661.853478
1649.340282,3217.601092,-2590.720797,6809.894666
1649.340599,1685.410096,-2664.741391,6513.812290
1649.340916,766.095498,-4219.173869,8142.265362
1649.341234,-919.314598,-5181.441594,9918.759623
1649.341551,-1915.238745,-5329.482782,10140.821405
1649.341868,-2374.896044,-4515.256246,9918.759623
1649.342186,-3217.601092,-4737.318029,10436.903782
1649.342503,-2834.553343,-5329.482782,10881.027347
1649.342820,-2068.457845,-4145.153275,9622.677246
1649.343138,-1762.019645,-3552.988522,9400.615463
1649.343455,-1072.533697,-3552.988522,9104.533087
1649.343772,-459.657299,-2664.741391,7624.121203
1649.344090,229.828649,-2146.597232,6143.709319
1649.344407,383.047749,-1702.473667,5699.585753
1649.344724,383.047749,-1924.535449,4663.297435
1649.345042,-229.828649,-2442.679609,4737.318029
1649.345359,-1455.581446,-2368.659014,4737.318029
1649.345676,-2987.772442,-3552.988522,5773.606348
1649.345994,-4519.963438,-4515.256246,7624.121203
1649.346311,-5745.716235,-5477.523971,9770.718434
1649.346628,-6281.983084,-5625.565159,11029.068536
1649.346946,-6818.249932,-6217.729913,11473.192101
1649.347263,-6665.030833,-5255.462188,12435.459826
1649.347580,-5439.278036,-4515.256246,13249.686362
1649.347898,-4826.401637,-2072.576638,10510.924376
1649.348215,-2757.943793,-1036.288319,10584.944971
1649.348532,-1685.410096,222.061783,9030.512492
1649.348849,153.219100,740.205942,6883.915261
1649.349167,612.876398,814.226536,5847.626942
1649.349484,1455.581446,444.123565,6587.832884
1649.349801,2145.067394,888.247130,6143.709319
1649.350119,1455.581446,370.102971,5181.441594
1649.350436,689.485948,-592.164754,7328.038826
1649.350753,-536.266849,-1924.535449,9918.759623
1649.351071,-1072.533697,-2590.720797,10066.800811
1649.351388,-2604.724693,-2146.597232,11695.253884
1649.351705,-612.876398,-1332.370696,13397.727550
1649.352023,-536.266849,-0.000000,12287.418637
1649.352340,0.000000,-666.185348,13175.665768
1649.352657,842.705048,740.205942,12361.439231
1649.352975,1455.581446,2664.741391,10658.965565
1649.353292,3677.258390,2960.823768,9474.636058
1649.353609,4596.572988,2442.679609,8660.409521
1649.353927,4596.572988,2368.659014,7698.141797
1649.354244,6128.763984,2664.741391,8290.306550
1649.354561,4903.011187,2368.659014,7179.997637
1649.354879,5669.106685,1628.453072,9474.636058
1649.355196,4366.744339,1628.453072,9918.759623
1649.355513,3600.648841,2516.700203,9326.594869
1649.355831,3064.381992,2072.576638,10584.944971
1649.356148,1685.410096,1480.411884,11325.150913
1649.356465,1225.752797,1110.308913,12361.439231
1649.356783,229.828649,1924.535449,11769.274478
1649.357100,153.219100,1554.432478,11843.295072
1649.357417,0.000000,1406.391290,11769.274478
1649.357734,459.657299,1184.329507,11621.233289
1649.358052,1608.800546,2294.638420,10955.047942
1649.358369,1991.848295,2368.659014,10658.965565
1649.358686,2681.334243,2886.803174,9992.780217
1649.359004,3830.477490,4219.173869,9104.533087
1649.359321,4060.306139,4367.215058,7772.162391
1649.359638,3370.820191,3627.009116,8068.244768
1649.359956,2298.286494,3404.947333,7994.224174
1649.360273,612.876398,3627.009116,8364.327145
1649.360590,0.000000,2960.823768,9178.553681
1649.360908,-1762.019645,1924.535449,9770.718434
1649.361225,-2528.115143,-518.144159,11177.109724
1649.361542,-3447.429741,-962.267725,11917.315666
1649.361860,-3753.867940,-1110.308913,11917.315666
1649.362177,-3064.381992,-0.000000,11621.233289
1649.362494,-2068.457845,296.082377,10955.047942
1649.362812,-919.314598,1184.329507,9326.594869
1649.363129,383.047749,2146.597232,7846.182985
1649.363446,689.485948,1406.391290,7920.203579
1649.363764,766.095498,444.123565,7402.059420
1649.364081,842.705048,1110.308913,6513.812290
1649.364398,612.876398,1332.370696,6809.894666
1649.364716,-153.219100,-0.000000,8808.450710
1649.365033,-1455.581446,-1406.391290,9474.636058
1649.365350,-2451.505594,-1924.535449,10658.965565
1649.365667,-2451.505594,-2664.741391,11917.315666
1649.365985,-1915.238745,-2886.803174,11769.274478
1649.366302,-1455.581446,-2442.679609,11473.192101
1649.366619,-306.438199,-1554.432478,10732.986159
1649.366937,1072.533697,-592.164754,9474.636058
1649.367254,1762.019645,-1258.350101,9030.512492
1649.367571,2451.505594,-888.247130,7994.224174
1649.367889,2987.772442,296.082377,6439.791695
1649.368206,3447.429741,740.205942,5847.626942
1649.368523,3677.258390,-222.061783,6217.729913
1649.368841,2834.553343,-1628.453072,7031.956449
1649.369158,2145.067394,-2442.679609,9030.512492
1649.369475,1378.971896,-2590.720797,9548.656652
1649.369793,919.314598,-3404.947333,10510.924376
1649.370110,689.485948,-4071.132681,11695.253884
1649.370427,153.219100,-2886.803174,11991.336260
1649.370745,229.828649,-2072.576638,10510.924376
1649.371062,-919.314598,-1036.288319,7920.203579
1649.371379,459.657299,-370.102971,10362.883188
1649.371697,1378.971896,-592.164754,9474.636058
1649.372014,919.314598,-0.000000,6883.915261
1649.372331,1225.752797,-1406.391290,7031.956449
1649.372649,2145.067394,370.102971,6217.729913
1649.372966,2834.553343,-1924.535449,7624.121203
1649.373283,2298.286494,-3108.864956,8808.450710
1649.373600,842.705048,-1924.535449,7698.141797
1649.373918,1225.752797,74.020594,7105.977043
1649.374235,1915.238745,-1480.411884,10881.027347
1649.374552,1225.752797,-2738.761985,11621.233289
1649.374870,153.219100,-518.144159,10436.903782
1649.375187,-919.314598,814.226536,9252.574275
1649.375504,-459.657299,666.185348,10140.821405
1649.375822,383.047749,962.267725,11399.171507
1649.376139,612.876398,2294.638420,8438.347739
1649.376456,1608.800546,1628.453072,7624.121203
1649.376774,1455.581446,2442.679609,7920.203579
1649.377091,3294.210641,1110.308913,8956.491898
1649.377408,3753.867940,1702.473667,6143.709319
1649.377726,3753.867940,1480.411884,6439.791695
1649.378043,2757.943793,444.123565,8512.368333
1649.378360,1762.019645,592.164754,7846.182985
1649.378678,1532.190996,740.205942,8586.388927
1649.378995,0.000000,1036.288319,10288.862594
1649.379312,-689.485948,1924.535449,11177.109724
1649.379630,-1532.190996,1924.535449,10140.821405
1649.379947,-2374.896044,1258.350101,11769.274478
1649.380264,-2451.505594,1924.535449,11621.233289
1649.380582,-1838.629195,2368.659014,10510.924376
1649.380899,-383.047749,3330.926739,10881.027347
1649.381216,1455.581446,3849.070898,9844.739029
1649.381534,1991.848295,4811.338623,7254.018232
1649.381851,2604.724693,4293.194464,7772.162391
1649.382168,3217.601092,3478.967927,8068.244768
1649.382485,2451.505594,3404.947333,6809.894666
1649.382803,1608.800546,2738.761985,7105.977043
1649.383120,459.657299,2368.659014,9104.533087
1649.383437,0.000000,1702.473667,9992.780217
1649.383755,-842.705048,1184.329507,11251.130318
1649.384072,-1455.581446,740.205942,12065.356855
1649.384389,-1915.238745,148.041188,13323.706956
1649.384707,-2145.067394,962.267725,12879.583391
1649.385024,-612.876398,2294.638420,12213.398043
1649.385341,459.657299,3923.091493,11991.336260
1649.385659,1762.019645,3923.091493,10881.027347
1649.385976,2834.553343,4663.297435,9326.594869
1649.386293,3217.601092,4737.318029,7994.224174
1649.386611,3830.477490,4293.194464,7698.141797
1649.386928,3830.477490,3256.906145,7179.997637
1649.387245,3677.258390,1776.494261,7624.121203
1649.387563,3294.210641,-518.144159,9252.574275
1649.387880,2221.676944,-1110.308913,10288.862594
1649.388197,1302.362347,-1332.370696,11251.130318
1649.388515,995.924147,-888.247130,12879.583391
1649.388832,306.438199,-592.164754,13027.624579
1649.389149,153.219100,1110.308913,12361.439231
1649.389467,306.438199,2294.638420,11769.274478
1649.389784,689.485948,2294.638420,10881.027347
1649.390101,1225.752797,2294.638420,10214.842000
1649.390418,1991.848295,2368.659014,8586.388927
1649.390736,2298.286494,1480.411884,7624.121203
1649.391053,2374.896044,-0.000000,7179.997637
1649.391370,1685.410096,-1628.453072,7920.203579
1649.391688,2298.286494,-2738.761985,8882.471304
1649.392005,1838.629195,-2812.782580,8956.491898
1649.392322,1455.581446,-2368.659014,9252.574275
1649.392640,612.876398,-1924.535449,10436.903782
1649.392957,766.095498,-1554.432478,10955.047942
1649.393274,-383.047749,-518.144159,9622.677246
1649.393592,-229.828649,-0.000000,9696.697840
1649.393909,-536.266849,1036.288319,9844.739029
1649.394226,612.876398,1554.432478,9548.656652
1649.394544,383.047749,2368.659014,7994.224174
1649.394861,1149.143247,1628.453072,8290.306550
1649.395178,1378.971896,-370.102971,7772.162391
1649.395496,1225.752797,-1480.411884,7698.141797
1649.395813,1608.800546,-2072.576638,7328.038826
1649.396130,1608.800546,-2368.659014,7105.977043
1649.396448,1762.019645,-2590.720797,7846.182985
1649.396765,1302.362347,-1850.514855,7550.100608
1649.397082,1225.752797,-740.205942,8660.409521
1649.397400,229.828649,-444.123565,8956.491898
1649.397717,229.828649,222.061783,9400.615463
1649.398034,-306.438199,1406.391290,8808.450710
1649.398352,0.000000,2294.638420,8808.450710
1649.398669,383.047749,2294.638420,7994.224174
1649.398986,-383.047749,814.226536,8734.430116
1649.399303,0.000000,-814.226536,9622.677246
1649.399621,153.219100,-518.144159,8290.306550
1649.399938,383.047749,-1036.288319,8216.285956
1649.400255,229.828649,-1850.514855,9030.512492
1649.400573,536.266849,-2220.617826,9178.553681
1649.400890,0.000000,-1776.494261,8438.347739
1649.401207,-306.438199,-962.267725,8660.409521
1649.401525,-153.219100,-518.144159,9770.718434
1649.401842,76.609550,1110.308913,9770.718434
1649.402159,0.000000,1850.514855,9548.656652
1649.402477,0.000000,1924.535449,9252.574275
1649.402794,0.000000,1554.432478,10288.862594
1649.403111,76.609550,740.205942,10510.924376
1649.403429,689.485948,740.205942,10140.821405
1649.403746,1072.533697,740.205942,9844.739029
1649.404063,1302.362347,-222.061783,10510.924376
1649.404381,2068.457845,-222.061783,9696.697840
1649.404698,2451.505594,-0.000000,9030.512492
1649.405015,2451.505594,74.020594,8586.388927
1649.405333,2068.457845,814.226536,7994.224174
1649.405650,1762.019645,814.226536,8290.306550
1649.405967,1378.971896,666.185348,9548.656652
1649.406285,1072.533697,296.082377,10807.006753
1649.406602,459.657299,962.267725,11103.089130
1649.406919,153.219100,666.185348,12435.459826
1649.407236,459.657299,1406.391290,12509.480420
1649.407554,995.924147,1998.556043,11399.171507
1649.407871,1685.410096,1998.556043,10436.903782
1649.408188,2298.286494,2220.617826,10066.800811
1649.408506,2298.286494,2072.576638,9030.512492
1649.408823,2987.772442,1258.350101,8290.306550
1649.409140,2451.505594,518.144159,7402.059420
1649.409458,1762.019645,-740.205942,7698.141797
1649.409775,536.266849,-666.185348,8290.306550
1649.410092,0.000000,-1184.329507,8734.430116
1649.410410,-995.924147,-1332.370696,10214.842000
1649.410727,-1608.800546,-1036.288319,11991.336260
1649.411044,-842.705048,-444.123565,12287.418637
1649.411362,-1302.362347,-222.061783,12657.521608
1649.411679,-536.266849,592.164754,13027.624579
1649.411996,229.828649,1850.514855,11325.150913
1649.412314,1685.410096,2590.720797,9622.677246
1649.412631,2911.162892,2664.741391,8586.388927
1649.412948,3140.991542,2368.659014,7105.977043
1649.413266,3753.867940,1702.473667,6439.791695
1649.413583,3217.601092,740.205942,5847.626942
1649.413900,2374.896044,-1184.329507,6513.812290
1649.414218,689.485948,-1998.556043,7476.080014
1649.414535,-995.924147,-3256.906145,8660.409521
1649.414852,-2374.896044,-3330.926739,9770.718434
1649.415170,-2681.334243,-2664.741391,11991.336260
1649.415487,-2298.286494,-2590.720797,12805.562797
1649.415804,-1991.848295,-1554.432478,13323.706956
1649.416121,-1149.143247,148.041188,12731.542202
1649.416439,-842.705048,1776.494261,10955.047942
1649.416756,153.219100,2664.741391,9104.533087
1649.417073,1455.581446,3775.050304,7105.977043
1649.417391,2068.457845,3478.967927,5847.626942
1649.417708,2604.724693,2072.576638,4811.338623
1649.418025,1838.629195,-740.205942,6365.771101
1649.418343,995.924147,-2146.597232,7105.977043
1649.418660,612.876398,-2960.823768,8586.388927
1649.418977,-1072.533697,-4219.173869,9400.615463
1649.419295,-2451.505594,-4663.297435,10584.944971
1649.419612,-3140.991542,-3923.091493,11769.274478
1649.419929,-3753.867940,-2738.761985,12435.459826
1649.420247,-1685.410096,-2220.617826,13101.645173
1649.420564,-1991.848295,444.123565,11547.212695
1649.420881,-1149.143247,1628.453072,10807.006753
1649.421199,-536.266849,2590.720797,9326.594869
1649.421516,1455.581446,2886.803174,8216.285956
1649.421833,2221.676944,1406.391290,6957.935855
1649.422151,4136.915689,296.082377,7254.018232
1649.422468,3983.696590,-74.020594,6365.771101
1649.422785,4673.182538,-370.102971,6883.915261
1649.423103,5745.716235,-1332.370696,8660.409521
1649.423420,4443.353888,-2294.638420,8438.347739
1649.423737,3753.867940,-2146.597232,7920.203579
1649.424054,1991.848295,-2220.617826,9622.677246
1649.424372,383.047749,-2590.720797,10955.047942
1649.424689,536.266849,-1406.391290,12509.480420
1649.425006,153.219100,370.102971,12435.459826
1649.425324,-306.438199,962.267725,11029.068536
1649.425641,229.828649,1036.288319,11473.192101
1649.425958,689.485948,740.205942,10436.903782
1649.426276,2604.724693,740.205942,8660.409521
1649.426593,3217.601092,592.164754,7550.100608
1649.426910,3830.477490,-296.082377,7179.997637
1649.427228,3064.381992,-1332.370696,6513.812290
1649.427545,3294.210641,-1776.494261,7994.224174
1649.427862,1762.019645,-1628.453072,7402.059420
1649.428180,995.924147,-1850.514855,8660.409521
1649.428497,-1149.143247,-1850.514855,9844.739029
1649.428814,-2757.943793,-1776.494261,11843.295072
1649.429132,-3217.601092,-1702.473667,12731.542202
1649.429449,-2451.505594,-1998.556043,14137.933492
1649.429766,-3447.429741,-962.267725,11695.253884
1649.430084,-2757.943793,296.082377,11843.295072
1649.430401,-2068.457845,1480.411884,10214.842000
1649.430718,-995.924147,2590.720797,7772.162391
1649.431036,306.438199,3108.864956,7179.997637
1649.431353,0.000000,1776.494261,6439.791695
1649.431670,459.657299,-0.000000,6365.771101
1649.431988,0.000000,-444.123565,7328.038826
1649.432305,229.828649,-2590.720797,8882.471304
1649.432622,-612.876398,-2590.720797,8808.450710
1649.432939,-1149.143247,-2294.638420,9696.697840
1649.433257,-1838.629195,-1702.473667,12509.480420
1649.433574,-1532.190996,-666.185348,12361.439231
1649.433891,-612.876398,1036.288319,12509.480420
1649.434209,76.609550,2960.823768,10807.006753
1649.434526,689.485948,3627.009116,9992.780217
1649.434843,1225.752797,4737.318029,8882.471304
1649.435161,2145.067394,4663.297435,6365.771101
1649.435478,2528.115143,4663.297435,3775.050304
1649.435795,2834.553343,1998.556043,4663.297435
1649.436113,1532.190996,666.185348,3923.091493
1649.436430,1455.581446,-2368.659014,7402.059420
1649.436747,0.000000,-4145.153275,9696.697840
1649.437065,-995.924147,-4219.173869,10140.821405
1649.437382,-1302.362347,-4145.153275,13027.624579
1649.437699,-1532.190996,-3923.091493,15248.242405
1649.438017,-1991.848295,-1850.514855,14878.139434
1649.438334,766.095498,888.247130,14508.036463
1649.438651,1149.143247,3849.070898,11695.253884
1649.438969,2757.943793,6883.915261,9548.656652
1649.439286,3830.477490,7772.162391,6661.853478
1649.439603,4213.525239,8216.285956,3404.947333
1649.439921,6128.763984,4959.379811,3404.947333
1649.440238,4290.134789,1850.514855,2960.823768
1649.440555,2528.115143,-3330.926739,6143.709319
1649.440873,1608.800546,-5477.523971,10362.883188
1649.441190,1455.581446,-5625.565159,9844.739029
1649.441507,1072.533697,-6143.709319,11177.109724
1649.441825,-612.876398,-5921.647536,14063.912898
1649.442142,-1532.190996,-5625.565159,16580.613101
1649.442459,-919.314598,-1628.453072,16210.510130
1649.442777,1149.143247,1406.391290,13989.892304
1649.443094,1991.848295,4885.359217,11103.089130
1649.443411,1685.410096,6587.832884,9326.594869
1649.443729,2834.553343,7698.141797,8290.306550
1649.444046,4213.525239,7179.997637,4515.256246
1649.444363,5132.839837,5773.606348,4071.132681
1649.444681,4979.620737,1480.411884,4811.338623
1649.444998,3064.381992,-296.082377,4515.256246
1649.445315,2834.553343,-4515.256246,9326.594869
1649.445632,1608.800546,-5477.523971,9400.615463
1649.445950,153.219100,-7402.059420,10584.944971
1649.446267,-2528.115143,-6217.729913,12139.377449
1649.446584,-3447.429741,-5625.565159,17024.736666
1649.446902,-2451.505594,-2738.761985,16950.716072
1649.447219,-2221.676944,1110.308913,11473.192101
1649.447536,-766.095498,4293.194464,11843.295072
1649.447854,-1915.238745,5477.523971,9252.574275
1649.448171,-229.828649,7179.997637,8364.327145
1649.448488,2145.067394,7402.059420,5625.565159
1649.448806,3753.867940,7920.203579,3182.885551
1649.449123,2757.943793,4811.338623,2812.782580
1649.449440,1608.800546,74.020594,6365.771101
1649.449758,919.314598,-5995.668130,9844.739029
1649.450075,-612.876398,-6587.832884,8808.450710
1649.450392,-995.924147,-9104.533087,11843.295072
1649.450710,-4443.353888,-7624.121203,12435.459826
1649.451027,-4060.306139,-7920.203579,16654.633695
1649.451344,-3830.477490,-2886.803174,15248.242405
1649.451662,-2528.115143,888.247130,13249.686362
1649.451979,-1302.362347,3478.967927,10584.944971
1649.452296,-1762.019645,5033.400406,8734.430116
1649.452614,-459.657299,7994.224174,7105.977043
1649.452931,2834.553343,9030.512492,5847.626942
1649.453248,5439.278036,8512.368333,2072.576638
1649.453566,4290.134789,6143.709319,666.185348
1649.453883,4060.306139,-0.000000,7031.956449
1649.454200,2374.896044,-3923.091493,6957.935855
1649.454518,2528.115143,-6069.688724,7920.203579
1649.454835,766.095498,-9548.656652,11695.253884
1649.455152,-3294.210641,-9104.533087,12583.501014
1649.455470,-3370.820191,-7846.182985,16432.571912
1649.455787,-2145.067394,-4071.132681,18579.169144
1649.456104,-612.876398,-1036.288319,13545.768739
1649.456422,689.485948,3701.029710,12509.480420
1649.456739,612.876398,7550.100608,9104.533087
1649.457056,3140.991542,12139.377449,7846.182985
1649.457374,7048.078582,14434.015869,2294.638420
1649.457691,8810.098227,15470.304188,-2368.659014
1649.458008,7584.345430,10066.800811,-1628.453072
1649.458326,6128.763984,3404.947333,1036.288319
1649.458643,3830.477490,-5255.462188,8808.450710
1649.458960,2451.505594,-9326.594869,9326.594869
1649.459278,0.000000,-13027.624579,12065.356855
1649.459595,-3907.087040,-13471.748144,14656.077652
1649.459912,-5286.058936,-10362.883188,18949.272115
1649.460230,-2221.676944,-8586.388927,21762.054695
1649.460547,-2987.772442,-1850.514855,13767.830521
1649.460864,383.047749,3108.864956,13915.871710
1649.461182,383.047749,8586.388927,10881.027347
1649.461499,919.314598,14063.912898,4885.359217
1649.461816,6435.202183,16580.613101,3552.988522
1649.462134,5362.668486,17987.004391,-2886.803174
1649.462451,5515.887586,12213.398043,-2072.576638
1649.462768,4519.963438,4737.318029,1036.288319
1649.463086,2068.457845,-4589.276840,11029.068536
1649.463403,1608.800546,-11843.295072,13693.809927
1649.463720,-536.266849,-15618.345376,13323.706956
1649.464038,-4443.353888,-16950.716072,16728.654289
1649.464355,-6894.859482,-13323.706956,18431.127956
1649.464672,-2604.724693,-8808.450710,21762.054695
1649.464990,-3294.210641,-814.226536,13767.830521
1649.465307,0.000000,2886.803174,13323.706956
1649.465624,0.000000,8438.347739,12731.542202
1649.465942,-2451.505594,14878.139434,3923.091493
1649.466259,4060.306139,16580.613101,4441.235652
1649.466576,4213.525239,18061.024985,-1406.391290
1649.466894,4979.620737,14952.160028,-1924.535449
1649.467211,5515.887586,8586.388927,-3552.988522
1649.467528,2374.896044,-592.164754,7994.224174
1649.467845,2374.896044,-13397.727550,16654.633695
1649.468163,459.657299,-15396.283594,14952.160028
1649.468480,-229.828649,-18653.189738,16876.695478
1649.468797,-7201.297681,-14952.160028,16728.654289
1649.469115,-2987.772442,-13767.830521,25981.228564
1649.469432,-5669.106685,-4737.318029,15840.407159
1649.469749,-2221.676944,1850.514855,11991.336260
1649.470067,383.047749,6365.771101,13175.665768
1649.470384,-4060.306139,16580.613101,-518.144159
1649.470701,3907.087040,15396.283594,6513.812290
1649.471019,4596.572988,17764.942608,-2368.659014
1649.471336,6052.154434,14508.036463,148.041188
1649.471653,6665.030833,11917.315666,-7105.977043
1649.471971,4673.182538,-148.041188,2368.659014
1649.472288,4366.744339,-10510.924376,17098.757260
1649.472605,2145.067394,-14582.057057,14285.974681
1649.472923,-612.876398,-21539.992912,15988.448347
1649.473240,-5822.325785,-19763.498651,19171.333898
1649.473557,-4290.134789,-13249.686362,26277.310941
1649.473875,-3907.087040,-5551.544565,17024.736666
1649.474192,-842.705048,-1702.473667,10362.883188
1649.474509,1915.238745,4367.215058,12731.542202
1649.474827,-1378.971896,15618.345376,4737.318029
1649.475144,4749.792088,20429.683999,2072.576638
1649.475461,8733.488677,19541.436869,0.000000
1649.475779,7201.297681,19837.519246,0.000000
1649.476096,10955.165621,15396.283594,-3775.050304
1649.476413,7431.126331,6587.832884,-9696.697840
1649.476731,4979.620737,-10584.944971,10732.986159
1649.477048,2451.505594,-18135.045579,16654.633695
1649.477365,-995.924147,-19911.539840,12287.418637
1649.477683,-2834.553343,-18579.169144,19319.375086
1649.478000,-4673.182538,-13471.748144,24426.796086
1649.478317,-4826.401637,-10584.944971,21095.869347
1649.478635,-3217.601092,-3701.029710,16432.571912
1649.478952,0.000000,4293.194464,10288.862594
1649.479269,-153.219100,13767.830521,5773.606348
1649.479587,1302.362347,19171.333898,3478.967927
1649.479904,6358.592633,21169.889941,4737.318029
1649.480221,4749.792088,23686.590144,-5995.668130
1649.480539,9346.365076,19319.375086,-4811.338623
1649.480856,5822.325785,10658.965565,-6809.894666
1649.481173,3294.210641,-3849.070898,4737.318029
1649.481491,2834.553343,-14878.139434,16728.654289
1649.481808,-1608.800546,-18875.251521,10584.944971
1649.482125,-4826.401637,-23390.507767,18061.024985
1649.482443,-8503.660028,-21762.054695,23612.569550
1649.482760,-7967.393179,-15396.283594,25315.043216
1649.483077,-6052.154434,-6365.771101,20947.828159
1649.483395,-3907.087040,-222.061783,12509.480420
1649.483712,-1991.848295,9548.656652,11473.192101
1649.484029,-4826.401637,19985.560434,3923.091493
1649.484347,2834.553343,23464.528361,4071.132681
1649.484664,4749.792088,22872.363608,-1332.370696
1649.484981,7354.516781,23686.590144,-4959.379811
1649.485299,6435.202183,16802.674883,-8216.285956
1649.485616,6052.154434,2886.803174,0.000000
1649.485933,3753.867940,-15692.365970,19393.395680
1649.486251,1608.800546,-20133.601622,12213.398043
1649.486568,-2451.505594,-23020.404796,11991.336260
1649.486885,-6511.811733,-22428.240043,24722.878463
1649.487203,-8886.707777,-21169.889941,30274.423028
1649.487520,-6818.249932,-13323.706956,23316.487173
1649.487837,-3753.867940,-5255.462188,18357.107362
1649.488155,-2374.896044,8142.265362,13471.748144
1649.488472,-2681.334243,17838.963202,4293.194464
1649.488789,919.314598,21243.910535,3478.967927
1649.489107,6741.640382,20429.683999,3627.009116
1649.489424,6665.030833,26943.496289,-5773.606348
1649.489741,9959.241474,19911.539840,-7550.100608
1649.490059,9499.584175,4441.235652,-6513.812290
1649.490376,5745.716235,-11251.130318,11029.068536
1649.490693,3830.477490,-20355.663405,13323.706956
1649.491010,-536.266849,-23316.487173,11251.130318
1649.491328,-3600.648841,-25981.228564,23538.548956
1649.491645,-9116.536426,-19245.354492,25018.960840
1649.491962,-7814.174080,-13323.706956,23094.425390
1649.492280,-5209.449386,-10066.800811,23020.404796
1649.492597,-3983.696590,-0.000000,13323.706956
1649.492914,-306.438199,10658.965565,11473.192101
1649.493232,-459.657299,21391.951724,2072.576638
1649.493549,5898.935335,21317.931130,4145.153275
1649.493866,6281.983084,25759.166782,-1850.514855
1649.494184,11874.480219,25833.187376,-6069.688724
1649.494501,12334.137518,11769.274478,-11473.192101
1649.494818,8044.002729,-2220.617826,-5477.523971
1649.495136,10112.460574,-19097.313304,17098.757260
1649.495453,153.219100,-21243.910535,5329.482782
1649.495770,-1532.190996,-24574.837274,13323.706956
1649.496088,-3600.648841,-21688.034101,24500.816680
1649.496405,-10112.460574,-16210.510130,20059.581028
1649.496722,-6281.983084,-18875.251521,23834.631332
1649.497040,-7584.345430,-6143.709319,14730.098246
1649.497357,-536.266849,4293.194464,13915.871710
1649.497674,-76.609550,17764.942608,5255.462188
1649.497992,3447.429741,20355.663405,7846.182985
1649.498309,5592.497135,27535.661042,3849.070898
1649.498626,7737.564530,31310.711347,-7698.141797
1649.498944,12717.185267,22058.137072,-8364.327145
1649.499261,9193.145976,5625.565159,-8882.471304
1649.499578,5975.544884,-8142.265362,3849.070898
1649.499896,4519.963438,-17838.963202,7550.100608
1649.500213,-2451.505594,-21762.054695,8512.368333
1649.500530,-5056.230287,-25241.022622,24278.754898
1649.500848,-9039.926876,-22798.343014,23686.590144
1649.501165,-10112.460574,-19171.333898,21095.869347
1649.501482,-7890.783629,-13545.768739,21243.910535
1649.501800,-8273.831378,-2442.679609,15914.427753
1649.502117,0.000000,4219.173869,18727.210333
1649.502434,-1225.752797,21984.116477,3330.926739
1649.502752,4673.182538,28423.908173,7328.038826
1649.503069,5286.058936,31976.896694,-518.144159
1649.503386,10265.679673,31976.896694,-10658.965565
1649.503704,12640.575717,19985.560434,-13175.665768
1649.504021,10801.946522,4811.338623,-10510.924376
1649.504338,8350.440928,-13915.871710,12509.480420
1649.504656,2757.943793,-20947.828159,4737.318029
1649.504973,-3064.381992,-24278.754898,11621.233289
1649.505290,-6818.249932,-24352.775492,29756.278868
1649.505608,-14249.376263,-20799.786970,24278.754898
1649.505925,-9882.631924,-20059.581028,28053.805202
1649.506242,-11644.651570,-13249.686362,24426.796086
1649.506560,-9959.241474,-0.000000,19097.313304
1649.506877,-2298.286494,11251.130318,14656.077652
1649.507194,-919.314598,21984.116477,9844.739029
1649.507512,4136.915689,28571.949361,5033.400406
1649.507829,5515.887586,35529.885216,-3182.885551
1649.508146,12947.013916,29830.299463,-10510.924376
1649.508464,13713.109414,13027.624579,-8290.306550
1649.508781,12410.747068,-0.000000,-6069.688724
1649.509098,11414.822920,-15396.283594,14582.057057
1649.509416,3524.039291,-21836.075289,9104.533087
1649.509733,-4213.525239,-26869.475695,13915.871710
1649.510050,-7431.126331,-28349.887579,32346.999665
1649.510368,-13176.842566,-17024.736666,24722.878463
1649.510685,-10725.336972,-17172.777854,27239.578666
1649.511002,-10648.727422,-11103.089130,18283.086767
1649.511320,-5669.106685,740.205942,19393.395680
1649.511637,-842.705048,10807.006753,15766.386565
1649.511954,-459.657299,21614.013506,6587.832884
1649.512272,4903.011187,26647.413912,2294.638420
1649.512589,6281.983084,36936.276506,-6809.894666
1649.512906,13176.842566,24574.837274,-8660.409521
1649.513223,14402.595362,9030.512492,-12435.459826
1649.513541,9116.536426,-1702.473667,-6217.729913
1649.513858,11874.480219,-18505.148550,12213.398043
1649.514175,-459.657299,-23612.569550,9918.759623
1649.514493,-3447.429741,-26647.413912,16802.674883
1649.514810,-7967.393179,-23316.487173,27387.619854
1649.515127,-10418.898773,-21169.889941,20799.786970
1649.515445,-11414.822920,-20355.663405,25167.002028
1649.515762,-9039.926876,-13841.851115,21317.931130
1649.516079,-5286.058936,1554.432478,17394.839637
1649.516397,766.095498,17764.942608,9178.553681
1649.516714,5132.839837,22798.343014,7920.203579
1649.517031,4366.744339,31606.793723,370.102971
1649.517349,7737.564530,36788.235317,-12287.418637
1649.517666,16394.443657,23168.445985,-9326.594869
1649.517983,13789.718964,8586.388927,-17838.963202
1649.518301,11874.480219,-6513.812290,-9104.533087
1649.518618,10418.898773,-17098.757260,6957.935855
1649.518935,-2681.334243,-24130.713709,6587.832884
1649.519253,-2528.115143,-26277.310941,22798.343014
1649.519570,-10955.165621,-19171.333898,28127.825796
1649.519887,-12410.747068,-21169.889941,22280.198854
1649.520205,-14019.547613,-22576.281231,24796.899057
1649.520522,-11184.994271,-10066.800811,23168.445985
1649.520839,-5822.325785,-1850.514855,23982.672521
1649.521157,-383.047749,18135.045579,10807.006753
1649.521474,4519.963438,27979.784608,6587.832884
1649.521791,5822.325785,42043.697506,0.000000
1649.522109,10265.679673,39971.120868,-14434.015869
1649.522426,16547.662757,22502.260637,-9696.697840
1649.522743,14019.547613,7476.080014,-19171.333898
1649.523061,12334.137518,-7179.997637,-6439.791695
1649.523378,9959.241474,-19985.560434,6809.894666
1649.523695,-4366.744339,-26721.434506,8438.347739
1649.524013,-3370.820191,-25315.043216,26203.290347
1649.524330,-11414.822920,-21317.931130,30422.464216
1649.524647,-14938.862211,-23760.610738,23686.590144
1649.524965,-13713.109414,-23982.672521,29534.217086
1649.525282,-13942.938064,-6439.791695,23908.651927
1649.525599,-4366.744339,370.102971,25463.084405
1649.525917,-2681.334243,22946.384202,6957.935855
1649.526234,4519.963438,29312.155303,9992.780217
1649.526551,6588.421283,43524.109390,-2960.823768
1649.526869,12180.918418,42339.779882,-14359.995275
1649.527186,15398.519510,21836.075289,-13693.809927
1649.527503,15092.081311,6439.791695,-16432.571912
1649.527821,9882.631924,-6587.832884,1036.288319
1649.528138,8273.831378,-19171.333898,6587.832884
1649.528455,-1378.971896,-26129.269753,16950.716072
1649.528773,-6588.421283,-28423.908173,33901.432144
1649.529090,-10112.460574,-24574.837274,34197.514520
1649.529407,-14325.985813,-17468.860231,25833.187376
1649.529725,-9269.755526,-17320.819043,29978.340651
1649.530042,-10495.508323,-962.267725,17542.880825
1649.530359,766.095498,7105.977043,20873.807564
1649.530677,-306.438199,26055.249158,666.185348
1649.530994,6435.202183,31828.855506,4145.153275
1649.531311,4826.401637,40119.162056,-6439.791695
1649.531629,9806.022374,35011.741057,-15692.365970
1649.531946,13176.842566,17320.819043,-11843.295072
1649.532263,8580.269578,-1258.350101,-11103.089130
1649.532581,8273.831378,-19319.375086,16728.654289
1649.532898,153.219100,-20873.807564,2072.576638
1649.533215,-2145.067394,-23094.425390,16802.674883
1649.533533,-4903.011187,-25241.022622,41007.409187
1649.533850,-13713.109414,-20207.622217,30274.423028
1649.534167,-9806.022374,-23686.590144,31236.690752
1649.534485,-9652.803275,-11547.212695,23686.590144
1649.534802,-1225.752797,5181.441594,19985.560434
1649.535119,2145.067394,18283.086767,6513.812290
1649.535437,4366.744339,28423.908173,888.247130
1649.535754,6894.859482,31976.896694,3182.885551
1649.536071,7277.907231,40859.367998,-10510.924376
1649.536388,14785.643111,25537.104999,-15988.448347
1649.536706,16394.443657,7031.956449,-20725.766376
1649.537023,9806.022374,-9474.636058,-10436.903782
1649.537340,11874.480219,-19837.519246,10066.800811
1649.537658,-1072.533697,-25759.166782,4515.256246
1649.537975,-3140.991542,-27239.578666,21317.931130
1649.538292,-7277.907231,-20651.745782,34197.514520
1649.538610,-12180.918418,-18801.230927,26647.413912
1649.538927,-10648.727422,-19467.416275,32198.958477
1649.539244,-8580.269578,-6069.688724,16802.674883
1649.539562,-459.657299,4959.379811,17394.839637
1649.539879,0.000000,26869.475695,6217.729913
1649.540196,5439.278036,28794.011144,4145.153275
1649.540514,4826.401637,35307.823433,-4441.235652
1649.540831,9116.536426,36492.152941,-15544.324782
1649.541148,12870.404366,19689.478057,-14063.912898
1649.541466,7431.126331,1184.329507,-19689.478057
1649.541783,7967.393179,-18209.066173,8068.244768
1649.542100,2068.457845,-24352.775492,4959.379811
1649.542418,-4903.011187,-24426.796086,10955.047942
1649.542735,-5515.887586,-31754.834912,37232.358883
1649.543052,-13253.452115,-22650.301825,30792.567187
1649.543370,-9729.412825,-21465.972318,26203.290347
1649.543687,-7584.345430,-8808.450710,21910.095883
1649.544004,-3753.867940,5329.482782,14211.954086
1649.544322,229.828649,10214.842000,8586.388927
1649.544639,306.438199,26647.413912,-4071.132681
1649.544956,6818.249932,25833.187376,2442.679609
1649.545274,2528.115143,32198.958477,-13397.727550
1649.545591,10572.117872,22946.384202,-11103.089130
1649.545908,10112.460574,8956.491898,-5107.421000
1649.546226,3447.429741,-10140.821405,4589.276840
1649.546543,7354.516781,-25537.104999,24278.754898
1649.546860,-1915.238745,-22206.178260,9400.615463
1649.547178,-1685.410096,-23094.425390,24648.857869
1649.547495,-4673.182538,-20133.601622,34567.617491
1649.547812,-4519.963438,-11695.253884,27979.784608
1649.548130,-919.314598,-1554.432478,19837.519246
1649.548447,383.047749,7402.059420,6809.894666
1649.548764,3830.477490,16802.674883,6513.812290
1649.549082,-842.705048,21539.992912,518.144159
1649.549399,2604.724693,20429.683999,-1702.473667
1649.549716,229.828649,19171.333898,-8882.471304
1649.550034,3447.429741,23390.507767,-6735.874072
1649.550351,6971.469032,7624.121203,-5255.462188
1649.550668,1225.752797,-13841.851115,11177.109724
1649.550986,1302.362347,-28719.990550,26203.290347
1649.551303,-2987.772442,-22576.281231,21243.910535
1649.551620,-1532.190996,-21762.054695,23834.631332
1649.551938,-6435.202183,-12657.521608,22576.281231
1649.552255,-3753.867940,-5847.626942,23908.651927
1649.552572,-1838.629195,5403.503377,9178.553681
1649.552890,-995.924147,11621.233289,2590.720797
1649.553207,76.609550,17987.004391,2738.761985
1649.553524,-1378.971896,14804.118840,3034.844362
1649.553842,3753.867940,7846.182985,8364.327145
1649.554159,-2145.067394,11547.212695,666.185348
1649.554476,3677.258390,17394.839637,-2146.597232
1649.554794,4979.620737,10658.965565,-1110.308913
1649.555111,9346.365076,-10362.883188,21762.054695
1649.555428,8656.879127,-15692.365970,24352.775492
1649.555746,8886.707777,-4441.235652,10881.027347
1649.556063,8580.269578,-5995.668130,16210.510130
1649.556380,1608.800546,-8364.327145,13249.686362
1649.556698,3064.381992,-4367.215058,5255.462188
1649.557015,-2221.676944,2220.617826,444.123565
1649.557332,-1225.752797,5181.441594,4811.338623
1649.557650,-1378.971896,6661.853478,1184.329507
1649.557967,-4213.525239,4959.379811,1554.432478
1649.558284,-3370.820191,-4293.194464,19393.395680
1649.558602,-4673.182538,-3108.864956,21095.869347
1649.558919,-3447.429741,5995.668130,11177.109724
1649.559236,842.705048,7328.038826,3627.009116
1649.559554,4136.915689,6143.709319,4885.359217
1649.559871,6435.202183,2960.823768,13767.830521
1649.560188,9882.631924,-2442.679609,18209.066173
1649.560506,7048.078582,-3923.091493,12953.603985
1649.560823,3447.429741,-3478.967927,8290.306550
1649.561140,459.657299,-2812.782580,6143.709319
1649.561458,-919.314598,-444.123565,0.000000
1649.561775,-4519.963438,962.267725,888.247130
1649.562092,-7277.907231,3404.947333,-444.123565
1649.562410,-9652.803275,-3404.947333,6365.771101
1649.562727,-10725.336972,-8290.306550,11325.150913
1649.563044,-7354.516781,-12953.603985,27313.599260
1649.563361,-9422.974625,-9992.780217,26055.249158
1649.563679,-5056.230287,-2664.741391,17098.757260
1649.563996,-383.047749,6439.791695,10362.883188
1649.564313,7660.954980,9326.594869,12361.439231
1649.564631,9499.584175,9400.615463,3701.029710
1649.564948,11491.432470,13397.727550,3404.947333
1649.565265,13406.671215,9104.533087,6291.750507
1649.565583,11874.480219,4367.215058,1258.350101
1649.565900,8963.317327,-0.000000,-3478.967927
1649.566217,3370.820191,-1702.473667,-1406.391290
1649.566535,383.047749,-6587.832884,4737.318029
1649.566852,-2145.067394,-10214.842000,3849.070898
1649.567169,-9652.803275,-13101.645173,12065.356855
1649.567487,-11031.775171,-10362.883188,20355.663405
1649.567804,-7737.564530,-10510.924376,22280.198854
1649.568121,-4596.572988,-11547.212695,25018.960840
1649.568439,-5439.278036,-8660.409521,26351.331535
1649.568756,-3907.087040,8660.409521,13249.686362
1649.569073,4826.401637,20429.683999,2368.659014
1649.569391,11261.603821,20503.704593,-444.123565
1649.569708,10265.679673,11251.130318,1258.350101
1649.570025,10878.556072,9696.697840,1850.514855
1649.570343,12487.356617,6883.915261,-814.226536
1649.570660,8810.098227,-74.020594,5181.441594
1649.570977,5898.935335,-7698.141797,9844.739029
1649.571295,2987.772442,-8660.409521,6143.709319
1649.571612,-1838.629195,-6439.791695,3256.906145
1649.571929,-6128.763984,-13767.830521,15174.221811
1649.572247,-12334.137518,-12657.521608,15396.283594
1649.572564,-8810.098227,-7476.080014,16654.633695
1649.572881,-6281.983084,-1480.411884,11103.089130
1649.573199,-6358.592633,-2442.679609,18653.189738
1649.573516,-9269.755526,-4071.132681,21910.095883
1649.573833,-2757.943793,1776.494261,16062.468941
1649.574151,2987.772442,14582.057057,6291.750507
1649.574468,8197.221829,18431.127956,4663.297435
1649.574785,12640.575717,14730.098246,3404.947333
1649.575103,14172.766713,13915.871710,4515.256246
1649.575420,16547.662757,6513.812290,8142.265362
1649.575737,12334.137518,2738.761985,4515.256246
1649.576055,10265.679673,-5995.668130,6069.688724
1649.576372,5592.497135,-2738.761985,1332.370696
1649.576689,383.047749,-9844.739029,296.082377
1649.577007,-7431.126331,-7254.018232,1480.411884
1649.577324,-12334.137518,-9474.636058,12731.542202
1649.577641,-12257.527968,-9400.615463,11843.295072
1649.577959,-11874.480219,-8660.409521,11103.089130
1649.578276,-14862.252661,-15396.283594,27683.702231
1649.578593,-16241.224558,-12657.521608,30792.567187
1649.578911,-8120.612279,4145.153275,19985.560434
1649.579228,459.657299,17912.983796,10288.862594
1649.579545,5132.839837,19467.416275,3775.050304
1649.579863,6435.202183,18949.272115,-3923.091493
1649.580180,9652.803275,16876.695478,1036.288319
1649.580497,12257.527968,10658.965565,1406.391290
1649.580815,9346.365076,-888.247130,13027.624579
1649.581132,8120.612279,-5847.626942,10214.842000
1649.581449,5439.278036,-5107.421000,3701.029710
1649.581767,-1225.752797,-12953.603985,5699.585753
1649.582084,-7431.126331,-17024.736666,10584.944971
1649.582401,-12104.308868,-11991.336260,8364.327145
1649.582719,-7507.735880,-3701.029710,7105.977043
1649.583036,-6281.983084,-2368.659014,8142.265362
1649.583353,-8120.612279,-10140.821405,22872.363608
1649.583671,-11568.042020,-12435.459826,25981.228564
1649.583988,-6358.592633,592.164754,15470.304188
1649.584305,459.657299,13323.706956,8068.244768
1649.584623,5592.497135,12361.439231,3923.091493
1649.584940,7354.516781,14211.954086,1036.288319
1649.585257,12793.794817,16506.592507,1184.329507
1649.585575,16088.005458,9918.759623,4293.194464
1649.585892,15704.957709,-2886.803174,12583.501014
1649.586209,12717.185267,-10066.800811,12435.459826
1649.586527,7967.393179,-5181.441594,5181.441594
1649.586844,2298.286494,-6143.709319,0.000000
1649.587161,-842.705048,-12657.521608,10066.800811
1649.587479,-7660.954980,-6809.894666,5847.626942
1649.587796,-5209.449386,-2368.659014,9548.656652
1649.588113,-1225.752797,-3627.009116,11399.171507
1649.588431,-7584.345430,-10510.924376,21391.951724
1649.588748,-8886.707777,-10510.924376,25759.166782
1649.589065,-2374.896044,5181.441594,18283.086767
1649.589383,3677.258390,22280.198854,2590.720797
1649.589700,5209.449386,17320.819043,-5551.544565
1649.590017,7431.126331,10584.944971,3404.947333
1649.590335,8120.612279,9252.574275,-4441.235652
1649.590652,15245.300410,5847.626942,7698.141797
1649.590969,12947.013916,-6069.688724,14804.118840
1649.591286,7277.907231,-7031.956449,6735.874072
1649.591604,5056.230287,-6883.915261,10436.903782
1649.591921,-3524.039291,-5625.565159,7179.997637
1649.592238,-5898.935335,-12879.583391,13989.892304
1649.592556,-11338.213370,-10732.986159,7105.977043
1649.592873,-10418.898773,-1776.494261,9252.574275
1649.593190,-4903.011187,-592.164754,8364.327145
1649.593508,-11568.042020,-2442.679609,16728.654289
1649.593825,-7967.393179,-12731.542202,27979.784608
1649.594142,-7124.688131,7328.038826,14137.933492
1649.594460,-1915.238745,20207.622217,2442.679609
1649.594777,2987.772442,13841.851115,-1924.535449
1649.595094,3217.601092,10807.006753,2886.803174
1649.595412,8733.488677,9474.636058,8734.430116
1649.595729,10878.556072,8586.388927,7328.038826
1649.596046,8273.831378,-1332.370696,8512.368333
1649.596364,8580.269578,-7179.997637,12361.439231
1649.596681,3907.087040,-10362.883188,12583.501014
1649.596998,-1302.362347,-8142.265362,5995.668130
1649.597316,-2298.286494,-11399.171507,12583.501014
1649.597633,-7660.954980,-10436.903782,13841.851115
1649.597950,-7124.688131,-888.247130,6735.874072
1649.598268,-612.876398,2516.700203,8734.430116
1649.598585,-7124.688131,-814.226536,18283.086767
1649.598902,-6588.421283,-4737.318029,20577.725188
1649.599220,-1302.362347,12509.480420,10288.862594
1649.599537,3294.210641,23834.631332,-2368.659014
1649.599854,8350.440928,15914.427753,-2738.761985
1649.600172,7431.126331,5995.668130,4071.132681
1649.600489,8656.879127,6439.791695,5329.482782
1649.600806,13406.671215,1554.432478,14730.098246
1649.601124,8733.488677,-4145.153275,11843.295072
1649.601441,7584.345430,-11547.212695,15322.262999
1649.601758,2451.505594,-9178.553681,15914.427753
1649.602076,-4903.011187,-5329.482782,5181.441594
1649.602393,-6052.154434,-7994.224174,13545.768739
1649.602710,-12640.575717,-8142.265362,6957.935855
1649.603028,-7584.345430,-1110.308913,6217.729913
1649.603345,-5362.668486,-0.000000,4885.359217
1649.603662,-12640.575717,-5033.400406,17542.880825
1649.603980,-5286.058936,-15618.345376,31680.814318
1649.604297,-4826.401637,9326.594869,11399.171507
1649.604614,3753.867940,17838.963202,6217.729913
1649.604932,7967.393179,15914.427753,444.123565
1649.605249,8580.269578,13101.645173,2368.659014
1649.605566,13942.938064,10362.883188,6735.874072
1649.605884,15245.300410,7105.977043,2368.659014
1649.606201,12947.013916,-3478.967927,6661.853478
1649.606518,8197.221829,-8808.450710,10510.924376
1649.606836,5669.106685,-13767.830521,14878.139434
1649.607153,-2374.896044,-8068.244768,2886.803174
1649.607470,-4749.792088,-12361.439231,11843.295072
1649.607788,-9882.631924,-13545.768739,14137.933492
1649.608105,-9652.803275,-4885.359217,6291.750507
1649.608422,-5669.106685,-3478.967927,9770.718434
1649.608740,-8886.707777,-9474.636058,25833.187376
1649.609057,-8350.440928,-5181.441594,23982.672521
1649.609374,-2451.505594,13545.768739,11991.336260
1649.609692,3830.477490,26277.310941,-962.267725
1649.610009,8350.440928,23390.507767,-7402.059420
1649.610326,10725.336972,14137.933492,2220.617826
1649.610644,9729.412825,9622.677246,-814.226536
1649.610961,11874.480219,-592.164754,3849.070898
1649.611278,7660.954980,-8290.306550,12361.439231
1649.611596,4596.572988,-12731.542202,14063.912898
1649.611913,1072.533697,-13249.686362,15026.180623
1649.612230,-3830.477490,-10140.821405,11843.295072
1649.612548,-4979.620737,-9326.594869,9030.512492
1649.612865,-8273.831378,-11769.274478,11769.274478
1649.613182,-10955.165621,-6439.791695,7402.059420
1649.613500,-4673.182538,-2368.659014,9844.739029
1649.613817,-9269.755526,-962.267725,10510.924376
1649.614134,-4826.401637,-3701.029710,23020.404796
1649.614452,919.314598,10732.986159,14878.139434
1649.614769,5056.230287,28423.908173,-5921.647536
1649.615086,13559.890315,19985.560434,-592.164754
1649.615404,11568.042020,11251.130318,4663.297435
1649.615721,14785.643111,6661.853478,4737.318029
1649.616038,15551.738609,6809.894666,2220.617826
1649.616356,10189.070123,-4515.256246,6735.874072
1649.616673,4826.401637,-10066.800811,13471.748144
1649.616990,3370.820191,-6735.874072,13915.871710
1649.617308,-2145.067394,-7031.956449,5699.585753
1649.617625,-5822.325785,-9474.636058,9696.697840
1649.617942,-12104.308868,-12879.583391,13545.768739
1649.618259,-11184.994271,-7698.141797,16876.695478
1649.618577,-5975.544884,-8808.450710,11547.212695
1649.618894,-11644.651570,-3108.864956,16728.654289
1649.619211,-5975.544884,-5773.606348,30200.402434
1649.619529,-2451.505594,21391.951724,10066.800811
1649.619846,7660.954980,28275.866984,-2738.761985
1649.620163,9959.241474,23094.425390,-6217.729913
1649.620481,8273.831378,11103.089130,4589.276840
1649.620798,11261.603821,8660.409521,5847.626942
1649.621115,8733.488677,1776.494261,4219.173869
1649.621433,6128.763984,-8660.409521,11251.130318
1649.621750,2221.676944,-13397.727550,15248.242405
1649.622067,1685.410096,-12435.459826,19097.313304
1649.622385,-5286.058936,-12805.562797,12953.603985
1649.622702,-8810.098227,-10214.842000,11769.274478
1649.623019,-8733.488677,-11547.212695,16506.592507
1649.623337,-9576.193725,1258.350101,5033.400406
1649.623654,-6894.859482,-1332.370696,7920.203579
1649.623971,-12870.404366,-3627.009116,14137.933492
1649.624289,-6894.859482,-7254.018232,33235.246796
1649.624606,-4060.306139,14359.995275,9696.697840
1649.624923,5669.106685,26425.352129,-740.205942
1649.625241,11568.042020,18061.024985,0.000000
1649.625558,10035.851024,11843.295072,5477.523971
1649.625875,12180.918418,6439.791695,7772.162391
1649.626193,9193.145976,4885.359217,1110.308913
1649.626510,8963.317327,-5551.544565,5773.606348
1649.626827,5745.716235,-11991.336260,14211.954086
1649.627145,3830.477490,-10214.842000,15914.427753
1649.627462,-1915.238745,-10732.986159,9178.553681
1649.627779,-6741.640382,-11917.315666,11621.233289
1649.628097,-6205.373534,-13545.768739,16876.695478
1649.628414,-8273.831378,-518.144159,12657.521608
1649.628731,-1991.848295,-2812.782580,9252.574275
1649.629049,-6818.249932,370.102971,9030.512492
1649.629366,-3294.210641,-3256.906145,23686.590144
1649.629683,1225.752797,17246.798449,5107.421000
1649.630001,9193.145976,29756.278868,-8586.388927
1649.630318,12793.794817,17764.942608,-518.144159
1649.630635,9269.755526,6957.935855,518.144159
1649.630953,9806.022374,1406.391290,1998.556043
1649.631270,9806.022374,-4293.194464,10436.903782
1649.631587,7048.078582,-13249.686362,11547.212695
1649.631905,1378.971896,-13471.748144,11177.109724
1649.632222,0.000000,-6291.750507,16506.592507
1649.632539,-3064.381992,-2146.597232,7402.059420
1649.632857,-6818.249932,-6143.709319,10658.965565
1649.633174,-9729.412825,-13471.748144,14063.912898
1649.633491,-9422.974625,-2960.823768,7105.977043
1649.633809,-6128.763984,-888.247130,8290.306550
1649.634126,-9346.365076,-6217.729913,14359.995275
1649.634443,-4519.963438,-11621.233289,34715.658680
1649.634761,-3983.696590,14878.139434,6809.894666
1649.635078,5286.058936,27165.558071,-1850.514855
1649.635395,10572.117872,18949.272115,-2146.597232
1649.635713,11184.994271,8586.388927,7328.038826
1649.636030,12870.404366,5477.523971,7402.059420
1649.636347,11261.603821,5255.462188,-1628.453072
1649.636665,9576.193725,-5921.647536,4219.173869
1649.636982,3217.601092,-13397.727550,10807.006753
1649.637299,3524.039291,-14952.160028,15840.407159
1649.637617,-1532.190996,-6513.812290,7994.224174
1649.637934,-4136.915689,-6809.894666,10732.986159
1649.638251,-7124.688131,-13693.809927,14211.954086
1649.638568,-10955.165621,-5773.606348,12139.377449
1649.638886,-4979.620737,-7105.977043,20281.642811
1649.639203,-9959.241474,-3701.029710,15766.386565
1649.639520,-7431.126331,-4811.338623,20651.745782
1649.639838,-3907.087040,16210.510130,5995.668130
1649.640155,6358.592633,26573.393318,-2738.761985
1649.640472,11414.822920,19541.436869,-3552.988522
1649.640789,7048.078582,9548.656652,0.000000
1649.641107,7507.735880,1702.473667,10066.800811
1649.641424,5745.716235,444.123565,8364.327145
1649.641741,5439.278036,-7698.141797,11251.130318
1649.642058,1915.238745,-14878.139434,17320.819043
1649.642376,-2451.505594,-9474.636058,17024.736666
1649.642693,-3600.648841,-8586.388927,14359.995275
1649.643010,-5898.935335,-4737.318029,7772.162391
1649.643328,-4903.011187,-12065.356855,19541.436869
1649.643645,-7814.174080,-3330.926739,9104.533087
1649.643962,-4060.306139,1628.453072,6513.812290
1649.644279,-7124.688131,-1776.494261,9770.718434
1649.644597,-3907.087040,-7402.059420,24574.837274
1649.644914,-2528.115143,10955.047942,6365.771101
1649.645231,8580.269578,25167.002028,-1036.288319
1649.645548,14325.985813,18949.272115,0.000000
1649.645866,13176.842566,6883.915261,7994.224174
1649.646183,11797.870669,1258.350101,13989.892304
1649.646500,10572.117872,4959.379811,814.226536
1649.646818,10725.336972,-1258.350101,4367.215058
1649.647135,4136.915689,-8290.306550,10584.944971
1649.647452,2834.553343,-9622.677246,12435.459826
1649.647769,919.314598,-7105.977043,7476.080014
1649.648087,-7277.907231,-5107.421000,9770.718434
1649.648404,-6894.859482,-12879.583391,18579.169144
1649.648721,-9729.412825,-6587.832884,10362.883188
1649.649039,-5592.497135,-4737.318029,16358.551318
1649.649356,-8350.440928,-3552.988522,16358.551318
1649.649673,-6665.030833,-4219.173869,18061.024985
1649.649990,-3140.991542,13989.892304,4737.318029
1649.650308,7201.297681,21539.992912,6735.874072
1649.650625,10801.946522,22724.322419,-3775.050304
1649.650942,8350.440928,16506.592507,-5033.400406
1649.651259,12257.527968,7031.956449,6883.915261
1649.651577,7660.954980,1110.308913,6217.729913
1649.651894,9422.974625,-7031.956449,8068.244768
1649.652211,2068.457845,-12435.459826,7772.162391
1649.652529,-2528.115143,-10584.944971,13841.851115
1649.652846,-3064.381992,-12139.377449,13249.686362
1649.653163,-6818.249932,-7105.977043,11843.295072
1649.653480,-7354.516781,-12731.542202,17690.922014
1649.653798,-12640.575717,-1924.535449,5107.421000
1649.654115,-7124.688131,-1628.453072,9326.594869
1649.654432,-10112.460574,-3256.906145,12953.603985
1649.654749,-7967.393179,-11325.150913,26647.413912
1649.655067,-6741.640382,9400.615463,8290.306550
1649.655384,2374.896044,26425.352129,-370.102971
1649.655701,11951.089769,20355.663405,3775.050304
1649.656019,10342.289223,10881.027347,518.144159
1649.656336,10265.679673,4441.235652,12213.398043
1649.656653,9039.926876,3034.844362,8956.491898
1649.656970,8580.269578,-3404.947333,4811.338623
1649.657288,5669.106685,-10436.903782,12065.356855
1649.657605,1225.752797,-9252.574275,12805.562797
1649.657922,919.314598,-9030.512492,11325.150913
1649.658239,-2374.896044,-2072.576638,2220.617826
1649.658557,-2221.676944,-12287.418637,19985.560434
1649.658874,-8350.440928,-9918.759623,12879.583391
1649.659191,-4213.525239,-2442.679609,6957.935855
1649.659509,-4826.401637,-4145.153275,15840.407159
1649.659826,-9499.584175,-7105.977043,22280.198854
1649.660143,-1991.848295,8290.306550,11177.109724
1649.660460,4443.353888,21465.972318,2442.679609
1649.660778,12410.747068,20281.642811,-1776.494261
1649.661095,11568.042020,11177.109724,-1702.473667
1649.661412,6588.421283,2590.720797,10288.862594
1649.661730,7890.783629,-5921.647536,15026.180623
1649.662047,5362.668486,-5773.606348,8512.368333
1649.662364,2834.553343,-11399.171507,10658.965565
1649.662681,-229.828649,-8216.285956,12879.583391
1649.662999,-1302.362347,-2664.741391,9252.574275
1649.663316,-2834.553343,-3108.864956,3552.988522
1649.663633,-5592.497135,-13619.789333,19023.292709
1649.663950,-13100.233016,-8364.327145,10066.800811
1649.664268,-9652.803275,-888.247130,9474.636058
1649.664585,-7277.907231,1850.514855,11103.089130
1649.664902,-7814.174080,-8512.368333,20355.663405
1649.665220,-6205.373534,-2294.638420,15988.448347
1649.665537,-1225.752797,15840.407159,4293.194464
1649.665854,8120.612279,19615.457463,1258.350101
1649.666171,11491.432470,8808.450710,4737.318029
1649.666489,9499.584175,1924.535449,11399.171507
1649.666806,7507.735880,3478.967927,8734.430116
1649.667123,6741.640382,7846.182985,-222.061783
1649.667440,8580.269578,-4515.256246,3182.885551
1649.667758,4979.620737,-10732.986159,11547.212695
1649.668075,2451.505594,-10362.883188,9178.553681
1649.668392,-766.095498,-5773.606348,7179.997637
1649.668710,-1455.581446,-7920.203579,16136.489536
1649.669027,-7354.516781,-12509.480420,13841.851115
1649.669344,-7660.954980,-1184.329507,9918.759623
1649.669661,-1838.629195,3849.070898,10584.944971
1649.669979,-7201.297681,-1702.473667,14285.974681
1649.670296,-2068.457845,-1776.494261,11621.233289
1649.670613,1302.362347,14730.098246,5255.462188
1649.670930,6894.859482,20947.828159,2220.617826
1649.671248,15321.909960,11843.295072,4441.235652
1649.671565,5822.325785,10288.862594,-2072.576638
1649.671882,7890.783629,962.267725,14285.974681
1649.672200,6741.640382,1702.473667,4737.318029
1649.672517,5439.278036,-2368.659014,5847.626942
1649.672834,5056.230287,-11991.336260,15544.324782
1649.673151,-2374.896044,-7179.997637,8216.285956
1649.673469,-4290.134789,-2664.741391,8808.450710
1649.673786,-2298.286494,-7994.224174,17912.983796
1649.674103,-12410.747068,-9918.759623,10584.944971
1649.674421,-9116.536426,-4367.215058,4737.318029
1649.674738,-7431.126331,2738.761985,8586.388927
1649.675055,-9039.926876,-4219.173869,14582.057057
1649.675372,-5822.325785,-11695.253884,20503.704593
1649.675690,-6358.592633,9548.656652,5995.668130
1649.676007,5056.230287,20133.601622,9770.718434
1649.676324,11108.384721,15766.386565,4219.173869
1649.676641,9193.145976,9992.780217,3478.967927
1649.676959,8810.098227,5181.441594,11029.068536
1649.677276,7048.078582,9548.656652,1184.329507
1649.677593,7814.174080,4811.338623,1258.350101
1649.677911,5898.935335,-9400.615463,13989.892304
1649.678228,1378.971896,-8660.409521,10732.986159
1649.678545,0.000000,-5921.647536,8586.388927
1649.678862,-3677.258390,-4589.276840,8956.491898
1649.679180,-7584.345430,-15840.407159,18357.107362
1649.679497,-11797.870669,-10881.027347,12139.377449
1649.679814,-6741.640382,-4293.194464,11473.192101
1649.680131,-9806.022374,-3034.844362,14878.139434
1649.680449,-9806.022374,-6069.688724,18653.189738
1649.680766,-1991.848295,7105.977043,15692.365970
1649.681083,4290.134789,22428.240043,6069.688724
1649.681401,13789.718964,18209.066173,3182.885551
1649.681718,10035.851024,14063.912898,-2812.782580
1649.682035,8656.879127,10807.006753,7179.997637
1649.682352,11031.775171,5699.585753,5699.585753
1649.682670,6588.421283,370.102971,3182.885551
1649.682987,7507.735880,-11917.315666,14063.912898
1649.683304,2451.505594,-14137.933492,18949.272115
1649.683621,-1455.581446,-9844.739029,15174.221811
1649.683939,-2911.162892,-9844.739029,12953.603985
1649.684256,-4290.134789,-17394.839637,24056.693115
1649.684573,-11338.213370,-6809.894666,11917.315666
1649.684891,-6435.202183,3404.947333,2664.741391
1649.685208,-5975.544884,5477.523971,5403.503377
1649.685525,-5132.839837,-3997.112087,12287.418637
1649.685842,-229.828649,-2072.576638,17394.839637
1649.686160,2298.286494,16802.674883,5625.565159
1649.686477,11874.480219,18801.230927,888.247130
1649.686794,11184.994271,10362.883188,1628.453072
1649.687112,7354.516781,2960.823768,12139.377449
1649.687429,8427.050478,4367.215058,5921.647536
1649.687746,7584.345430,5033.400406,2516.700203
1649.688063,7584.345430,-8512.368333,10584.944971
1649.688381,3294.210641,-13989.892304,15026.180623
1649.688698,1762.019645,-7402.059420,10436.903782
1649.689015,-306.438199,-4367.215058,7550.100608
1649.689332,-4596.572988,-9178.553681,15544.324782
1649.689650,-9193.145976,-6513.812290,7772.162391
1649.689967,-6741.640382,-74.020594,3849.070898
1649.690284,-7201.297681,3330.926739,6365.771101
1649.690602,-7814.174080,-4811.338623,16284.530724
1649.690919,-1838.629195,-296.082377,17320.819043
1649.691236,459.657299,14952.160028,10807.006753
1649.691553,9499.584175,18949.272115,5255.462188
1649.691871,10342.289223,15988.448347,-5107.421000
1649.692188,6894.859482,11769.274478,2812.782580
1649.692505,9959.241474,1998.556043,9696.697840
1649.692822,6818.249932,740.205942,-1628.453072
1649.693140,6971.469032,-8808.450710,11399.171507
1649.693457,1608.800546,-11473.192101,13767.830521
1649.693774,-919.314598,-8438.347739,11843.295072
1649.694092,-306.438199,-7624.121203,10955.047942
1649.694409,-4060.306139,-10658.965565,16876.695478
1649.694726,-12870.404366,-6957.935855,9844.739029
1649.695043,-12487.356617,1332.370696,-1924.535449
1649.695361,-6052.154434,3701.029710,10510.924376
1649.695678,-8044.002729,-6439.791695,20429.683999
1649.695995,-6588.421283,-3923.091493,17542.880825
1649.696312,-2221.676944,7550.100608,11843.295072
1649.696630,4596.572988,18431.127956,7328.038826
1649.696947,11261.603821,11843.295072,3256.906145
1649.697264,5822.325785,8068.244768,3034.844362
1649.697582,6281.983084,4737.318029,8438.347739
1649.697899,5515.887586,7550.100608,3034.844362
1649.698216,6052.154434,-2738.761985,8808.450710
1649.698533,2911.162892,-9844.739029,14211.954086
1649.698851,2451.505594,-11547.212695,15840.407159
1649.699168,229.828649,-3478.967927,7846.182985
1649.699485,-766.095498,-6735.874072,12583.501014
1649.699803,-7967.393179,-11843.295072,13249.686362
1649.700120,-9499.584175,-5255.462188,9252.574275
1649.700437,-1225.752797,1628.453072,9474.636058
1649.700754,-4673.182538,-962.267725,14730.098246
1649.701072,-3140.991542,-3849.070898,17320.819043
1649.701389,1072.533697,10510.924376,8734.430116
1649.701706,8886.707777,22206.178260,4145.153275
1649.702023,14555.814462,15544.324782,0.000000
1649.702341,6205.373534,11843.295072,-5329.482782
1649.702658,6128.763984,4367.215058,7328.038826
1649.702975,8886.707777,-148.041188,6883.915261
1649.703293,5822.325785,-6143.709319,12657.521608
1649.703610,4290.134789,-14434.015869,20503.704593
1649.703927,766.095498,-6957.935855,12657.521608
1649.704244,1378.971896,-2294.638420,13175.665768
1649.704562,-2145.067394,-5107.421000,11917.315666
1649.704879,-7814.174080,-9918.759623,14285.974681
1649.705196,-11184.994271,444.123565,1036.288319
1649.705513,-5132.839837,5403.503377,5551.544565
1649.705831,-5669.106685,-1924.535449,15988.448347
1649.706148,-4213.525239,-11547.212695,22058.137072
1649.706465,-2451.505594,4293.194464,12805.562797
1649.706783,3217.601092,16876.695478,9104.533087
1649.707100,10189.070123,15766.386565,1924.535449
1649.707417,9499.584175,9918.759623,0.000000
1649.707734,8733.488677,7328.038826,8068.244768
1649.708052,10572.117872,4441.235652,5107.421000
1649.708369,9422.974625,814.226536,6513.812290
1649.708686,5745.716235,-10436.903782,12213.398043
1649.709004,4519.963438,-11843.295072,14508.036463
1649.709321,1991.848295,-2664.741391,6883.915261
1649.709638,-1149.143247,-4071.132681,9696.697840
1649.709955,-8503.660028,-9622.677246,11695.253884
1649.710273,-13789.718964,-4663.297435,3330.926739
1649.710590,-6435.202183,-1850.514855,10288.862594
1649.710907,-6281.983084,-3478.967927,19541.436869
1649.711224,-9346.365076,-12213.398043,20207.622217
1649.711542,-3677.258390,1776.494261,15618.345376
1649.711859,0.000000,18949.272115,8142.265362
1649.712176,8886.707777,20577.725188,3256.906145
1649.712494,6894.859482,14730.098246,-7105.977043
1649.712811,3447.429741,10807.006753,962.267725
1649.713128,7584.345430,1110.308913,10214.842000
1649.713445,3217.601092,-2146.597232,7550.100608
1649.713763,5745.716235,-17616.901420,19911.539840
1649.714080,-383.047749,-12213.398043,14063.912898
1649.714397,-842.705048,-7105.977043,13545.768739
1649.714714,-1685.410096,-5255.462188,9696.697840
1649.715032,-3370.820191,-9844.739029,12139.377449
1649.715349,-9116.536426,-6513.812290,6883.915261
1649.715666,-7584.345430,2516.700203,1332.370696
1649.715984,-1532.190996,3256.906145,9474.636058
1649.716301,-5056.230287,-8364.327145,17764.942608
1649.716618,-2068.457845,-5033.400406,16210.510130
1649.716935,689.485948,12583.501014,10214.842000
1649.717253,6511.811733,21317.931130,-2072.576638
1649.717570,16317.834107,12583.501014,0.000000
1649.717887,11261.603821,7402.059420,4441.235652
1649.718204,10112.460574,2738.761985,10066.800811
1649.718522,12027.699319,-518.144159,9104.533087
1649.718839,5975.544884,-1776.494261,8364.327145
1649.719156,4903.011187,-10584.944971,17468.860231
1649.719474,1762.019645,-4145.153275,7624.121203
1649.719791,-1685.410096,2294.638420,3849.070898
1649.720108,-3983.696590,-7254.018232,9474.636058
1649.720425,-13713.109414,-10288.862594,5995.668130
1649.720743,-11184.994271,-9474.636058,9474.636058
1649.721060,-5515.887586,-5995.668130,19467.416275
1649.721377,-7201.297681,-8068.244768,20947.828159
1649.721695,-5822.325785,-6143.709319,17912.983796
1649.722012,-842.705048,10658.965565,12509.480420
1649.722329,5822.325785,22872.363608,6217.729913
1649.722646,13406.671215,22650.301825,-2664.741391
1649.722964,9882.631924,14730.098246,-6883.915261
1649.723281,8120.612279,7105.977043,5477.523971
1649.723598,7354.516781,962.267725,7105.977043
1649.723915,5132.839837,-2294.638420,7772.162391
1649.724233,4826.401637,-13249.686362,14211.954086
1649.724550,2374.896044,-10732.986159,13471.748144
1649.724867,-2987.772442,-5255.462188,13545.768739
1649.725185,-3447.429741,-5107.421000,10658.965565
1649.725502,-7354.516781,-13989.892304,10066.800811
1649.725819,-12257.527968,-9474.636058,11103.089130
1649.726136,-7814.174080,-1110.308913,14804.118840
1649.726454,-5745.716235,4811.338623,14063.912898
1649.726771,-4519.963438,-1332.370696,12361.439231
1649.727088,919.314598,2886.803174,16432.571912
1649.727405,4673.182538,17764.942608,8068.244768
1649.727723,8427.050478,25611.125593,-8068.244768
1649.728040,14862.252661,13249.686362,-1110.308913
1649.728357,8350.440928,3997.112087,9326.594869
1649.728675,8886.707777,-1850.514855,14582.057057
1649.728992,8503.660028,3034.844362,7920.203579
1649.729309,4060.306139,-4293.194464,9400.615463
1649.729626,3753.867940,-14952.160028,15766.386565
1649.729944,1149.143247,-6809.894666,14063.912898
1649.730261,-2221.676944,296.082377,5181.441594
1649.730578,-6894.859482,-7846.182985,5921.647536
1649.730895,-11338.213370,-10436.903782,9104.533087
1649.731213,-9269.755526,-7476.080014,11399.171507
1649.731530,-7048.078582,-296.082377,13915.871710
1649.731847,-9116.536426,-3478.967927,12139.377449
1649.732165,-5669.106685,-3627.009116,16580.613101
1649.732482,1149.143247,12879.583391,12879.583391
1649.732799,6128.763984,22428.240043,-222.061783
1649.733116,9959.241474,14730.098246,-370.102971
1649.733434,7124.688131,4737.318029,1924.535449
1649.733751,4903.011187,1554.432478,11843.295072
1649.734068,4213.525239,296.082377,10214.842000
1649.734386,6894.859482,-518.144159,4367.215058
1649.734703,2757.943793,-9474.636058,13101.645173
1649.735020,3294.210641,-14804.118840,20799.786970
1649.735337,-2834.553343,-5107.421000,11769.274478
1649.735655,-7737.564530,-1258.350101,3404.947333
1649.735972,-6818.249932,-9770.718434,10510.924376
1649.736289,-8963.317327,-8290.306550,9696.697840
1649.736606,-7584.345430,2294.638420,10436.903782
1649.736924,-7890.783629,2294.638420,9474.636058
1649.737241,-3677.258390,-1332.370696,10732.986159
1649.737558,1915.238745,296.082377,21910.095883
1649.737876,4903.011187,9252.574275,11399.171507
1649.738193,8350.440928,18431.127956,-518.144159
1649.738510,10648.727422,11251.130318,-962.267725
1649.738827,11491.432470,-1850.514855,14952.160028
1649.739145,8427.050478,-2294.638420,11917.315666
1649.739462,8580.269578,6883.915261,2590.720797
1649.739779,8503.660028,666.185348,10436.903782
1649.740097,6358.592633,-9622.677246,11843.295072
1649.740414,3753.867940,-10066.800811,15100.201217
1649.740731,-1532.190996,-2072.576638,6069.688724
1649.741049,-6894.859482,-3627.009116,3330.926739
1649.741366,-4979.620737,-12731.542202,13545.768739
1649.741683,-10035.851024,-7994.224174,11769.274478
1649.742001,-5669.106685,592.164754,12361.439231
1649.742318,-3830.477490,3256.906145,4441.235652
1649.742635,-2221.676944,-3034.844362,19393.395680
1649.742953,3524.039291,740.205942,18431.127956
1649.743270,6588.421283,16802.674883,3034.844362
1649.743587,8427.050478,20133.601622,-8438.347739
1649.743905,12257.527968,6735.874072,4811.338623
1649.744222,6281.983084,-1480.411884,9548.656652
1649.744539,3370.820191,4219.173869,7624.121203
1649.744857,7737.564530,4219.173869,3923.091493
1649.745174,1608.800546,-2738.761985,6587.832884
1649.745491,4673.182538,-18209.066173,24574.837274
1649.745809,-4060.306139,-5921.647536,14582.057057
1649.746126,-12334.137518,4219.173869,-2738.761985
1649.746443,-7967.393179,-4663.297435,5995.668130
1649.746761,-9269.755526,-7624.121203,10066.800811
1649.747078,-8580.269578,-4811.338623,12953.603985
1649.747395,-10572.117872,-740.205942,9918.759623
1649.747713,-8197.221829,814.226536,11991.336260
1649.748030,-1149.143247,-4885.359217,28053.805202
1649.748347,1225.752797,6217.729913,16654.633695
1649.748665,6588.421283,21836.075289,74.020594
1649.748982,7048.078582,19541.436869,-4737.318029
1649.749299,11797.870669,3256.906145,9252.574275
1649.749617,8120.612279,-1184.329507,9844.739029
1649.749934,8810.098227,6217.729913,8586.388927
1649.750252,9039.926876,4219.173869,5699.585753
1649.750569,7354.516781,-8956.491898,12435.459826
1649.750886,2681.334243,-16284.530724,21614.013506
1649.751204,306.438199,-7402.059420,8290.306550
1649.751521,-5898.935335,-1998.556043,-3627.009116
1649.751838,-3600.648841,-12879.583391,11177.109724
1649.752156,-6511.811733,-10584.944971,11991.336260
1649.752473,-8197.221829,-0.000000,11103.089130
1649.752790,-4903.011187,4441.235652,12657.521608
1649.753108,-3983.696590,-1332.370696,21095.869347
1649.753425,2987.772442,3923.091493,14211.954086
1649.753742,5209.449386,16506.592507,4145.153275
1649.754060,8427.050478,20947.828159,-6809.894666
1649.754377,9806.022374,7254.018232,2812.782580
1649.754694,7890.783629,-1776.494261,10140.821405
1649.755012,2757.943793,-1036.288319,12657.521608
1649.755329,536.266849,-0.000000,9548.656652
1649.755646,1149.143247,-4071.132681,10955.047942
1649.755964,-1149.143247,-14285.974681,23390.507767
1649.756281,-1608.800546,-13545.768739,19467.416275
1649.756598,-9039.926876,-1406.391290,-1480.411884
1649.756916,-11031.775171,-4293.194464,4145.153275
1649.757233,-8427.050478,-9548.656652,10732.986159
1649.757550,-3983.696590,-8290.306550,10732.986159
1649.757868,-7048.078582,-2072.576638,9030.512492
1649.758185,-8886.707777,4515.256246,11621.233289
1649.758502,2987.772442,2516.700203,18949.272115
1649.758820,3753.867940,12361.439231,7624.121203
1649.759137,11568.042020,12287.418637,8290.306550
1649.759454,5439.278036,13545.768739,0.000000
1649.759772,5056.230287,8142.265362,-222.061783
1649.760089,11414.822920,-74.020594,12435.459826
1649.760406,9652.803275,-4589.276840,11917.315666
1649.760724,3830.477490,-3256.906145,3849.070898
1649.761041,7890.783629,-12213.398043,19245.354492
1649.761358,-1685.410096,-7402.059420,10955.047942
1649.761676,-2834.553343,-10732.986159,7476.080014
1649.761993,-4443.353888,-5995.668130,8512.368333
1649.762310,-6894.859482,-6513.812290,10436.903782
1649.762628,-2911.162892,-222.061783,5181.441594
1649.762945,-2911.162892,-2220.617826,9696.697840
1649.763262,-5515.887586,592.164754,15840.407159
1649.763580,-1225.752797,2738.761985,20133.601622
1649.763897,8503.660028,13693.809927,10807.006753
1649.764214,9346.365076,16062.468941,-444.123565
1649.764532,11797.870669,15618.345376,-740.205942
1649.764849,8197.221829,9548.656652,-7105.977043
1649.765166,6818.249932,4145.153275,2516.700203
1649.765484,10725.336972,-6069.688724,17616.901420
1649.765801,995.924147,-6587.832884,8068.244768
1649.766118,-4213.525239,-9474.636058,14952.160028
1649.766436,-5362.668486,-11843.295072,19541.436869
1649.766753,-5056.230287,-9400.615463,14582.057057
1649.767070,-6511.811733,-8290.306550,11621.233289
1649.767388,-10418.898773,-5033.400406,8142.265362
1649.767705,-10955.165621,-2886.803174,9770.718434
1649.768022,-5975.544884,2516.700203,4589.276840
1649.768340,766.095498,-1480.411884,13767.830521
1649.768657,-6435.202183,3108.864956,11103.089130
1649.768974,7124.688131,9474.636058,21391.951724
1649.769292,9959.241474,24648.857869,-5995.668130
1649.769609,13406.671215,18579.169144,-1332.370696
1649.769926,10955.165621,814.226536,1776.494261
1649.770244,5439.278036,9252.574275,3256.906145
1649.770561,10801.946522,3256.906145,17172.777854
1649.770878,11568.042020,-4441.235652,6957.935855
1649.771196,3677.258390,-9770.718434,12139.377449
1649.771513,1838.629195,-12953.603985,22206.178260
1649.771830,-153.219100,-3478.967927,15248.242405
1649.772148,-3370.820191,-2442.679609,1406.391290
1649.772465,-8197.221829,-8364.327145,7994.224174
1649.772783,-13253.452115,-5699.585753,5847.626942
1649.773100,-5515.887586,6291.750507,5181.441594
1649.773417,-5515.887586,-3034.844362,10807.006753
1649.773735,-7201.297681,-7624.121203,18949.272115
1649.774052,-7048.078582,-2886.803174,24204.734303
1649.774369,1455.581446,10510.924376,17616.901420
1649.774687,6205.373534,15766.386565,4959.379811
1649.775004,7431.126331,12361.439231,666.185348
1649.775321,4673.182538,8882.471304,-3701.029710
1649.775639,5132.839837,8808.450710,4589.276840
1649.775956,8350.440928,2072.576638,12361.439231
1649.776273,2528.115143,-8364.327145,10436.903782
1649.776591,-3064.381992,-11325.150913,16210.510130
1649.776908,-7660.954980,-12805.562797,18283.086767
1649.777225,-8580.269578,-7031.956449,20059.581028
1649.777543,-8273.831378,-12065.356855,12731.542202
1649.777860,-12563.966167,-10584.944971,4959.379811
1649.778177,-10418.898773,-7105.977043,9178.553681
1649.778495,-7124.688131,6439.791695,3552.988522
1649.778812,919.314598,-5551.544565,19171.333898
1649.779129,2451.505594,-7550.100608,20503.704593
1649.779447,76.609550,4441.235652,23612.569550
1649.779764,11261.603821,22058.137072,1924.535449
1649.780081,17007.320056,26647.413912,-8216.285956
1649.780399,13942.938064,11621.233289,-1776.494261
1649.780716,14555.814462,3330.926739,814.226536
1649.781033,10648.727422,13767.830521,-2368.659014
1649.781351,17007.320056,2072.576638,8364.327145
1649.781668,5209.449386,-15914.427753,7105.977043
1649.781985,4749.792088,-24278.754898,27239.578666
1649.782303,-2911.162892,-13027.624579,23982.672521
1649.782620,-6665.030833,-592.164754,5033.400406
1649.782937,-8733.488677,-7550.100608,-2812.782580
1649.783255,-8350.440928,-10807.006753,7624.121203
1649.783572,-4136.915689,-2072.576638,17320.819043
1649.783889,306.438199,5477.523971,10658.965565
1649.784207,995.924147,-1998.556043,5403.503377
1649.784524,1532.190996,-6365.771101,25167.002028
1649.784841,4519.963438,12287.418637,16062.468941
1649.785159,10112.460574,30940.608376,-8068.244768
1649.785476,12180.918418,25389.063811,-7920.203579
1649.785793,12410.747068,8586.388927,-2886.803174
1649.786111,6205.373534,9474.636058,-7846.182985
1649.786428,11031.775171,5477.523971,7994.224174
1649.786745,7967.393179,-14656.077652,15026.180623
1649.787063,-2068.457845,-23316.487173,15766.386565
1649.787380,-11797.870669,-22502.260637,20725.766376
1649.787697,-14938.862211,-7105.977043,23094.425390
1649.788015,-11491.432470,-6809.894666,9326.594869
1649.788332,-14172.766713,-8290.306550,-4737.318029
1649.788649,-9959.241474,-7550.100608,11325.150913
1649.788967,-13406.671215,5699.585753,7624.121203
1649.789284,-4213.525239,3330.926739,17394.839637
1649.789601,3447.429741,-5773.606348,27091.537477
1649.789919,-4903.011187,13175.665768,17987.004391
1649.790236,10112.460574,27905.764013,222.061783
1649.790553,9422.974625,31532.773129,-21391.951724
1649.790871,11644.651570,9474.636058,3775.050304
1649.791188,12563.966167,1258.350101,6069.688724
1649.791505,5669.106685,11843.295072,0.000000
1649.791823,11568.042020,-1184.329507,13545.768739
1649.792140,1762.019645,-22206.178260,21688.034101
1649.792457,-3524.039291,-30496.484810,31236.690752
1649.792775,-11491.432470,-12139.377449,25611.125593
1649.793092,-7507.735880,296.082377,9474.636058
1649.793409,-9576.193725,-2368.659014,-5033.400406
1649.793727,-8656.879127,-5181.441594,-814.226536
1649.794044,-4366.744339,1554.432478,13619.789333
1649.794361,-2604.724693,7254.018232,13619.789333
1649.794679,2451.505594,-3849.070898,15618.345376
1649.794996,3753.867940,-7105.977043,30792.567187
1649.795313,4979.620737,23538.548956,8586.388927
1649.795631,13253.452115,32643.082042,-8512.368333
1649.795948,16088.005458,16062.468941,-6809.894666
1649.796266,6665.030833,1554.432478,2072.576638
1649.796583,6894.859482,7031.956449,-814.226536
1649.796900,8810.098227,9104.533087,6957.935855
1649.797218,3753.867940,-13249.686362,17764.942608
1649.797535,-4596.572988,-31532.773129,30126.381839
1649.797852,-12563.966167,-26055.249158,31532.773129
1649.798170,-16854.100956,-8808.450710,13175.665768
1649.798487,-13559.890315,-3256.906145,6069.688724
1649.798804,-11951.089769,-8512.368333,4145.153275
1649.799122,-6435.202183,-3182.885551,11769.274478
1649.799439,-5669.106685,1332.370696,13989.892304
1649.799756,-4519.963438,9918.759623,5625.565159
1649.800074,8044.002729,-3775.050304,27757.722825
1649.800391,11644.651570,4589.276840,18061.024985
1649.800708,9116.536426,25759.166782,-2738.761985
1649.801026,14709.033562,26795.455100,-7920.203579
1649.801343,16088.005458,10066.800811,-1554.432478
1649.801660,15858.176809,3775.050304,-7031.956449
1649.801978,16854.100956,7254.018232,-2072.576638
1649.802295,11414.822920,1258.350101,7105.977043
1649.802612,8733.488677,-20429.683999,15396.283594
1649.802930,-2068.457845,-32495.040854,25537.104999
1649.803247,-9269.755526,-24574.837274,28053.805202
1649.803564,-14249.376263,-9622.677246,12287.418637
1649.803882,-13330.061665,-666.185348,2590.720797
1649.804199,-8350.440928,-6291.750507,2516.700203
1649.804516,-3370.820191,1036.288319,9030.512492
1649.804834,-459.657299,6661.853478,13027.624579
1649.805151,4673.182538,7476.080014,16432.571912
1649.805468,11568.042020,7031.956449,16136.489536
1649.805786,10648.727422,19837.519246,740.205942
1649.806103,10342.289223,27091.537477,-3404.947333
1649.806420,12793.794817,15618.345376,-2516.700203
1649.806738,10342.289223,3108.864956,-8808.450710
1649.807055,9806.022374,1554.432478,-7328.038826
1649.807372,4903.011187,-1036.288319,8438.347739
1649.807690,-995.924147,-16506.592507,12953.603985
1649.808007,-2298.286494,-31902.876100,25981.228564
1649.808324,-13942.938064,-26795.455100,30644.525999
1649.808642,-23365.912689,-18579.169144,21021.848753
1649.808959,-22446.598091,-9696.697840,10066.800811
1649.809276,-15321.909960,-4737.318029,3034.844362
1649.809594,-7660.954980,5477.523971,5329.482782
1649.809911,-9039.926876,7550.100608,8956.491898
1649.810228,-5439.278036,9770.718434,10658.965565
1649.810546,5209.449386,11473.192101,20133.601622
1649.810863,16164.615008,21984.116477,4663.297435
1649.811180,9576.193725,25167.002028,-6069.688724
1649.811498,9806.022374,15396.283594,3627.009116
1649.811815,15475.129060,10955.047942,-1332.370696
1649.812132,8273.831378,7476.080014,-7328.038826
1649.812450,13100.233016,-3182.885551,8956.491898
1649.812767,3064.381992,-9548.656652,10140.821405
1649.813084,2834.553343,-17468.860231,23390.507767
1649.813402,-4903.011187,-23390.507767,27609.681637
1649.813719,-18616.120601,-21021.848753,19393.395680
1649.814036,-16317.834107,-20725.766376,22132.157666
1649.814354,-14402.595362,-6513.812290,8512.368333
1649.814671,-9729.412825,2368.659014,9992.780217
1649.814988,-6052.154434,10881.027347,5403.503377
1649.815306,2987.772442,6513.812290,12361.439231
1649.815623,9806.022374,10510.924376,22132.157666
1649.815940,15551.738609,23464.528361,4663.297435
1649.816258,16854.100956,28868.031738,-9474.636058
1649.816575,14172.766713,16580.613101,-1332.370696
1649.816892,13559.890315,7994.224174,3627.009116
1649.817210,13330.061665,5625.565159,4589.276840
1649.817527,10418.898773,3627.009116,3330.926739
1649.817844,995.924147,-10658.965565,5995.668130
1649.818162,459.657299,-22576.281231,25611.125593
1649.818479,-8427.050478,-22428.240043,30718.546593
1649.818797,-16777.491406,-17246.798449,21465.972318
1649.819114,-23212.693589,-18283.086767,15914.427753
1649.819431,-21144.235745,-20947.828159,10658.965565
1649.819749,-15245.300410,-14137.933492,22724.322419
1649.820066,-9806.022374,4589.276840,10436.903782
1649.820383,0.000000,11621.233289,7994.224174
1649.820701,3524.039291,15248.242405,17024.736666
1649.821018,11951.089769,21762.054695,3256.906145
1649.821335,15551.738609,31088.649564,0.000000
1649.821653,18922.558801,21984.116477,518.144159
1649.821970,17466.977354,12361.439231,-11103.089130
1649.822287,23289.303139,6291.750507,-6439.791695
1649.822605,16317.834107,6069.688724,-6587.832884
1649.822922,6128.763984,-9770.718434,5921.647536
1649.823239,3294.210641,-24574.837274,18949.272115
1649.823557,-3524.039291,-17690.922014,23242.466579
1649.823874,-9193.145976,-13101.645173,18801.230927
1649.824191,-17313.758255,-18727.210333,17246.798449
1649.824509,-17620.196454,-25759.166782,15766.386565
1649.824826,-13789.718964,-19467.416275,23168.445985
1649.825143,-11721.261119,-7105.977043,18875.251521
1649.825461,-6128.763984,11991.336260,10658.965565
1649.825778,8044.002729,25981.228564,13323.706956
1649.826095,9882.631924,31606.793723,-4959.379811
1649.826413,15628.348159,34197.514520,-7254.018232
1649.826730,17160.539155,24352.775492,-5625.565159
1649.827047,20761.187996,17320.819043,-15322.262999
1649.827365,21910.331243,-1110.308913,-9622.677246
1649.827682,9959.241474,-2812.782580,-4959.379811
1649.827999,1991.848295,-17172.777854,14952.160028
1649.828317,-2528.115143,-23020.404796,25092.981434
1649.828634,-8120.612279,-22502.260637,23020.404796
1649.828951,-14249.376263,-12509.480420,13101.645173
1649.829269,-20761.187996,-16802.674883,19911.539840
1649.829586,-19688.654299,-17912.983796,15618.345376
1649.829903,-18309.682402,-17394.839637,21021.848753
1649.830221,-19612.044749,-13323.706956,23686.590144
1649.830538,-13176.842566,2812.782580,19615.457463
1649.830855,153.219100,31532.773129,9474.636058
1649.831173,7124.688131,37528.441259,-4811.338623
1649.831490,16777.491406,29830.299463,-3849.070898
1649.831807,12640.575717,25685.146187,-12953.603985
1649.832125,20454.749797,17468.860231,-3701.029710
1649.832442,17237.148705,5181.441594,-5107.421000
1649.832759,13406.671215,-9844.739029,5773.606348
1649.833077,3907.087040,-16950.716072,15914.427753
1649.833394,-4519.963438,-24574.837274,23094.425390
1649.833711,-6358.592633,-19023.292709,25759.166782
1649.834029,-14096.157163,-11473.192101,11843.295072
1649.834346,-7431.126331,-16358.551318,25463.084405
1649.834663,-13023.623466,-17838.963202,12805.562797
1649.834981,-6052.154434,-8512.368333,17987.004391
1649.835298,-9346.365076,-7105.977043,18357.107362
1649.835615,-8044.002729,2220.617826,18579.169144
1649.835933,5439.278036,21095.869347,18505.148550
1649.836250,13176.842566,43894.212361,-10658.965565
1649.836567,20071.702048,39156.894332,-11621.233289
1649.836885,18003.244203,24056.693115,-6513.812290
1649.837202,21603.893044,15248.242405,-10955.047942
1649.837519,20607.968896,2664.741391,370.102971
1649.837837,16317.834107,-13027.624579,16728.654289
1649.838154,-2451.505594,-20577.725188,13915.871710
1649.838471,-4903.011187,-27239.578666,27535.661042
1649.838789,-11031.775171,-22946.384202,33383.287984
1649.839106,-15168.690860,-14656.077652,17246.798449
1649.839423,-16317.834107,-11251.130318,14285.974681
1649.839741,-14249.376263,-6809.894666,8364.327145
1649.840058,-10035.851024,-4737.318029,14434.015869
1649.840375,-11874.480219,-7031.956449,21465.972318
1649.840693,-7814.174080,-7772.162391,25018.960840
1649.841010,-3830.477490,19615.457463,11991.336260
1649.841328,7814.174080,37676.482448,-4293.194464
1649.841645,16700.881856,29386.175897,-4515.256246
1649.841963,16700.881856,19319.375086,-4663.297435
1649.842280,23289.303139,19319.375086,-11917.315666
1649.842597,18692.730151,13545.768739,-12583.501014
1649.842915,19688.654299,-10288.862594,13323.706956
1649.843232,3830.477490,-26573.393318,15248.242405
1649.843550,-3907.087040,-30200.402434,21762.054695
1649.843867,-12410.747068,-16580.613101,24574.837274
1649.844184,-13866.328514,-10510.924376,11917.315666
1649.844502,-12947.013916,-14582.057057,11547.212695
1649.844819,-9039.926876,-14285.974681,10362.883188
1649.845137,-7814.174080,-2664.741391,13249.686362
1649.845454,-6665.030833,-444.123565,13767.830521
1649.845772,-4213.525239,-4515.256246,19245.354492
1649.846089,0.000000,11547.212695,15618.345376
1649.846406,8886.707777,36936.276506,-3701.029710
1649.846724,13406.671215,44412.356520,-10140.821405
1649.847041,15628.348159,24130.713709,-10807.006753
1649.847359,17390.367805,12287.418637,-15692.365970
1649.847676,16317.834107,4663.297435,-2220.617826
1649.847993,12793.794817,-9918.759623,16210.510130
1649.848311,-2298.286494,-26499.372724,6513.812290
1649.848628,-7507.735880,-33531.329173,22946.384202
1649.848946,-17160.539155,-23834.631332,35751.946999
1649.849263,-20607.968896,-14211.954086,14359.995275
1649.849581,-18156.463303,-13693.809927,9178.553681
1649.849898,-14938.862211,-10881.027347,12435.459826
1649.850215,-12180.918418,-3627.009116,17172.777854
1649.850533,-7584.345430,-1332.370696,18653.189738
1649.850850,-3677.258390,-2442.679609,24130.713709
1649.851168,-1838.629195,18579.169144,11695.253884
1649.851485,6971.469032,37084.317694,-5625.565159
1649.851803,13713.109414,29534.217086,-6291.750507
1649.852120,18079.853753,14434.015869,-2960.823768
1649.852437,22063.550342,12583.501014,-14434.015869
1649.852755,20148.311597,9474.636058,-10807.006753
1649.853072,17466.977354,-8660.409521,13471.748144
1649.853390,4366.744339,-27239.578666,20873.807564
1649.853707,-4673.182538,-34863.699868,26795.455100
1649.854024,-15092.081311,-19911.539840,27091.537477
1649.854342,-19612.044749,-13619.789333,11991.336260
1649.854659,-17620.196454,-15026.180623,11547.212695
1649.854977,-8733.488677,-15544.324782,16432.571912
1649.855294,-7584.345430,-2960.823768,16062.468941
1649.855612,-5515.887586,1332.370696,17320.819043
1649.855929,2681.334243,2220.617826,24944.940245
1649.856246,6588.421283,20577.725188,15322.262999
1649.856564,11644.651570,37750.503042,-8216.285956
1649.856881,14479.204912,36048.029375,-1628.453072
1649.857199,17313.758255,23020.404796,-8438.347739
1649.857516,22982.864940,18801.230927,-19023.292709
1649.857833,20837.797546,5551.544565,-5181.441594
1649.858151,16471.053207,-6513.812290,14656.077652
1649.858468,459.657299,-22428.240043,9548.656652
1649.858786,-3064.381992,-32865.143825,25981.228564
1649.859103,-16088.005458,-25241.022622,32717.102636
1649.859421,-21297.454844,-18653.189738,18061.024985
1649.859738,-21144.235745,-17616.901420,7550.100608
1649.860055,-13866.328514,-12287.418637,17320.819043
1649.860373,-10342.289223,-1258.350101,22872.363608
1649.860690,-6128.763984,2294.638420,15766.386565
1649.861008,-1302.362347,3627.009116,19911.539840
1649.861325,3217.601092,25463.084405,11029.068536
1649.861643,7814.174080,39082.873738,-6513.812290
1649.861960,13023.623466,30940.608376,-11621.233289
1649.862277,18156.463303,15840.407159,-5255.462188
1649.862595,20991.016645,14211.954086,-9548.656652
1649.862912,19995.092498,8808.450710,-14211.954086
1649.863230,15704.957709,-5699.585753,9178.553681
1649.863547,1532.190996,-24500.816680,20577.725188
1649.863864,-2221.676944,-30866.587781,34493.596897
1649.864182,-16164.615008,-13101.645173,22502.260637
1649.864499,-21603.893044,-15174.221811,21984.116477
1649.864817,-18003.244203,-24426.796086,17172.777854
1649.865134,-12027.699319,-12435.459826,12879.583391
1649.865452,-5362.668486,-888.247130,17024.736666
1649.865769,-6588.421283,10140.821405,13841.851115
1649.866086,2451.505594,7550.100608,22502.260637
1649.866404,6818.249932,27609.681637,4737.318029
1649.866721,7584.345430,39897.100274,-10066.800811
1649.867039,11491.432470,27239.578666,-3552.988522
1649.867356,17773.415554,12805.562797,-4811.338623
1649.867674,18999.168350,10362.883188,-15692.365970
1649.867991,16700.881856,-0.000000,-3330.926739
1649.868308,10801.946522,-11991.336260,11843.295072
1649.868626,536.266849,-22650.301825,18061.024985
1649.868943,-3524.039291,-30496.484810,33161.226202
1649.869261,-18769.339701,-14508.036463,20873.807564
1649.869578,-19841.873398,-22798.343014,19985.560434
1649.869895,-22599.817191,-14211.954086,6957.935855
1649.870213,-15321.909960,-11843.295072,15840.407159
1649.870530,-12793.794817,-2516.700203,15100.201217
1649.870848,-9193.145976,-1184.329507,15544.324782
1649.871165,-919.314598,3404.947333,21836.075289
1649.871483,4749.792088,25463.084405,6661.853478
1649.871800,11644.651570,31680.814318,-3478.967927
1649.872117,11031.775171,22132.157666,-2516.700203
1649.872435,17466.977354,12213.398043,2738.761985
1649.872752,19995.092498,13249.686362,-10140.821405
1649.873070,18922.558801,10658.965565,-9178.553681
1649.873387,16088.005458,-2960.823768,10955.047942
1649.873704,8044.002729,-23242.466579,18801.230927
1649.874022,459.657299,-26277.310941,20281.642811
1649.874339,-11491.432470,-14730.098246,14804.118840
1649.874657,-17926.634653,-18949.272115,18653.189738
1649.874974,-18386.291952,-19837.519246,15618.345376
1649.875292,-10418.898773,-14285.974681,15692.365970
1649.875609,-11414.822920,-5551.544565,15618.345376
1649.875926,-9959.241474,-3923.091493,18949.272115
1649.876244,0.000000,1406.391290,25167.002028
1649.876561,7048.078582,18431.127956,11621.233289
1649.876879,12947.013916,34197.514520,-4737.318029
1649.877196,14172.766713,28423.908173,-1998.556043
1649.877514,15628.348159,21984.116477,-3478.967927
1649.877831,26353.685131,18135.045579,-9474.636058
1649.878148,21144.235745,11177.109724,-13841.851115
1649.878466,17620.196454,-0.000000,2812.782580
1649.878783,7124.688131,-20133.601622,14804.118840
1649.879101,1532.190996,-22576.281231,20355.663405
1649.879418,-11031.775171,-19911.539840,21984.116477
1649.879735,-20607.968896,-19171.333898,21021.848753
1649.880053,-21297.454844,-21762.054695,21095.869347
1649.880370,-18539.511052,-16432.571912,12065.356855
1649.880688,-18999.168350,-5773.606348,15914.427753
1649.881005,-16164.615008,-5181.441594,16654.633695
1649.881323,-8273.831378,-1036.288319,23760.610738
1649.881640,689.485948,16432.571912,17172.777854
1649.881957,7507.735880,33383.287984,-148.041188
1649.882275,10572.117872,29756.278868,-5181.441594
1649.882592,10801.946522,21317.931130,-1554.432478
1649.882910,22906.255390,17912.983796,5625.565159
1649.883227,20224.921147,17987.004391,-14952.160028
1649.883545,19305.606550,6291.750507,-4293.194464
1649.883862,14019.547613,-7624.121203,12287.418637
1649.884179,4136.915689,-18357.107362,17320.819043
1649.884497,-2451.505594,-21169.889941,21243.910535
1649.884814,-14019.547613,-12509.480420,12657.521608
1649.885132,-16164.615008,-22428.240043,19763.498651
1649.885449,-17696.806004,-18505.148550,13249.686362
1649.885766,-16088.005458,-9918.759623,9030.512492
1649.886084,-14632.424012,-8586.388927,21169.889941
1649.886401,-13789.718964,-3330.926739,22576.281231
1649.886719,995.924147,8882.471304,21910.095883
1649.887036,5592.497135,27609.681637,74.020594
1649.887354,12563.966167,29830.299463,-4441.235652
1649.887671,10955.165621,23686.590144,-2664.741391
1649.887988,16471.053207,18061.024985,1184.329507
1649.888306,20684.578446,14730.098246,-10362.883188
1649.888623,18156.463303,9474.636058,-4145.153275
1649.888941,13942.938064,-6439.791695,9326.594869
1649.889258,5515.887586,-18653.189738,17098.757260
1649.889575,-1378.971896,-23464.528361,23612.569550
1649.889893,-13636.499864,-17987.004391,21021.848753
1649.890210,-15475.129060,-17394.839637,21762.054695
1649.890528,-16471.053207,-13101.645173,11991.336260
1649.890845,-15168.690860,-10510.924376,11177.109724
1649.891163,-17696.806004,-3701.029710,10584.944971
1649.891480,-15321.909960,-3775.050304,14656.077652
1649.891797,-4519.963438,3775.050304,19689.478057
1649.892115,1838.629195,17394.839637,5699.585753
1649.892432,7814.174080,20577.725188,-2960.823768
1649.892750,7277.907231,14359.995275,-3256.906145
1649.893067,9806.022374,8512.368333,7550.100608
1649.893385,15015.471761,9844.739029,2738.761985
1649.893702,16164.615008,5625.565159,6143.709319
1649.894019,16471.053207,3627.009116,6957.935855
1649.894337,14709.033562,-5921.647536,13841.851115
1649.894654,7814.174080,-12879.583391,19837.519246
1649.894972,1225.752797,-14434.015869,16358.551318
1649.895289,-5592.497135,-11843.295072,16136.489536
1649.895606,-4749.792088,-6883.915261,14508.036463
1649.895924,-6818.249932,-222.061783,-2146.597232
1649.896241,-7890.783629,2220.617826,370.102971
1649.896559,-9729.412825,-740.205942,7994.224174
1649.896876,-8197.221829,-3182.885551,14359.995275
1649.897194,-5056.230287,4589.276840,4441.235652
1649.897511,2298.286494,5551.544565,5995.668130
1649.897828,2451.505594,-962.267725,6069.688724
1649.898146,3370.820191,-3552.988522,13397.727550
1649.898463,8120.612279,-2812.782580,23760.610738
1649.898781,10725.336972,6143.709319,14063.912898
1649.899098,15092.081311,9030.512492,8068.244768
1649.899416,18079.853753,9326.594869,7254.018232
1649.899733,15015.471761,4219.173869,12731.542202
1649.900050,9422.974625,4959.379811,7698.141797
1649.900368,3753.867940,3923.091493,1332.370696
1649.900685,0.000000,1776.494261,4885.359217
1649.901003,-1838.629195,1110.308913,5847.626942
1649.901320,-4443.353888,1924.535449,3552.988522
1649.901637,-8427.050478,-2072.576638,2368.659014
1649.901955,-11414.822920,-7772.162391,7031.956449
1649.902272,-11031.775171,-8142.265362,15322.262999
1649.902590,-9269.755526,-6661.853478,11547.212695
1649.902907,-8886.707777,-4589.276840,9326.594869
1649.903225,-8580.269578,-11769.274478,18135.045579
1649.903542,-7507.735880,-12213.398043,23390.507767
1649.903859,-2451.505594,-3034.844362,21021.848753
1649.904177,2298.286494,6735.874072,12583.501014
1649.904494,8580.269578,14211.954086,7920.203579
1649.904812,11797.870669,15766.386565,7031.956449
1649.905129,11721.261119,14730.098246,4219.173869
1649.905446,7048.078582,14730.098246,-3552.988522
1649.905764,7277.907231,12657.521608,1924.535449
1649.906081,4596.572988,3108.864956,4367.215058
1649.906399,3600.648841,-888.247130,6069.688724
1649.906716,1302.362347,-1702.473667,3034.844362
1649.907034,-2757.943793,-3923.091493,4885.359217
1649.907351,-7737.564530,-12805.562797,10658.965565
1649.907668,-10572.117872,-11399.171507,13471.748144
1649.907986,-9499.584175,-9104.533087,13397.727550
1649.908303,-11261.603821,-7476.080014,12805.562797
1649.908621,-10265.679673,-11029.068536,19097.313304
1649.908938,-8120.612279,-8586.388927,20281.642811
1649.909256,-1762.019645,-888.247130,17542.880825
1649.909573,2145.067394,7846.182985,10807.006753
1649.909890,5209.449386,12953.603985,9548.656652
1649.910208,9652.803275,14359.995275,8660.409521
1649.910525,9652.803275,13989.892304,888.247130
1649.910843,10035.851024,11991.336260,1480.411884
1649.911160,8656.879127,7994.224174,4071.132681
1649.911477,8120.612279,1628.453072,3478.967927
1649.911795,5592.497135,-3923.091493,5699.585753
1649.912112,2834.553343,-7476.080014,13027.624579
1649.912430,-536.266849,-8216.285956,12435.459826
1649.912747,0.000000,-9252.574275,12065.356855
1649.913065,-1302.362347,-8734.430116,14285.974681
1649.913382,-3370.820191,-6587.832884,15988.448347
1649.913699,-3370.820191,-4367.215058,11547.212695
1649.914017,-3140.991542,1110.308913,6365.771101
1649.914334,-2834.553343,1480.411884,7179.997637
1649.914652,-1302.362347,2368.659014,8734.430116
1649.914969,229.828649,2442.679609,6957.935855
1649.915287,1685.410096,3849.070898,8068.244768
1649.915604,3064.381992,-0.000000,11621.233289
1649.915921,2604.724693,-1036.288319,11695.253884
1649.916239,5286.058936,-1998.556043,13471.748144
1649.916556,4749.792088,-666.185348,11695.253884
1649.916874,4903.011187,-444.123565,9844.739029
1649.917191,7277.907231,740.205942,11399.171507
1649.917508,8273.831378,3923.091493,9548.656652
1649.917826,9959.241474,4293.194464,8438.347739
1649.918143,8044.002729,5625.565159,3923.091493
1649.918461,6741.640382,6513.812290,5033.400406
1649.918778,4826.401637,5033.400406,3256.906145
1649.919096,3983.696590,5551.544565,-2072.576638
1649.919413,0.000000,3849.070898,-2886.803174
1649.919730,-1762.019645,-1924.535449,3701.029710
1649.920048,-4213.525239,-8438.347739,9030.512492
1649.920365,-6205.373534,-8956.491898,12953.603985
1649.920683,-6971.469032,-11029.068536,18283.086767
1649.921000,-6818.249932,-11177.109724,19171.333898
1649.921317,-7201.297681,-10510.924376,22280.198854
1649.921635,-6052.154434,-6069.688724,18653.189738
1649.921952,-4213.525239,1924.535449,10881.027347
1649.922270,0.000000,5033.400406,8142.265362
1649.922587,842.705048,8142.265362,7624.121203
1649.922905,4290.134789,11917.315666,8808.450710
1649.923222,4596.572988,17320.819043,2590.720797
1649.923539,5132.839837,17542.880825,296.082377
1649.923857,5286.058936,13027.624579,0.000000
1649.924174,5132.839837,7994.224174,592.164754
1649.924492,4060.306139,1998.556043,2146.597232
1649.924809,1991.848295,-5477.523971,10510.924376
1649.925127,-766.095498,-10066.800811,9918.759623
1649.925444,-1455.581446,-12953.603985,12509.480420
1649.925761,-5286.058936,-13693.809927,17098.757260
1649.926079,-9959.241474,-12509.480420,14359.995275
1649.926396,-10572.117872,-10732.986159,19171.333898
1649.926714,-10801.946522,-6661.853478,15174.221811
1649.927031,-8886.707777,-2812.782580,9474.636058
1649.927348,-8044.002729,296.082377,11103.089130
1649.927666,-6281.983084,3034.844362,14063.912898
1649.927983,612.876398,7105.977043,15322.262999
1649.928301,3830.477490,15322.262999,9178.553681
1649.928618,8963.317327,19763.498651,4663.297435
1649.928936,12334.137518,20133.601622,592.164754
1649.929253,11338.213370,16062.468941,74.020594
1649.929570,11184.994271,5255.462188,3256.906145
1649.929888,7890.783629,-370.102971,7846.182985
1649.930205,6128.763984,-7105.977043,12657.521608
1649.930523,2145.067394,-11103.089130,13249.686362
1649.930840,1685.410096,-14285.974681,19319.375086
1649.931158,-1915.238745,-13545.768739,18949.272115
1649.931475,-2528.115143,-12953.603985,20207.622217
1649.931792,-3447.429741,-9696.697840,17987.004391
1649.932110,-3294.210641,-2368.659014,8808.450710
1649.932427,0.000000,5699.585753,5773.606348
1649.932745,-459.657299,9548.656652,3256.906145
1649.933062,1915.238745,9918.759623,2738.761985
1649.933379,4366.744339,10584.944971,2960.823768
1649.933697,6128.763984,10807.006753,1258.350101
1649.934014,4903.011187,6587.832884,592.164754
1649.934332,3983.696590,666.185348,5107.421000
1649.934649,1532.190996,-8290.306550,14656.077652
1649.934967,689.485948,-12361.439231,21317.931130
1649.935284,-842.705048,-10362.883188,18431.127956
1649.935601,-842.705048,-7920.203579,17542.880825
1649.935919,689.485948,-7698.141797,20281.642811
1649.936236,2987.772442,-3034.844362,20281.642811
1649.936554,4366.744339,2738.761985,12435.459826
1649.936871,3830.477490,10362.883188,3552.988522
1649.937188,2911.162892,11399.171507,0.000000
1649.937506,2757.943793,12435.459826,-370.102971
1649.937823,3294.210641,12657.521608,-3701.029710
1649.938141,3217.601092,10658.965565,-5107.421000
1649.938458,2068.457845,3775.050304,-4219.173869
1649.938776,-612.876398,-3701.029710,2738.761985
1649.939093,-1685.410096,-11103.089130,12287.418637
1649.939410,-4136.915689,-13989.892304,14063.912898
1649.939728,-4136.915689,-16728.654289,18209.066173
1649.940045,-5975.544884,-15840.407159,22132.157666
1649.940362,-6665.030833,-12657.521608,21465.972318
1649.940680,-5362.668486,-6291.750507,15914.427753
1649.940997,-3447.429741,1258.350101,10732.986159
1649.941314,-306.438199,5773.606348,11991.336260
1649.941632,-153.219100,12879.583391,5921.647536
1649.941949,1149.143247,19837.519246,-814.226536
1649.942267,3140.991542,21539.992912,-2590.720797
1649.942584,3907.087040,17172.777854,592.164754
1649.942901,5592.497135,10214.842000,888.247130
1649.943219,5745.716235,4441.235652,-814.226536
1649.943536,4136.915689,-4145.153275,9104.533087
1649.943853,2528.115143,-14211.954086,15544.324782
1649.944171,1149.143247,-16358.551318,15396.283594
1649.944488,-536.266849,-18209.066173,18653.189738
1649.944805,-3830.477490,-16210.510130,20429.683999
1649.945123,-4213.525239,-8586.388927,15766.386565
1649.945440,-4673.182538,-3923.091493,12435.459826
1649.945757,-4060.306139,962.267725,5403.503377
1649.946075,-4903.011187,7179.997637,3701.029710
1649.946392,-5822.325785,11917.315666,3034.844362
1649.946709,-536.266849,10732.986159,5995.668130
1649.947027,536.266849,11621.233289,4589.276840
1649.947344,2681.334243,11473.192101,5551.544565
1649.947661,4366.744339,6365.771101,7031.956449
1649.947979,3907.087040,-2368.659014,14285.974681
1649.948296,2757.943793,-8068.244768,18135.045579
1649.948613,2834.553343,-8660.409521,17690.922014
1649.948931,2451.505594,-7402.059420,17690.922014
1649.949248,1762.019645,-9030.512492,17394.839637
1649.949566,2374.896044,-9030.512492,17320.819043
1649.949883,1608.800546,-2812.782580,15618.345376
1649.950200,3830.477490,888.247130,13027.624579
1649.950518,3983.696590,7328.038826,1850.514855
1649.950835,5362.668486,11029.068536,888.247130
1649.951152,4749.792088,12583.501014,3182.885551
1649.951470,6052.154434,11769.274478,-1332.370696
1649.951787,7277.907231,9918.759623,-4515.256246
1649.952104,5975.544884,4219.173869,148.041188
1649.952422,3294.210641,-3923.091493,9474.636058
1649.952739,0.000000,-9326.594869,13027.624579
1649.953056,-1455.581446,-11029.068536,16950.716072
1649.953374,-3677.258390,-13471.748144,20873.807564
1649.953691,-4673.182538,-13471.748144,21391.951724
1649.954008,-3294.210641,-11103.089130,21021.848753
1649.954326,-1378.971896,-6809.894666,19985.560434
1649.954643,2451.505594,-592.164754,14952.160028
1649.954960,4673.182538,5921.647536,10510.924376
1649.955278,5592.497135,12879.583391,6143.709319
1649.955595,6588.421283,20651.745782,444.123565
1649.955913,7048.078582,24944.940245,-3997.112087
1649.956230,4903.011187,23390.507767,-2664.741391
1649.956547,6971.469032,15618.345376,-5773.606348
1649.956865,6205.373534,5773.606348,-7476.080014
1649.957182,2221.676944,-5921.647536,4515.256246
1649.957499,-459.657299,-21317.931130,21465.972318
1649.957817,-5132.839837,-24204.734303,15840.407159
1649.958134,-4290.134789,-19171.333898,13397.727550
1649.958451,-7277.907231,-17838.963202,21465.972318
1649.958769,-8963.317327,-13915.871710,19837.519246
1649.959086,-7814.174080,-11917.315666,15840.407159
1649.959403,-6588.421283,-666.185348,9326.594869
1649.959721,-5975.544884,7105.977043,7179.997637
1649.960038,-5822.325785,13101.645173,3478.967927
1649.960355,-842.705048,16580.613101,5477.523971
1649.960673,1225.752797,23316.487173,1036.288319
1649.960990,3140.991542,24722.878463,-2294.638420
1649.961307,6971.469032,19467.416275,-4737.318029
1649.961625,5592.497135,8512.368333,-4959.379811
1649.961942,5975.544884,-4293.194464,9400.615463
1649.962260,383.047749,-12953.603985,18727.210333
1649.962577,-1608.800546,-15322.262999,15322.262999
1649.962894,-3753.867940,-16950.716072,14952.160028
1649.963212,-7354.516781,-20133.601622,25315.043216
1649.963529,-8350.440928,-15100.201217,22650.301825
1649.963846,-4826.401637,-10510.924376,17098.757260
1649.964164,-4290.134789,-4589.276840,9030.512492
1649.964481,-1455.581446,2146.597232,8808.450710
1649.964798,-842.705048,10140.821405,6143.709319
1649.965116,2681.334243,15322.262999,1776.494261
1649.965433,6741.640382,15470.304188,-740.205942
1649.965750,7814.174080,18875.251521,-3997.112087
1649.966068,11184.994271,12065.356855,-4589.276840
1649.966385,10265.679673,3627.009116,-2738.761985
1649.966702,6894.859482,-5847.626942,8808.450710
1649.967020,2068.457845,-13471.748144,21317.931130
1649.967337,-1762.019645,-15766.386565,20873.807564
1649.967654,-2681.334243,-12287.418637,19837.519246
1649.967972,-5209.449386,-13693.809927,26203.290347
1649.968289,-3447.429741,-13545.768739,28127.825796
1649.968607,1455.581446,-10955.047942,25315.043216
1649.968924,4136.915689,-0.000000,17024.736666
1649.969241,8733.488677,10436.903782,12509.480420
1649.969559,12257.527968,18431.127956,6883.915261
1649.969876,14249.376263,22724.322419,-2368.659014
1649.970193,14862.252661,27313.599260,-4663.297435
1649.970511,13636.499864,24574.837274,-15766.386565
1649.970828,17543.586904,13175.665768,-12953.603985
1649.971145,15321.909960,1480.411884,-3849.070898
1649.971463,6818.249932,-8956.491898,5699.585753
1649.971780,1915.238745,-20799.786970,18209.066173
1649.972097,-1302.362347,-19911.539840,23020.404796
1649.972415,-2298.286494,-17024.736666,23020.404796
1649.972732,-5515.887586,-15618.345376,23760.610738
1649.973049,-5515.887586,-13545.768739,26203.290347
1649.973367,-459.657299,-3923.091493,23168.445985
1649.973684,612.876398,11917.315666,6735.874072
1649.974001,4826.401637,21317.931130,3256.906145
1649.974319,3294.210641,28127.825796,-2368.659014
1649.974636,4213.525239,33605.349767,-4959.379811
1649.974954,5439.278036,31680.814318,-9918.759623
1649.975271,5975.544884,23390.507767,-9400.615463
1649.975588,5822.325785,11251.130318,-7846.182985
1649.975906,3677.258390,-3404.947333,7994.224174
1649.976223,0.000000,-19911.539840,24722.878463
1649.976540,-3294.210641,-20651.745782,19911.539840
1649.976858,-153.219100,-16950.716072,21021.848753
1649.977175,-3217.601092,-11695.253884,27461.640448
1649.977492,-6588.421283,-7920.203579,22058.137072
1649.977810,-2911.162892,592.164754,5181.441594
1649.978127,1378.971896,9548.656652,3256.906145
1649.978444,-2374.896044,17246.798449,-2220.617826
1649.978762,-3447.429741,18357.107362,-6365.771101
1649.979079,-995.924147,16580.613101,-3182.885551
1649.979396,306.438199,15766.386565,1924.535449
1649.979714,2451.505594,12139.377449,2072.576638
1649.980031,3983.696590,5995.668130,7105.977043
1649.980348,6281.983084,-5921.647536,17024.736666
1649.980666,4519.963438,-10066.800811,22428.240043
1649.980983,4826.401637,-6217.729913,24574.837274
1649.981301,6358.592633,-3108.864956,22354.219448
1649.981618,4443.353888,3108.864956,21984.116477
1649.981935,3677.258390,5551.544565,10140.821405
1649.982253,1991.848295,8068.244768,2812.782580
1649.982570,3447.429741,5551.544565,8882.471304
1649.982887,-229.828649,6883.915261,814.226536
1649.983205,1302.362347,6217.729913,444.123565
1649.983522,1762.019645,3997.112087,5995.668130
1649.983839,459.657299,-3552.988522,9844.739029
1649.984157,995.924147,-4811.338623,10955.047942
1649.984474,2145.067394,-5847.626942,14211.954086
1649.984791,4826.401637,-7476.080014,18727.210333
1649.985109,6052.154434,-2368.659014,15174.221811
1649.985426,7660.954980,1998.556043,15692.365970
1649.985743,8120.612279,2812.782580,17172.777854
1649.986061,9269.755526,8068.244768,10955.047942
1649.986378,7660.954980,9844.739029,3034.844362
1649.986695,9422.974625,8808.450710,3478.967927
1649.987013,8656.879127,9844.739029,888.247130
1649.987330,7890.783629,6217.729913,2886.803174
1649.987647,6511.811733,2886.803174,7254.018232
1649.987965,4979.620737,-666.185348,11103.089130
1649.988282,2834.553343,-444.123565,9770.718434
1649.988600,1149.143247,-592.164754,11399.171507
1649.988917,919.314598,-3775.050304,14063.912898
1649.989234,-766.095498,-4367.215058,12805.562797
1649.989552,-1455.581446,-3256.906145,12657.521608
1649.989869,-1532.190996,-888.247130,11251.130318
1649.990186,-612.876398,-444.123565,8882.471304
1649.990504,689.485948,1850.514855,7254.018232
1649.990821,2451.505594,2072.576638,7920.203579
1649.991138,2451.505594,2220.617826,6661.853478
1649.991456,2681.334243,3330.926739,5773.606348
1649.991773,2681.334243,4737.318029,5181.441594
1649.992090,2987.772442,3552.988522,8512.368333
1649.992408,2911.162892,2960.823768,10510.924376
1649.992725,1532.190996,2146.597232,9474.636058
1649.993042,2145.067394,1258.350101,10436.903782
1649.993360,2911.162892,-814.226536,11473.192101
1649.993677,3753.867940,-2072.576638,10584.944971
1649.993994,3907.087040,-1332.370696,10658.965565
1649.994312,2834.553343,-370.102971,9104.533087
1649.994629,2374.896044,1406.391290,6513.812290
1649.994947,2757.943793,3997.112087,5773.606348
1649.995264,3140.991542,5329.482782,5329.482782
1649.995581,2757.943793,6217.729913,3330.926739
1649.995899,1608.800546,6291.750507,3849.070898
1649.996216,689.485948,2960.823768,7550.100608
1649.996533,229.828649,-814.226536,9474.636058
1649.996851,0.000000,-2072.576638,10807.006753
1649.997168,-153.219100,-2442.679609,13471.748144
1649.997485,689.485948,-1332.370696,13175.665768
1649.997803,2298.286494,1702.473667,10362.883188
1649.998120,3370.820191,4737.318029,8734.430116
1649.998437,3600.648841,7254.018232,7402.059420
1649.998755,3753.867940,9104.533087,6439.791695
1649.999072,3983.696590,9770.718434,4515.256246
1649.999389,3830.477490,9770.718434,4885.359217
1649.999707,3370.820191,7031.956449,6661.853478
1650.000024,3140.991542,4811.338623,7476.080014
1650.000341,3600.648841,2886.803174,7624.121203
1650.000659,3294.210641,740.205942,8660.409521
1650.000976,2068.457845,-962.267725,10288.862594
1650.001294,1685.410096,-1998.556043,11325.150913
1650.001611,1608.800546,-1332.370696,11547.212695
1650.001928,1149.143247,-592.164754,12435.459826
1650.002246,612.876398,1036.288319,12435.459826
1650.002563,689.485948,1776.494261,12805.562797
1650.002880,766.095498,3256.906145,13249.686362
1650.003198,2068.457845,5255.462188,13915.871710
1650.003515,2681.334243,6439.791695,11695.253884
1650.003832,4290.134789,6587.832884,11399.171507
1650.004150,5439.278036,7402.059420,10510.924376
1650.004467,6588.421283,8290.306550,9918.759623
1650.004784,7354.516781,7624.121203,7994.224174
1650.005102,7431.126331,5255.462188,6957.935855
1650.005419,7124.688131,2886.803174,7402.059420
1650.005736,6511.811733,-0.000000,10140.821405
1650.006054,5669.106685,-2294.638420,13027.624579
1650.006371,5132.839837,-1998.556043,12509.480420
1650.006688,3983.696590,-592.164754,11843.295072
1650.007006,2451.505594,962.267725,13323.706956
1650.007323,76.609550,1776.494261,12139.377449
1650.007641,229.828649,3923.091493,10658.965565
1650.007958,306.438199,4145.153275,10214.842000
1650.008275,0.000000,4811.338623,7550.100608
1650.008593,-153.219100,3775.050304,9918.759623
1650.008910,0.000000,2960.823768,12583.501014
1650.009227,536.266849,3552.988522,12213.398043
1650.009545,1685.410096,4589.276840,11029.068536
1650.009862,2068.457845,4737.318029,8734.430116
1650.010179,3447.429741,3330.926739,8142.265362
1650.010497,4443.353888,2664.741391,5847.626942
1650.010814,4903.011187,518.144159,7624.121203
1650.011131,5515.887586,-0.000000,8512.368333
1650.011449,4519.963438,1184.329507,7402.059420
1650.011766,3370.820191,1184.329507,8216.285956
1650.012083,2221.676944,1702.473667,8956.491898
1650.012401,536.266849,2590.720797,8216.285956
1650.012718,-536.266849,3923.091493,6809.894666
1650.013035,-1225.752797,3627.009116,7846.182985
1650.013353,-1915.238745,2220.617826,8142.265362
1650.013670,-1455.581446,740.205942,9104.533087
1650.013988,-459.657299,-814.226536,9992.780217
1650.014305,689.485948,-2442.679609,10510.924376
1650.014622,1838.629195,-4367.215058,9918.759623
1650.014940,2681.334243,-2294.638420,8438.347739
1650.015257,3370.820191,222.061783,7846.182985
1650.015574,3524.039291,1924.535449,7846.182985
1650.015892,3753.867940,3034.844362,8290.306550
1650.016209,2681.334243,4293.194464,7920.203579
1650.016526,2451.505594,4663.297435,7254.018232
1650.016844,1915.238745,4811.338623,7254.018232
1650.017161,2451.505594,2812.782580,7994.224174
1650.017478,2987.772442,1998.556043,8734.430116
1650.017796,2911.162892,370.102971,9474.636058
1650.018113,2451.505594,-1258.350101,9918.759623
1650.018430,2681.334243,-1998.556043,11399.171507
1650.018748,3753.867940,-2146.597232,10510.924376
1650.019065,2987.772442,-666.185348,7328.038826
1650.019382,2451.505594,518.144159,7994.224174
1650.019700,2374.896044,-0.000000,8216.285956
1650.020017,1149.143247,148.041188,7772.162391
1650.020335,995.924147,-1036.288319,10584.944971
1650.020652,306.438199,-1406.391290,11769.274478
1650.020969,-612.876398,-74.020594,11029.068536
1650.021287,0.000000,1258.350101,10807.006753
1650.021604,-153.219100,2146.597232,11177.109724
1650.021921,1072.533697,2886.803174,11621.233289
1650.022239,2604.724693,4441.235652,10881.027347
1650.022556,2451.505594,5699.585753,9474.636058
1650.022873,2911.162892,4515.256246,10214.842000
1650.023191,2987.772442,3256.906145,9844.739029
1650.023508,3677.258390,2812.782580,9326.594869
1650.023825,4826.401637,2516.700203,8586.388927
1650.024143,4596.572988,3330.926739,7846.182985
1650.024460,5592.497135,3404.947333,7550.100608
1650.024777,5745.716235,3849.070898,6957.935855
1650.025095,5975.544884,3034.844362,8734.430116
1650.025412,4519.963438,2368.659014,9548.656652
1650.025729,2911.162892,2590.720797,9992.780217
1650.026047,2374.896044,3256.906145,10658.965565
1650.026364,1991.848295,3256.906145,11473.192101
1650.026682,1991.848295,4145.153275,12657.521608
1650.026999,2987.772442,4367.215058,12139.377449
1650.027316,2451.505594,3849.070898,11177.109724
1650.027634,4290.134789,4737.318029,10214.842000
1650.027951,6128.763984,5107.421000,9474.636058
1650.028268,6511.811733,5329.482782,7994.224174
