#time,accel_x,accel_y,accel_z
1611.361989,842.705048,296.082377,9474.636058
1611.362306,536.266849,222.061783,9326.594869
1611.362623,842.705048,148.041188,9252.574275
1611.362940,689.485948,296.082377,9400.615463
1611.363257,766.095498,148.041188,9400.615463
1611.363574,689.485948,370.102971,9474.636058
1611.363892,919.314598,-0.000000,9252.574275
1611.364209,919.314598,-0.000000,9696.697840
1611.364526,842.705048,148.041188,9400.615463
1611.364843,689.485948,370.102971,9548.656652
1611.365160,842.705048,296.082377,9548.656652
1611.365477,459.657299,148.041188,9400.615463
1611.365795,995.924147,148.041188,9474.636058
1611.366112,459.657299,-0.000000,9400.615463
1611.366429,689.485948,222.061783,9548.656652
1611.366746,689.485948,148.041188,9400.615463
1611.367063,536.266849,74.020594,9400.615463
1611.367380,842.705048,148.041188,9548.656652
1611.367698,766.095498,148.041188,9400.615463
1611.368015,842.705048,-0.000000,9326.594869
1611.368332,766.095498,222.061783,9474.636058
1611.368649,842.705048,296.082377,9252.574275
1611.368966,766.095498,296.082377,9474.636058
1611.369283,689.485948,296.082377,9400.615463
1611.369601,689.485948,-0.000000,9326.594869
1611.369918,1072.533697,296.082377,9548.656652
1611.370235,919.314598,222.061783,9474.636058
1611.370552,766.095498,148.041188,9474.636058
1611.370869,766.095498,148.041188,9474.636058
1611.371186,536.266849,222.061783,9474.636058
1611.371504,383.047749,-0.000000,9474.636058
1611.371821,766.095498,222.061783,9474.636058
1611.372138,612.876398,-0.000000,9548.656652
1611.372455,842.705048,296.082377,9400.615463
1611.372772,689.485948,222.061783,9400.615463
1611.373089,689.485948,-0.000000,9400.615463
1611.373407,766.095498,148.041188,9400.615463
1611.373724,766.095498,222.061783,9474.636058
1611.374041,612.876398,296.082377,9474.636058
1611.374358,689.485948,148.041188,9474.636058
1611.374675,689.485948,-0.000000,9400.615463
1611.374992,689.485948,296.082377,9474.636058
1611.375310,842.705048,296.082377,9474.636058
1611.375627,689.485948,222.061783,9474.636058
1611.375944,919.314598,222.061783,9474.636058
1611.376261,612.876398,148.041188,9400.615463
1611.376578,842.705048,-0.000000,9326.594869
1611.376895,766.095498,148.041188,9474.636058
1611.377213,766.095498,370.102971,9474.636058
1611.377530,842.705048,-222.061783,9474.636058
1611.377847,766.095498,296.082377,9474.636058
1611.378164,536.266849,148.041188,9326.594869
1611.378481,995.924147,148.041188,9474.636058
1611.378798,995.924147,148.041188,9326.594869
1611.379116,0.000000,222.061783,9474.636058
1611.379433,612.876398,370.102971,9548.656652
1611.379750,842.705048,-0.000000,9400.615463
1611.380067,842.705048,222.061783,9400.615463
1611.380384,842.705048,-0.000000,9400.615463
1611.380701,689.485948,222.061783,9474.636058
1611.381019,842.705048,370.102971,9474.636058
1611.381336,689.485948,296.082377,9400.615463
1611.381653,536.266849,370.102971,9400.615463
1611.381970,842.705048,296.082377,9400.615463
1611.382287,766.095498,148.041188,9696.697840
1611.382604,766.095498,296.082377,9326.594869
1611.382922,612.876398,222.061783,9326.594869
1611.383239,612.876398,-0.000000,9178.553681
1611.383556,612.876398,-222.061783,9104.533087
1611.383873,306.438199,-370.102971,9178.553681
1611.384190,153.219100,-370.102971,9104.533087
1611.384507,0.000000,-666.185348,9326.594869
1611.384825,0.000000,-592.164754,9326.594869
1611.385142,0.000000,-888.247130,9474.636058
1611.385459,0.000000,-814.226536,9326.594869
1611.385776,-842.705048,-666.185348,9252.574275
1611.386093,-689.485948,-814.226536,8882.471304
1611.386410,-536.266849,-888.247130,8660.409521
1611.386728,-1072.533697,-1110.308913,8734.430116
1611.387045,-766.095498,-1406.391290,9030.512492
1611.387362,-1072.533697,-1554.432478,9252.574275
1611.387679,-1378.971896,-1850.514855,9326.594869
1611.387996,-536.266849,-1998.556043,9474.636058
1611.388313,-919.314598,-1628.453072,9252.574275
1611.388631,-766.095498,-1036.288319,8882.471304
1611.388948,-919.314598,-1036.288319,8512.368333
1611.389265,-1149.143247,-962.267725,8364.327145
1611.389582,-919.314598,-1184.329507,8290.306550
1611.389899,-1072.533697,-1628.453072,8660.409521
1611.390216,-1072.533697,-2294.638420,9326.594869
1611.390534,-1225.752797,-2738.761985,9844.739029
1611.390851,-1302.362347,-2886.803174,10140.821405
1611.391168,-995.924147,-2812.782580,10066.800811
1611.391485,-1072.533697,-2146.597232,9918.759623
1611.391802,-689.485948,-1332.370696,9252.574275
1611.392119,-1072.533697,-1036.288319,8882.471304
1611.392437,-995.924147,-1258.350101,8808.450710
1611.392754,-842.705048,-1998.556043,8956.491898
1611.393071,-1455.581446,-2516.700203,8956.491898
1611.393388,-2068.457845,-3330.926739,9548.656652
1611.393705,-2681.334243,-4293.194464,10140.821405
1611.394022,-2221.676944,-4515.256246,10362.883188
1611.394340,-3524.039291,-4293.194464,10510.924376
1611.394657,-3753.867940,-3997.112087,10510.924376
1611.394974,-3983.696590,-3330.926739,10066.800811
1611.395291,-3983.696590,-3256.906145,10214.842000
1611.395608,-4213.525239,-3404.947333,10214.842000
1611.395925,-4366.744339,-3404.947333,10510.924376
1611.396243,-4673.182538,-3552.988522,10510.924376
1611.396560,-4903.011187,-3627.009116,10510.924376
1611.396877,-5056.230287,-3849.070898,10362.883188
1611.397194,-5056.230287,-3849.070898,10510.924376
1611.397511,-5132.839837,-3849.070898,10436.903782
1611.397828,-4673.182538,-4145.153275,10362.883188
1611.398146,-4136.915689,-4145.153275,10732.986159
1611.398463,-3294.210641,-3997.112087,11695.253884
1611.398780,-3447.429741,-3478.967927,10658.965565
1611.399097,-2451.505594,-3404.947333,10955.047942
1611.399414,-2604.724693,-2368.659014,9474.636058
1611.399731,-1915.238745,-2368.659014,8660.409521
1611.400049,-1302.362347,-2368.659014,8956.491898
1611.400366,-1455.581446,-2072.576638,8808.450710
1611.400683,-1302.362347,-2960.823768,9400.615463
1611.401000,-842.705048,-3552.988522,9474.636058
1611.401317,-536.266849,-4145.153275,9770.718434
1611.401634,-459.657299,-3775.050304,10436.903782
1611.401952,153.219100,-3404.947333,9918.759623
1611.402269,0.000000,-3256.906145,9326.594869
1611.402586,1072.533697,-2368.659014,9622.677246
1611.402903,1455.581446,-1480.411884,8364.327145
1611.403220,2068.457845,-962.267725,8438.347739
1611.403537,1991.848295,-888.247130,8216.285956
1611.403855,1532.190996,-1776.494261,8216.285956
1611.404172,1225.752797,-1924.535449,8512.368333
1611.404489,0.000000,-2368.659014,7772.162391
1611.404806,153.219100,-1924.535449,8364.327145
1611.405123,153.219100,-1702.473667,8216.285956
1611.405440,-229.828649,-1998.556043,8068.244768
1611.405758,-766.095498,-2146.597232,8438.347739
1611.406075,-306.438199,-2294.638420,9252.574275
1611.406392,-1302.362347,-1258.350101,9104.533087
1611.406709,-1455.581446,-1554.432478,9622.677246
1611.407026,-1608.800546,-1332.370696,9770.718434
1611.407343,-1915.238745,-962.267725,9770.718434
1611.407660,-1378.971896,-296.082377,9696.697840
1611.407978,-1225.752797,-0.000000,9252.574275
1611.408295,-1225.752797,-74.020594,9326.594869
1611.408612,-459.657299,592.164754,9178.553681
1611.408929,-383.047749,740.205942,7920.203579
1611.409246,153.219100,518.144159,7994.224174
1611.409563,-229.828649,-518.144159,8438.347739
1611.409881,-459.657299,-1184.329507,9474.636058
1611.410198,-536.266849,-1036.288319,10140.821405
1611.410515,-766.095498,-592.164754,9992.780217
1611.410832,-1225.752797,148.041188,10658.965565
1611.411149,-1762.019645,962.267725,9622.677246
1611.411466,-2068.457845,1110.308913,9696.697840
1611.411784,-2451.505594,962.267725,9474.636058
1611.412101,-2911.162892,1332.370696,8586.388927
1611.412418,-2987.772442,740.205942,9326.594869
1611.412735,-3600.648841,-740.205942,10510.924376
1611.413052,-4136.915689,-1776.494261,11399.171507
1611.413369,-4826.401637,-2516.700203,12139.377449
1611.413687,-5056.230287,-2886.803174,12287.418637
1611.414004,-4903.011187,-2072.576638,12657.521608
1611.414321,-4136.915689,-1258.350101,12361.439231
1611.414638,-3524.039291,-444.123565,11547.212695
1611.414955,-3140.991542,-296.082377,10584.944971
1611.415272,-2528.115143,296.082377,9844.739029
1611.415590,-1838.629195,-444.123565,9178.553681
1611.415907,-995.924147,-1036.288319,9474.636058
1611.416224,-1072.533697,-1998.556043,9474.636058
1611.416541,-1378.971896,-2294.638420,9474.636058
1611.416858,-1072.533697,-2442.679609,9622.677246
1611.417175,-1532.190996,-2738.761985,9844.739029
1611.417493,-1302.362347,-2886.803174,10066.800811
1611.417810,-1302.362347,-2664.741391,9918.759623
1611.418127,-1762.019645,-2960.823768,9548.656652
1611.418444,-2374.896044,-3034.844362,9770.718434
1611.418761,-2374.896044,-3627.009116,11103.089130
1611.419078,-2221.676944,-3701.029710,11473.192101
1611.419396,-2374.896044,-4071.132681,11177.109724
1611.419713,-2604.724693,-4071.132681,11991.336260
1611.420030,-2221.676944,-4219.173869,12509.480420
1611.420347,-919.314598,-3775.050304,11251.130318
1611.420664,153.219100,-3034.844362,9918.759623
1611.420981,995.924147,-3034.844362,9622.677246
1611.421299,2145.067394,-3256.906145,9326.594869
1611.421616,3217.601092,-3182.885551,7920.203579
1611.421933,4290.134789,-3182.885551,6661.853478
1611.422250,4366.744339,-3627.009116,6735.874072
1611.422567,4443.353888,-3108.864956,6143.709319
1611.422884,3753.867940,-2146.597232,5773.606348
1611.423202,3140.991542,-2220.617826,5847.626942
1611.423519,2298.286494,-3478.967927,8364.327145
1611.423836,1302.362347,-3034.844362,9178.553681
1611.424153,229.828649,-2590.720797,8956.491898
1611.424470,383.047749,-2812.782580,9770.718434
1611.424787,0.000000,-3404.947333,10732.986159
1611.425104,536.266849,-2368.659014,10066.800811
1611.425421,1455.581446,-1554.432478,8660.409521
1611.425738,1685.410096,-1480.411884,8512.368333
1611.426055,2451.505594,-1258.350101,8734.430116
1611.426372,2681.334243,-962.267725,7476.080014
1611.426689,3140.991542,-148.041188,5699.585753
1611.427007,2987.772442,-814.226536,5995.668130
1611.427324,2298.286494,-1184.329507,5773.606348
1611.427641,1915.238745,-1036.288319,4811.338623
1611.427958,1455.581446,-1036.288319,5181.441594
1611.428275,383.047749,-1702.473667,7105.977043
1611.428592,0.000000,-2072.576638,8290.306550
1611.428909,-919.314598,-1110.308913,8142.265362
1611.429226,-1915.238745,-962.267725,9474.636058
1611.429543,-2145.067394,-888.247130,11251.130318
1611.429860,-2298.286494,-0.000000,11621.233289
1611.430177,-1149.143247,1110.308913,10584.944971
1611.430494,-1225.752797,1998.556043,10658.965565
1611.430811,-229.828649,2590.720797,10881.027347
1611.431128,612.876398,4071.132681,8956.491898
1611.431445,1225.752797,4441.235652,6957.935855
1611.431762,1378.971896,3404.947333,7698.141797
1611.432079,1072.533697,2368.659014,8586.388927
1611.432396,919.314598,2368.659014,7328.038826
1611.432713,153.219100,1850.514855,7920.203579
1611.433030,0.000000,74.020594,10584.944971
1611.433347,-689.485948,222.061783,11621.233289
1611.433664,-1072.533697,962.267725,10732.986159
1611.433981,-1838.629195,1702.473667,11251.130318
1611.434298,-1532.190996,2146.597232,13175.665768
1611.434615,0.000000,4219.173869,11843.295072
1611.434932,1225.752797,4515.256246,10807.006753
1611.435249,229.828649,5255.462188,10214.842000
1611.435566,2145.067394,4737.318029,12213.398043
1611.435883,1915.238745,5921.647536,9474.636058
1611.436200,2528.115143,5107.421000,8882.471304
1611.436517,1991.848295,2516.700203,10288.862594
1611.436834,919.314598,2738.761985,10436.903782
1611.437151,766.095498,1924.535449,9178.553681
1611.437468,-383.047749,370.102971,10362.883188
1611.437785,-1149.143247,-888.247130,14063.912898
1611.438102,-1455.581446,-444.123565,12509.480420
1611.438419,-1455.581446,666.185348,11547.212695
1611.438736,-1378.971896,148.041188,12361.439231
1611.439053,-1455.581446,-0.000000,13471.748144
1611.439370,0.000000,1332.370696,10955.047942
1611.439687,766.095498,1924.535449,10214.842000
1611.440004,536.266849,1406.391290,11251.130318
1611.440321,1991.848295,1184.329507,11473.192101
1611.440638,2911.162892,1406.391290,8734.430116
1611.440955,3294.210641,1184.329507,8364.327145
1611.441272,3370.820191,-444.123565,10362.883188
1611.441589,2374.896044,-444.123565,9400.615463
1611.441906,2298.286494,222.061783,7994.224174
1611.442223,1532.190996,-740.205942,9548.656652
1611.442540,459.657299,-1998.556043,12213.398043
1611.442857,-459.657299,-1554.432478,11695.253884
1611.443174,-612.876398,-1036.288319,10658.965565
1611.443491,-919.314598,-1702.473667,11251.130318
1611.443808,-153.219100,-2146.597232,12065.356855
1611.444125,689.485948,-518.144159,9696.697840
1611.444442,1838.629195,-666.185348,8068.244768
1611.444759,2834.553343,-1480.411884,7994.224174
1611.445076,3677.258390,-1332.370696,7105.977043
1611.445393,5056.230287,-1184.329507,5033.400406
1611.445710,5132.839837,-1406.391290,4663.297435
1611.446027,4213.525239,-2294.638420,5699.585753
1611.446344,3524.039291,-1480.411884,5625.565159
1611.446661,2681.334243,-666.185348,4737.318029
1611.446978,1378.971896,-1332.370696,6439.791695
1611.447295,0.000000,-2294.638420,8956.491898
1611.447612,-842.705048,-2146.597232,8956.491898
1611.447929,-1762.019645,-2368.659014,8808.450710
1611.448246,-2757.943793,-3182.885551,10955.047942
1611.448563,-2451.505594,-2812.782580,11843.295072
1611.448880,-1608.800546,-1850.514855,8882.471304
1611.449197,-383.047749,-1406.391290,7994.224174
1611.449514,229.828649,-2072.576638,8734.430116
1611.449831,1455.581446,-1406.391290,7402.059420
1611.450148,2451.505594,-296.082377,4737.318029
1611.450465,2834.553343,-740.205942,5255.462188
1611.450782,2528.115143,-1036.288319,5995.668130
1611.451099,2451.505594,-74.020594,5477.523971
1611.451416,1378.971896,-74.020594,4811.338623
1611.451733,306.438199,-1184.329507,7994.224174
1611.452050,-459.657299,-1184.329507,10066.800811
1611.452367,-1225.752797,-370.102971,9474.636058
1611.452684,-1991.848295,-444.123565,10214.842000
1611.453001,-2451.505594,-962.267725,13101.645173
1611.453318,-2451.505594,-518.144159,12953.603985
1611.453635,-1608.800546,1110.308913,10732.986159
1611.453952,-459.657299,1258.350101,10584.944971
1611.454269,459.657299,1480.411884,11399.171507
1611.454586,1608.800546,1850.514855,9992.780217
1611.454903,2911.162892,2368.659014,8068.244768
1611.455220,3217.601092,1924.535449,8512.368333
1611.455537,3830.477490,1628.453072,8734.430116
1611.455854,3830.477490,2738.761985,6661.853478
1611.456171,3370.820191,2886.803174,7105.977043
1611.456488,2528.115143,1850.514855,9326.594869
1611.456805,1455.581446,2146.597232,10362.883188
1611.457122,842.705048,3182.885551,9844.739029
1611.457439,229.828649,2738.761985,10807.006753
1611.457756,-459.657299,2368.659014,13249.686362
1611.458073,0.000000,2886.803174,12731.542202
1611.458390,0.000000,3997.112087,10362.883188
1611.458707,919.314598,3701.029710,12139.377449
1611.459024,1302.362347,4071.132681,12139.377449
1611.459341,2451.505594,4885.359217,10362.883188
1611.459658,2987.772442,5329.482782,8586.388927
1611.459975,2451.505594,4219.173869,9696.697840
1611.460292,2757.943793,3775.050304,10362.883188
1611.460609,2451.505594,4293.194464,8808.450710
1611.460926,1608.800546,3256.906145,9252.574275
1611.461243,612.876398,2072.576638,12065.356855
1611.461560,76.609550,2072.576638,12139.377449
1611.461877,383.047749,2368.659014,10881.027347
1611.462194,-76.609550,2294.638420,11547.212695
1611.462511,0.000000,1184.329507,12953.603985
1611.462828,306.438199,2368.659014,11251.130318
1611.463145,995.924147,3108.864956,9918.759623
1611.463462,766.095498,2590.720797,9992.780217
1611.463779,995.924147,1850.514855,11103.089130
1611.464096,1685.410096,1924.535449,9400.615463
1611.464413,1685.410096,2146.597232,7698.141797
1611.464730,2145.067394,740.205942,9622.677246
1611.465047,1072.533697,222.061783,10214.842000
1611.465364,1149.143247,370.102971,8438.347739
1611.465681,153.219100,-0.000000,8882.471304
1611.465998,-689.485948,-1480.411884,11843.295072
1611.466315,-1378.971896,-1480.411884,12065.356855
1611.466632,-995.924147,-444.123565,9992.780217
1611.466949,-995.924147,-222.061783,10658.965565
1611.467266,-919.314598,-370.102971,11917.315666
1611.467584,76.609550,592.164754,9844.739029
1611.467901,306.438199,1258.350101,7476.080014
1611.468218,1915.238745,370.102971,8882.471304
1611.468535,2834.553343,148.041188,8068.244768
1611.468852,4136.915689,518.144159,5625.565159
1611.469169,4903.011187,-0.000000,4663.297435
1611.469486,3830.477490,-1036.288319,6291.750507
1611.469803,3370.820191,-1110.308913,6217.729913
1611.470120,2451.505594,-1110.308913,5403.503377
1611.470437,1302.362347,-1924.535449,6957.935855
1611.470754,-153.219100,-3182.885551,9992.780217
1611.471071,-995.924147,-2738.761985,10288.862594
1611.471388,-1455.581446,-2516.700203,10140.821405
1611.471705,-1838.629195,-2516.700203,10955.047942
1611.472022,-1455.581446,-2442.679609,11991.336260
1611.472339,-383.047749,-518.144159,9104.533087
1611.472656,1072.533697,-0.000000,7772.162391
1611.472973,2298.286494,-222.061783,8734.430116
1611.473290,2987.772442,-370.102971,7179.997637
1611.473607,4060.306139,-0.000000,5107.421000
1611.473924,4366.744339,-888.247130,5329.482782
1611.474241,3753.867940,-1480.411884,6513.812290
1611.474558,3370.820191,-1702.473667,6069.688724
1611.474875,2757.943793,-1554.432478,6365.771101
1611.475192,1149.143247,-1850.514855,8142.265362
1611.475509,0.000000,-2368.659014,9844.739029
1611.475826,-612.876398,-1850.514855,10807.006753
1611.476143,-1455.581446,-962.267725,10510.924376
1611.476460,-2221.676944,-666.185348,11843.295072
1611.476777,-1762.019645,-444.123565,12731.542202
1611.477094,-1149.143247,1406.391290,10955.047942
1611.477411,0.000000,1554.432478,10362.883188
1611.477728,842.705048,1406.391290,10732.986159
1611.478045,1838.629195,2072.576638,9548.656652
1611.478362,3447.429741,2072.576638,7179.997637
1611.478679,3294.210641,1628.453072,7402.059420
1611.478996,3524.039291,814.226536,8438.347739
1611.479313,3524.039291,1480.411884,7105.977043
1611.479630,3064.381992,1702.473667,6735.874072
1611.479947,1991.848295,518.144159,8956.491898
1611.480264,459.657299,296.082377,11029.068536
1611.480581,-153.219100,1110.308913,10881.027347
1611.480898,-1378.971896,1702.473667,10584.944971
1611.481215,-1838.629195,1332.370696,12805.562797
1611.481532,-2145.067394,1702.473667,13619.789333
1611.481849,-1915.238745,2960.823768,11695.253884
1611.482166,-919.314598,3256.906145,10584.944971
1611.482483,0.000000,2664.741391,11621.233289
1611.482800,919.314598,3034.844362,9696.697840
1611.483117,1608.800546,3404.947333,7772.162391
1611.483434,1608.800546,2294.638420,8512.368333
1611.483751,919.314598,1258.350101,9844.739029
1611.484068,1532.190996,1702.473667,8364.327145
1611.484385,995.924147,1850.514855,8142.265362
1611.484702,0.000000,1036.288319,10732.986159
1611.485019,-1072.533697,296.082377,12065.356855
1611.485336,-1685.410096,1332.370696,10807.006753
1611.485653,-1915.238745,888.247130,11251.130318
1611.485970,-1991.848295,888.247130,13027.624579
1611.486287,-1915.238745,962.267725,12509.480420
1611.486604,-1225.752797,1628.453072,10214.842000
1611.486921,-459.657299,1332.370696,10288.862594
1611.487238,153.219100,814.226536,11029.068536
1611.487555,1225.752797,740.205942,9622.677246
1611.487872,1991.848295,296.082377,8068.244768
1611.488189,1915.238745,-222.061783,8586.388927
1611.488506,1685.410096,-1258.350101,9326.594869
1611.488823,1532.190996,-962.267725,8068.244768
1611.489140,1378.971896,-888.247130,7772.162391
1611.489457,842.705048,-1850.514855,10066.800811
1611.489774,459.657299,-1850.514855,11399.171507
1611.490091,229.828649,-1406.391290,9918.759623
1611.490408,0.000000,-1110.308913,10658.965565
1611.490725,0.000000,-1110.308913,12139.377449
1611.491042,766.095498,-148.041188,10510.924376
1611.491359,1838.629195,592.164754,8364.327145
1611.491676,2451.505594,-74.020594,8364.327145
1611.491993,2911.162892,-518.144159,8882.471304
1611.492310,3753.867940,-444.123565,7031.956449
1611.492627,4136.915689,-740.205942,5551.544565
1611.492944,3524.039291,-2294.638420,7105.977043
1611.493261,2604.724693,-2664.741391,7624.121203
1611.493578,2221.676944,-1850.514855,6513.812290
1611.493895,1378.971896,-1850.514855,6439.791695
1611.494212,229.828649,-2738.761985,9474.636058
1611.494529,-383.047749,-2590.720797,9992.780217
1611.494846,-766.095498,-1702.473667,9252.574275
1611.495163,-1302.362347,-2072.576638,10214.842000
1611.495480,-1838.629195,-2368.659014,11843.295072
1611.495797,-1149.143247,-1110.308913,10140.821405
1611.496114,0.000000,-444.123565,8882.471304
1611.496431,0.000000,-1036.288319,9104.533087
1611.496748,1149.143247,-1184.329507,9548.656652
1611.497065,2451.505594,-592.164754,7105.977043
1611.497382,2757.943793,-666.185348,5847.626942
1611.497699,2757.943793,-1184.329507,6735.874072
1611.498016,2451.505594,-1480.411884,7105.977043
1611.498333,1915.238745,-740.205942,5699.585753
1611.498650,919.314598,-1628.453072,7031.956449
1611.498967,-153.219100,-2294.638420,10214.842000
1611.499284,-766.095498,-2072.576638,10362.883188
1611.499601,-1225.752797,-962.267725,10066.800811
1611.499918,-2221.676944,-1258.350101,11473.192101
1611.500235,-2221.676944,-1332.370696,12953.603985
1611.500552,-1072.533697,-222.061783,10955.047942
1611.500869,-383.047749,740.205942,9770.718434
1611.501186,842.705048,-0.000000,11325.150913
1611.501503,1455.581446,962.267725,10140.821405
1611.501820,3294.210641,1332.370696,8216.285956
1611.502137,3600.648841,1776.494261,6883.915261
1611.502454,3600.648841,962.267725,8290.306550
1611.502771,3524.039291,1702.473667,8068.244768
1611.503088,3370.820191,2146.597232,6217.729913
1611.503405,2298.286494,1184.329507,7624.121203
1611.503722,919.314598,-0.000000,10807.006753
1611.504039,306.438199,-296.082377,11695.253884
1611.504356,-1072.533697,592.164754,10362.883188
1611.504673,-1915.238745,148.041188,11917.315666
1611.504990,-1915.238745,666.185348,13841.851115
1611.505307,-1302.362347,1850.514855,11843.295072
1611.505624,-1072.533697,2294.638420,10140.821405
1611.505941,-383.047749,1554.432478,11325.150913
1611.506258,306.438199,1924.535449,11621.233289
1611.506575,1608.800546,2664.741391,9030.512492
1611.506892,1915.238745,2294.638420,7846.182985
1611.507209,1225.752797,962.267725,8956.491898
1611.507526,995.924147,1554.432478,8512.368333
1611.507844,689.485948,1332.370696,6883.915261
1611.508161,-153.219100,-0.000000,9104.533087
1611.508478,-459.657299,-1332.370696,11547.212695
1611.508795,-1838.629195,-888.247130,10955.047942
1611.509112,-2374.896044,-888.247130,10288.862594
1611.509429,-2757.943793,-1258.350101,12583.501014
1611.509746,-2681.334243,-666.185348,12583.501014
1611.510063,-2145.067394,592.164754,10436.903782
1611.510380,-1225.752797,1406.391290,9918.759623
1611.510697,-153.219100,518.144159,11029.068536
1611.511014,306.438199,666.185348,9918.759623
1611.511331,1225.752797,814.226536,8512.368333
1611.511648,1608.800546,222.061783,7920.203579
1611.511965,1991.848295,-444.123565,8734.430116
1611.512282,2374.896044,-148.041188,7179.997637
1611.512599,1915.238745,-0.000000,7031.956449
1611.512916,919.314598,-518.144159,8438.347739
1611.513233,842.705048,-1480.411884,10436.903782
1611.513550,153.219100,-962.267725,9844.739029
1611.513867,-229.828649,-814.226536,9696.697840
1611.514184,-995.924147,-1110.308913,10881.027347
1611.514501,-612.876398,-814.226536,10584.944971
1611.514818,0.000000,296.082377,9400.615463
1611.515135,1149.143247,148.041188,8660.409521
1611.515452,1455.581446,-370.102971,9844.739029
1611.515769,2757.943793,-370.102971,8734.430116
1611.516086,3447.429741,-0.000000,6143.709319
1611.516403,3677.258390,-592.164754,6587.832884
1611.516720,2757.943793,-1258.350101,7550.100608
1611.517037,2757.943793,-888.247130,6957.935855
1611.517354,2604.724693,-592.164754,5773.606348
1611.517671,1072.533697,-1554.432478,8808.450710
1611.517988,-153.219100,-2294.638420,10881.027347
1611.518305,-612.876398,-1554.432478,10288.862594
1611.518622,-1149.143247,-1258.350101,10066.800811
1611.518939,-995.924147,-1110.308913,12657.521608
1611.519256,-919.314598,-814.226536,11399.171507
1611.519573,306.438199,518.144159,9252.574275
1611.519890,919.314598,148.041188,8808.450710
1611.520207,1455.581446,-370.102971,9844.739029
1611.520524,2145.067394,296.082377,7994.224174
1611.520841,2681.334243,-0.000000,6291.750507
1611.521158,2451.505594,-1036.288319,7476.080014
1611.521475,1762.019645,-1258.350101,7994.224174
1611.521792,1608.800546,-518.144159,6661.853478
1611.522109,536.266849,-814.226536,7179.997637
1611.522426,0.000000,-1776.494261,9992.780217
1611.522743,-459.657299,-1628.453072,11547.212695
1611.523060,-919.314598,-148.041188,10658.965565
1611.523377,-1302.362347,-0.000000,11325.150913
1611.523694,-1685.410096,370.102971,13175.665768
1611.524011,-919.314598,888.247130,12583.501014
1611.524328,306.438199,2516.700203,10066.800811
1611.524645,766.095498,2072.576638,10066.800811
1611.524962,1608.800546,2072.576638,10732.986159
1611.525279,2757.943793,2146.597232,8660.409521
1611.525596,3753.867940,1998.556043,6735.874072
1611.525913,3753.867940,1332.370696,7772.162391
1611.526230,3524.039291,518.144159,8068.244768
1611.526547,3140.991542,1332.370696,6513.812290
1611.526864,2221.676944,888.247130,7402.059420
1611.527181,766.095498,444.123565,10658.965565
1611.527498,0.000000,-0.000000,11695.253884
1611.527815,-766.095498,1554.432478,10732.986159
1611.528132,-612.876398,1998.556043,12213.398043
1611.528449,-1302.362347,2368.659014,13545.768739
1611.528766,-229.828649,2590.720797,11843.295072
1611.529083,383.047749,3552.988522,10066.800811
1611.529400,1149.143247,3330.926739,10436.903782
1611.529717,1915.238745,2664.741391,10584.944971
1611.530034,3294.210641,2960.823768,8290.306550
1611.530352,3600.648841,2516.700203,7550.100608
1611.530669,2987.772442,1628.453072,8438.347739
1611.530986,2451.505594,1036.288319,7994.224174
1611.531303,2221.676944,962.267725,6809.894666
1611.531620,766.095498,444.123565,8290.306550
1611.531937,-842.705048,-74.020594,10807.006753
1611.532254,-1149.143247,-148.041188,11103.089130
1611.532572,-1991.848295,370.102971,10140.821405
1611.532889,-2681.334243,-0.000000,11769.274478
1611.533206,-2604.724693,296.082377,12731.542202
1611.533523,-2145.067394,1480.411884,11029.068536
1611.533840,-1302.362347,1924.535449,9474.636058
1611.534157,-995.924147,814.226536,11103.089130
1611.534475,0.000000,296.082377,10881.027347
1611.534792,306.438199,592.164754,8734.430116
1611.535109,1378.971896,296.082377,8068.244768
1611.535426,1378.971896,-0.000000,8882.471304
1611.535743,1838.629195,370.102971,7846.182985
1611.536060,1455.581446,1110.308913,6143.709319
1611.536378,1149.143247,-0.000000,7476.080014
1611.536695,306.438199,-518.144159,9844.739029
1611.537012,383.047749,-518.144159,9696.697840
1611.537329,0.000000,74.020594,9030.512492
1611.537646,-383.047749,-518.144159,10732.986159
1611.537963,-1302.362347,-592.164754,11621.233289
1611.538281,-229.828649,222.061783,9696.697840
1611.538598,766.095498,962.267725,8660.409521
1611.538915,1685.410096,74.020594,9918.759623
1611.539232,2374.896044,-0.000000,9548.656652
1611.539549,3140.991542,592.164754,7402.059420
1611.539866,3447.429741,444.123565,6883.915261
1611.540183,3294.210641,-74.020594,8068.244768
1611.540501,3677.258390,740.205942,6809.894666
1611.540818,2834.553343,1702.473667,5181.441594
1611.541135,2221.676944,-222.061783,7846.182985
1611.541452,1225.752797,-1332.370696,10510.924376
1611.541769,612.876398,-1776.494261,11029.068536
1611.542086,0.000000,-1036.288319,10436.903782
1611.542404,-689.485948,-74.020594,10584.944971
1611.542721,0.000000,740.205942,10955.047942
1611.543038,766.095498,1554.432478,8290.306550
1611.543355,1378.971896,222.061783,8142.265362
1611.543672,1149.143247,148.041188,9030.512492
1611.543989,2374.896044,-740.205942,9474.636058
1611.544307,2374.896044,296.082377,6883.915261
1611.544624,2528.115143,-962.267725,7402.059420
1611.544941,1302.362347,-666.185348,8734.430116
1611.545258,995.924147,-592.164754,7994.224174
1611.545575,459.657299,-0.000000,6661.853478
1611.545892,76.609550,-814.226536,9622.677246
1611.546210,-153.219100,-1036.288319,11843.295072
1611.546527,-919.314598,-370.102971,10584.944971
1611.546844,-995.924147,-74.020594,11251.130318
1611.547161,-1455.581446,-814.226536,13027.624579
1611.547478,-766.095498,-296.082377,13027.624579
1611.547795,536.266849,2146.597232,9622.677246
1611.548112,1762.019645,2072.576638,10140.821405
1611.548430,2298.286494,1998.556043,10732.986159
1611.548747,2987.772442,1332.370696,9326.594869
1611.549064,4060.306139,1628.453072,7624.121203
1611.549381,3753.867940,148.041188,7846.182985
1611.549698,3370.820191,-222.061783,9178.553681
1611.550015,3217.601092,740.205942,7402.059420
1611.550333,2068.457845,592.164754,7179.997637
1611.550650,1072.533697,-0.000000,10066.800811
1611.550967,383.047749,-296.082377,12361.439231
1611.551284,-383.047749,1110.308913,11177.109724
1611.551601,-229.828649,1628.453072,11769.274478
1611.551918,0.000000,2072.576638,12953.603985
1611.552236,383.047749,1776.494261,12287.418637
1611.552553,1378.971896,2664.741391,9400.615463
1611.552870,2068.457845,3108.864956,8956.491898
1611.553187,2834.553343,2516.700203,9400.615463
1611.553504,3600.648841,2812.782580,7624.121203
1611.553821,4290.134789,2812.782580,6513.812290
1611.554139,3217.601092,2368.659014,7105.977043
1611.554456,1915.238745,1332.370696,7550.100608
1611.554773,1072.533697,740.205942,6957.935855
1611.555090,0.000000,370.102971,7105.977043
1611.555407,-1378.971896,-888.247130,10140.821405
1611.555724,-2451.505594,-1184.329507,11251.130318
1611.556041,-2681.334243,-666.185348,10881.027347
1611.556359,-3064.381992,148.041188,11695.253884
1611.556676,-2757.943793,962.267725,12435.459826
1611.556993,-2451.505594,1924.535449,10881.027347
1611.557310,-1302.362347,2516.700203,9548.656652
1611.557627,-766.095498,2442.679609,9104.533087
1611.557944,0.000000,1406.391290,9770.718434
1611.558262,919.314598,1554.432478,8216.285956
1611.558579,2068.457845,1406.391290,6735.874072
1611.558896,2068.457845,962.267725,6957.935855
1611.559213,1762.019645,296.082377,7550.100608
1611.559530,1455.581446,-0.000000,5995.668130
1611.559847,612.876398,-962.267725,7254.018232
1611.560165,-459.657299,-2294.638420,10362.883188
1611.560482,-1455.581446,-1776.494261,11029.068536
1611.560799,-2298.286494,-1332.370696,11251.130318
1611.561116,-2528.115143,-1998.556043,12953.603985
1611.561433,-3064.381992,-1702.473667,14359.995275
1611.561750,-1762.019645,222.061783,12139.377449
1611.562068,153.219100,1702.473667,10140.821405
1611.562385,1225.752797,1702.473667,9770.718434
1611.562702,2911.162892,1332.370696,9474.636058
1611.563019,4213.525239,1258.350101,7402.059420
1611.563336,4519.963438,1036.288319,6439.791695
1611.563653,4903.011187,-814.226536,7772.162391
1611.563970,3983.696590,-1036.288319,7402.059420
1611.564288,3140.991542,-518.144159,5773.606348
1611.564605,1685.410096,-962.267725,7402.059420
1611.564922,306.438199,-2442.679609,10658.965565
1611.565239,-612.876398,-1998.556043,11399.171507
1611.565556,-1225.752797,-1702.473667,10955.047942
1611.565873,-1608.800546,-1998.556043,12583.501014
1611.566191,-1685.410096,-1554.432478,13175.665768
1611.566508,-306.438199,-592.164754,10881.027347
1611.566825,459.657299,-296.082377,9474.636058
1611.567142,1455.581446,-444.123565,9770.718434
1611.567459,2451.505594,-0.000000,8660.409521
1611.567776,3753.867940,296.082377,6735.874072
1611.568094,4060.306139,-222.061783,6439.791695
1611.568411,3677.258390,-1184.329507,7179.997637
1611.568728,2757.943793,-1110.308913,6217.729913
1611.569045,2145.067394,-962.267725,5773.606348
1611.569362,1149.143247,-1850.514855,7624.121203
1611.569679,-229.828649,-2294.638420,10066.800811
1611.569997,-1072.533697,-2146.597232,10436.903782
1611.570314,-1915.238745,-1850.514855,11177.109724
1611.570631,-2068.457845,-1924.535449,13027.624579
1611.570948,-2221.676944,-1480.411884,13619.789333
1611.571265,-1762.019645,-0.000000,10732.986159
1611.571582,-459.657299,444.123565,10436.903782
1611.571899,76.609550,888.247130,9918.759623
1611.572217,2145.067394,296.082377,9548.656652
1611.572534,2987.772442,666.185348,7179.997637
1611.572851,3370.820191,518.144159,7105.977043
1611.573168,4213.525239,-0.000000,8068.244768
1611.573485,3370.820191,666.185348,6217.729913
1611.573802,3447.429741,518.144159,5625.565159
1611.574120,1302.362347,-0.000000,7328.038826
1611.574437,536.266849,-1184.329507,10140.821405
1611.574754,-612.876398,-962.267725,10140.821405
1611.575071,-919.314598,-148.041188,10732.986159
1611.575388,-1915.238745,-1036.288319,12805.562797
1611.575705,-2298.286494,-0.000000,12731.542202
1611.576023,-1072.533697,592.164754,11843.295072
1611.576340,-306.438199,1850.514855,10214.842000
1611.576657,306.438199,1258.350101,10288.862594
1611.576974,1608.800546,2516.700203,8734.430116
1611.577291,2834.553343,2368.659014,6883.915261
1611.577608,3524.039291,1850.514855,6513.812290
1611.577926,3217.601092,740.205942,7476.080014
1611.578243,2451.505594,518.144159,7179.997637
1611.578560,1378.971896,1184.329507,6365.771101
1611.578877,536.266849,-0.000000,8364.327145
1611.579194,-1608.800546,-222.061783,10510.924376
1611.579511,-1532.190996,-148.041188,10436.903782
1611.579828,-2451.505594,962.267725,9918.759623
1611.580146,-2528.115143,-444.123565,13027.624579
1611.580463,-2757.943793,296.082377,13027.624579
1611.580780,-1915.238745,1480.411884,10807.006753
1611.581097,-1225.752797,1924.535449,10436.903782
1611.581414,-995.924147,962.267725,11029.068536
1611.581731,229.828649,1628.453072,9474.636058
1611.582049,1378.971896,1998.556043,7920.203579
1611.582366,1915.238745,1184.329507,9030.512492
1611.582683,2145.067394,666.185348,8734.430116
1611.583000,2221.676944,740.205942,7698.141797
1611.583317,1838.629195,296.082377,7550.100608
1611.583634,919.314598,-1036.288319,9844.739029
1611.583952,306.438199,-1480.411884,11251.130318
1611.584269,0.000000,-740.205942,10732.986159
1611.584586,-383.047749,-74.020594,11029.068536
1611.584903,-459.657299,-296.082377,13397.727550
1611.585220,153.219100,148.041188,12953.603985
1611.585537,1072.533697,888.247130,10807.006753
1611.585855,1991.848295,1184.329507,10436.903782
1611.586172,3217.601092,1184.329507,9992.780217
1611.586489,4213.525239,1554.432478,7550.100608
1611.586806,5362.668486,2294.638420,5551.544565
1611.587123,5056.230287,1332.370696,6513.812290
1611.587440,4060.306139,148.041188,7031.956449
1611.587757,3294.210641,-444.123565,6587.832884
1611.588075,1608.800546,-740.205942,6883.915261
1611.588392,-383.047749,-2590.720797,10214.842000
1611.588709,-1915.238745,-2886.803174,11547.212695
1611.589026,-2757.943793,-2146.597232,10881.027347
1611.589343,-3753.867940,-2146.597232,12361.439231
1611.589660,-3983.696590,-2072.576638,13767.830521
1611.589978,-2757.943793,-740.205942,12139.377449
1611.590295,-2145.067394,-0.000000,10214.842000
1611.590612,-1225.752797,296.082377,9992.780217
1611.590929,0.000000,148.041188,9918.759623
1611.591246,1225.752797,740.205942,7402.059420
1611.591563,1991.848295,1406.391290,5477.523971
1611.591881,2451.505594,444.123565,5995.668130
1611.592198,2451.505594,-370.102971,6513.812290
1611.592515,2451.505594,-962.267725,5033.400406
1611.592832,1225.752797,-2220.617826,6217.729913
1611.593149,-306.438199,-3552.988522,9474.636058
1611.593466,-1762.019645,-3627.009116,10066.800811
1611.593784,-2451.505594,-2368.659014,10214.842000
1611.594101,-3064.381992,-1850.514855,11991.336260
1611.594418,-2834.553343,-1406.391290,13323.706956
1611.594735,-2528.115143,-148.041188,12065.356855
1611.595052,-995.924147,370.102971,11177.109724
1611.595369,459.657299,518.144159,11473.192101
1611.595686,1915.238745,296.082377,10436.903782
1611.596004,4366.744339,1554.432478,7920.203579
1611.596321,5209.449386,1554.432478,5625.565159
1611.596638,5898.935335,592.164754,6513.812290
1611.596955,6281.983084,1036.288319,6143.709319
1611.597272,6205.373534,1554.432478,4737.318029
1611.597589,5056.230287,296.082377,5995.668130
1611.597907,2911.162892,-666.185348,8956.491898
1611.598224,1608.800546,-1110.308913,9844.739029
1611.598541,383.047749,-444.123565,9474.636058
1611.598858,-919.314598,-962.267725,11251.130318
1611.599175,-1225.752797,-1406.391290,13767.830521
1611.599492,-1302.362347,296.082377,12213.398043
1611.599810,-536.266849,1036.288319,11325.150913
1611.600127,-306.438199,592.164754,11991.336260
1611.600444,919.314598,962.267725,11695.253884
1611.600761,1991.848295,2442.679609,8364.327145
1611.601078,2451.505594,2664.741391,6883.915261
1611.601395,3140.991542,2146.597232,7624.121203
1611.601713,3447.429741,1480.411884,7105.977043
1611.602030,2987.772442,1924.535449,5181.441594
1611.602347,2145.067394,444.123565,7402.059420
1611.602664,536.266849,-222.061783,9474.636058
1611.602981,-229.828649,-370.102971,10140.821405
1611.603298,-1149.143247,-74.020594,9918.759623
1611.603615,-2911.162892,296.082377,11251.130318
1611.603933,-2834.553343,370.102971,13175.665768
1611.604250,-2834.553343,1480.411884,11029.068536
1611.604567,-1762.019645,1850.514855,10658.965565
1611.604884,-1532.190996,1332.370696,11621.233289
1611.605201,-229.828649,1406.391290,11177.109724
1611.605518,459.657299,1998.556043,8734.430116
1611.605836,842.705048,1998.556043,7772.162391
1611.606153,1915.238745,1776.494261,8882.471304
1611.606470,2451.505594,1776.494261,7698.141797
1611.606787,2911.162892,1924.535449,6587.832884
1611.607104,1991.848295,962.267725,8808.450710
1611.607421,1072.533697,222.061783,10658.965565
1611.607739,0.000000,-0.000000,10214.842000
1611.608056,-842.705048,370.102971,10584.944971
1611.608373,-1838.629195,740.205942,12213.398043
1611.608690,-1838.629195,1258.350101,12213.398043
1611.609007,-919.314598,2442.679609,10955.047942
1611.609324,-306.438199,2368.659014,10140.821405
1611.609642,229.828649,1258.350101,11473.192101
1611.609959,919.314598,1480.411884,9844.739029
1611.610276,1838.629195,1554.432478,7994.224174
1611.610593,2451.505594,962.267725,7698.141797
1611.610910,2528.115143,592.164754,8364.327145
1611.611227,2681.334243,666.185348,7476.080014
1611.611544,2221.676944,962.267725,6587.832884
1611.611862,1225.752797,-74.020594,8734.430116
1611.612179,383.047749,-666.185348,10732.986159
1611.612496,-459.657299,-296.082377,10288.862594
1611.612813,-1072.533697,-0.000000,10066.800811
1611.613130,-1608.800546,-592.164754,12287.418637
1611.613447,-1378.971896,-296.082377,11917.315666
1611.613765,-306.438199,222.061783,10658.965565
1611.614082,0.000000,370.102971,10362.883188
1611.614399,459.657299,-0.000000,11103.089130
1611.614716,1762.019645,370.102971,9030.512492
1611.615033,2681.334243,740.205942,6883.915261
1611.615350,2987.772442,370.102971,7105.977043
1611.615668,3140.991542,-296.082377,7402.059420
1611.615985,2987.772442,-74.020594,6143.709319
1611.616302,2374.896044,-0.000000,5995.668130
1611.616619,1378.971896,-962.267725,8660.409521
1611.616936,995.924147,-1998.556043,10584.944971
1611.617253,0.000000,-1554.432478,9844.739029
1611.617571,-689.485948,-1406.391290,10881.027347
1611.617888,-1149.143247,-1332.370696,12435.459826
1611.618205,-383.047749,-962.267725,11991.336260
1611.618522,383.047749,222.061783,10362.883188
1611.618839,1225.752797,148.041188,10732.986159
1611.619156,1915.238745,222.061783,10510.924376
1611.619473,3064.381992,444.123565,8808.450710
1611.619791,4136.915689,1184.329507,6217.729913
1611.620108,4673.182538,814.226536,6883.915261
1611.620425,4826.401637,1258.350101,7254.018232
1611.620742,4443.353888,1850.514855,5329.482782
1611.621059,3907.087040,1776.494261,5699.585753
1611.621376,2834.553343,222.061783,8660.409521
1611.621694,1225.752797,-1258.350101,9918.759623
1611.622011,459.657299,-888.247130,9548.656652
1611.622328,-1072.533697,-518.144159,10362.883188
1611.622645,-1532.190996,-1258.350101,12657.521608
1611.622962,-1915.238745,-296.082377,12361.439231
1611.623279,-1378.971896,518.144159,10362.883188
1611.623597,-766.095498,1110.308913,10881.027347
1611.623914,-229.828649,1184.329507,10584.944971
1611.624231,1149.143247,1850.514855,8734.430116
1611.624548,1991.848295,2368.659014,6439.791695
1611.624865,1915.238745,1554.432478,7698.141797
1611.625182,2298.286494,1258.350101,7105.977043
1611.625500,2221.676944,1406.391290,5625.565159
1611.625817,1455.581446,1110.308913,6143.709319
1611.626134,153.219100,-222.061783,9252.574275
1611.626451,-919.314598,-370.102971,9844.739029
1611.626768,-2145.067394,-444.123565,10362.883188
1611.627085,-2987.772442,-666.185348,11843.295072
1611.627402,-3064.381992,-592.164754,13915.871710
1611.627720,-2911.162892,740.205942,12139.377449
1611.628037,-1685.410096,1480.411884,10510.924376
1611.628354,-995.924147,1184.329507,11399.171507
1611.628671,-306.438199,1776.494261,10955.047942
1611.628988,1378.971896,2146.597232,8734.430116
1611.629305,2298.286494,2368.659014,7476.080014
1611.629623,2911.162892,1332.370696,8882.471304
1611.629940,2757.943793,1332.370696,8364.327145
1611.630257,3294.210641,1480.411884,6513.812290
1611.630574,2604.724693,814.226536,7402.059420
1611.630891,2298.286494,-74.020594,10436.903782
1611.631208,2451.505594,-0.000000,10584.944971
1611.631526,1532.190996,518.144159,9770.718434
1611.631843,459.657299,148.041188,11547.212695
1611.632160,76.609550,518.144159,12361.439231
1611.632477,689.485948,1258.350101,11621.233289
1611.632794,612.876398,1406.391290,10510.924376
1611.633111,919.314598,814.226536,11843.295072
1611.633429,1072.533697,888.247130,11473.192101
1611.633746,2451.505594,1406.391290,9326.594869
1611.634063,3140.991542,1332.370696,7698.141797
1611.634380,3140.991542,-0.000000,8882.471304
1611.634697,3447.429741,-222.061783,8438.347739
1611.635014,2681.334243,-0.000000,6365.771101
1611.635331,2298.286494,-1184.329507,8364.327145
1611.635649,1072.533697,-1480.411884,10732.986159
1611.635966,383.047749,-962.267725,9918.759623
1611.636283,229.828649,-148.041188,9326.594869
1611.636600,-995.924147,-370.102971,10658.965565
1611.636917,-995.924147,-740.205942,11843.295072
1611.637234,-612.876398,148.041188,9844.739029
1611.637552,-229.828649,444.123565,9252.574275
1611.637869,-306.438199,-0.000000,10214.842000
1611.638186,229.828649,-370.102971,9918.759623
1611.638503,842.705048,-222.061783,7624.121203
1611.638820,1149.143247,-444.123565,7402.059420
1611.639137,842.705048,-1110.308913,8956.491898
1611.639455,1455.581446,-1258.350101,7550.100608
1611.639772,919.314598,-296.082377,5995.668130
1611.640089,229.828649,-962.267725,8364.327145
1611.640406,-306.438199,-1480.411884,9992.780217
1611.640723,-229.828649,-666.185348,9326.594869
1611.641040,-612.876398,-518.144159,9178.553681
1611.641358,-1455.581446,-592.164754,10584.944971
1611.641675,-995.924147,-888.247130,10732.986159
1611.641992,-306.438199,444.123565,9178.553681
1611.642309,229.828649,296.082377,9252.574275
1611.642626,459.657299,74.020594,9696.697840
1611.642943,1378.971896,148.041188,8956.491898
1611.643261,2911.162892,444.123565,6809.894666
1611.643578,2681.334243,-74.020594,7402.059420
1611.643895,2451.505594,-296.082377,8364.327145
1611.644212,2681.334243,222.061783,6957.935855
1611.644529,2221.676944,370.102971,6439.791695
1611.644846,1532.190996,-1036.288319,8956.491898
1611.645163,306.438199,-1776.494261,10584.944971
1611.645481,-153.219100,-814.226536,10436.903782
1611.645798,-919.314598,-148.041188,9548.656652
1611.646115,-1149.143247,-296.082377,11991.336260
1611.646432,-766.095498,-444.123565,12213.398043
1611.646749,229.828649,888.247130,10584.944971
1611.647066,842.705048,1036.288319,10066.800811
1611.647384,1302.362347,592.164754,10510.924376
1611.647701,1915.238745,1036.288319,9104.533087
1611.648018,2834.553343,1554.432478,7031.956449
1611.648335,2528.115143,1554.432478,7328.038826
1611.648652,2374.896044,444.123565,8660.409521
1611.648969,1608.800546,666.185348,7328.038826
1611.649287,1149.143247,962.267725,7179.997637
1611.649604,-76.609550,-148.041188,10214.842000
1611.649921,-1302.362347,-1258.350101,11769.274478
1611.650238,-1608.800546,-740.205942,11325.150913
1611.650555,-2528.115143,-222.061783,11547.212695
1611.650872,-2681.334243,-518.144159,13545.768739
1611.651190,-1915.238745,-0.000000,12879.583391
1611.651507,-919.314598,1702.473667,9992.780217
1611.651824,306.438199,1702.473667,10436.903782
1611.652141,383.047749,1184.329507,10066.800811
1611.652458,1072.533697,1258.350101,9030.512492
1611.652775,2068.457845,1554.432478,7476.080014
1611.653092,2451.505594,1628.453072,7772.162391
1611.653410,2681.334243,962.267725,8290.306550
1611.653727,2221.676944,666.185348,6513.812290
1611.654044,1532.190996,370.102971,7031.956449
1611.654361,766.095498,-222.061783,9622.677246
1611.654678,76.609550,-666.185348,10288.862594
1611.654995,-306.438199,-592.164754,10510.924376
1611.655313,-1072.533697,-592.164754,11029.068536
1611.655630,-1072.533697,-814.226536,13323.706956
1611.655947,-612.876398,-0.000000,11843.295072
1611.656264,383.047749,1110.308913,10140.821405
1611.656581,1378.971896,1480.411884,10214.842000
1611.656898,1915.238745,1406.391290,10140.821405
1611.657216,3140.991542,1110.308913,7994.224174
1611.657533,3983.696590,1258.350101,7031.956449
1611.657850,3753.867940,518.144159,7698.141797
1611.658167,3677.258390,296.082377,7476.080014
1611.658484,2911.162892,444.123565,6069.688724
1611.658801,1915.238745,-296.082377,7179.997637
1611.659119,689.485948,-1332.370696,9918.759623
1611.659436,-306.438199,-1480.411884,10510.924376
1611.659753,-536.266849,-1184.329507,10510.924376
1611.660070,-1608.800546,-1258.350101,11399.171507
1611.660387,-2374.896044,-2072.576638,13027.624579
1611.660704,-1915.238745,-1110.308913,11547.212695
1611.661022,-1378.971896,-148.041188,9844.739029
1611.661339,-459.657299,-518.144159,10140.821405
1611.661656,-306.438199,-148.041188,10510.924376
1611.661973,1378.971896,592.164754,8290.306550
1611.662290,1838.629195,1110.308913,6439.791695
1611.662607,2451.505594,222.061783,7402.059420
1611.662924,2604.724693,-370.102971,7772.162391
1611.663242,2374.896044,-0.000000,5921.647536
1611.663559,1762.019645,-592.164754,6439.791695
1611.663876,306.438199,-1998.556043,9548.656652
1611.664193,229.828649,-2146.597232,9918.759623
1611.664510,-842.705048,-1776.494261,8956.491898
1611.664827,-842.705048,-1480.411884,10658.965565
1611.665145,-1762.019645,-1924.535449,11843.295072
1611.665462,-1072.533697,-666.185348,10436.903782
1611.665779,0.000000,222.061783,9474.636058
1611.666096,0.000000,-0.000000,10658.965565
1611.666413,766.095498,-74.020594,10214.842000
1611.666730,1991.848295,1184.329507,7624.121203
1611.667048,2451.505594,1406.391290,7031.956449
1611.667365,2757.943793,814.226536,8216.285956
1611.667682,2681.334243,888.247130,7105.977043
1611.667999,2374.896044,666.185348,5847.626942
1611.668316,1991.848295,-0.000000,8364.327145
1611.668633,536.266849,-962.267725,10288.862594
1611.668951,76.609550,-1332.370696,10584.944971
1611.669268,-766.095498,-666.185348,11399.171507
1611.669585,-766.095498,-1258.350101,12953.603985
1611.669902,-1532.190996,-370.102971,12139.377449
1611.670219,-383.047749,1184.329507,10881.027347
1611.670536,919.314598,1998.556043,9770.718434
1611.670853,1378.971896,1480.411884,10436.903782
1611.671171,2451.505594,1332.370696,9622.677246
1611.671488,2451.505594,1702.473667,7105.977043
1611.671805,2911.162892,1332.370696,6883.915261
1611.672122,2757.943793,444.123565,7846.182985
1611.672439,2298.286494,370.102971,7254.018232
1611.672756,1685.410096,222.061783,6587.832884
1611.673074,229.828649,-592.164754,8734.430116
1611.673391,-536.266849,-1110.308913,11029.068536
1611.673708,-1378.971896,-962.267725,11547.212695
1611.674025,-2145.067394,-148.041188,10510.924376
1611.674342,-2451.505594,-0.000000,13027.624579
1611.674659,-2298.286494,444.123565,12731.542202
1611.674977,-919.314598,1628.453072,11177.109724
1611.675294,-689.485948,2368.659014,9918.759623
1611.675611,153.219100,2146.597232,11251.130318
1611.675928,1608.800546,2294.638420,9474.636058
1611.676245,2451.505594,2368.659014,6735.874072
1611.676562,2911.162892,1628.453072,7254.018232
1611.676880,2681.334243,666.185348,7846.182985
1611.677197,2604.724693,444.123565,6439.791695
1611.677514,1915.238745,296.082377,6439.791695
1611.677831,919.314598,-444.123565,9104.533087
1611.678148,-229.828649,-814.226536,10881.027347
1611.678465,-459.657299,-888.247130,10732.986159
1611.678783,-1455.581446,-222.061783,11029.068536
1611.679100,-1762.019645,-0.000000,13027.624579
1611.679417,-1915.238745,888.247130,12509.480420
1611.679734,-383.047749,2072.576638,11029.068536
1611.680051,229.828649,1998.556043,11103.089130
1611.680368,919.314598,1998.556043,11177.109724
1611.680685,1915.238745,2072.576638,9474.636058
1611.681003,2528.115143,1998.556043,7772.162391
1611.681320,3753.867940,814.226536,7920.203579
1611.681637,3753.867940,444.123565,7920.203579
1611.681954,3294.210641,296.082377,6883.915261
1611.682271,2374.896044,-0.000000,6587.832884
1611.682588,1455.581446,-962.267725,8438.347739
1611.682906,766.095498,-1554.432478,9992.780217
1611.683223,-383.047749,-1332.370696,10066.800811
1611.683540,-1378.971896,-814.226536,10140.821405
1611.683857,-1302.362347,-888.247130,11917.315666
1611.684174,-2298.286494,-592.164754,11843.295072
1611.684491,-1225.752797,296.082377,10732.986159
1611.684809,-1225.752797,148.041188,10732.986159
1611.685126,-612.876398,-222.061783,11399.171507
1611.685443,689.485948,-0.000000,9918.759623
1611.685760,1302.362347,814.226536,8290.306550
1611.686077,2221.676944,814.226536,8438.347739
1611.686394,2451.505594,148.041188,8142.265362
1611.686712,2604.724693,148.041188,6365.771101
1611.687029,2451.505594,-74.020594,6513.812290
1611.687346,1455.581446,-1036.288319,8142.265362
1611.687663,1608.800546,-1258.350101,9326.594869
1611.687980,766.095498,-444.123565,8808.450710
1611.688297,153.219100,-740.205942,9992.780217
1611.688615,-536.266849,-814.226536,10955.047942
1611.688932,0.000000,-148.041188,10288.862594
1611.689249,459.657299,222.061783,9622.677246
1611.689566,1225.752797,296.082377,9992.780217
1611.689883,1991.848295,148.041188,9918.759623
1611.690200,2911.162892,740.205942,8438.347739
1611.690517,2911.162892,592.164754,7179.997637
1611.690835,3600.648841,148.041188,7994.224174
1611.691152,3907.087040,518.144159,8512.368333
1611.691469,4136.915689,1258.350101,7254.018232
1611.691786,2451.505594,814.226536,7624.121203
1611.692103,1532.190996,-0.000000,9992.780217
1611.692420,995.924147,-0.000000,10807.006753
1611.692738,612.876398,222.061783,9844.739029
1611.693055,-306.438199,-0.000000,10807.006753
1611.693372,0.000000,-74.020594,11695.253884
1611.693689,536.266849,1036.288319,10140.821405
1611.694006,1225.752797,1702.473667,8882.471304
1611.694323,1378.971896,888.247130,9178.553681
1611.694641,1608.800546,592.164754,9770.718434
1611.694958,1608.800546,1480.411884,7402.059420
1611.695275,1991.848295,1776.494261,6883.915261
1611.695592,1608.800546,1406.391290,7698.141797
1611.695909,1302.362347,1258.350101,8068.244768
1611.696226,1072.533697,1258.350101,6957.935855
1611.696544,-459.657299,592.164754,8882.471304
1611.696861,-1072.533697,-518.144159,11251.130318
1611.697178,-1762.019645,-518.144159,11843.295072
1611.697495,-2145.067394,148.041188,11547.212695
1611.697812,-2834.553343,296.082377,12361.439231
1611.698129,-2604.724693,814.226536,12879.583391
1611.698446,-2145.067394,1776.494261,11177.109724
1611.698764,-842.705048,2146.597232,10658.965565
1611.699081,-229.828649,2294.638420,10436.903782
1611.699398,689.485948,1554.432478,9770.718434
1611.699715,1838.629195,1628.453072,7105.977043
1611.700032,2068.457845,1110.308913,6883.915261
1611.700349,1991.848295,222.061783,7550.100608
1611.700667,2604.724693,-518.144159,7550.100608
1611.700984,1991.848295,370.102971,6439.791695
1611.701301,995.924147,-0.000000,7772.162391
1611.701618,76.609550,-1036.288319,10658.965565
1611.701935,-229.828649,-814.226536,11325.150913
1611.702252,-1072.533697,-74.020594,11325.150913
1611.702570,-1378.971896,-0.000000,13027.624579
1611.702887,-1532.190996,370.102971,13249.686362
1611.703204,0.000000,1702.473667,11917.315666
1611.703521,1149.143247,2442.679609,10658.965565
1611.703838,1915.238745,2220.617826,10881.027347
1611.704155,2911.162892,1554.432478,9992.780217
1611.704473,3753.867940,1776.494261,7772.162391
1611.704790,4596.572988,1036.288319,7105.977043
1611.705107,4060.306139,-74.020594,7920.203579
1611.705424,4596.572988,-296.082377,7105.977043
1611.705741,3064.381992,-296.082377,5847.626942
1611.706058,2528.115143,-1036.288319,7772.162391
1611.706376,1072.533697,-1628.453072,9770.718434
1611.706693,1378.971896,-1406.391290,9992.780217
1611.707010,-459.657299,-592.164754,9696.697840
1611.707327,-995.924147,-1110.308913,11843.295072
1611.707644,-1378.971896,-1036.288319,12065.356855
1611.707961,-1072.533697,222.061783,11325.150913
1611.708278,-459.657299,666.185348,10658.965565
1611.708596,76.609550,740.205942,11325.150913
1611.708913,459.657299,740.205942,10436.903782
1611.709230,1608.800546,1628.453072,7846.182985
1611.709547,2374.896044,1110.308913,7254.018232
1611.709864,2145.067394,-0.000000,8216.285956
1611.710181,1991.848295,-444.123565,6291.750507
1611.710499,1762.019645,-518.144159,5625.565159
1611.710816,842.705048,-2072.576638,8068.244768
1611.711133,0.000000,-2368.659014,9400.615463
1611.711450,-689.485948,-1776.494261,9252.574275
1611.711767,-1378.971896,-1184.329507,9178.553681
1611.712084,-1991.848295,-888.247130,11251.130318
1611.712402,-1762.019645,-518.144159,11695.253884
1611.712719,-1072.533697,444.123565,9474.636058
1611.713036,0.000000,666.185348,10140.821405
1611.713353,229.828649,666.185348,10362.883188
1611.713670,1762.019645,1110.308913,9400.615463
1611.713987,2681.334243,1554.432478,7254.018232
1611.714305,3447.429741,1480.411884,7179.997637
1611.714622,3524.039291,1332.370696,7772.162391
1611.714939,3753.867940,1406.391290,6513.812290
1611.715256,3600.648841,666.185348,6883.915261
1611.715573,1991.848295,-444.123565,9400.615463
1611.715890,1378.971896,-962.267725,10510.924376
1611.716207,919.314598,-888.247130,10436.903782
1611.716525,0.000000,-814.226536,10510.924376
1611.716842,0.000000,-740.205942,11695.253884
1611.717159,0.000000,296.082377,11547.212695
1611.717476,919.314598,1628.453072,9474.636058
1611.717793,1455.581446,1480.411884,9770.718434
1611.718110,1685.410096,1480.411884,10140.821405
1611.718428,2528.115143,1850.514855,9178.553681
1611.718745,2987.772442,1998.556043,6883.915261
1611.719062,2987.772442,1480.411884,7920.203579
1611.719379,2834.553343,592.164754,8364.327145
1611.719696,2987.772442,1406.391290,7105.977043
1611.720013,1991.848295,888.247130,7476.080014
1611.720331,919.314598,-296.082377,10214.842000
1611.720648,76.609550,-592.164754,11177.109724
1611.720965,-383.047749,-0.000000,10807.006753
1611.721282,-1838.629195,518.144159,11325.150913
1611.721599,-2068.457845,370.102971,12657.521608
1611.721916,-2298.286494,1406.391290,11843.295072
1611.722234,-1762.019645,2294.638420,10214.842000
1611.722551,-1608.800546,2072.576638,10510.924376
1611.722868,-459.657299,814.226536,10732.986159
1611.723185,-383.047749,666.185348,9400.615463
1611.723502,0.000000,370.102971,7920.203579
1611.723819,306.438199,-444.123565,8734.430116
1611.724137,842.705048,-666.185348,8808.450710
1611.724454,689.485948,-0.000000,7328.038826
1611.724771,-229.828649,-592.164754,8068.244768
1611.725088,-612.876398,-814.226536,9992.780217
1611.725405,-689.485948,-518.144159,10807.006753
1611.725722,-1302.362347,296.082377,10658.965565
1611.726039,-1915.238745,370.102971,11843.295072
1611.726355,-2451.505594,888.247130,12657.521608
1611.726673,-1762.019645,740.205942,11917.315666
1611.726990,-919.314598,1036.288319,10214.842000
1611.727307,0.000000,148.041188,11695.253884
1611.727625,612.876398,-592.164754,11621.233289
1611.727942,1838.629195,-74.020594,8438.347739
1611.728259,2834.553343,-74.020594,7105.977043
1611.728577,3447.429741,-888.247130,7920.203579
1611.728894,3140.991542,-740.205942,6957.935855
1611.729211,3907.087040,-518.144159,5847.626942
1611.729529,2221.676944,-962.267725,6735.874072
1611.729846,1378.971896,-814.226536,8364.327145
1611.730163,229.828649,-666.185348,9178.553681
1611.730481,459.657299,-814.226536,9918.759623
1611.730798,-1072.533697,-740.205942,10881.027347
1611.731115,-1532.190996,-1036.288319,12435.459826
1611.731433,-919.314598,-74.020594,11473.192101
1611.731750,-689.485948,-0.000000,10436.903782
1611.732067,76.609550,-518.144159,11769.274478
1611.732385,76.609550,-1036.288319,11103.089130
1611.732702,1455.581446,-0.000000,8290.306550
1611.733019,1762.019645,444.123565,7031.956449
1611.733337,2834.553343,-296.082377,7550.100608
1611.733654,2757.943793,-370.102971,6587.832884
1611.733971,3294.210641,-814.226536,5995.668130
1611.734289,2528.115143,-1036.288319,5551.544565
1611.734606,1838.629195,-2368.659014,8512.368333
1611.734924,1915.238745,-1776.494261,8808.450710
1611.735241,1072.533697,-1110.308913,8068.244768
1611.735558,229.828649,-592.164754,9918.759623
1611.735876,0.000000,-740.205942,11399.171507
1611.736193,-153.219100,-148.041188,10214.842000
1611.736510,536.266849,814.226536,9770.718434
1611.736828,995.924147,1036.288319,10436.903782
1611.737145,1532.190996,814.226536,9992.780217
1611.737462,2681.334243,1702.473667,8290.306550
1611.737780,3064.381992,1258.350101,7550.100608
1611.738097,2604.724693,666.185348,8438.347739
1611.738414,3447.429741,444.123565,8142.265362
1611.738732,3064.381992,592.164754,6291.750507
1611.739049,2374.896044,222.061783,7846.182985
1611.739366,1378.971896,-1332.370696,10066.800811
1611.739684,153.219100,-1110.308913,9474.636058
1611.740001,76.609550,-592.164754,9622.677246
1611.740318,-459.657299,-592.164754,10881.027347
1611.740636,-612.876398,740.205942,11251.130318
1611.740953,0.000000,1480.411884,9622.677246
1611.741270,0.000000,1480.411884,9548.656652
1611.741588,0.000000,1184.329507,10436.903782
1611.741905,689.485948,1480.411884,10140.821405
1611.742222,995.924147,2294.638420,8290.306550
1611.742540,1149.143247,1998.556043,8512.368333
1611.742857,842.705048,1110.308913,9918.759623
1611.743174,459.657299,1184.329507,8956.491898
1611.743492,0.000000,1036.288319,7920.203579
1611.743809,-229.828649,-0.000000,10362.883188
1611.744126,-1378.971896,-814.226536,11621.233289
1611.744444,-1608.800546,-592.164754,10658.965565
1611.744761,-2068.457845,-296.082377,10955.047942
1611.745078,-2528.115143,-592.164754,12731.542202
1611.745396,-1991.848295,-74.020594,12361.439231
1611.745713,-766.095498,666.185348,9696.697840
1611.746030,-383.047749,1036.288319,9622.677246
1611.746348,229.828649,1110.308913,10140.821405
1611.746665,1838.629195,1702.473667,9030.512492
1611.746982,2528.115143,2294.638420,7105.977043
1611.747300,2757.943793,1554.432478,7624.121203
1611.747617,2451.505594,666.185348,9030.512492
1611.747934,2221.676944,518.144159,8068.244768
1611.748252,2451.505594,296.082377,8290.306550
1611.748569,612.876398,-888.247130,10881.027347
1611.748886,0.000000,-1184.329507,12361.439231
1611.749204,-689.485948,-148.041188,11399.171507
1611.749521,-383.047749,518.144159,11473.192101
1611.749838,-383.047749,-0.000000,12731.542202
1611.750156,0.000000,592.164754,12287.418637
1611.750473,1149.143247,1184.329507,9474.636058
1611.750790,1225.752797,1036.288319,9252.574275
1611.751108,2298.286494,740.205942,9548.656652
1611.751425,2834.553343,1110.308913,7624.121203
1611.751742,3830.477490,814.226536,6291.750507
1611.752060,3753.867940,222.061783,6513.812290
1611.752377,3447.429741,-296.082377,7105.977043
1611.752694,3140.991542,-222.061783,5921.647536
1611.753012,2068.457845,-222.061783,5921.647536
1611.753329,766.095498,-1702.473667,8882.471304
1611.753646,-766.095498,-1776.494261,10436.903782
1611.753964,-1685.410096,-1776.494261,10807.006753
1611.754281,-2834.553343,-962.267725,11473.192101
1611.754598,-3294.210641,-1258.350101,13471.748144
1611.754916,-2987.772442,-888.247130,12583.501014
1611.755233,-2374.896044,814.226536,10732.986159
1611.755550,-1608.800546,1036.288319,10288.862594
1611.755868,-612.876398,1332.370696,9918.759623
1611.756185,919.314598,1554.432478,7254.018232
1611.756502,2451.505594,1110.308913,6069.688724
1611.756820,2834.553343,-296.082377,6587.832884
1611.757137,2298.286494,-592.164754,6439.791695
1611.757454,2987.772442,-1036.288319,5329.482782
1611.757772,1838.629195,-1258.350101,5625.565159
1611.758089,1685.410096,-2812.782580,8956.491898
1611.758406,536.266849,-2072.576638,9696.697840
1611.758724,-306.438199,-1110.308913,9400.615463
1611.759041,-1378.971896,-0.000000,10658.965565
1611.759358,-1302.362347,148.041188,12065.356855
1611.759676,-1532.190996,814.226536,11029.068536
1611.759993,-766.095498,1258.350101,10140.821405
1611.760310,-459.657299,1036.288319,11399.171507
1611.760628,-153.219100,962.267725,11473.192101
1611.760945,1378.971896,1332.370696,9770.718434
1611.761262,2298.286494,1036.288319,8142.265362
1611.761580,2757.943793,444.123565,9178.553681
1611.761897,2987.772442,-0.000000,8142.265362
1611.762214,3140.991542,370.102971,5625.565159
1611.762532,2987.772442,-740.205942,7328.038826
1611.762849,2221.676944,-962.267725,9178.553681
1611.763166,1915.238745,-814.226536,9844.739029
1611.763484,995.924147,-444.123565,9326.594869
1611.763801,0.000000,-0.000000,11399.171507
1611.764118,229.828649,666.185348,11991.336260
1611.764436,229.828649,2072.576638,10584.944971
1611.764753,1302.362347,2442.679609,10140.821405
1611.765070,1378.971896,2146.597232,10807.006753
1611.765388,1991.848295,1702.473667,10436.903782
1611.765705,2911.162892,1554.432478,8734.430116
1611.766022,2451.505594,1406.391290,8586.388927
1611.766340,1838.629195,518.144159,9030.512492
1611.766657,1991.848295,518.144159,8586.388927
1611.766974,1455.581446,888.247130,7846.182985
1611.767292,842.705048,-148.041188,9622.677246
1611.767609,-536.266849,-666.185348,10658.965565
1611.767926,-766.095498,-0.000000,10362.883188
1611.768244,-306.438199,444.123565,9918.759623
1611.768561,-766.095498,1110.308913,10732.986159
1611.768878,-919.314598,1110.308913,11621.233289
1611.769196,-766.095498,1406.391290,9770.718434
1611.769513,-383.047749,1480.411884,9178.553681
1611.769830,-536.266849,1258.350101,10510.924376
1611.770148,76.609550,518.144159,10881.027347
1611.770465,842.705048,1332.370696,9178.553681
1611.770782,995.924147,1258.350101,8586.388927
1611.771100,1532.190996,740.205942,9770.718434
1611.771417,1378.971896,962.267725,7698.141797
1611.771734,1762.019645,1184.329507,6883.915261
1611.772052,1685.410096,666.185348,8142.265362
1611.772369,689.485948,-74.020594,9918.759623
1611.772686,459.657299,296.082377,9844.739029
1611.773004,-306.438199,740.205942,9770.718434
1611.773321,-842.705048,296.082377,11473.192101
1611.773638,-842.705048,-0.000000,11325.150913
1611.773956,-306.438199,888.247130,9844.739029
1611.774273,306.438199,1110.308913,9474.636058
1611.774590,1378.971896,296.082377,10362.883188
1611.774908,2221.676944,666.185348,8734.430116
1611.775225,2528.115143,1110.308913,7179.997637
1611.775542,2911.162892,1480.411884,7550.100608
1611.775860,3140.991542,1258.350101,8216.285956
1611.776177,2911.162892,1554.432478,6291.750507
1611.776494,2068.457845,1332.370696,7105.977043
1611.776812,919.314598,-148.041188,9992.780217
1611.777129,0.000000,-962.267725,10955.047942
1611.777446,-229.828649,-962.267725,10881.027347
1611.777764,-1225.752797,-1036.288319,11177.109724
1611.778081,-1225.752797,-1184.329507,12361.439231
1611.778398,-612.876398,-74.020594,11695.253884
1611.778716,383.047749,222.061783,9178.553681
1611.779033,919.314598,148.041188,9252.574275
1611.779350,689.485948,-0.000000,9548.656652
1611.779668,1915.238745,148.041188,8512.368333
1611.779985,2221.676944,962.267725,6143.709319
1611.780302,2374.896044,-222.061783,7476.080014
1611.780620,1532.190996,-740.205942,8660.409521
1611.780937,1685.410096,-888.247130,7105.977043
1611.781254,1225.752797,-962.267725,6661.853478
1611.781572,306.438199,-2368.659014,10140.821405
1611.781889,-459.657299,-2146.597232,11251.130318
1611.782206,-612.876398,-1036.288319,10066.800811
1611.782524,-1455.581446,-592.164754,10881.027347
1611.782841,-1608.800546,-1184.329507,13841.851115
1611.783158,-1378.971896,-296.082377,12435.459826
1611.783476,-689.485948,1036.288319,10436.903782
1611.783793,306.438199,1110.308913,10288.862594
1611.784110,995.924147,962.267725,10732.986159
1611.784428,2911.162892,962.267725,8808.450710
1611.784745,4290.134789,1110.308913,7254.018232
1611.785062,4443.353888,740.205942,6883.915261
1611.785380,4519.963438,-0.000000,6143.709319
1611.785697,4903.011187,370.102971,5921.647536
1611.786014,3447.429741,-148.041188,6439.791695
1611.786332,1838.629195,-1554.432478,9178.553681
1611.786649,306.438199,-1258.350101,9918.759623
1611.786966,-766.095498,-1036.288319,11029.068536
1611.787284,-1302.362347,-444.123565,12065.356855
1611.787601,-1762.019645,-444.123565,12805.562797
1611.787918,-1455.581446,296.082377,11917.315666
1611.788236,-306.438199,740.205942,11325.150913
1611.788553,-306.438199,1554.432478,10066.800811
1611.788870,689.485948,1702.473667,10362.883188
1611.789188,1762.019645,2664.741391,8290.306550
1611.789505,2068.457845,2442.679609,6735.874072
1611.789822,2374.896044,1258.350101,7624.121203
1611.790140,1991.848295,888.247130,6957.935855
1611.790457,2451.505594,296.082377,6291.750507
1611.790774,1302.362347,-592.164754,6957.935855
1611.791092,1225.752797,-2220.617826,9474.636058
1611.791409,0.000000,-2886.803174,10510.924376
1611.791726,-842.705048,-1850.514855,9474.636058
1611.792044,-1838.629195,-814.226536,10807.006753
1611.792361,-1991.848295,296.082377,12361.439231
1611.792678,-1532.190996,1924.535449,11251.130318
1611.792996,-1378.971896,2664.741391,9992.780217
1611.793313,-1302.362347,2738.761985,10881.027347
1611.793630,-153.219100,2368.659014,11547.212695
1611.793948,995.924147,2516.700203,8364.327145
1611.794265,1455.581446,2220.617826,7105.977043
1611.794582,2374.896044,444.123565,9474.636058
1611.794900,2298.286494,-74.020594,8512.368333
1611.795217,2757.943793,-444.123565,7031.956449
1611.795534,2298.286494,-1184.329507,7698.141797
1611.795852,536.266849,-1406.391290,9992.780217
1611.796169,536.266849,-1332.370696,10214.842000
1611.796486,-306.438199,-370.102971,9548.656652
1611.796804,-995.924147,-296.082377,11103.089130
1611.797121,-1378.971896,444.123565,12065.356855
1611.797438,-612.876398,1258.350101,10881.027347
1611.797756,536.266849,1924.535449,10214.842000
1611.798073,1302.362347,1776.494261,9992.780217
1611.798390,2221.676944,1110.308913,10288.862594
1611.798708,3140.991542,962.267725,8364.327145
1611.799025,3600.648841,370.102971,7846.182985
1611.799342,3217.601092,-370.102971,8586.388927
1611.799660,3217.601092,-222.061783,7846.182985
1611.799977,2757.943793,444.123565,7031.956449
1611.800294,1762.019645,-74.020594,7846.182985
1611.800612,919.314598,-666.185348,9696.697840
1611.800929,229.828649,-962.267725,9992.780217
1611.801246,-689.485948,-962.267725,9992.780217
1611.801564,-689.485948,-1554.432478,11695.253884
1611.801881,-766.095498,-666.185348,11769.274478
1611.802198,76.609550,148.041188,10510.924376
1611.802516,612.876398,740.205942,9252.574275
1611.802833,995.924147,370.102971,9992.780217
1611.803150,1762.019645,296.082377,9474.636058
1611.803468,2145.067394,888.247130,7698.141797
1611.803785,2221.676944,370.102971,7031.956449
1611.804102,2374.896044,-0.000000,8956.491898
1611.804420,1762.019645,-0.000000,7772.162391
1611.804737,1838.629195,-0.000000,7105.977043
1611.805054,1302.362347,-518.144159,8438.347739
1611.805372,459.657299,-1184.329507,10140.821405
1611.805689,536.266849,-740.205942,10288.862594
1611.806006,-153.219100,-0.000000,8882.471304
1611.806324,-1991.848295,-592.164754,11251.130318
1611.806641,-2221.676944,-962.267725,11991.336260
1611.806958,-1149.143247,-222.061783,10214.842000
1611.807276,-1838.629195,444.123565,9400.615463
1611.807593,-1149.143247,-0.000000,11473.192101
1611.807910,0.000000,-74.020594,9474.636058
1611.808228,995.924147,222.061783,8068.244768
1611.808545,2374.896044,-1406.391290,8438.347739
1611.808862,1532.190996,-888.247130,8586.388927
1611.809180,2604.724693,-0.000000,7031.956449
1611.809497,2834.553343,1110.308913,5551.544565
1611.809814,1991.848295,-0.000000,7920.203579
1611.810132,689.485948,-666.185348,10658.965565
1611.810449,-842.705048,222.061783,9178.553681
1611.810766,-689.485948,962.267725,10140.821405
1611.811084,-1532.190996,-222.061783,11991.336260
1611.811401,-1532.190996,-888.247130,13619.789333
1611.811718,-1225.752797,148.041188,10140.821405
1611.812036,-383.047749,222.061783,10658.965565
1611.812353,995.924147,-74.020594,10658.965565
1611.812670,1838.629195,-518.144159,9474.636058
1611.812988,2528.115143,1110.308913,6661.853478
1611.813305,3064.381992,1036.288319,6735.874072
1611.813622,2681.334243,1332.370696,6809.894666
1611.813940,3600.648841,-0.000000,7105.977043
1611.814257,1991.848295,1036.288319,6217.729913
1611.814574,689.485948,-0.000000,9178.553681
1611.814892,0.000000,-518.144159,10288.862594
1611.815209,689.485948,-814.226536,10362.883188
1611.815526,-612.876398,-740.205942,10510.924376
1611.815844,-1455.581446,-666.185348,11843.295072
1611.816161,-1302.362347,-74.020594,11769.274478
1611.816478,-153.219100,-0.000000,10288.862594
1611.816796,0.000000,518.144159,11029.068536
1611.817113,153.219100,592.164754,11991.336260
1611.817430,0.000000,2072.576638,8808.450710
1611.817748,995.924147,666.185348,8364.327145
1611.818065,1225.752797,-0.000000,9104.533087
1611.818382,1762.019645,814.226536,7846.182985
1611.818700,2528.115143,962.267725,5847.626942
1611.819017,2604.724693,592.164754,6069.688724
1611.819334,1915.238745,-1258.350101,9252.574275
1611.819652,1072.533697,-1924.535449,10510.924376
1611.819969,383.047749,-592.164754,9548.656652
1611.820286,153.219100,-518.144159,10732.986159
1611.820604,-306.438199,-370.102971,13101.645173
1611.820921,-842.705048,1184.329507,11991.336260
1611.821238,-306.438199,3108.864956,9474.636058
1611.821556,459.657299,2886.803174,9918.759623
1611.821873,1455.581446,1406.391290,11473.192101
1611.822190,2068.457845,1554.432478,9400.615463
1611.822508,2757.943793,2368.659014,6957.935855
1611.822825,2757.943793,962.267725,7698.141797
1611.823142,2987.772442,-222.061783,8512.368333
1611.823460,2374.896044,-148.041188,7328.038826
1611.823777,1455.581446,-0.000000,6661.853478
1611.824094,0.000000,-1036.288319,9844.739029
1611.824412,-536.266849,-2368.659014,11103.089130
1611.824729,-1225.752797,-1406.391290,9474.636058
1611.825046,-1838.629195,-1036.288319,10807.006753
1611.825364,-2451.505594,-592.164754,12287.418637
1611.825681,-1838.629195,-0.000000,11251.130318
1611.825999,-383.047749,888.247130,9696.697840
1611.826316,0.000000,2368.659014,9400.615463
1611.826633,766.095498,2072.576638,10584.944971
1611.826951,1378.971896,2146.597232,8660.409521
1611.827268,1608.800546,1480.411884,7476.080014
1611.827585,1302.362347,1184.329507,8142.265362
1611.827902,1532.190996,148.041188,7994.224174
1611.828220,1455.581446,-962.267725,7031.956449
1611.828537,919.314598,-2072.576638,8438.347739
1611.828854,-153.219100,-2516.700203,10066.800811
1611.829171,-383.047749,-2146.597232,10881.027347
1611.829489,-1072.533697,-1480.411884,10510.924376
1611.829806,-995.924147,-518.144159,10807.006753
1611.830123,-995.924147,-74.020594,11399.171507
1611.830440,-766.095498,592.164754,10510.924376
1611.830757,383.047749,1258.350101,9844.739029
1611.831075,995.924147,1480.411884,10362.883188
1611.831392,2068.457845,1776.494261,10214.842000
1611.831709,3447.429741,1702.473667,8512.368333
1611.832026,3983.696590,814.226536,8068.244768
1611.832344,4366.744339,-0.000000,8512.368333
1611.832661,4290.134789,592.164754,7402.059420
1611.832978,4519.963438,962.267725,6513.812290
1611.833295,3753.867940,-148.041188,7402.059420
1611.833612,1838.629195,-592.164754,9474.636058
1611.833930,1225.752797,-666.185348,10140.821405
1611.834247,459.657299,-518.144159,9844.739029
1611.834564,-459.657299,-444.123565,11251.130318
1611.834881,-842.705048,-0.000000,12361.439231
1611.835199,-919.314598,962.267725,10732.986159
1611.835516,0.000000,1480.411884,9474.636058
1611.835833,0.000000,148.041188,10955.047942
1611.836150,766.095498,148.041188,10214.842000
1611.836467,1685.410096,1332.370696,7179.997637
1611.836785,2145.067394,1628.453072,7328.038826
1611.837102,2298.286494,592.164754,7698.141797
1611.837419,1762.019645,148.041188,7105.977043
1611.837736,1225.752797,296.082377,6809.894666
1611.838054,536.266849,-222.061783,8068.244768
1611.838371,153.219100,-814.226536,10214.842000
1611.838688,-1302.362347,-222.061783,10584.944971
1611.839005,-1225.752797,-0.000000,10881.027347
1611.839323,-2451.505594,666.185348,11029.068536
1611.839640,-2068.457845,296.082377,12139.377449
1611.839957,-1762.019645,1036.288319,10510.924376
1611.840274,-1072.533697,2220.617826,9474.636058
1611.840591,-153.219100,1702.473667,10140.821405
1611.840909,0.000000,814.226536,9400.615463
1611.841226,612.876398,518.144159,8364.327145
1611.841543,995.924147,-0.000000,8290.306550
1611.841860,1378.971896,-444.123565,8586.388927
1611.842178,1608.800546,-0.000000,7772.162391
1611.842495,1685.410096,-148.041188,7105.977043
1611.842812,1149.143247,-1036.288319,8142.265362
1611.843129,612.876398,-148.041188,10066.800811
1611.843446,459.657299,-148.041188,10510.924376
1611.843764,0.000000,-0.000000,9622.677246
1611.844081,-766.095498,296.082377,12805.562797
1611.844398,-1072.533697,962.267725,12509.480420
1611.844715,0.000000,2294.638420,10658.965565
1611.845033,459.657299,2442.679609,9474.636058
1611.845350,919.314598,1110.308913,11917.315666
1611.845667,1915.238745,1406.391290,9030.512492
1611.845984,2911.162892,1258.350101,6809.894666
1611.846301,2987.772442,-444.123565,8364.327145
1611.846619,2528.115143,-518.144159,8660.409521
1611.846936,2451.505594,-0.000000,6809.894666
1611.847253,1762.019645,-0.000000,5921.647536
1611.847570,842.705048,-518.144159,8956.491898
1611.847888,153.219100,-814.226536,10732.986159
1611.848205,-383.047749,148.041188,9844.739029
1611.848522,-153.219100,444.123565,10288.862594
1611.848839,-1302.362347,370.102971,12213.398043
1611.849156,-1072.533697,370.102971,11991.336260
1611.849474,0.000000,1702.473667,10066.800811
1611.849791,459.657299,1998.556043,9696.697840
1611.850108,536.266849,740.205942,10881.027347
1611.850425,1378.971896,1702.473667,9178.553681
1611.850743,1991.848295,1702.473667,7328.038826
1611.851060,2221.676944,370.102971,8142.265362
1611.851377,1608.800546,-296.082377,7920.203579
1611.851694,2068.457845,-888.247130,7402.059420
1611.852012,1302.362347,-1184.329507,6809.894666
1611.852329,689.485948,-1332.370696,8364.327145
1611.852646,153.219100,-1702.473667,10362.883188
1611.852963,153.219100,-1554.432478,10362.883188
1611.853280,0.000000,-1036.288319,9992.780217
1611.853598,-919.314598,-888.247130,11621.233289
1611.853915,-306.438199,-148.041188,12065.356855
1611.854232,76.609550,1406.391290,9474.636058
1611.854549,612.876398,1702.473667,9548.656652
1611.854867,1072.533697,888.247130,10807.006753
1611.855184,2298.286494,1332.370696,8882.471304
1611.855501,3294.210641,1480.411884,7105.977043
1611.855818,3447.429741,888.247130,8364.327145
1611.856135,3294.210641,518.144159,7994.224174
1611.856453,3447.429741,370.102971,7105.977043
1611.856770,2987.772442,148.041188,7105.977043
1611.857087,1762.019645,-814.226536,9548.656652
1611.857404,1072.533697,-888.247130,10362.883188
1611.857722,612.876398,-666.185348,9696.697840
1611.858039,0.000000,-518.144159,10362.883188
1611.858356,-842.705048,-518.144159,11917.315666
1611.858673,0.000000,-74.020594,11399.171507
1611.858990,229.828649,1332.370696,9400.615463
1611.859308,1072.533697,1184.329507,9622.677246
1611.859625,1685.410096,1332.370696,10288.862594
1611.859942,2298.286494,2146.597232,7846.182985
1611.860259,2757.943793,2368.659014,6883.915261
1611.860577,2911.162892,1110.308913,7920.203579
1611.860894,2451.505594,1110.308913,7254.018232
1611.861211,2068.457845,888.247130,7031.956449
1611.861528,1302.362347,-0.000000,7698.141797
1611.861845,-383.047749,-1036.288319,10214.842000
1611.862163,-1532.190996,-1554.432478,11177.109724
1611.862480,-2068.457845,-1110.308913,10436.903782
1611.862797,-2451.505594,-740.205942,11473.192101
1611.863114,-2834.553343,-444.123565,12879.583391
1611.863432,-2451.505594,-0.000000,11769.274478
1611.863749,-1838.629195,1184.329507,9474.636058
1611.864066,-1149.143247,1110.308913,9918.759623
1611.864383,-459.657299,1036.288319,10584.944971
1611.864701,306.438199,1628.453072,8142.265362
1611.865018,1455.581446,1924.535449,7031.956449
1611.865335,2068.457845,1184.329507,8142.265362
1611.865652,1991.848295,296.082377,8216.285956
1611.865969,1915.238745,222.061783,7105.977043
1611.866287,1302.362347,-370.102971,7772.162391
1611.866604,536.266849,-1036.288319,9992.780217
1611.866921,0.000000,-1406.391290,11473.192101
1611.867238,-306.438199,-370.102971,10214.842000
1611.867556,-919.314598,-74.020594,11325.150913
1611.867873,-1455.581446,-0.000000,12583.501014
1611.868190,-612.876398,740.205942,11473.192101
1611.868507,0.000000,1258.350101,10140.821405
1611.868824,536.266849,1554.432478,10881.027347
1611.869142,1608.800546,666.185348,10881.027347
1611.869459,2221.676944,1332.370696,7550.100608
1611.869776,3830.477490,1036.288319,7402.059420
1611.870093,3524.039291,222.061783,8142.265362
1611.870411,3983.696590,-296.082377,7402.059420
1611.870728,3677.258390,-74.020594,5995.668130
1611.871045,2911.162892,-888.247130,7105.977043
1611.871362,1838.629195,-1554.432478,9770.718434
1611.871679,842.705048,-1406.391290,10140.821405
1611.871997,306.438199,-444.123565,10066.800811
1611.872314,-919.314598,-296.082377,11399.171507
1611.872631,-1149.143247,-0.000000,12287.418637
1611.872948,-689.485948,1258.350101,10881.027347
1611.873266,0.000000,1998.556043,9474.636058
1611.873583,459.657299,1406.391290,10214.842000
1611.873900,612.876398,518.144159,10214.842000
1611.874217,2221.676944,1110.308913,8438.347739
1611.874535,2068.457845,592.164754,7105.977043
1611.874852,2451.505594,-888.247130,8142.265362
1611.875169,2145.067394,-1702.473667,7846.182985
1611.875486,1685.410096,-1332.370696,6809.894666
1611.875803,459.657299,-1406.391290,7328.038826
1611.876121,0.000000,-1924.535449,9844.739029
1611.876438,0.000000,-592.164754,10140.821405
1611.876755,-229.828649,-0.000000,9474.636058
1611.877072,-1225.752797,370.102971,10362.883188
1611.877390,-1532.190996,222.061783,11473.192101
1611.877707,-842.705048,1036.288319,10658.965565
1611.878024,0.000000,1998.556043,9548.656652
1611.878341,459.657299,1110.308913,10584.944971
1611.878658,1302.362347,666.185348,10066.800811
1611.878976,1685.410096,666.185348,8438.347739
1611.879293,2298.286494,-74.020594,8290.306550
1611.879610,2604.724693,-666.185348,9030.512492
1611.879927,3064.381992,-222.061783,7920.203579
1611.880245,2604.724693,-0.000000,6587.832884
1611.880562,1991.848295,-444.123565,8216.285956
1611.880879,995.924147,-1036.288319,10066.800811
1611.881196,459.657299,-296.082377,9548.656652
1611.881513,76.609550,592.164754,9548.656652
1611.881831,-459.657299,518.144159,11547.212695
1611.882148,-1072.533697,962.267725,11103.089130
1611.882465,-536.266849,1332.370696,10066.800811
1611.882782,0.000000,1702.473667,9474.636058
1611.883100,229.828649,592.164754,11029.068536
1611.883417,919.314598,1258.350101,10066.800811
1611.883734,1532.190996,1480.411884,8216.285956
1611.884051,2068.457845,1036.288319,8364.327145
1611.884368,1991.848295,-74.020594,8956.491898
1611.884686,1838.629195,296.082377,7624.121203
1611.885003,1608.800546,-0.000000,6957.935855
1611.885320,383.047749,-0.000000,9326.594869
1611.885637,-229.828649,-296.082377,10732.986159
1611.885955,-536.266849,148.041188,10066.800811
1611.886272,-612.876398,592.164754,10140.821405
1611.886589,-1532.190996,-444.123565,11843.295072
1611.886906,-1378.971896,-222.061783,11843.295072
1611.887224,-536.266849,888.247130,9474.636058
1611.887541,-383.047749,592.164754,9844.739029
1611.887858,306.438199,-222.061783,11177.109724
1611.888175,1072.533697,148.041188,9992.780217
1611.888492,1455.581446,740.205942,7772.162391
1611.888810,2068.457845,666.185348,8142.265362
1611.889127,2451.505594,-0.000000,9474.636058
1611.889444,2221.676944,148.041188,7550.100608
1611.889761,2068.457845,444.123565,7402.059420
1611.890079,919.314598,-0.000000,9474.636058
1611.890396,689.485948,-814.226536,11547.212695
1611.890713,689.485948,-444.123565,10732.986159
1611.891030,689.485948,888.247130,10362.883188
1611.891347,-383.047749,296.082377,11695.253884
1611.891665,-459.657299,296.082377,11547.212695
1611.891982,383.047749,444.123565,10066.800811
1611.892299,842.705048,370.102971,9918.759623
1611.892616,1149.143247,222.061783,10510.924376
1611.892934,1762.019645,666.185348,8808.450710
1611.893251,2987.772442,888.247130,7179.997637
1611.893568,2834.553343,740.205942,7624.121203
1611.893885,2911.162892,148.041188,7920.203579
1611.894202,2298.286494,148.041188,6587.832884
1611.894520,1991.848295,-0.000000,7328.038826
1611.894837,766.095498,-962.267725,9474.636058
1611.895154,76.609550,-1258.350101,10955.047942
1611.895471,-153.219100,-592.164754,10510.924376
1611.895789,-1225.752797,-0.000000,10510.924376
1611.896106,-1532.190996,148.041188,11695.253884
1611.896423,-1149.143247,740.205942,10510.924376
1611.896740,-919.314598,1258.350101,8290.306550
1611.897057,-153.219100,518.144159,9252.574275
1611.897375,-459.657299,-444.123565,9770.718434
1611.897692,-306.438199,-296.082377,8438.347739
1611.898009,766.095498,-444.123565,7402.059420
1611.898326,383.047749,-740.205942,8216.285956
1611.898644,689.485948,-1258.350101,8586.388927
1611.898961,1378.971896,-740.205942,6661.853478
1611.899278,153.219100,-666.185348,6735.874072
1611.899595,0.000000,-1332.370696,9844.739029
1611.899913,0.000000,-1110.308913,10288.862594
1611.900230,-306.438199,-296.082377,9400.615463
1611.900547,-919.314598,-148.041188,11029.068536
1611.900864,-1149.143247,-0.000000,11991.336260
1611.901181,-536.266849,1332.370696,10140.821405
1611.901499,612.876398,1924.535449,9474.636058
1611.901816,1762.019645,1702.473667,10658.965565
1611.902133,1378.971896,1184.329507,10510.924376
1611.902450,2681.334243,1332.370696,8660.409521
1611.902768,3064.381992,1406.391290,7624.121203
1611.903085,3294.210641,370.102971,8882.471304
1611.903402,3830.477490,-0.000000,8586.388927
1611.903719,3600.648841,222.061783,6809.894666
1611.904036,3064.381992,-74.020594,7550.100608
1611.904354,2681.334243,-1110.308913,10362.883188
1611.904671,2145.067394,-1110.308913,10807.006753
1611.904988,1762.019645,-518.144159,9770.718434
1611.905305,842.705048,-0.000000,10881.027347
1611.905623,536.266849,518.144159,11547.212695
1611.905940,1685.410096,1480.411884,10510.924376
1611.906257,1991.848295,2220.617826,9104.533087
1611.906574,1685.410096,1628.453072,10066.800811
1611.906891,1685.410096,1628.453072,10510.924376
1611.907209,2145.067394,1924.535449,8290.306550
1611.907526,2451.505594,1036.288319,7476.080014
1611.907843,1532.190996,-0.000000,9030.512492
1611.908160,1378.971896,-370.102971,8956.491898
1611.908478,842.705048,-148.041188,6957.935855
1611.908795,-229.828649,-1184.329507,8364.327145
1611.909112,-1072.533697,-2368.659014,11251.130318
1611.909429,-1838.629195,-1554.432478,11325.150913
1611.909747,-1915.238745,-592.164754,10288.862594
1611.910064,-2374.896044,-666.185348,11769.274478
1611.910381,-2451.505594,148.041188,12287.418637
1611.910698,-1762.019645,2294.638420,9474.636058
1611.911015,-383.047749,2516.700203,8290.306550
1611.911333,0.000000,2072.576638,9548.656652
1611.911650,459.657299,1332.370696,9548.656652
1611.911967,1838.629195,2072.576638,7328.038826
1611.912284,2221.676944,962.267725,7402.059420
1611.912602,1378.971896,-370.102971,8808.450710
1611.912919,1149.143247,-148.041188,7846.182985
1611.913236,995.924147,444.123565,7254.018232
1611.913553,-306.438199,-148.041188,8734.430116
1611.913870,-766.095498,-1184.329507,11251.130318
1611.914188,-1225.752797,-518.144159,10732.986159
1611.914505,-1455.581446,370.102971,10436.903782
1611.914822,-1762.019645,444.123565,11547.212695
1611.915139,-1225.752797,148.041188,11843.295072
1611.915457,-612.876398,1184.329507,9992.780217
1611.915774,919.314598,2072.576638,9104.533087
1611.916091,919.314598,1554.432478,9622.677246
1611.916408,2528.115143,666.185348,9326.594869
1611.916725,3294.210641,1258.350101,7328.038826
1611.917043,3447.429741,1258.350101,7105.977043
1611.917360,3447.429741,444.123565,8216.285956
1611.917677,2911.162892,148.041188,7254.018232
1611.917994,2451.505594,148.041188,7105.977043
1611.918312,1225.752797,-370.102971,8808.450710
1611.918629,229.828649,-814.226536,10658.965565
1611.918946,-153.219100,-222.061783,10362.883188
1611.919263,-842.705048,148.041188,10732.986159
1611.919580,-1302.362347,-74.020594,11917.315666
1611.919898,-1149.143247,148.041188,11991.336260
1611.920215,-766.095498,1110.308913,9844.739029
1611.920532,-229.828649,592.164754,9622.677246
1611.920849,76.609550,-0.000000,11103.089130
1611.921167,919.314598,444.123565,9474.636058
1611.921484,1378.971896,370.102971,8216.285956
1611.921801,2298.286494,-0.000000,8068.244768
1611.922118,2451.505594,-666.185348,8956.491898
1611.922436,2757.943793,-74.020594,7105.977043
1611.922753,2221.676944,74.020594,6661.853478
1611.923070,1685.410096,-814.226536,8956.491898
1611.923387,1225.752797,-1184.329507,10362.883188
1611.923704,689.485948,-296.082377,9992.780217
1611.924022,0.000000,-74.020594,9918.759623
1611.924339,-383.047749,-0.000000,12065.356855
1611.924656,-766.095498,370.102971,11325.150913
1611.924973,383.047749,444.123565,9548.656652
1611.925291,383.047749,444.123565,9992.780217
1611.925608,1302.362347,-370.102971,11251.130318
1611.925925,2068.457845,-0.000000,9252.574275
1611.926242,2528.115143,444.123565,7698.141797
1611.926559,2911.162892,-222.061783,8586.388927
1611.926877,2911.162892,-0.000000,8660.409521
1611.927194,3217.601092,444.123565,7402.059420
1611.927511,2987.772442,444.123565,6883.915261
1611.927828,1302.362347,-296.082377,9474.636058
1611.928146,919.314598,-518.144159,10214.842000
1611.928463,229.828649,222.061783,9474.636058
1611.928780,0.000000,1110.308913,9770.718434
1611.929097,-842.705048,-0.000000,11769.274478
1611.929415,-383.047749,962.267725,10955.047942
1611.929732,76.609550,1406.391290,9252.574275
1611.930049,76.609550,888.247130,9770.718434
1611.930367,689.485948,-0.000000,10732.986159
1611.930684,306.438199,222.061783,9104.533087
1611.931001,1225.752797,444.123565,7920.203579
1611.931319,995.924147,-0.000000,8142.265362
1611.931636,459.657299,-74.020594,8660.409521
1611.931953,536.266849,222.061783,7031.956449
1611.932271,-306.438199,296.082377,7105.977043
1611.932588,-612.876398,-444.123565,9918.759623
1611.932905,-1302.362347,-370.102971,10584.944971
1611.933223,-1378.971896,-148.041188,10362.883188
1611.933540,-2068.457845,-148.041188,11029.068536
1611.933857,-2451.505594,-222.061783,12213.398043
1611.934175,-1455.581446,1036.288319,10658.965565
1611.934492,-612.876398,1776.494261,9326.594869
1611.934809,153.219100,1258.350101,9992.780217
1611.935127,766.095498,740.205942,10214.842000
1611.935444,1915.238745,1554.432478,8290.306550
1611.935761,2757.943793,1258.350101,7550.100608
1611.936079,2145.067394,222.061783,8882.471304
1611.936396,2451.505594,296.082377,8734.430116
1611.936713,2451.505594,666.185348,6957.935855
1611.937031,1608.800546,370.102971,7920.203579
1611.937348,995.924147,-518.144159,10955.047942
1611.937665,612.876398,-74.020594,11103.089130
1611.937983,536.266849,814.226536,9474.636058
1611.938300,459.657299,518.144159,11029.068536
1611.938617,0.000000,-370.102971,12657.521608
1611.938935,383.047749,-0.000000,11547.212695
1611.939252,995.924147,888.247130,9548.656652
1611.939569,1378.971896,814.226536,11251.130318
1611.939887,1991.848295,1110.308913,11029.068536
1611.940204,3370.820191,2442.679609,8438.347739
1611.940521,4136.915689,2368.659014,6883.915261
1611.940839,4290.134789,1628.453072,8364.327145
1611.941156,4060.306139,222.061783,7772.162391
1611.941473,3294.210641,-74.020594,6365.771101
1611.941791,2374.896044,-592.164754,7328.038826
1611.942108,919.314598,-1480.411884,10510.924376
1611.942425,0.000000,-1924.535449,10584.944971
1611.942743,-842.705048,-1110.308913,10658.965565
1611.943060,-1838.629195,-962.267725,11473.192101
1611.943377,-1838.629195,-666.185348,12213.398043
1611.943695,-1608.800546,222.061783,10584.944971
1611.944012,-612.876398,592.164754,9548.656652
1611.944329,0.000000,444.123565,10140.821405
1611.944647,0.000000,74.020594,9548.656652
1611.944964,1302.362347,592.164754,7920.203579
1611.945281,2068.457845,518.144159,7179.997637
1611.945599,2145.067394,296.082377,7476.080014
1611.945916,2374.896044,-0.000000,7254.018232
1611.946233,2451.505594,-0.000000,6365.771101
1611.946551,842.705048,-1184.329507,7698.141797
1611.946868,459.657299,-1924.535449,10214.842000
1611.947185,0.000000,-1258.350101,9622.677246
1611.947503,-919.314598,-222.061783,9030.512492
1611.947820,-1302.362347,-296.082377,10807.006753
1611.948137,-1915.238745,-148.041188,11769.274478
1611.948455,-1302.362347,-0.000000,9918.759623
1611.948772,-1072.533697,814.226536,9474.636058
1611.949089,-459.657299,-148.041188,11695.253884
1611.949407,153.219100,-74.020594,10510.924376
1611.949724,1608.800546,740.205942,8142.265362
1611.950041,2757.943793,814.226536,8290.306550
1611.950359,3447.429741,-296.082377,9104.533087
1611.950676,3524.039291,-222.061783,7031.956449
1611.950993,3064.381992,-0.000000,6069.688724
1611.951311,2221.676944,-370.102971,7846.182985
1611.951628,1378.971896,-1332.370696,9474.636058
1611.951945,689.485948,-962.267725,9326.594869
1611.952263,-229.828649,-296.082377,9696.697840
1611.952580,-1225.752797,-740.205942,11473.192101
1611.952897,-1455.581446,-74.020594,11769.274478
1611.953215,-306.438199,518.144159,10436.903782
1611.953532,-459.657299,296.082377,9548.656652
1611.953849,-919.314598,370.102971,10807.006753
1611.954167,76.609550,814.226536,9844.739029
1611.954484,842.705048,1480.411884,7846.182985
1611.954801,1225.752797,814.226536,8364.327145
1611.955119,1225.752797,666.185348,8734.430116
1611.955436,2068.457845,814.226536,7328.038826
1611.955753,1915.238745,1036.288319,6143.709319
1611.956071,2068.457845,-222.061783,8512.368333
1611.956388,1225.752797,-1184.329507,10807.006753
1611.956705,229.828649,-222.061783,9474.636058
1611.957023,383.047749,222.061783,9770.718434
1611.957340,-383.047749,1480.411884,11029.068536
1611.957657,153.219100,1924.535449,10955.047942
1611.957974,689.485948,2664.741391,8512.368333
1611.958292,689.485948,2442.679609,9104.533087
1611.958609,842.705048,1258.350101,9844.739029
1611.958926,1685.410096,1332.370696,9178.553681
1611.959244,1838.629195,962.267725,7846.182985
1611.959561,1915.238745,-370.102971,9622.677246
1611.959878,1915.238745,-1258.350101,10510.924376
1611.960196,1762.019645,-518.144159,8734.430116
1611.960513,1455.581446,-74.020594,8882.471304
1611.960830,919.314598,-814.226536,10732.986159
1611.961148,383.047749,-962.267725,11695.253884
1611.961465,153.219100,148.041188,10881.027347
1611.961782,383.047749,666.185348,11325.150913
1611.962100,-153.219100,1184.329507,11843.295072
1611.962417,459.657299,1406.391290,10955.047942
1611.962734,459.657299,1776.494261,9400.615463
1611.963052,1378.971896,1184.329507,9770.718434
1611.963369,1378.971896,222.061783,10732.986159
1611.963686,1608.800546,518.144159,9548.656652
1611.964004,2221.676944,518.144159,8734.430116
1611.964321,1915.238745,296.082377,8586.388927
1611.964638,1685.410096,-666.185348,9104.533087
1611.964956,612.876398,-444.123565,7624.121203
1611.965273,536.266849,-1332.370696,8512.368333
1611.965590,-1149.143247,-1110.308913,10214.842000
1611.965908,-1915.238745,-1332.370696,11325.150913
1611.966225,-2068.457845,-444.123565,10732.986159
1611.966542,-2528.115143,518.144159,11029.068536
1611.966860,-2834.553343,-0.000000,12213.398043
1611.967177,-1685.410096,666.185348,10584.944971
1611.967494,-919.314598,1184.329507,8734.430116
1611.967812,-383.047749,592.164754,9326.594869
1611.968129,383.047749,-0.000000,9622.677246
1611.968446,1455.581446,-0.000000,7846.182985
1611.968764,1991.848295,-74.020594,7402.059420
1611.969081,1915.238745,-370.102971,7698.141797
1611.969398,2298.286494,-444.123565,7402.059420
1611.969716,2221.676944,-74.020594,5477.523971
1611.970033,1302.362347,-1258.350101,6587.832884
1611.970350,536.266849,-1998.556043,9548.656652
1611.970668,0.000000,-1406.391290,9918.759623
1611.970985,-383.047749,-740.205942,9474.636058
1611.971302,-1149.143247,-222.061783,10807.006753
1611.971620,-842.705048,-370.102971,11991.336260
1611.971937,-306.438199,592.164754,10214.842000
1611.972254,383.047749,1554.432478,9474.636058
1611.972572,995.924147,592.164754,10510.924376
1611.972889,1915.238745,-0.000000,10584.944971
1611.973206,3370.820191,888.247130,8660.409521
1611.973524,4136.915689,592.164754,7328.038826
1611.973841,4136.915689,-0.000000,8068.244768
1611.974158,4673.182538,-0.000000,7179.997637
1611.974476,4596.572988,666.185348,5995.668130
1611.974793,3907.087040,-0.000000,6957.935855
1611.975110,2911.162892,-814.226536,9252.574275
1611.975428,1838.629195,-1184.329507,9770.718434
1611.975745,995.924147,-74.020594,9770.718434
1611.976062,153.219100,-74.020594,10584.944971
1611.976380,153.219100,-0.000000,11325.150913
1611.976697,229.828649,592.164754,10362.883188
1611.977014,306.438199,592.164754,9178.553681
1611.977332,383.047749,444.123565,10288.862594
1611.977649,919.314598,592.164754,10732.986159
1611.977966,1838.629195,1258.350101,8364.327145
1611.978284,1838.629195,1480.411884,7772.162391
1611.978601,1685.410096,1036.288319,8808.450710
1611.978918,2374.896044,1258.350101,8216.285956
1611.979236,1685.410096,1554.432478,6217.729913
1611.979553,919.314598,-0.000000,8290.306550
1611.979870,153.219100,-962.267725,10436.903782
1611.980188,-229.828649,-518.144159,9992.780217
1611.980505,-995.924147,-0.000000,9474.636058
1611.980822,-2068.457845,-74.020594,11473.192101
1611.981140,-2145.067394,-0.000000,11695.253884
1611.981457,-2068.457845,1480.411884,9326.594869
1611.981774,-1685.410096,1924.535449,9770.718434
1611.982092,-1762.019645,666.185348,11399.171507
1611.982409,-1378.971896,444.123565,10584.944971
1611.982726,-459.657299,1036.288319,8808.450710
1611.983044,-383.047749,444.123565,9622.677246
1611.983361,153.219100,-444.123565,10362.883188
1611.983678,459.657299,-0.000000,9400.615463
1611.983996,459.657299,296.082377,8512.368333
1611.984313,153.219100,-222.061783,10214.842000
1611.984630,76.609550,-518.144159,11843.295072
1611.984948,306.438199,-74.020594,10510.924376
1611.985265,153.219100,740.205942,10436.903782
1611.985582,-153.219100,444.123565,11325.150913
1611.985900,0.000000,666.185348,11177.109724
1611.986217,689.485948,1184.329507,9252.574275
1611.986534,1532.190996,1184.329507,9474.636058
1611.986852,1378.971896,296.082377,10066.800811
1611.987169,1378.971896,296.082377,9326.594869
1611.987486,1915.238745,888.247130,7698.141797
1611.987804,1378.971896,370.102971,8512.368333
1611.988121,1991.848295,-222.061783,9326.594869
1611.988438,1608.800546,-74.020594,8512.368333
1611.988756,1608.800546,-0.000000,7846.182985
1611.989073,612.876398,-370.102971,10066.800811
1611.989390,0.000000,-888.247130,11621.233289
1611.989708,306.438199,-222.061783,10362.883188
1611.990025,76.609550,518.144159,10140.821405
1611.990342,153.219100,592.164754,11843.295072
1611.990660,612.876398,888.247130,11103.089130
1611.990977,1915.238745,2368.659014,8216.285956
1611.991294,2221.676944,2368.659014,7772.162391
1611.991612,2528.115143,1406.391290,8734.430116
1611.991929,3217.601092,1258.350101,7402.059420
1611.992246,3677.258390,1110.308913,5699.585753
1611.992564,3447.429741,-0.000000,6809.894666
1611.992881,2451.505594,-1110.308913,7994.224174
1611.993198,2068.457845,-1406.391290,7105.977043
1611.993516,1072.533697,-1998.556043,7550.100608
1611.993833,-459.657299,-2220.617826,10288.862594
1611.994150,-766.095498,-2072.576638,11547.212695
1611.994468,-1072.533697,-1036.288319,10881.027347
1611.994785,-1378.971896,-444.123565,10955.047942
1611.995102,-1685.410096,-296.082377,12361.439231
1611.995420,-1149.143247,444.123565,11547.212695
1611.995737,-153.219100,1998.556043,9326.594869
1611.996054,919.314598,1924.535449,9252.574275
1611.996372,1685.410096,1406.391290,10140.821405
1611.996689,2451.505594,962.267725,8216.285956
1611.997006,3600.648841,962.267725,6883.915261
1611.997324,3140.991542,370.102971,7254.018232
1611.997641,3677.258390,-0.000000,7994.224174
1611.997958,3753.867940,370.102971,6587.832884
1611.998276,2911.162892,-0.000000,6439.791695
1611.998593,1762.019645,-1036.288319,9104.533087
1611.998910,306.438199,-1184.329507,10510.924376
1611.999228,-383.047749,-74.020594,9400.615463
1611.999545,-1455.581446,592.164754,9992.780217
1611.999862,-1838.629195,740.205942,12213.398043
1612.000180,-1608.800546,1628.453072,11547.212695
1612.000497,-919.314598,2146.597232,9474.636058
1612.000814,-612.876398,1554.432478,10510.924376
1612.001132,0.000000,1480.411884,10955.047942
1612.001449,1072.533697,1554.432478,8660.409521
1612.001766,1762.019645,1036.288319,7698.141797
1612.002084,2221.676944,296.082377,9252.574275
1612.002401,1915.238745,-148.041188,8290.306550
1612.002718,1762.019645,444.123565,6365.771101
1612.003036,1225.752797,-0.000000,7328.038826
1612.003353,383.047749,-444.123565,9992.780217
1612.003670,-383.047749,-444.123565,9844.739029
1612.003988,-842.705048,-148.041188,9400.615463
1612.004305,-2221.676944,-0.000000,10584.944971
1612.004622,-1991.848295,-666.185348,11991.336260
1612.004940,-1991.848295,592.164754,10288.862594
1612.005257,-1225.752797,962.267725,9844.739029
1612.005574,-1149.143247,370.102971,11029.068536
1612.005892,-766.095498,-0.000000,11843.295072
1612.006209,766.095498,-0.000000,10436.903782
1612.006526,1378.971896,296.082377,9252.574275
1612.006844,1455.581446,-74.020594,10658.965565
1612.007161,1991.848295,-0.000000,9622.677246
1612.007478,2298.286494,740.205942,7550.100608
1612.007796,2068.457845,518.144159,7994.224174
1612.008113,1991.848295,-148.041188,10362.883188
1612.008430,1838.629195,-148.041188,10066.800811
1612.008748,1532.190996,370.102971,9104.533087
1612.009065,689.485948,296.082377,10510.924376
1612.009382,842.705048,444.123565,11103.089130
1612.009700,1302.362347,740.205942,9548.656652
1612.010017,1302.362347,888.247130,8956.491898
1612.010334,1532.190996,-0.000000,10288.862594
1612.010652,1225.752797,148.041188,10214.842000
1612.010969,2145.067394,666.185348,8364.327145
1612.011286,1991.848295,666.185348,8586.388927
1612.011604,1991.848295,444.123565,9252.574275
1612.011921,1685.410096,-0.000000,8068.244768
1612.012238,1378.971896,148.041188,7254.018232
1612.012556,842.705048,-814.226536,9178.553681
1612.012873,0.000000,-1184.329507,10732.986159
1612.013190,459.657299,-888.247130,10881.027347
1612.013508,-306.438199,-592.164754,9918.759623
1612.013825,-306.438199,-444.123565,10955.047942
1612.014142,-536.266849,222.061783,10362.883188
1612.014460,229.828649,1480.411884,8290.306550
1612.014777,689.485948,1480.411884,7254.018232
1612.015094,766.095498,518.144159,8808.450710
1612.015412,995.924147,222.061783,8808.450710
1612.015729,1608.800546,740.205942,6883.915261
1612.016046,1608.800546,222.061783,7105.977043
1612.016364,995.924147,-518.144159,8290.306550
1612.016681,536.266849,-1036.288319,7476.080014
1612.016998,383.047749,-1258.350101,7031.956449
1612.017316,-536.266849,-2442.679609,9622.677246
1612.017633,-1378.971896,-2590.720797,11917.315666
1612.017950,-1762.019645,-1480.411884,11103.089130
1612.018268,-1378.971896,-0.000000,10881.027347
1612.018585,-1455.581446,-0.000000,11843.295072
1612.018902,-612.876398,666.185348,11473.192101
1612.019220,612.876398,1924.535449,8882.471304
1612.019537,1072.533697,1776.494261,8364.327145
1612.019854,1608.800546,1406.391290,9474.636058
1612.020172,2834.553343,740.205942,8512.368333
1612.020489,3753.867940,1110.308913,6957.935855
1612.020806,3753.867940,296.082377,7254.018232
1612.021124,3217.601092,-296.082377,7994.224174
1612.021441,2604.724693,-666.185348,6809.894666
1612.021758,2145.067394,-592.164754,7105.977043
1612.022076,1072.533697,-1332.370696,9844.739029
1612.022393,153.219100,-1998.556043,11917.315666
1612.022710,-842.705048,-740.205942,11251.130318
1612.023028,-842.705048,-296.082377,11547.212695
1612.023345,-995.924147,-0.000000,12435.459826
1612.023662,-229.828649,1184.329507,11325.150913
1612.023980,536.266849,2220.617826,9696.697840
1612.024297,766.095498,2220.617826,9770.718434
1612.024614,1762.019645,1628.453072,11251.130318
1612.024932,2068.457845,1554.432478,9400.615463
1612.025249,2757.943793,1702.473667,8364.327145
1612.025566,2298.286494,1036.288319,7550.100608
1612.025884,2528.115143,370.102971,8290.306550
1612.026201,2987.772442,518.144159,7105.977043
1612.026518,2681.334243,-148.041188,7476.080014
1612.026836,1455.581446,-1332.370696,9696.697840
1612.027153,306.438199,-1776.494261,11621.233289
1612.027470,-306.438199,-592.164754,10584.944971
1612.027788,-842.705048,296.082377,10658.965565
1612.028105,-1455.581446,814.226536,12509.480420
1612.028422,-1685.410096,1776.494261,11695.253884
1612.028740,-1072.533697,2738.761985,9622.677246
1612.029057,-842.705048,2516.700203,10214.842000
1612.029374,76.609550,1332.370696,11399.171507
1612.029692,842.705048,1628.453072,9474.636058
1612.030009,1762.019645,1184.329507,7328.038826
1612.030326,2298.286494,148.041188,8512.368333
1612.030644,2298.286494,-296.082377,8660.409521
1612.030961,2451.505594,-518.144159,7179.997637
1612.031278,1991.848295,-518.144159,6809.894666
1612.031596,1072.533697,-888.247130,9400.615463
1612.031913,383.047749,-1036.288319,10732.986159
1612.032230,-153.219100,-0.000000,9400.615463
1612.032548,-919.314598,518.144159,9696.697840
1612.032865,-1608.800546,740.205942,11473.192101
1612.033182,-995.924147,1702.473667,9992.780217
1612.033500,-306.438199,2294.638420,8438.347739
1612.033817,-153.219100,2072.576638,9252.574275
1612.034134,153.219100,370.102971,10362.883188
1612.034452,612.876398,1036.288319,9104.533087
1612.034769,1378.971896,296.082377,8142.265362
1612.035086,1685.410096,148.041188,9548.656652
1612.035404,1378.971896,-740.205942,9030.512492
1612.035721,1225.752797,-222.061783,7550.100608
1612.036038,842.705048,-222.061783,7698.141797
1612.036355,459.657299,-1110.308913,10066.800811
1612.036673,-229.828649,-1036.288319,10362.883188
1612.036990,0.000000,148.041188,9326.594869
1612.037307,-306.438199,-0.000000,9770.718434
1612.037625,-689.485948,296.082377,10955.047942
1612.037942,-612.876398,740.205942,9622.677246
1612.038259,-229.828649,592.164754,8586.388927
1612.038577,0.000000,148.041188,9696.697840
1612.038894,383.047749,-0.000000,10510.924376
1612.039211,612.876398,-222.061783,8882.471304
1612.039529,1302.362347,-74.020594,8586.388927
1612.039846,1072.533697,-1110.308913,9622.677246
1612.040163,1149.143247,-1776.494261,9622.677246
1612.040481,1072.533697,-1184.329507,7994.224174
1612.040798,153.219100,-1702.473667,9178.553681
1612.041115,-383.047749,-2590.720797,11769.274478
1612.041433,0.000000,-1554.432478,10658.965565
1612.041750,766.095498,296.082377,9252.574275
1612.042067,459.657299,-74.020594,11029.068536
1612.042385,766.095498,814.226536,10362.883188
1612.042702,1072.533697,1036.288319,8882.471304
1612.043019,1991.848295,1850.514855,8290.306550
1612.043337,2298.286494,962.267725,9548.656652
1612.043654,2834.553343,592.164754,9400.615463
1612.043971,3294.210641,-370.102971,8660.409521
1612.044289,3294.210641,-222.061783,8364.327145
1612.044606,2757.943793,-148.041188,9474.636058
1612.044923,3677.258390,-444.123565,8956.491898
1612.045241,3064.381992,148.041188,6957.935855
1612.045558,2451.505594,-148.041188,8364.327145
1612.045875,1072.533697,-962.267725,10436.903782
1612.046193,383.047749,-0.000000,9844.739029
1612.046510,842.705048,-0.000000,9844.739029
1612.046827,-459.657299,-296.082377,10807.006753
1612.047145,0.000000,-0.000000,11769.274478
1612.047462,842.705048,666.185348,9474.636058
1612.047779,1302.362347,740.205942,8290.306550
1612.048097,1532.190996,-222.061783,10288.862594
1612.048414,1915.238745,592.164754,9400.615463
1612.048731,2987.772442,1702.473667,7031.956449
1612.049049,2681.334243,2072.576638,6439.791695
1612.049366,2528.115143,296.082377,8956.491898
1612.049683,2068.457845,1406.391290,7105.977043
1612.050001,2221.676944,518.144159,6291.750507
1612.050318,-153.219100,-444.123565,8586.388927
1612.050635,-1225.752797,-2368.659014,11843.295072
1612.050953,-2374.896044,-1110.308913,10658.965565
1612.051270,-2451.505594,-296.082377,10807.006753
1612.051587,-2681.334243,-74.020594,12953.603985
1612.051905,-2987.772442,-0.000000,11769.274478
1612.052222,-1608.800546,1406.391290,9474.636058
1612.052539,-1225.752797,2220.617826,9178.553681
1612.052857,-536.266849,1036.288319,10140.821405
1612.053174,383.047749,1036.288319,9104.533087
1612.053491,1455.581446,1332.370696,7698.141797
1612.053809,1685.410096,740.205942,8216.285956
1612.054126,1762.019645,-74.020594,8364.327145
1612.054443,1762.019645,-0.000000,7328.038826
1612.054761,1915.238745,-0.000000,7328.038826
1612.055078,612.876398,-74.020594,9696.697840
1612.055395,-153.219100,-518.144159,10362.883188
1612.055712,-383.047749,518.144159,9992.780217
1612.056030,-766.095498,1184.329507,10510.924376
1612.056347,-1455.581446,666.185348,12435.459826
1612.056664,-1149.143247,962.267725,11769.274478
1612.056982,-459.657299,1702.473667,9992.780217
1612.057299,0.000000,1850.514855,9992.780217
1612.057616,919.314598,1184.329507,11251.130318
1612.057934,1762.019645,1036.288319,10436.903782
1612.058251,2374.896044,1628.453072,7994.224174
1612.058568,2451.505594,1184.329507,7994.224174
1612.058886,2681.334243,148.041188,8808.450710
1612.059203,3370.820191,-0.000000,7179.997637
1612.059520,2681.334243,-222.061783,6735.874072
1612.059838,1532.190996,-1184.329507,9326.594869
1612.060155,842.705048,-1406.391290,11029.068536
1612.060472,612.876398,-74.020594,9474.636058
1612.060790,383.047749,370.102971,9992.780217
1612.061107,-306.438199,-74.020594,12139.377449
1612.061424,-612.876398,666.185348,11621.233289
1612.061742,-383.047749,1776.494261,8438.347739
1612.062059,0.000000,1258.350101,10140.821405
1612.062376,229.828649,-0.000000,11029.068536
1612.062694,689.485948,296.082377,9548.656652
1612.063011,919.314598,666.185348,8216.285956
1612.063328,1532.190996,-148.041188,9696.697840
1612.063646,1685.410096,-814.226536,9030.512492
1612.063963,2145.067394,-814.226536,7772.162391
1612.064280,1915.238745,-1702.473667,8142.265362
1612.064598,842.705048,-2738.761985,9918.759623
1612.064915,842.705048,-2294.638420,10140.821405
1612.065232,842.705048,-1036.288319,9178.553681
1612.065550,306.438199,-0.000000,9400.615463
1612.065867,153.219100,222.061783,10288.862594
1612.066184,0.000000,1628.453072,8882.471304
1612.066502,536.266849,1850.514855,8216.285956
1612.066819,995.924147,666.185348,9400.615463
1612.067136,766.095498,-148.041188,10732.986159
1612.067454,1532.190996,370.102971,9400.615463
1612.067771,1455.581446,518.144159,8068.244768
1612.068088,1608.800546,-296.082377,9474.636058
1612.068406,1608.800546,-592.164754,9474.636058
1612.068723,1532.190996,-222.061783,7105.977043
1612.069040,1072.533697,296.082377,7105.977043
1612.069358,536.266849,-296.082377,10288.862594
1612.069675,153.219100,-444.123565,10288.862594
1612.069992,229.828649,-0.000000,8734.430116
1612.070310,-459.657299,-0.000000,9844.739029
1612.070627,-383.047749,-148.041188,11399.171507
1612.070944,0.000000,666.185348,9474.636058
1612.071262,1072.533697,1628.453072,7550.100608
1612.071579,689.485948,1702.473667,8734.430116
1612.071896,1685.410096,1332.370696,9104.533087
1612.072214,2145.067394,1332.370696,7179.997637
1612.072531,1991.848295,1036.288319,6957.935855
1612.072848,1149.143247,-0.000000,8956.491898
1612.073166,919.314598,-74.020594,8438.347739
1612.073483,536.266849,-0.000000,6957.935855
1612.073800,0.000000,-518.144159,9104.533087
1612.074118,-1685.410096,-1628.453072,11547.212695
1612.074435,-1608.800546,-962.267725,11547.212695
1612.074752,-1302.362347,-0.000000,10140.821405
1612.075070,-1532.190996,-0.000000,11547.212695
1612.075387,-1225.752797,148.041188,12287.418637
1612.075704,-842.705048,740.205942,9474.636058
1612.076021,0.000000,1776.494261,8808.450710
1612.076339,383.047749,666.185348,10362.883188
1612.076656,919.314598,1406.391290,9548.656652
1612.076973,2145.067394,1850.514855,8290.306550
1612.077291,2757.943793,1332.370696,7254.018232
1612.077608,2911.162892,-0.000000,9104.533087
1612.077925,2911.162892,-296.082377,8734.430116
1612.078243,2757.943793,-148.041188,7476.080014
1612.078560,1991.848295,-592.164754,8660.409521
1612.078877,995.924147,-888.247130,11325.150913
1612.079195,766.095498,-444.123565,11251.130318
1612.079512,-306.438199,740.205942,10436.903782
1612.079829,-689.485948,814.226536,12213.398043
1612.080147,-1149.143247,962.267725,12509.480420
1612.080464,229.828649,1628.453072,10955.047942
1612.080781,536.266849,2368.659014,9474.636058
1612.081099,995.924147,888.247130,11547.212695
1612.081416,1685.410096,962.267725,10288.862594
1612.081733,2528.115143,518.144159,7550.100608
1612.082051,3600.648841,888.247130,7476.080014
1612.082368,3217.601092,-0.000000,8956.491898
1612.082685,3600.648841,-222.061783,7994.224174
1612.083003,2834.553343,-0.000000,6809.894666
1612.083320,1991.848295,-888.247130,9104.533087
1612.083637,1302.362347,-814.226536,10732.986159
1612.083955,-153.219100,-222.061783,9474.636058
1612.084272,-536.266849,666.185348,8882.471304
1612.084589,-995.924147,148.041188,11103.089130
1612.084907,-766.095498,370.102971,11251.130318
1612.085224,-919.314598,814.226536,9918.759623
1612.085541,-1302.362347,962.267725,9326.594869
1612.085859,-995.924147,-0.000000,11029.068536
1612.086176,-612.876398,-0.000000,10510.924376
1612.086493,-306.438199,592.164754,8290.306550
1612.086811,306.438199,222.061783,8808.450710
1612.087128,536.266849,296.082377,8808.450710
1612.087445,1225.752797,-222.061783,7772.162391
1612.087763,1225.752797,-222.061783,6513.812290
1612.088080,1072.533697,-962.267725,8956.491898
1612.088397,306.438199,-1184.329507,9474.636058
1612.088715,153.219100,-814.226536,8512.368333
1612.089032,153.219100,-0.000000,8808.450710
1612.089349,-459.657299,-74.020594,10955.047942
1612.089667,-612.876398,814.226536,9992.780217
1612.089984,0.000000,1924.535449,8586.388927
1612.090301,0.000000,1184.329507,9474.636058
1612.090619,-306.438199,148.041188,10807.006753
1612.090936,1072.533697,-370.102971,9992.780217
1612.091253,1149.143247,-0.000000,7994.224174
1612.091571,1149.143247,-518.144159,8956.491898
1612.091888,1838.629195,-1110.308913,9548.656652
1612.092205,1838.629195,-444.123565,7624.121203
1612.092523,2374.896044,-0.000000,7328.038826
1612.092840,1762.019645,-592.164754,9474.636058
1612.093157,1378.971896,-740.205942,10510.924376
1612.093475,1915.238745,148.041188,8956.491898
1612.093792,1762.019645,1036.288319,9326.594869
1612.094109,1378.971896,888.247130,10510.924376
1612.094427,1302.362347,1332.370696,9622.677246
1612.094744,1991.848295,1776.494261,8068.244768
1612.095061,1991.848295,1332.370696,9030.512492
1612.095379,1685.410096,148.041188,9992.780217
1612.095696,2068.457845,148.041188,9030.512492
1612.096013,2068.457845,962.267725,7550.100608
1612.096330,1532.190996,296.082377,9474.636058
1612.096648,995.924147,-370.102971,9918.759623
1612.096965,1225.752797,-0.000000,8290.306550
1612.097282,536.266849,-444.123565,9178.553681
1612.097600,-536.266849,-1184.329507,11029.068536
1612.097917,-459.657299,-1554.432478,11843.295072
1612.098234,0.000000,-444.123565,10436.903782
1612.098552,-229.828649,444.123565,10732.986159
1612.098869,-306.438199,740.205942,11695.253884
1612.099186,153.219100,1628.453072,9844.739029
1612.099504,995.924147,2738.761985,7846.182985
1612.099821,1302.362347,1998.556043,8586.388927
1612.100138,1762.019645,518.144159,9696.697840
1612.100456,1608.800546,444.123565,8142.265362
1612.100773,1762.019645,814.226536,7624.121203
1612.101090,1149.143247,-296.082377,8808.450710
1612.101408,995.924147,-1036.288319,9474.636058
1612.101725,153.219100,-962.267725,8216.285956
1612.102042,-612.876398,-888.247130,9104.533087
1612.102360,-1762.019645,-1332.370696,11399.171507
1612.102677,-1915.238745,-888.247130,11695.253884
1612.102994,-1149.143247,-0.000000,10955.047942
1612.103312,-2145.067394,592.164754,11325.150913
1612.103629,-1991.848295,592.164754,12361.439231
1612.103946,-842.705048,1406.391290,10584.944971
1612.104264,0.000000,2442.679609,8956.491898
1612.104581,842.705048,1998.556043,9548.656652
1612.104898,1225.752797,1036.288319,10584.944971
1612.105216,2451.505594,1628.453072,8290.306550
1612.105533,3370.820191,1332.370696,7105.977043
1612.105850,2911.162892,814.226536,8068.244768
1612.106168,3294.210641,-0.000000,7994.224174
1612.106485,2757.943793,-148.041188,6439.791695
1612.106802,1991.848295,-814.226536,7476.080014
1612.107120,153.219100,-1998.556043,10510.924376
1612.107437,-306.438199,-1406.391290,11029.068536
1612.107754,-536.266849,-74.020594,10214.842000
1612.108072,-919.314598,-0.000000,11325.150913
1612.108389,-1225.752797,-74.020594,12731.542202
1612.108706,-842.705048,444.123565,11029.068536
1612.109024,383.047749,592.164754,9178.553681
1612.109341,536.266849,740.205942,10066.800811
1612.109658,1225.752797,148.041188,9992.780217
1612.109976,2068.457845,814.226536,7920.203579
1612.110293,2528.115143,888.247130,7105.977043
1612.110610,3217.601092,296.082377,7698.141797
1612.110928,3524.039291,-592.164754,7624.121203
1612.111245,2911.162892,-592.164754,6069.688724
1612.111562,1991.848295,-1480.411884,7920.203579
1612.111880,842.705048,-2072.576638,10362.883188
1612.112197,76.609550,-1702.473667,9770.718434
1612.112514,-306.438199,-740.205942,9622.677246
1612.112832,-766.095498,296.082377,11251.130318
1612.113149,-1149.143247,740.205942,11843.295072
1612.113466,-383.047749,1924.535449,9326.594869
1612.113784,229.828649,2072.576638,9178.553681
1612.114101,229.828649,1258.350101,10362.883188
1612.114418,689.485948,740.205942,10584.944971
1612.114736,1685.410096,962.267725,8512.368333
1612.115053,2451.505594,-148.041188,8882.471304
1612.115370,2834.553343,-592.164754,9326.594869
1612.115687,2757.943793,-222.061783,7476.080014
1612.116005,3217.601092,-296.082377,6735.874072
1612.116322,2451.505594,-1110.308913,7994.224174
1612.116639,1991.848295,-1702.473667,9844.739029
1612.116957,919.314598,-444.123565,9474.636058
1612.117274,383.047749,296.082377,9252.574275
1612.117591,-153.219100,296.082377,10510.924376
1612.117909,-536.266849,1184.329507,10658.965565
1612.118226,-612.876398,1924.535449,9178.553681
1612.118543,-306.438199,2146.597232,8364.327145
1612.118861,-306.438199,888.247130,10510.924376
1612.119178,0.000000,222.061783,11029.068536
1612.119495,153.219100,-0.000000,9474.636058
1612.119813,229.828649,-0.000000,9844.739029
1612.120130,536.266849,-518.144159,10807.006753
1612.120447,1149.143247,-592.164754,9770.718434
1612.120765,919.314598,-444.123565,7550.100608
1612.121082,1072.533697,-296.082377,9474.636058
1612.121399,459.657299,-962.267725,10658.965565
1612.121717,919.314598,-0.000000,9400.615463
1612.122034,766.095498,592.164754,8290.306550
1612.122351,-153.219100,1184.329507,10288.862594
1612.122669,-536.266849,814.226536,9622.677246
1612.122986,-306.438199,1184.329507,7698.141797
1612.123303,153.219100,1110.308913,8956.491898
1612.123621,-229.828649,444.123565,10436.903782
1612.123938,306.438199,148.041188,10066.800811
1612.124255,229.828649,296.082377,8734.430116
1612.124573,306.438199,-148.041188,9844.739029
1612.124890,0.000000,-0.000000,10140.821405
1612.125207,383.047749,-74.020594,8808.450710
1612.125525,306.438199,-0.000000,8142.265362
1612.125842,153.219100,-518.144159,10140.821405
1612.126159,-229.828649,-740.205942,11251.130318
1612.126477,0.000000,-74.020594,10362.883188
1612.126794,153.219100,222.061783,10362.883188
1612.127111,306.438199,444.123565,11103.089130
1612.127429,689.485948,1184.329507,10140.821405
1612.127746,1455.581446,2220.617826,7476.080014
1612.128063,2068.457845,1184.329507,8142.265362
1612.128381,1838.629195,444.123565,9474.636058
1612.128698,2451.505594,592.164754,8660.409521
1612.129015,2834.553343,888.247130,7105.977043
1612.129333,2757.943793,-0.000000,8808.450710
1612.129650,2221.676944,-518.144159,9918.759623
1612.129967,1532.190996,-592.164754,8290.306550
1612.130285,766.095498,-666.185348,8142.265362
1612.130602,-459.657299,-1332.370696,11251.130318
1612.130920,-689.485948,-740.205942,11843.295072
1612.131237,-612.876398,296.082377,10658.965565
1612.131554,-459.657299,740.205942,10955.047942
1612.131872,-153.219100,962.267725,11621.233289
1612.132189,229.828649,1184.329507,10436.903782
1612.132506,919.314598,1924.535449,7550.100608
1612.132824,1225.752797,1184.329507,9030.512492
1612.133141,1149.143247,296.082377,9696.697840
1612.133459,2298.286494,-0.000000,7920.203579
1612.133776,2834.553343,1554.432478,6587.832884
1612.134093,2911.162892,444.123565,7698.141797
1612.134411,2298.286494,-222.061783,7772.162391
1612.134728,1915.238745,-222.061783,6069.688724
1612.135045,919.314598,-592.164754,7254.018232
1612.135363,-689.485948,-1036.288319,9548.656652
1612.135680,-1149.143247,-1110.308913,10732.986159
1612.135998,-1685.410096,-0.000000,9770.718434
1612.136315,-2298.286494,-0.000000,11695.253884
1612.136632,-2451.505594,518.144159,12361.439231
1612.136950,-2068.457845,1258.350101,10881.027347
1612.137267,-612.876398,1776.494261,9178.553681
1612.137584,-536.266849,666.185348,10362.883188
1612.137902,229.828649,296.082377,10436.903782
1612.138219,1532.190996,444.123565,8364.327145
1612.138537,2451.505594,666.185348,7772.162391
1612.138854,2911.162892,296.082377,8512.368333
1612.139171,3370.820191,296.082377,7772.162391
1612.139489,3907.087040,814.226536,5847.626942
1612.139806,2834.553343,-370.102971,7105.977043
1612.140123,1532.190996,-1184.329507,9622.677246
1612.140441,1072.533697,-1036.288319,10140.821405
1612.140758,1302.362347,-444.123565,9918.759623
1612.141076,383.047749,370.102971,11251.130318
1612.141393,-229.828649,370.102971,12509.480420
1612.141710,0.000000,1036.288319,11177.109724
1612.142028,766.095498,1036.288319,10066.800811
1612.142345,612.876398,592.164754,11325.150913
1612.142662,919.314598,-0.000000,11769.274478
1612.142980,2221.676944,518.144159,9474.636058
1612.143297,2451.505594,1036.288319,7772.162391
1612.143615,2681.334243,-0.000000,9400.615463
1612.143932,2604.724693,-592.164754,8734.430116
1612.144249,3140.991542,-444.123565,7105.977043
1612.144567,2374.896044,-1258.350101,8142.265362
1612.144884,1378.971896,-1924.535449,10955.047942
1612.145201,995.924147,-1554.432478,10732.986159
1612.145519,766.095498,-148.041188,9622.677246
1612.145836,383.047749,814.226536,10362.883188
1612.146154,0.000000,1258.350101,10732.986159
1612.146471,0.000000,2368.659014,8586.388927
1612.146788,1072.533697,2960.823768,7994.224174
1612.147106,153.219100,2146.597232,9474.636058
1612.147423,0.000000,1332.370696,9992.780217
1612.147740,383.047749,962.267725,8586.388927
1612.148058,76.609550,370.102971,9178.553681
1612.148375,306.438199,-518.144159,9696.697840
1612.148693,842.705048,-962.267725,8956.491898
1612.149010,689.485948,-1036.288319,7772.162391
1612.149327,383.047749,-1036.288319,9326.594869
1612.149645,229.828649,-1480.411884,10140.821405
1612.149962,612.876398,-592.164754,9474.636058
1612.150279,76.609550,888.247130,8808.450710
1612.150597,-229.828649,2220.617826,9400.615463
1612.150914,-306.438199,3256.906145,8882.471304
1612.151232,689.485948,3404.947333,7846.182985
1612.151549,995.924147,2812.782580,7994.224174
1612.151866,306.438199,1850.514855,9548.656652
1612.152184,919.314598,444.123565,9696.697840
1612.152501,1225.752797,296.082377,8512.368333
1612.152818,995.924147,-740.205942,9178.553681
1612.153136,919.314598,-1110.308913,10584.944971
1612.153453,536.266849,-666.185348,9474.636058
1612.153771,229.828649,-518.144159,7994.224174
1612.154088,-536.266849,-666.185348,9696.697840
1612.154405,-1072.533697,-888.247130,12213.398043
1612.154723,-1532.190996,-0.000000,10955.047942
1612.155040,-1149.143247,814.226536,10140.821405
1612.155357,-1532.190996,518.144159,10955.047942
1612.155675,-842.705048,814.226536,10881.027347
1612.155992,229.828649,1480.411884,8068.244768
1612.156310,766.095498,1406.391290,7624.121203
