#time,accel_x,accel_y,accel_z
1736.583865,689.485948,296.082377,9474.636058
1736.584182,919.314598,592.164754,9548.656652
1736.584499,995.924147,370.102971,9548.656652
1736.584816,995.924147,222.061783,9326.594869
1736.585133,919.314598,296.082377,9474.636058
1736.585450,842.705048,296.082377,9400.615463
1736.585767,766.095498,370.102971,9326.594869
1736.586084,536.266849,-0.000000,9326.594869
1736.586401,919.314598,296.082377,9400.615463
1736.586718,766.095498,148.041188,9326.594869
1736.587035,842.705048,222.061783,9474.636058
1736.587352,842.705048,296.082377,9548.656652
1736.587669,766.095498,-0.000000,9474.636058
1736.587986,919.314598,222.061783,9474.636058
1736.588303,766.095498,222.061783,9548.656652
1736.588620,689.485948,148.041188,9400.615463
1736.588937,689.485948,296.082377,9326.594869
1736.589255,612.876398,222.061783,9474.636058
1736.589572,689.485948,296.082377,9474.636058
1736.589889,766.095498,148.041188,9400.615463
1736.590206,919.314598,222.061783,9548.656652
1736.590523,919.314598,-0.000000,9326.594869
1736.590840,842.705048,-0.000000,9548.656652
1736.591157,842.705048,296.082377,9474.636058
1736.591474,689.485948,222.061783,9326.594869
1736.591791,766.095498,370.102971,9326.594869
1736.592108,536.266849,592.164754,9770.718434
1736.592425,1072.533697,148.041188,9252.574275
1736.592742,766.095498,296.082377,9474.636058
1736.593059,536.266849,-0.000000,9474.636058
1736.593376,842.705048,-0.000000,9474.636058
1736.593693,766.095498,-74.020594,9474.636058
1736.594010,689.485948,296.082377,9548.656652
1736.594327,766.095498,296.082377,9326.594869
1736.594644,689.485948,296.082377,9326.594869
1736.594961,842.705048,222.061783,9474.636058
1736.595278,766.095498,-74.020594,9474.636058
1736.595595,536.266849,296.082377,9400.615463
1736.595912,612.876398,296.082377,9770.718434
1736.596229,536.266849,370.102971,9474.636058
1736.596546,612.876398,222.061783,9326.594869
1736.596863,766.095498,-148.041188,9474.636058
1736.597180,689.485948,-0.000000,9474.636058
1736.597497,612.876398,370.102971,9400.615463
1736.597814,842.705048,296.082377,9474.636058
1736.598131,612.876398,222.061783,9474.636058
1736.598448,842.705048,222.061783,9400.615463
1736.598765,919.314598,444.123565,9474.636058
1736.599082,689.485948,148.041188,9474.636058
1736.599399,919.314598,296.082377,9548.656652
1736.599716,995.924147,-0.000000,9326.594869
1736.600033,919.314598,-148.041188,9400.615463
1736.600350,612.876398,296.082377,9252.574275
1736.600667,689.485948,-0.000000,9474.636058
1736.600984,689.485948,148.041188,9474.636058
1736.601301,612.876398,148.041188,9326.594869
1736.601618,612.876398,148.041188,9474.636058
1736.601935,612.876398,-0.000000,9474.636058
1736.602252,766.095498,296.082377,9474.636058
1736.602569,766.095498,222.061783,9474.636058
1736.602886,995.924147,222.061783,9326.594869
1736.603203,689.485948,222.061783,9400.615463
1736.603520,1072.533697,444.123565,9474.636058
1736.603837,766.095498,370.102971,9474.636058
1736.604154,536.266849,296.082377,9474.636058
1736.604471,229.828649,-0.000000,9474.636058
1736.604788,766.095498,-0.000000,9326.594869
1736.605105,842.705048,222.061783,9474.636058
1736.605422,842.705048,222.061783,9474.636058
1736.605739,919.314598,222.061783,9400.615463
1736.606056,919.314598,-0.000000,9252.574275
1736.606373,842.705048,148.041188,9474.636058
1736.606690,612.876398,222.061783,9178.553681
1736.607007,689.485948,-0.000000,9400.615463
1736.607324,459.657299,444.123565,9474.636058
1736.607641,536.266849,-0.000000,9474.636058
1736.607958,689.485948,222.061783,9474.636058
1736.608275,689.485948,222.061783,9326.594869
1736.608592,612.876398,370.102971,9474.636058
1736.608909,842.705048,-0.000000,9548.656652
1736.609226,612.876398,296.082377,9548.656652
1736.609543,995.924147,296.082377,9474.636058
1736.609860,689.485948,-0.000000,9252.574275
1736.610177,919.314598,-0.000000,9326.594869
1736.610494,919.314598,-0.000000,9400.615463
1736.610811,536.266849,296.082377,9474.636058
1736.611128,689.485948,222.061783,9400.615463
1736.611445,919.314598,222.061783,9400.615463
1736.611762,612.876398,222.061783,9474.636058
1736.612079,766.095498,148.041188,9474.636058
1736.612396,766.095498,370.102971,9474.636058
1736.612713,536.266849,148.041188,9400.615463
1736.613030,612.876398,296.082377,9622.677246
1736.613347,766.095498,222.061783,9400.615463
1736.613664,459.657299,222.061783,9622.677246
1736.613981,689.485948,370.102971,9474.636058
1736.614298,689.485948,370.102971,9474.636058
1736.614615,536.266849,-0.000000,9400.615463
1736.614932,919.314598,-0.000000,9400.615463
1736.615249,919.314598,222.061783,9474.636058
1736.615566,612.876398,370.102971,9400.615463
1736.615883,689.485948,444.123565,9696.697840
1736.616200,612.876398,222.061783,9252.574275
1736.616517,612.876398,148.041188,9400.615463
1736.616834,842.705048,370.102971,9474.636058
1736.617151,842.705048,296.082377,9400.615463
1736.617468,766.095498,-0.000000,9474.636058
1736.617785,919.314598,296.082377,9474.636058
1736.618102,766.095498,222.061783,9326.594869
1736.618419,766.095498,370.102971,9474.636058
1736.618736,689.485948,-0.000000,9622.677246
1736.619053,612.876398,296.082377,9548.656652
1736.619370,689.485948,-222.061783,9474.636058
1736.619687,842.705048,222.061783,9326.594869
1736.620004,842.705048,222.061783,9474.636058
1736.620321,689.485948,-0.000000,9400.615463
1736.620638,459.657299,-0.000000,9326.594869
1736.620955,536.266849,-296.082377,9400.615463
1736.621272,612.876398,-666.185348,9326.594869
1736.621589,383.047749,-740.205942,9400.615463
1736.621906,459.657299,-814.226536,9400.615463
1736.622223,306.438199,-740.205942,9622.677246
1736.622540,383.047749,-1258.350101,9104.533087
1736.622857,459.657299,-962.267725,9178.553681
1736.623174,153.219100,-740.205942,8734.430116
1736.623491,153.219100,-814.226536,8512.368333
1736.623808,-383.047749,-1036.288319,8512.368333
1736.624125,0.000000,-1332.370696,8438.347739
1736.624442,-536.266849,-1998.556043,8660.409521
1736.624759,-842.705048,-2146.597232,8956.491898
1736.625076,-1072.533697,-2294.638420,9104.533087
1736.625393,-536.266849,-1924.535449,9400.615463
1736.625710,-1302.362347,-1924.535449,9252.574275
1736.626027,-842.705048,-1628.453072,8660.409521
1736.626344,-1149.143247,-1554.432478,8734.430116
1736.626661,-1225.752797,-1480.411884,8586.388927
1736.626978,-1838.629195,-2294.638420,9104.533087
1736.627295,-1378.971896,-2516.700203,8882.471304
1736.627612,-1378.971896,-2516.700203,9400.615463
1736.627929,-1532.190996,-2664.741391,9622.677246
1736.628246,-1838.629195,-2664.741391,9918.759623
1736.628563,-1915.238745,-2368.659014,9918.759623
1736.628880,-1991.848295,-1850.514855,9548.656652
1736.629197,-2298.286494,-1998.556043,9548.656652
1736.629514,-2374.896044,-1850.514855,9252.574275
1736.629831,-2528.115143,-2442.679609,9252.574275
1736.630148,-2451.505594,-3404.947333,9252.574275
1736.630465,-2604.724693,-3478.967927,9548.656652
1736.630782,-3140.991542,-4293.194464,9992.780217
1736.631099,-3753.867940,-4663.297435,10436.903782
1736.631416,-4060.306139,-4367.215058,10732.986159
1736.631733,-3907.087040,-4367.215058,10881.027347
1736.632050,-4366.744339,-3627.009116,10732.986159
1736.632367,-3830.477490,-3404.947333,10362.883188
1736.632684,-4060.306139,-3552.988522,10362.883188
1736.633001,-3217.601092,-3997.112087,10362.883188
1736.633318,-3370.820191,-3997.112087,10214.842000
1736.633635,-3447.429741,-4219.173869,9844.739029
1736.633952,-3294.210641,-3997.112087,9548.656652
1736.634269,-3983.696590,-3701.029710,9178.553681
1736.634586,-3830.477490,-3182.885551,9400.615463
1736.634903,-4213.525239,-3330.926739,9474.636058
1736.635220,-4519.963438,-3478.967927,10066.800811
1736.635537,-4136.915689,-2960.823768,10436.903782
1736.635854,-3830.477490,-2812.782580,10658.965565
1736.636171,-3217.601092,-2294.638420,10584.944971
1736.636488,-2911.162892,-2072.576638,10436.903782
1736.636805,-2451.505594,-1480.411884,9696.697840
1736.637122,-1762.019645,-814.226536,9104.533087
1736.637439,-1455.581446,-518.144159,8882.471304
1736.637756,0.000000,-740.205942,8734.430116
1736.638073,0.000000,-592.164754,8882.471304
1736.638390,229.828649,-1184.329507,9400.615463
1736.638707,689.485948,-1406.391290,9474.636058
1736.639024,995.924147,-1776.494261,9474.636058
1736.639341,995.924147,-1850.514855,9474.636058
1736.639658,1149.143247,-1258.350101,9104.533087
1736.639975,1685.410096,-962.267725,8660.409521
1736.640292,2221.676944,-592.164754,8364.327145
1736.640609,2528.115143,-1036.288319,8438.347739
1736.640926,1838.629195,-1406.391290,8438.347739
1736.641243,1302.362347,-2072.576638,8734.430116
1736.641560,76.609550,-2516.700203,8882.471304
1736.641877,-612.876398,-2738.761985,9030.512492
1736.642194,-919.314598,-3182.885551,9770.718434
1736.642511,-1378.971896,-2368.659014,9696.697840
1736.642828,-1762.019645,-2072.576638,9696.697840
1736.643145,-1685.410096,-2442.679609,10288.862594
1736.643462,-2145.067394,-2516.700203,10584.944971
1736.643779,-2068.457845,-2294.638420,10881.027347
1736.644096,-2145.067394,-1850.514855,10362.883188
1736.644413,-1991.848295,-1998.556043,10140.821405
1736.644730,-1915.238745,-1628.453072,10436.903782
1736.645047,-1455.581446,-1480.411884,11251.130318
1736.645364,-1532.190996,-1332.370696,11399.171507
1736.645681,-1072.533697,-0.000000,10658.965565
1736.645998,-536.266849,1258.350101,8956.491898
1736.646315,-153.219100,1776.494261,7698.141797
1736.646632,0.000000,1110.308913,7550.100608
1736.646949,-153.219100,-148.041188,8290.306550
1736.647266,-383.047749,-1776.494261,9548.656652
1736.647583,0.000000,-1850.514855,10362.883188
1736.647900,0.000000,-666.185348,8956.491898
1736.648217,0.000000,222.061783,7994.224174
1736.648534,-766.095498,444.123565,7920.203579
1736.648851,-1762.019645,-74.020594,9104.533087
1736.649168,-3753.867940,-148.041188,8364.327145
1736.649485,-3753.867940,-666.185348,9474.636058
1736.649802,-4519.963438,-296.082377,9178.553681
1736.650119,-4673.182538,-1258.350101,9622.677246
1736.650436,-4979.620737,-2886.803174,10288.862594
1736.650753,-5439.278036,-2886.803174,11547.212695
1736.651070,-5439.278036,-3256.906145,12139.377449
1736.651387,-4903.011187,-2664.741391,11695.253884
1736.651704,-3447.429741,-2146.597232,11843.295072
1736.652021,-4290.134789,-666.185348,11029.068536
1736.652338,-1915.238745,-222.061783,11029.068536
1736.652655,-1532.190996,-0.000000,8660.409521
1736.652972,0.000000,-814.226536,9030.512492
1736.653289,536.266849,-1110.308913,8882.471304
1736.653606,0.000000,-1036.288319,8512.368333
1736.653923,383.047749,-2294.638420,8512.368333
1736.654240,-919.314598,-3256.906145,8586.388927
1736.654557,-306.438199,-3701.029710,9252.574275
1736.654874,-842.705048,-3034.844362,8808.450710
1736.655191,-1455.581446,-2738.761985,8956.491898
1736.655508,-919.314598,-3701.029710,9178.553681
1736.655825,-1838.629195,-4145.153275,10066.800811
1736.656142,-2298.286494,-4589.276840,11547.212695
1736.656459,-2451.505594,-5181.441594,11991.336260
1736.656776,-2451.505594,-4959.379811,11695.253884
1736.657093,-1838.629195,-4589.276840,12065.356855
1736.657410,-1378.971896,-2886.803174,10362.883188
1736.657727,76.609550,-1776.494261,10732.986159
1736.658044,1762.019645,-1850.514855,10658.965565
1736.658361,2298.286494,-1628.453072,9326.594869
1736.658679,2834.553343,-1628.453072,8068.244768
1736.658996,3753.867940,-1258.350101,8142.265362
1736.659313,3294.210641,-1702.473667,7254.018232
1736.659631,3907.087040,-2812.782580,8142.265362
1736.659948,2604.724693,-2368.659014,6291.750507
1736.660265,1532.190996,-1998.556043,5477.523971
1736.660582,1302.362347,-2664.741391,6365.771101
1736.660900,-842.705048,-3478.967927,8216.285956
1736.661217,-2451.505594,-4737.318029,8290.306550
1736.661534,-4673.182538,-7031.956449,11325.150913
1736.661852,-4903.011187,-6439.791695,12509.480420
1736.662169,-4596.572988,-5107.421000,13323.706956
1736.662486,-2528.115143,-2664.741391,8734.430116
1736.662804,-3524.039291,-1480.411884,9622.677246
1736.663121,-3064.381992,-666.185348,10214.842000
1736.663438,-3217.601092,-1998.556043,10807.006753
1736.663756,-919.314598,-518.144159,9326.594869
1736.664073,-766.095498,-1332.370696,9178.553681
1736.664390,-842.705048,370.102971,6439.791695
1736.664708,-1225.752797,-1924.535449,7179.997637
1736.665025,-1915.238745,-2294.638420,7624.121203
1736.665342,-1762.019645,-3775.050304,9326.594869
1736.665660,-2834.553343,-814.226536,7105.977043
1736.665977,-2911.162892,-2960.823768,7254.018232
1736.666294,-4060.306139,-1998.556043,8808.450710
1736.666612,-3907.087040,-3330.926739,10436.903782
1736.666929,-4673.182538,-3404.947333,9844.739029
1736.667246,-3907.087040,-4663.297435,12213.398043
1736.667564,-3447.429741,-3330.926739,14137.933492
1736.667881,-1838.629195,-1702.473667,11473.192101
1736.668198,-612.876398,-666.185348,10066.800811
1736.668516,0.000000,592.164754,8956.491898
1736.668833,612.876398,1036.288319,8882.471304
1736.669150,1072.533697,2442.679609,6291.750507
1736.669468,2145.067394,518.144159,6069.688724
1736.669785,1225.752797,148.041188,7402.059420
1736.670102,-459.657299,-1332.370696,8808.450710
1736.670420,-2374.896044,-1480.411884,8216.285956
1736.670737,-2374.896044,-3034.844362,9622.677246
1736.671054,-3447.429741,-3256.906145,11695.253884
1736.671372,-4443.353888,-2812.782580,11473.192101
1736.671689,-3753.867940,-2072.576638,11991.336260
1736.672006,-3983.696590,-2072.576638,12435.459826
1736.672324,-1532.190996,-2368.659014,13027.624579
1736.672641,-1685.410096,-1998.556043,10881.027347
1736.672958,0.000000,-518.144159,9696.697840
1736.673276,229.828649,-888.247130,9548.656652
1736.673593,1838.629195,-74.020594,9252.574275
1736.673910,2298.286494,-444.123565,7179.997637
1736.674228,1685.410096,-296.082377,6587.832884
1736.674545,229.828649,-962.267725,8290.306550
1736.674862,-995.924147,-1628.453072,8438.347739
1736.675180,-1991.848295,-2590.720797,7698.141797
1736.675497,-2834.553343,-2738.761985,9622.677246
1736.675814,-5439.278036,-3552.988522,11325.150913
1736.676132,-5515.887586,-2590.720797,11399.171507
1736.676449,-5822.325785,-3627.009116,12953.603985
1736.676766,-5515.887586,-2590.720797,13915.871710
1736.677084,-3907.087040,-2590.720797,14137.933492
1736.677401,-3140.991542,-1036.288319,13693.809927
1736.677718,0.000000,-1406.391290,12139.377449
1736.678036,1302.362347,-592.164754,10881.027347
1736.678353,3064.381992,888.247130,7105.977043
1736.678670,4596.572988,1480.411884,4515.256246
1736.678988,3983.696590,1998.556043,2812.782580
1736.679305,2911.162892,-1110.308913,4145.153275
1736.679622,536.266849,-1554.432478,3701.029710
1736.679940,-2221.676944,-4219.173869,6513.812290
1736.680257,-4596.572988,-3997.112087,9178.553681
1736.680574,-6588.421283,-6365.771101,11695.253884
1736.680892,-7354.516781,-4663.297435,12583.501014
1736.681209,-7660.954980,-4219.173869,14656.077652
1736.681526,-6588.421283,-2960.823768,15914.427753
1736.681844,-3600.648841,-2368.659014,14063.912898
1736.682161,-1072.533697,-1480.411884,11991.336260
1736.682478,689.485948,-2368.659014,10955.047942
1736.682796,3753.867940,-2516.700203,11917.315666
1736.683113,4290.134789,-1184.329507,6661.853478
1736.683430,6205.373534,-1850.514855,4367.215058
1736.683748,3524.039291,-1406.391290,2516.700203
1736.684065,2221.676944,-2812.782580,5107.421000
1736.684382,-306.438199,-3182.885551,4737.318029
1736.684699,-1991.848295,-3256.906145,6735.874072
1736.685017,-3370.820191,-2368.659014,6365.771101
1736.685334,-6205.373534,-2516.700203,6365.771101
1736.685651,-8350.440928,-3997.112087,8142.265362
1736.685969,-9652.803275,-7698.141797,15322.262999
1736.686286,-9422.974625,-9770.718434,18209.066173
1736.686603,-8427.050478,-9474.636058,19615.457463
1736.686921,-4443.353888,-5255.462188,18801.230927
1736.687238,-1149.143247,-3034.844362,16950.716072
1736.687555,3524.039291,1036.288319,12139.377449
1736.687873,6894.859482,2738.761985,9326.594869
1736.688190,9729.412825,5107.421000,4515.256246
1736.688507,12257.527968,4367.215058,3775.050304
1736.688825,14555.814462,5033.400406,1924.535449
1736.689142,13483.280765,2812.782580,-1776.494261
1736.689459,9959.241474,1776.494261,-1110.308913
1736.689777,5286.058936,-888.247130,1628.453072
1736.690094,459.657299,-2220.617826,3627.009116
1736.690411,-2528.115143,-4071.132681,7328.038826
1736.690729,-5669.106685,-3997.112087,13841.851115
1736.691046,-6588.421283,-2516.700203,16358.551318
1736.691363,-4673.182538,-1332.370696,16802.674883
1736.691681,-1455.581446,-2072.576638,16580.613101
1736.691998,2298.286494,-2516.700203,17912.983796
1736.692315,4290.134789,-740.205942,16654.633695
1736.692633,8733.488677,2294.638420,13323.706956
1736.692950,12257.527968,6587.832884,8364.327145
1736.693267,14402.595362,9400.615463,1628.453072
1736.693585,13023.623466,10955.047942,-2516.700203
1736.693902,11338.213370,9474.636058,-740.205942
1736.694219,7660.954980,6143.709319,1998.556043
1736.694537,4136.915689,5847.626942,1702.473667
1736.694854,-1455.581446,4145.153275,3849.070898
1736.695171,-5822.325785,2516.700203,6587.832884
1736.695489,-9499.584175,-1110.308913,11029.068536
1736.695806,-10801.946522,-5181.441594,15470.304188
1736.696123,-10878.556072,-5699.585753,18505.148550
1736.696441,-8580.269578,-2812.782580,19245.354492
1736.696758,-5745.716235,-592.164754,19911.539840
1736.697075,-2528.115143,2146.597232,16876.695478
1736.697393,383.047749,2368.659014,14804.118840
1736.697710,919.314598,4885.359217,10436.903782
1736.698027,3370.820191,5921.647536,9622.677246
1736.698345,5439.278036,8512.368333,5847.626942
1736.698662,7737.564530,9992.780217,3478.967927
1736.698979,6818.249932,11399.171507,0.000000
1736.699297,4060.306139,9326.594869,-888.247130
1736.699614,-306.438199,4959.379811,-296.082377
1736.699931,-4366.744339,-296.082377,7476.080014
1736.700249,-8120.612279,-3997.112087,9844.739029
1736.700566,-10725.336972,-5033.400406,16136.489536
1736.700883,-11721.261119,-3775.050304,18653.189738
1736.701201,-10801.946522,-2886.803174,19097.313304
1736.701518,-8503.660028,-3034.844362,18061.024985
1736.701835,-5209.449386,-3108.864956,20429.683999
1736.702153,-2528.115143,-1184.329507,17394.839637
1736.702470,3600.648841,666.185348,15840.407159
1736.702787,8427.050478,2738.761985,11103.089130
1736.703105,11491.432470,3330.926739,7179.997637
1736.703422,13100.233016,3923.091493,3108.864956
1736.703739,11414.822920,4515.256246,1258.350101
1736.704057,8427.050478,4367.215058,1258.350101
1736.704374,5592.497135,4663.297435,740.205942
1736.704691,1378.971896,4737.318029,2664.741391
1736.705009,-2374.896044,1258.350101,6291.750507
1736.705326,-6128.763984,-2590.720797,10066.800811
1736.705643,-7048.078582,-6809.894666,14434.015869
1736.705961,-5745.716235,-9030.512492,17468.860231
1736.706278,-4060.306139,-9918.759623,19023.292709
1736.706595,-1915.238745,-8882.471304,18949.272115
1736.706913,2221.676944,-7402.059420,17912.983796
1736.707230,5362.668486,-5477.523971,15618.345376
1736.707547,9576.193725,-2886.803174,11473.192101
1736.707865,11108.384721,962.267725,7476.080014
1736.708182,12257.527968,5181.441594,3923.091493
1736.708499,13483.280765,7624.121203,-888.247130
1736.708816,11491.432470,9252.574275,-2442.679609
1736.709134,7814.174080,6143.709319,-2664.741391
1736.709451,3447.429741,2516.700203,-1924.535449
1736.709768,-1915.238745,-2072.576638,1184.329507
1736.710086,-3370.820191,-5995.668130,6957.935855
1736.710403,-5592.497135,-7846.182985,10214.842000
1736.710720,-5669.106685,-8808.450710,14434.015869
1736.711038,-5515.887586,-8512.368333,16284.530724
1736.711355,-4903.011187,-8216.285956,15988.448347
1736.711672,-2757.943793,-7846.182985,18801.230927
1736.711990,229.828649,-5033.400406,17690.922014
1736.712307,4136.915689,-1702.473667,13693.809927
1736.712624,7737.564530,1998.556043,7698.141797
1736.712942,10725.336972,5995.668130,3108.864956
1736.713259,11874.480219,7994.224174,-2146.597232
1736.713576,11031.775171,8364.327145,-4367.215058
1736.713894,7201.297681,7402.059420,-5181.441594
1736.714211,1378.971896,5699.585753,-3849.070898
1736.714528,-3753.867940,1702.473667,814.226536
1736.714846,-9193.145976,-2368.659014,6291.750507
1736.715163,-11874.480219,-5033.400406,11843.295072
1736.715480,-12793.794817,-6735.874072,17394.839637
1736.715798,-12334.137518,-6883.915261,18357.107362
1736.716115,-10725.336972,-4515.256246,20059.581028
1736.716432,-6741.640382,-2960.823768,20873.807564
1736.716750,-2451.505594,-2072.576638,18283.086767
1736.717067,1608.800546,-1258.350101,16802.674883
1736.717384,5745.716235,1406.391290,13101.645173
1736.717702,9652.803275,5773.606348,7402.059420
1736.718019,12717.185267,9844.739029,3404.947333
1736.718336,11874.480219,13545.768739,-2738.761985
1736.718654,9499.584175,14285.974681,-3923.091493
1736.718971,4826.401637,12731.542202,-3701.029710
1736.719288,-612.876398,8734.430116,-962.267725
1736.719606,-5898.935335,2960.823768,3552.988522
1736.719923,-10112.460574,-2220.617826,9622.677246
1736.720240,-11031.775171,-5329.482782,15248.242405
1736.720558,-11108.384721,-7476.080014,18801.230927
1736.720875,-10648.727422,-7772.162391,22354.219448
1736.721192,-8886.707777,-7328.038826,24204.734303
1736.721510,-5515.887586,-3849.070898,23982.672521
1736.721827,-1378.971896,740.205942,22650.301825
1736.722144,3370.820191,3256.906145,19393.395680
1736.722462,8886.707777,8216.285956,14582.057057
1736.722779,14172.766713,12435.459826,9474.636058
1736.723096,17390.367805,14285.974681,2590.720797
1736.723414,17237.148705,14434.015869,-3627.009116
1736.723731,15015.471761,10584.944971,-6143.709319
1736.724048,9193.145976,6883.915261,-4515.256246
1736.724366,2374.896044,1850.514855,0.000000
1736.724683,-3217.601092,-2368.659014,6143.709319
1736.725000,-7584.345430,-4959.379811,10955.047942
1736.725318,-9729.412825,-5477.523971,16506.592507
1736.725635,-9269.755526,-7402.059420,21910.095883
1736.725952,-9882.631924,-8068.244768,23612.569550
1736.726270,-6818.249932,-8660.409521,27535.661042
1736.726587,-2911.162892,-7328.038826,25907.207970
1736.726904,2987.772442,-3923.091493,21317.931130
1736.727222,8503.660028,-518.144159,16358.551318
1736.727539,13253.452115,4145.153275,8956.491898
1736.727856,17390.367805,7550.100608,3775.050304
1736.728174,18999.168350,10140.821405,-740.205942
1736.728491,16854.100956,10955.047942,-5847.626942
1736.728808,12410.747068,10214.842000,-7179.997637
1736.729126,5132.839837,7994.224174,-5551.544565
1736.729443,-1378.971896,1850.514855,-1628.453072
1736.729760,-7660.954980,-3997.112087,2886.803174
1736.730078,-9576.193725,-6291.750507,8068.244768
1736.730395,-10495.508323,-7994.224174,13841.851115
1736.730712,-12027.699319,-9844.739029,16580.613101
1736.731030,-13100.233016,-13101.645173,17690.922014
1736.731347,-10265.679673,-13915.871710,22946.384202
1736.731664,-7354.516781,-9696.697840,23760.610738
1736.731981,-2987.772442,-6661.853478,20873.807564
1736.732299,842.705048,-4663.297435,15322.262999
1736.732616,8120.612279,4737.318029,9844.739029
1736.732933,13023.623466,8586.388927,3775.050304
1736.733251,14402.595362,9992.780217,-5699.585753
1736.733568,13406.671215,11547.212695,-7328.038826
1736.733885,9116.536426,11251.130318,-11843.295072
1736.734203,4290.134789,5921.647536,-10881.027347
1736.734520,-2451.505594,2664.741391,-4737.318029
1736.734837,-8120.612279,-4515.256246,2442.679609
1736.735155,-13330.061665,-7624.121203,5107.421000
1736.735472,-14785.643111,-8438.347739,12879.583391
1736.735789,-14632.424012,-17098.757260,25167.002028
1736.736107,-16164.615008,-11473.192101,14211.954086
1736.736424,-10648.727422,-13619.789333,31162.670158
1736.736741,-10112.460574,-11029.068536,29460.196492
1736.737059,-612.876398,-4589.276840,23834.631332
1736.737376,9116.536426,2368.659014,19097.313304
1736.737693,13866.328514,7179.997637,11399.171507
1736.738011,20378.140247,12287.418637,5403.503377
1736.738328,21297.454844,16580.613101,-8216.285956
1736.738645,20837.797546,17912.983796,-7179.997637
1736.738963,17313.758255,13989.892304,-13323.706956
1736.739280,10189.070123,9474.636058,-10881.027347
1736.739597,3447.429741,4515.256246,-4737.318029
1736.739915,-4749.792088,-2960.823768,1850.514855
1736.740232,-10342.289223,-11399.171507,6217.729913
1736.740549,-13023.623466,-13693.809927,17024.736666
1736.740867,-14709.033562,-14730.098246,23020.404796
1736.741184,-16164.615008,-18949.272115,26055.249158
1736.741501,-11644.651570,-17024.736666,33087.205607
1736.741819,-7277.907231,-11029.068536,31162.670158
1736.742136,-919.314598,-2368.659014,27683.702231
1736.742453,6894.859482,2960.823768,23760.610738
1736.742771,13636.499864,10955.047942,16580.613101
1736.743088,21374.064394,19245.354492,6217.729913
1736.743405,22523.207641,24426.796086,-5107.421000
1736.743723,20148.311597,21317.931130,-11325.150913
1736.744040,17620.196454,17542.880825,-12065.356855
1736.744357,13406.671215,11843.295072,-12657.521608
1736.744675,4673.182538,4145.153275,-8438.347739
1736.744992,-3294.210641,-3330.926739,0.000000
1736.745309,-8580.269578,-9400.615463,6883.915261
1736.745627,-13866.328514,-13027.624579,15100.201217
1736.745944,-16088.005458,-16284.530724,28053.805202
1736.746261,-18309.682402,-16136.489536,32717.102636
1736.746579,-19228.997000,-12879.583391,24500.816680
1736.746896,-12104.308868,-10510.924376,32495.040854
1736.747213,-7967.393179,-3627.009116,33013.185013
1736.747531,-1685.410096,6587.832884,21095.869347
1736.747848,9806.022374,10214.842000,14211.954086
1736.748165,14249.376263,17912.983796,5107.421000
1736.748483,18309.682402,20281.642811,-2590.720797
1736.748800,19382.216099,20429.683999,-10436.903782
1736.749117,15858.176809,16654.633695,-9992.780217
1736.749435,11874.480219,11325.150913,-11843.295072
1736.749752,3830.477490,6735.874072,-8290.306550
1736.750069,-3140.991542,1702.473667,-5181.441594
1736.750387,-9729.412825,-5107.421000,3627.009116
1736.750704,-16011.395908,-11991.336260,10436.903782
1736.751021,-17007.320056,-13841.851115,24204.734303
1736.751339,-18845.949251,-19467.416275,27091.537477
1736.751656,-23059.474490,-18801.230927,20873.807564
1736.751973,-18079.853753,-19319.375086,33827.411549
1736.752291,-12870.404366,-11769.274478,33087.205607
1736.752608,-3830.477490,1850.514855,24352.775492
1736.752925,6205.373534,8734.430116,14137.933492
1736.753243,13023.623466,14656.077652,9178.553681
1736.753560,18616.120601,18949.272115,-222.061783
1736.753877,17160.539155,15692.365970,-2664.741391
1736.754195,20531.359346,12287.418637,-9474.636058
1736.754512,16317.834107,9992.780217,-16728.654289
1736.754829,11491.432470,7254.018232,-9400.615463
1736.755147,3753.867940,814.226536,-8068.244768
1736.755464,-3064.381992,-5921.647536,-1258.350101
1736.755781,-6665.030833,-10732.986159,8216.285956
1736.756098,-12104.308868,-11917.315666,18727.210333
1736.756416,-13176.842566,-16062.468941,21910.095883
1736.756733,-17007.320056,-22132.157666,18875.251521
1736.757050,-12717.185267,-24500.816680,33161.226202
1736.757368,-10112.460574,-17912.983796,34567.617491
1736.757685,153.219100,-5255.462188,25611.125593
1736.758002,10878.556072,1850.514855,20725.766376
1736.758320,15781.567259,14508.036463,8290.306550
1736.758637,20761.187996,17912.983796,1850.514855
1736.758954,26123.856482,15174.221811,370.102971
1736.759272,24361.836836,17987.004391,-12435.459826
1736.759589,24361.836836,16062.468941,-14137.933492
1736.759906,16700.881856,12805.562797,-14582.057057
1736.760224,9193.145976,7550.100608,-13545.768739
1736.760541,2834.553343,888.247130,-4737.318029
1736.760859,-4903.011187,-9326.594869,4737.318029
1736.761176,-10418.898773,-12879.583391,14285.974681
1736.761493,-18156.463303,-16802.674883,13989.892304
1736.761811,-19612.044749,-23020.404796,25907.207970
1736.762128,-22063.550342,-23982.672521,32791.123231
1736.762446,-18616.120601,-21317.931130,33975.452738
1736.762763,-10418.898773,-15618.345376,31088.649564
1736.763080,-2834.553343,-2886.803174,27905.764013
1736.763398,5362.668486,10584.944971,19689.478057
1736.763715,15168.690860,15618.345376,10140.821405
1736.764033,15475.129060,20207.622217,518.144159
1736.764350,25204.541884,20429.683999,-962.267725
1736.764667,21220.845295,27387.619854,-14508.036463
1736.764985,21833.721693,23908.651927,-21243.910535
1736.765302,13789.718964,14063.912898,-22946.384202
1736.765620,2987.772442,6365.771101,-12213.398043
1736.765937,-4443.353888,296.082377,2294.638420
1736.766254,-11951.089769,-8882.471304,11547.212695
1736.766572,-18156.463303,-12953.603985,10362.883188
1736.766889,-27349.609279,-19467.416275,19763.498651
1736.767207,-30950.258119,-24796.899057,35159.782245
1736.767524,-30720.429470,-29016.072926,37898.544230
1736.767841,-23825.569988,-23020.404796,35011.741057
1736.768159,-18616.120601,-16210.510130,34937.720462
1736.768476,-7354.516781,-1332.370696,28127.825796
1736.768794,2834.553343,8068.244768,21539.992912
1736.769111,12180.918418,13249.686362,16876.695478
1736.769428,16700.881856,20799.786970,4663.297435
1736.769746,24055.398637,30940.608376,-4515.256246
1736.770063,29494.676673,32272.979071,-11547.212695
1736.770381,28881.800275,28942.052332,-20725.766376
1736.770698,28345.533426,22872.363608,-24204.734303
1736.771015,15475.129060,11399.171507,-24278.754898
1736.771333,919.314598,-2516.700203,-13915.871710
1736.771650,-3064.381992,-8216.285956,12953.603985
1736.771968,-12487.356617,-13545.768739,12879.583391
1736.772285,-17007.320056,-25907.207970,20281.642811
1736.772602,-28575.362075,-33235.246796,28942.052332
1736.772920,-32865.496864,-31606.793723,37158.338288
1736.773237,-30643.819920,-34715.658680,46040.809592
1736.773555,-22982.864940,-28127.825796,39304.935520
1736.773872,-10801.946522,-8586.388927,29904.320057
1736.774189,919.314598,11547.212695,22650.301825
1736.774507,8120.612279,13693.809927,26943.496289
1736.774824,18922.558801,19541.436869,11177.109724
1736.775142,28422.142976,29090.093521,-4589.276840
1736.775459,41982.033290,28571.949361,-9030.512492
1736.775776,40679.670944,36196.070564,-23908.651927
1736.776094,43054.566988,28794.011144,-29682.258274
1736.776411,33861.421012,19319.375086,-33383.287984
1736.776729,22063.550342,1628.453072,-16506.592507
1736.777046,7737.564530,-1554.432478,-10140.821405
1736.777363,-6052.154434,-3256.906145,-3627.009116
1736.777681,-8886.707777,-17838.963202,27091.537477
1736.777998,-24821.494135,-30052.361245,23168.445985
1736.778316,-30107.553071,-32791.123231,26499.372724
1736.778633,-36236.317055,-35307.823433,39971.120868
1736.778950,-33248.544613,-40119.162056,51592.354157
1736.779268,-30337.381721,-33457.308578,47891.324447
1736.779585,-17083.929605,-11177.109724,34345.555709
1736.779903,-7124.688131,6957.935855,13545.768739
1736.780220,5745.716235,14582.057057,17764.942608
1736.780537,18462.901502,16654.633695,10140.821405
1736.780855,25817.418283,29460.196492,3775.050304
1736.781172,32788.887314,32569.061448,-19023.292709
1736.781490,40143.404095,38268.647201,-29460.196492
1736.781807,41139.328243,25833.187376,-31236.690752
1736.782124,33095.325514,14878.139434,-27387.619854
1736.782442,16471.053207,7550.100608,-26943.496289
1736.782759,6052.154434,1702.473667,-13323.706956
1736.783077,-13330.061665,-0.000000,-8290.306550
1736.783394,-5209.449386,-12139.377449,41821.635723
1736.783711,-29418.067123,-21984.116477,15470.304188
1736.784029,-35317.002458,-30496.484810,26499.372724
1736.784346,-43054.566988,-36640.194129,43672.150578
1736.784664,-40986.109143,-40341.223839,49519.777520
1736.784981,-31946.182267,-35233.802839,49371.736331
1736.785298,-21603.893044,-10510.924376,37824.523636
1736.785616,-12180.918418,4367.215058,16506.592507
1736.785933,4749.792088,13767.830521,16580.613101
1736.786251,20761.187996,11917.315666,30200.402434
1736.786568,25434.370534,28053.805202,148.041188
1736.786885,32559.058665,41969.676911,-21984.116477
1736.787203,44127.100685,40637.306216,-24648.857869
1736.787520,41369.156892,34715.658680,-31162.670158
1736.787837,35929.878856,20873.807564,-26055.249158
1736.788155,20071.702048,11991.336260,-26425.352129
1736.788472,8427.050478,1924.535449,-17098.757260
1736.788790,-7814.174080,-1036.288319,-4959.379811
1736.789107,-6281.983084,-10658.965565,34641.638086
1736.789424,-23748.960438,-22206.178260,23242.466579
1736.789742,-32559.058665,-34641.638086,31384.731941
1736.790059,-42671.519239,-39823.079680,40119.162056
1736.790377,-39530.527697,-34715.658680,55811.528027
1736.790694,-31869.572717,-37528.441259,52554.621882
1736.791011,-17390.367805,-13545.768739,39230.914926
1736.791329,-7354.516781,6365.771101,21021.848753
1736.791646,7890.783629,14285.974681,27683.702231
1736.791964,20148.311597,18209.066173,15988.448347
1736.792281,28651.971625,30940.608376,2960.823768
1736.792598,38228.165350,35899.988187,-14137.933492
1736.792916,45046.415282,43672.150578,-25463.084405
1736.793233,47957.578175,35455.864622,-32569.061448
1736.793551,39530.527697,27387.619854,-32050.917289
1736.793868,22063.550342,13471.748144,-26351.331535
1736.794185,13330.061665,1258.350101,-12953.603985
1736.794503,-5898.935335,740.205942,-11621.233289
1736.794820,-4979.620737,-12435.459826,33161.226202
1736.795138,-24515.055936,-24796.899057,18579.169144
1736.795455,-31180.086769,-37602.461854,28868.031738
1736.795772,-41675.595091,-41155.450375,38342.667796
1736.796090,-41752.204641,-41821.635723,53220.807230
1736.796407,-34933.954709,-45966.788998,51370.292375
1736.796725,-22063.550342,-19319.375086,43894.212361
1736.797042,-11951.089769,1776.494261,19097.313304
1736.797359,5669.106685,17690.922014,19319.375086
1736.797677,15628.348159,7402.059420,29978.340651
1736.797994,23519.131789,22132.157666,-5107.421000
1736.798312,34091.249661,38416.688390,-10584.944971
1736.798629,44127.100685,40859.367998,-27757.722825
1736.798946,43973.881585,37232.358883,-37380.400071
1736.799264,41445.766442,24204.734303,-28349.887579
1736.799581,24515.055936,13101.645173,-29238.134709
1736.799899,11951.089769,9474.636058,-19911.539840
1736.800216,-306.438199,3404.947333,-15396.283594
1736.800533,-10801.946522,-6217.729913,15248.242405
1736.800851,-16241.224558,-18135.045579,19763.498651
1736.801168,-34704.126059,-39971.120868,26055.249158
1736.801486,-46425.387179,-41303.491564,42117.718100
1736.801803,-45812.510780,-44412.356520,50926.168810
1736.802120,-34244.468761,-43894.212361,55959.569215
1736.802438,-31563.134518,-21762.054695,42339.779882
1736.802755,-15858.176809,-2442.679609,28719.990550
1736.803073,-4826.401637,5699.585753,13323.706956
1736.803390,13100.233016,10510.924376,17838.963202
1736.803707,22829.645840,14730.098246,22428.240043
1736.804025,29111.628924,36270.091158,-2072.576638
1736.804342,43744.052936,42265.759288,-29904.320057
1736.804660,51175.179266,40341.223839,-34715.658680
1736.804977,49183.330972,31458.752535,-34493.596897
1736.805294,39913.575446,14359.995275,-30792.567187
1736.805612,17620.196454,12361.439231,-34789.679274
1736.805929,11338.213370,3923.091493,-14656.077652
1736.806247,-7354.516781,11843.295072,-17468.860231
1736.806564,-10955.165621,-12361.439231,37676.482448
1736.806881,-27119.780629,-28645.969955,14211.954086
1736.807199,-44433.538884,-41599.573940,24278.754898
1736.807516,-47727.749525,-49075.653955,57958.125259
1736.807834,-50562.302868,-42635.862259,52258.539505
1736.808151,-36083.097956,-45004.521274,57736.063476
1736.808468,-29954.333972,-15618.345376,42339.779882
1736.808786,-15398.519510,4219.173869,28497.928767
1736.809103,229.828649,8438.347739,16580.613101
1736.809421,15015.471761,6957.935855,34567.617491
1736.809738,28422.142976,25981.228564,1554.432478
1736.810055,33401.763713,51148.230592,-12213.398043
1736.810373,53320.246661,44782.459491,-17690.922014
1736.810690,48493.845023,43450.088795,-36862.255912
1736.811008,52477.541613,24500.816680,-26203.290347
1736.811325,38917.651298,16876.695478,-25759.166782
1736.811642,15398.519510,11843.295072,-32791.123231
1736.811960,14862.252661,-1554.432478,-14730.098246
1736.812277,-11184.994271,6069.688724,-9030.512492
1736.812595,-6665.030833,-20281.642811,42783.903448
1736.812912,-32022.791816,-34493.596897,21539.992912
1736.813229,-46885.044478,-40785.347404,22576.281231
1736.813547,-49642.988270,-51444.312969,51814.415940
1736.813864,-49566.378721,-44708.438897,59586.578331
1736.814182,-38534.603549,-41673.594535,56847.816346
1736.814499,-25051.322785,-11917.315666,43154.006419
1736.814816,-15092.081311,5255.462188,27091.537477
1736.815134,4673.182538,16432.571912,22428.240043
1736.815451,20531.359346,10214.842000,34567.617491
1736.815769,25051.322785,28719.990550,-4737.318029
1736.816086,38228.165350,49741.839302,-11029.068536
1736.816403,53856.513509,44190.294737,-26721.434506
1736.816721,47191.482677,48039.365636,-42783.903448
1736.817038,52400.932063,23686.590144,-21317.931130
1736.817356,32099.401366,21391.951724,-28645.969955
1736.817673,15704.957709,2886.803174,-24426.796086
1736.817990,8580.269578,3182.885551,-12435.459826
1736.818308,-11108.384721,4959.379811,-5921.647536
1736.818625,-11108.384721,-23686.590144,34049.473332
1736.818943,-35087.173808,-32865.143825,18209.066173
1736.819260,-46808.434928,-41081.429781,22798.343014
1736.819577,-49872.816920,-49149.674549,48853.592172
1736.819895,-43897.272035,-50778.127621,64101.834577
1736.820212,-38764.432199,-35825.967593,48335.448013
1736.820530,-21297.454844,-8438.347739,40711.326810
1736.820847,-14249.376263,10510.924376,21391.951724
1736.821164,5975.544884,14285.974681,13323.706956
1736.821482,20224.921147,7846.182985,28349.887579
1736.821799,23978.789087,29238.134709,-10362.883188
1736.822117,40449.842294,47299.159694,-18431.127956
1736.822434,49489.769171,41969.676911,-33309.267390
1736.822751,48876.892772,38342.667796,-42561.841665
1736.823069,45506.072581,22280.198854,-22354.219448
1736.823386,24974.713235,14137.933492,-27017.516883
1736.823703,10648.727422,11399.171507,-19097.313304
1736.824021,6128.763984,5107.421000,-8068.244768
1736.824338,-14096.157163,3775.050304,13249.686362
1736.824656,-13406.671215,-22206.178260,34345.555709
1736.824973,-36236.317055,-40119.162056,19763.498651
1736.825290,-44739.977083,-42265.759288,42487.821071
1736.825608,-42058.642840,-45596.686027,57439.981099
1736.825925,-34550.906960,-38860.811955,55959.569215
1736.826243,-26047.246932,-24352.775492,35233.802839
1736.826560,-13253.452115,4145.153275,26055.249158
1736.826877,-3524.039291,5181.441594,14063.912898
1736.827195,10801.946522,8956.491898,15470.304188
1736.827512,24974.713235,18579.169144,5625.565159
1736.827830,32176.010916,35159.782245,-6661.853478
1736.828147,35700.050207,34345.555709,-33457.308578
1736.828464,43590.833836,32643.082042,-32272.979071
1736.828782,39224.089498,31384.731941,-29460.196492
1736.829099,27809.266577,11769.274478,-19763.498651
1736.829417,11031.775171,9252.574275,-22576.281231
1736.829734,4979.620737,-1332.370696,740.205942
1736.830051,-9806.022374,-4071.132681,11251.130318
1736.830369,-12947.013916,-14211.954086,29904.320057
1736.830686,-21986.940793,-36048.029375,32791.123231
1736.831004,-34091.249661,-26055.249158,42043.697506
1736.831321,-34244.468761,-33235.246796,42117.718100
1736.831638,-28728.581175,-25833.187376,48557.509795
1736.831956,-23978.789087,-22872.363608,36566.173535
1736.832273,-8580.269578,-2220.617826,23464.528361
1736.832591,2221.676944,10584.944971,15914.427753
1736.832908,12717.185267,12953.603985,21243.910535
1736.833225,19841.873398,17394.839637,-3923.091493
1736.833543,27962.485677,22280.198854,-13915.871710
1736.833860,30567.210370,24130.713709,-21836.075289
1736.834178,32788.887314,27165.558071,-27905.764013
1736.834495,24898.103685,24870.919651,-24870.919651
1736.834812,18003.244203,17320.819043,-15692.365970
1736.835130,4136.915689,740.205942,-8586.388927
1736.835447,-5515.887586,-5477.523971,13767.830521
1736.835765,-12257.527968,-16506.592507,25315.043216
1736.836082,-22829.645840,-20799.786970,21836.075289
1736.836399,-27885.876127,-27905.764013,29386.175897
1736.836717,-27349.609279,-27017.516883,44486.377114
1736.837034,-28498.752526,-20651.745782,38934.832549
1736.837352,-15781.567259,-17468.860231,38416.688390
1736.837669,-9499.584175,-2664.741391,27239.578666
1736.837986,2374.896044,8956.491898,22354.219448
1736.838304,9882.631924,12879.583391,11917.315666
1736.838621,14019.547613,17098.757260,1480.411884
1736.838939,19918.482948,17764.942608,740.205942
1736.839256,25051.322785,21910.095883,-18505.148550
1736.839573,26200.466032,23982.672521,-26943.496289
1736.839891,25894.027832,21465.972318,-22724.322419
1736.840208,12793.794817,15544.324782,-21021.848753
1736.840526,7124.688131,-592.164754,-3552.988522
1736.840843,-4519.963438,-2442.679609,3552.988522
1736.841160,-10648.727422,-11621.233289,18801.230927
1736.841478,-20148.311597,-20429.683999,17987.004391
1736.841795,-25587.589633,-23020.404796,26943.496289
1736.842113,-24055.398637,-26869.475695,43524.109390
1736.842430,-26430.294681,-22576.281231,43672.150578
1736.842747,-16317.834107,-20059.581028,32272.979071
1736.843065,-4443.353888,740.205942,24204.734303
1736.843382,3830.477490,7846.182985,25463.084405
1736.843700,11108.384721,15766.386565,7994.224174
1736.844017,17696.806004,17764.942608,4811.338623
1736.844334,25127.932334,19763.498651,-3404.947333
1736.844652,27962.485677,21984.116477,-14730.098246
1736.844969,31409.915418,21243.910535,-20207.622217
1736.845287,25587.589633,18431.127956,-28719.990550
1736.845604,18692.730151,13397.727550,-22058.137072
1736.845921,7507.735880,2368.659014,-10658.965565
1736.846239,-3753.867940,-4367.215058,11843.295072
1736.846556,-8197.221829,-7179.997637,8364.327145
1736.846874,-18999.168350,-17394.839637,14285.974681
1736.847191,-23212.693589,-21391.951724,27831.743419
1736.847508,-28958.409824,-23020.404796,33827.411549
1736.847826,-26047.246932,-29238.134709,42117.718100
1736.848143,-22369.988542,-27683.702231,38194.626607
1736.848461,-13253.452115,-9400.615463,31828.855506
1736.848778,-4290.134789,4811.338623,20207.622217
1736.849095,7967.393179,11917.315666,24648.857869
1736.849413,13483.280765,13841.851115,1332.370696
1736.849730,21680.502593,19245.354492,4145.153275
1736.850048,25664.199183,19837.519246,-11695.253884
1736.850365,27656.047478,24204.734303,-22280.198854
1736.850682,31869.572717,22132.157666,-20873.807564
1736.851000,24591.665486,15544.324782,-21836.075289
1736.851317,14249.376263,10288.862594,-20133.601622
1736.851635,-1072.533697,-4071.132681,-9400.615463
1736.851952,-3830.477490,-8734.430116,23686.590144
1736.852269,-15628.348159,-17987.004391,16654.633695
1736.852587,-22599.817191,-24574.837274,16728.654289
1736.852904,-30567.210370,-25389.063811,30274.423028
1736.853222,-33095.325514,-23686.590144,43302.047607
1736.853539,-29418.067123,-31828.855506,39749.059085
1736.853856,-19995.092498,-20355.663405,37528.441259
1736.854174,-11568.042020,-2738.761985,30200.402434
1736.854491,459.657299,14211.954086,18505.148550
1736.854809,11568.042020,12361.439231,24648.857869
1736.855126,16547.662757,15618.345376,7328.038826
1736.855443,25281.151434,21317.931130,-4071.132681
1736.855761,32482.449115,24130.713709,-15026.180623
1736.856078,33554.982812,28645.969955,-24500.816680
1736.856396,33708.201912,18061.024985,-26203.290347
1736.856713,24668.275036,17838.963202,-27313.599260
1736.857030,13789.718964,7105.977043,-18949.272115
1736.857348,-3830.477490,222.061783,-9770.718434
1736.857665,-5975.544884,-8438.347739,31680.814318
1736.857983,-19152.387450,-21021.848753,15914.427753
1736.858300,-23212.693589,-26351.331535,23020.404796
1736.858617,-32176.010916,-28942.052332,34345.555709
1736.858935,-34321.078310,-21243.910535,42635.862259
1736.859252,-27809.266577,-37306.379477,42931.944636
1736.859570,-21757.112143,-17542.880825,36566.173535
1736.859887,-11951.089769,-0.000000,23686.590144
1736.860204,459.657299,14730.098246,22280.198854
1736.860522,10648.727422,15840.407159,20429.683999
1736.860839,21603.893044,21614.013506,9178.553681
1736.861156,23289.303139,31162.670158,-12287.418637
1736.861474,37462.069852,28127.825796,-16210.510130
1736.861787,35546.831107,28127.825796,-24944.940245
1736.862105,37615.288952,18283.086767,-22872.363608
1736.862422,24744.884585,11991.336260,-26499.372724
1736.862740,15321.909960,5699.585753,-14952.160028
1736.863057,-2681.334243,-3182.885551,-13693.809927
1736.863374,-5592.497135,-10732.986159,35529.885216
1736.863692,-20378.140247,-24204.734303,14285.974681
1736.864009,-23748.960438,-23760.610738,23316.487173
1736.864326,-31103.477219,-27683.702231,33679.370361
1736.864644,-32559.058665,-24870.919651,44412.356520
1736.864961,-25970.637382,-36714.214723,43894.212361
1736.865278,-19841.873398,-16284.530724,34789.679274
1736.865596,-10418.898773,-1702.473667,21391.951724
1736.865913,1072.533697,14952.160028,18579.169144
1736.866231,12027.699319,11621.233289,22206.178260
1736.866548,20684.578446,17024.736666,6291.750507
1736.866865,24438.446386,27979.784608,-10732.986159
1736.867183,35546.831107,28127.825796,-16284.530724
1736.867500,33401.763713,28942.052332,-25315.043216
1736.867817,32099.401366,15988.448347,-24278.754898
1736.868135,21757.112143,12213.398043,-23908.651927
1736.868452,11568.042020,7624.121203,-14582.057057
1736.868769,-3677.258390,-2960.823768,-10140.821405
1736.869087,-5439.278036,-9918.759623,29534.217086
1736.869404,-20071.702048,-19615.457463,18505.148550
1736.869722,-22829.645840,-24722.878463,23834.631332
1736.870039,-32635.668215,-28719.990550,29312.155303
1736.870356,-31639.744067,-25315.043216,47225.139100
1736.870674,-27119.780629,-36418.132346,42561.841665
1736.870991,-18999.168350,-14285.974681,33161.226202
1736.871308,-10648.727422,1850.514855,17690.922014
1736.871626,3830.477490,14211.954086,16876.695478
1736.871943,12640.575717,14434.015869,21169.889941
1736.872260,21144.235745,19467.416275,8364.327145
1736.872578,24285.227287,30570.505405,-12731.542202
1736.872895,35087.173808,32050.917289,-18505.148550
1736.873213,34857.345159,29608.237680,-26351.331535
1736.873530,31639.744067,18801.230927,-23834.631332
1736.873847,21144.235745,12435.459826,-22354.219448
1736.874165,8886.707777,5699.585753,-20947.828159
1736.874482,-6511.811733,-1258.350101,-3552.988522
1736.874799,-6052.154434,-9622.677246,29460.196492
1736.875117,-21374.064394,-17246.798449,15544.324782
1736.875434,-26889.951980,-25389.063811,22576.281231
1736.875751,-36312.926605,-33383.287984,36862.255912
1736.876069,-37079.022103,-28868.031738,48631.530389
1736.876386,-29571.286223,-37084.317694,45152.562462
1736.876703,-20531.359346,-17764.942608,36122.049970
1736.877021,-14402.595362,444.123565,19319.375086
1736.877338,2757.943793,15544.324782,19023.292709
1736.877656,12487.356617,10510.924376,26721.434506
1736.877973,21910.331243,18505.148550,5921.647536
1736.878290,26889.951980,34863.699868,-7328.038826
1736.878608,37998.336701,33901.432144,-15914.427753
1736.878925,37768.508051,32124.937883,-26499.372724
1736.879242,36849.193454,16210.510130,-22428.240043
1736.879560,27426.218828,14804.118840,-26055.249158
1736.879877,13330.061665,8438.347739,-22798.343014
1736.880194,1455.581446,-0.000000,-15100.201217
1736.880512,-7890.783629,-8216.285956,24796.899057
1736.880829,-17466.977354,-18579.169144,14582.057057
1736.881147,-25127.932334,-26795.455100,25537.104999
1736.881464,-37538.679402,-31310.711347,31680.814318
1736.881781,-40449.842294,-30718.546593,45892.768404
1736.882099,-33248.544613,-44486.377114,49741.839302
1736.882416,-28115.704777,-26869.475695,40267.203245
1736.882733,-16317.834107,-7698.141797,34863.699868
1736.883051,-3830.477490,8438.347739,18949.272115
1736.883368,8733.488677,12657.521608,22058.137072
1736.883685,23825.569988,16136.489536,14211.954086
1736.884003,24974.713235,33605.349767,-3034.844362
1736.884320,40679.670944,33383.287984,-10510.924376
1736.884638,39530.527697,35677.926404,-29978.340651
1736.884955,43284.395637,24722.878463,-23020.404796
1736.885272,39377.308597,14211.954086,-21317.931130
1736.885590,16777.491406,13841.851115,-33457.308578
1736.885907,15015.471761,-2664.741391,-13175.665768
1736.886224,-6205.373534,4737.318029,-12731.542202
1736.886542,-6052.154434,-16580.613101,38934.832549
1736.886859,-24132.008187,-24056.693115,15544.324782
1736.887176,-30260.772171,-31014.628970,23316.487173
1736.887494,-36312.926605,-33679.370361,39082.873738
1736.887811,-39530.527697,-35677.926404,44264.315332
1736.888129,-30720.429470,-43968.232955,51962.457128
1736.888446,-26736.732880,-14878.139434,35677.926404
1736.888763,-11721.261119,2664.741391,24870.919651
1736.889081,2298.286494,18801.230927,13323.706956
1736.889398,15015.471761,10807.006753,28868.031738
1736.889715,21910.331243,20281.642811,-2886.803174
1736.890033,29035.019374,36418.132346,-12879.583391
1736.890350,40449.842294,31310.711347,-21317.931130
1736.890667,38841.041749,27609.681637,-29312.155303
1736.890985,37998.336701,16210.510130,-24352.775492
1736.891302,24132.008187,11547.212695,-26055.249158
1736.891619,13406.671215,9474.636058,-17764.942608
1736.891937,3140.991542,3182.885551,-10584.944971
1736.892254,-10725.336972,-5699.585753,20873.807564
1736.892572,-15168.690860,-17690.922014,23316.487173
1736.892889,-27119.780629,-24722.878463,24426.796086
1736.893206,-35700.050207,-28942.052332,36418.132346
1736.893524,-38687.822649,-30274.423028,42783.903448
1736.893841,-30490.600820,-36936.276506,45226.583056
1736.894158,-27579.437928,-16728.654289,30792.567187
1736.894476,-13713.109414,-444.123565,27313.599260
1736.894793,-4826.401637,9770.718434,14582.057057
1736.895110,9116.536426,13619.789333,17246.798449
1736.895428,23748.960438,18949.272115,6217.729913
1736.895745,19841.873398,25092.981434,-5477.523971
1736.896063,29418.067123,22724.322419,-15100.201217
1736.896380,30337.381721,26055.249158,-26721.434506
1736.896697,31716.353617,19171.333898,-19911.539840
1736.897015,22676.426741,11621.233289,-13175.665768
1736.897332,12334.137518,11695.253884,-19689.478057
1736.897649,689.485948,-1998.556043,-7105.977043
1736.897967,-5209.449386,-10955.047942,34345.555709
1736.898284,-14402.595362,-13619.789333,21095.869347
1736.898601,-18156.463303,-20429.683999,25389.063811
1736.898919,-23059.474490,-22280.198854,31828.855506
1736.899236,-24898.103685,-21614.013506,36936.276506
1736.899554,-23978.789087,-20059.581028,31532.773129
1736.899871,-11184.994271,-11917.315666,32346.999665
1736.900188,-2757.943793,4737.318029,19467.416275
1736.900506,5975.544884,17320.819043,11251.130318
1736.900823,16930.710506,17542.880825,13989.892304
1736.901140,19152.387450,17172.777854,-666.185348
1736.901458,26123.856482,16950.716072,-8808.450710
1736.901775,26583.513781,17172.777854,-14508.036463
1736.902092,21910.331243,17098.757260,-17394.839637
1736.902410,18156.463303,14137.933492,-14211.954086
1736.902727,8810.098227,5255.462188,-2590.720797
1736.903045,306.438199,-1332.370696,666.185348
1736.903362,-5515.887586,-12139.377449,17838.963202
1736.903679,-16011.395908,-15988.448347,20799.786970
1736.903997,-18692.730151,-17690.922014,23538.548956
1736.904314,-18769.339701,-17468.860231,29312.155303
1736.904631,-19612.044749,-16580.613101,32124.937883
1736.904949,-14325.985813,-15174.221811,32124.937883
1736.905266,-8120.612279,-3775.050304,25907.207970
1736.905583,153.219100,6883.915261,15322.262999
1736.905901,8044.002729,9844.739029,10214.842000
1736.906218,12640.575717,12657.521608,6439.791695
1736.906535,17160.539155,11547.212695,3701.029710
1736.906853,17160.539155,11103.089130,0.000000
1736.907170,16241.224558,12583.501014,-13471.748144
1736.907488,12717.185267,13397.727550,-17098.757260
1736.907805,8580.269578,8512.368333,-6957.935855
1736.908122,1225.752797,3849.070898,-6513.812290
1736.908440,-3447.429741,-1554.432478,3478.967927
1736.908757,-10648.727422,-9474.636058,11177.109724
1736.909074,-18003.244203,-13989.892304,13915.871710
1736.909392,-20761.187996,-19097.313304,24870.919651
1736.909709,-20531.359346,-16580.613101,29238.134709
1736.910026,-19612.044749,-16580.613101,29238.134709
1736.910344,-14096.157163,-11843.295072,26351.331535
1736.910661,-3983.696590,-2812.782580,24574.837274
1736.910979,5286.058936,6291.750507,23464.528361
1736.911296,11721.261119,10214.842000,13175.665768
1736.911613,15015.471761,14211.954086,2368.659014
1736.911931,21757.112143,13619.789333,1036.288319
1736.912248,22599.817191,16284.530724,-7328.038826
1736.912565,21067.626195,17764.942608,-14952.160028
1736.912883,17160.539155,17320.819043,-20133.601622
1736.913200,12563.966167,10955.047942,-15026.180623
1736.913517,1991.848295,4663.297435,-11621.233289
1736.913835,-2068.457845,-1776.494261,4885.359217
1736.914152,-12027.699319,-14285.974681,9622.677246
1736.914470,-18845.949251,-17172.777854,13249.686362
1736.914787,-22063.550342,-21910.095883,23760.610738
1736.915104,-25434.370534,-25981.228564,34493.596897
1736.915422,-23902.179538,-26795.455100,39008.853143
1736.915739,-16088.005458,-17542.880825,33753.390955
1736.916056,-9806.022374,-7179.997637,24278.754898
1736.916374,1378.971896,5181.441594,24500.816680
1736.916691,9806.022374,9104.533087,24796.899057
1736.917008,14479.204912,19541.436869,8734.430116
1736.917326,23212.693589,21317.931130,222.061783
1736.917643,29188.238474,25241.022622,-6217.729913
1736.917961,31716.353617,24352.775492,-16654.633695
1736.918278,31639.744067,19985.560434,-20133.601622
1736.918595,23748.960438,16580.613101,-25315.043216
1736.918913,15321.909960,6957.935855,-18875.251521
1736.919230,1149.143247,-0.000000,-9992.780217
1736.919547,-1072.533697,-8364.327145,18431.127956
1736.919865,-18079.853753,-17838.963202,7846.182985
1736.920182,-22369.988542,-25981.228564,19541.436869
1736.920499,-29801.114872,-32272.979071,26277.310941
1736.920817,-32942.106414,-26499.372724,39897.100274
1736.921134,-29494.676673,-30792.567187,43302.047607
1736.921451,-20684.578446,-18801.230927,40637.306216
1736.921769,-13866.328514,-5699.585753,26499.372724
1736.922086,995.924147,13915.871710,23982.672521
1736.922404,9652.803275,11843.295072,26869.475695
1736.922721,19535.435199,17542.880825,12879.583391
1736.923038,21603.893044,30940.608376,-8660.409521
1736.923356,35087.173808,29682.258274,-5699.585753
1736.923673,34397.687860,31902.876100,-20207.622217
1736.923990,39377.308597,20207.622217,-22280.198854
1736.924308,33554.982812,18283.086767,-25018.960840
1736.924625,17620.196454,12213.398043,-27313.599260
1736.924942,7890.783629,-1332.370696,-16802.674883
1736.925260,-8886.707777,-5625.565159,7920.203579
1736.925577,-9729.412825,-18431.127956,20355.663405
1736.925895,-25127.932334,-26351.331535,12657.521608
1736.926212,-35163.783358,-26869.475695,26869.475695
1736.926529,-43590.833836,-30496.484810,41451.532752
1736.926847,-37155.631653,-39526.997303,55515.445650
1736.927164,-31103.477219,-33161.226202,42857.924042
1736.927481,-22063.550342,-9918.759623,34715.658680
1736.927799,-12563.966167,4737.318029,22428.240043
1736.928116,3217.601092,19615.457463,11251.130318
1736.928433,18845.949251,9400.615463,28275.866984
1736.928751,19612.044749,22280.198854,7105.977043
1736.929068,29494.676673,37306.379477,-11991.336260
1736.929386,41675.595091,35011.741057,-18431.127956
1736.929703,44050.491135,32791.123231,-26425.352129
1736.930020,46578.606278,14211.954086,-14656.077652
1736.930338,25587.589633,18949.272115,-35529.885216
1736.930655,17773.415554,1184.329507,-20281.642811
1736.930972,7584.345430,3701.029710,-12953.603985
1736.931290,-12257.527968,-4441.235652,3330.926739
1736.931607,-15092.081311,-18949.272115,24352.775492
1736.931924,-29647.895773,-22576.281231,14952.160028
1736.932242,-40986.109143,-29682.258274,26647.413912
1736.932559,-46118.948980,-42635.862259,46040.809592
1736.932877,-43361.005187,-49741.839302,54331.116143
1736.933194,-36695.974354,-32050.917289,43746.171172
1736.933511,-23212.693589,-10510.924376,41969.676911
1736.933829,-14249.376263,6365.771101,21614.013506
1736.934146,6128.763984,16950.716072,9178.553681
1736.934463,22063.550342,8290.306550,31384.731941
1736.934781,19612.044749,25018.960840,-1258.350101
1736.935098,31333.305868,45004.521274,-10955.047942
1736.935415,46655.215828,34493.596897,-17987.004391
1736.935733,42977.957438,33383.287984,-34197.514520
1736.936050,48110.797274,15026.180623,-15840.407159
1736.936367,28268.923876,17764.942608,-33161.226202
1736.936685,15398.519510,3478.967927,-28868.031738
1736.937002,11951.089769,-2368.659014,-9252.574275
1736.937320,-10648.727422,-2368.659014,-12435.459826
1736.937637,-7737.564530,-23760.610738,47151.118505
1736.937954,-29418.067123,-30866.587781,17987.004391
1736.938272,-38841.041749,-33013.185013,19023.292709
1736.938589,-39760.356346,-46336.891969,46929.056723
1736.938906,-41292.547342,-43450.088795,56847.816346
1736.939224,-32252.620466,-36566.173535,42783.903448
1736.939541,-19382.216099,-4293.194464,32050.917289
1736.939858,-10189.070123,9104.533087,18283.086767
1736.940176,9346.365076,19467.416275,15322.262999
1736.940493,22293.378992,12139.377449,29904.320057
1736.940811,26353.685131,28127.825796,2220.617826
1736.941128,34091.249661,44338.335926,-22058.137072
1736.941445,46655.215828,36492.152941,-29904.320057
1736.941763,42441.690589,29534.217086,-34641.638086
1736.942080,41062.718693,12657.521608,-19467.416275
1736.942397,22676.426741,15692.365970,-28942.052332
1736.942715,13942.938064,3627.009116,-14359.995275
1736.943032,842.705048,4145.153275,-11399.171507
1736.943349,-7354.516781,-5625.565159,28127.825796
1736.943667,-17083.929605,-24574.837274,26129.269753
1736.943984,-27962.485677,-29978.340651,20355.663405
1736.944302,-37998.336701,-30792.567187,34937.720462
1736.944619,-39683.746796,-29386.175897,45004.521274
1736.944936,-30413.991271,-37824.523636,46929.056723
1736.945254,-24898.103685,-18209.066173,32643.082042
1736.945571,-13713.109414,2960.823768,27017.516883
1736.945888,-1685.410096,14508.036463,17024.736666
1736.946206,9116.536426,14804.118840,21910.095883
1736.946523,23442.522239,22724.322419,-4293.194464
1736.946840,25051.322785,30792.567187,-8364.327145
1736.947158,34704.126059,33531.329173,-11843.295072
1736.947475,31869.572717,29460.196492,-29312.155303
1736.947793,34244.468761,21614.013506,-21762.054695
1736.948110,24285.227287,13693.809927,-19319.375086
1736.948427,10265.679673,14508.036463,-20059.581028
1736.948745,-306.438199,-7550.100608,-10288.862594
1736.949062,-5669.106685,-13101.645173,47447.200882
1736.949379,-20531.359346,-22724.322419,18209.066173
1736.949697,-22140.159892,-26425.352129,25833.187376
1736.950014,-29724.505322,-23538.548956,34123.493926
1736.950331,-33325.154163,-18209.066173,35529.885216
1736.950649,-26123.856482,-29090.093521,38342.667796
1736.950966,-18922.558801,-14434.015869,31976.896694
1736.951283,-11261.603821,2368.659014,16950.716072
1736.951601,2757.943793,13397.727550,17912.983796
1736.951918,10878.556072,11843.295072,21984.116477
1736.952236,21220.845295,13397.727550,-2590.720797
1736.952553,21757.112143,21465.972318,-3701.029710
1736.952870,27196.390179,18209.066173,-13767.830521
1736.953188,25051.322785,20651.745782,-19171.333898
1736.953505,24515.055936,17987.004391,-14730.098246
1736.953822,16700.881856,14804.118840,-16358.551318
1736.954140,7354.516781,6735.874072,-11325.150913
1736.954457,-2911.162892,-8808.450710,11029.068536
1736.954774,-10725.336972,-14508.036463,21984.116477
1736.955092,-15092.081311,-20873.807564,23094.425390
1736.955409,-21374.064394,-20503.704593,23760.610738
1736.955727,-20071.702048,-19689.478057,34715.658680
1736.956044,-19918.482948,-17838.963202,34937.720462
1736.956361,-15092.081311,-16580.613101,26277.310941
1736.956679,-4596.572988,-3552.988522,23316.487173
1736.956996,2221.676944,8882.471304,19985.560434
1736.957313,11874.480219,11473.192101,9622.677246
1736.957631,17007.320056,18431.127956,5107.421000
1736.957948,21527.283494,13397.727550,-1036.288319
1736.958265,22446.598091,19393.395680,-15026.180623
1736.958583,25740.808733,13397.727550,-12879.583391
1736.958900,20914.407095,13989.892304,-16284.530724
1736.959218,15475.129060,9918.759623,-16062.468941
1736.959535,4596.572988,3552.988522,-12287.418637
1736.959852,-919.314598,-6143.709319,13915.871710
1736.960170,-9193.145976,-13693.809927,13175.665768
1736.960487,-16700.881856,-20873.807564,20873.807564
1736.960804,-20607.968896,-21836.075289,20873.807564
1736.961122,-20684.578446,-17616.901420,29090.093521
1736.961439,-18462.901502,-19245.354492,33605.349767
1736.961756,-13713.109414,-16284.530724,30940.608376
1736.962074,-7967.393179,-5181.441594,17616.901420
1736.962391,76.609550,5329.482782,15692.365970
1736.962709,6281.983084,8586.388927,17172.777854
1736.963026,12257.527968,11695.253884,5625.565159
1736.963343,17160.539155,14878.139434,1036.288319
1736.963661,21450.673944,16358.551318,-6439.791695
1736.963978,20071.702048,18061.024985,-16284.530724
1736.964296,19995.092498,14730.098246,-11473.192101
1736.964613,12257.527968,10955.047942,-15840.407159
1736.964931,6435.202183,1110.308913,-3478.967927
1736.965248,-2987.772442,-3627.009116,2368.659014
1736.965565,-8044.002729,-10510.924376,16506.592507
1736.965883,-14709.033562,-17024.736666,14211.954086
1736.966200,-22599.817191,-18209.066173,20577.725188
1736.966518,-22369.988542,-25167.002028,31532.773129
1736.966835,-24515.055936,-16802.674883,35899.988187
1736.967153,-14709.033562,-15988.448347,31458.752535
1736.967470,-7890.783629,-3552.988522,25463.084405
1736.967788,1302.362347,7254.018232,20207.622217
1736.968105,7354.516781,14656.077652,7476.080014
1736.968422,10648.727422,20577.725188,6735.874072
1736.968740,22140.159892,15470.304188,8290.306550
1736.969057,23672.350888,18727.210333,-7105.977043
1736.969375,26277.075581,17542.880825,-8068.244768
1736.969692,23825.569988,17542.880825,-9770.718434
1736.970010,18003.244203,13471.748144,-17320.819043
1736.970327,11568.042020,5181.441594,-16062.468941
1736.970645,76.609550,-2590.720797,4737.318029
1736.970962,-7507.735880,-4959.379811,6957.935855
1736.971279,-15015.471761,-17912.983796,13767.830521
1736.971597,-18462.901502,-18357.107362,21317.931130
1736.971914,-24285.227287,-20651.745782,28127.825796
1736.972232,-22140.159892,-25463.084405,38786.791361
1736.972549,-24438.446386,-20133.601622,33309.267390
1736.972867,-16700.881856,-11029.068536,30052.361245
1736.973184,-9269.755526,-2368.659014,24574.837274
1736.973501,306.438199,7698.141797,24204.734303
1736.973819,11414.822920,15988.448347,11029.068536
1736.974136,17466.977354,26943.496289,6069.688724
1736.974454,26430.294681,27757.722825,-1998.556043
1736.974771,29494.676673,24352.775492,-13397.727550
1736.975089,29111.628924,17468.860231,-13989.892304
1736.975406,26966.561530,8956.491898,-8808.450710
1736.975724,17237.148705,7920.203579,-19985.560434
1736.976041,8810.098227,4515.256246,-18875.251521
1736.976358,-842.705048,-3256.906145,14952.160028
1736.976676,-9499.584175,-5699.585753,6735.874072
1736.976993,-16471.053207,-22428.240043,11991.336260
1736.977311,-25204.541884,-25018.960840,19467.416275
1736.977628,-32329.230016,-23612.569550,31088.649564
1736.977946,-26966.561530,-29238.134709,43598.129984
1736.978263,-25127.932334,-22650.301825,30940.608376
1736.978581,-17543.586904,-12953.603985,31458.752535
1736.978898,-11568.042020,-1776.494261,23168.445985
1736.979215,2374.896044,10955.047942,15692.365970
1736.979533,11261.603821,10881.027347,16876.695478
1736.979850,18079.853753,22132.157666,11251.130318
1736.980168,25281.151434,33531.329173,-9474.636058
1736.980485,32559.058665,30792.567187,-12657.521608
1736.980803,33248.544613,21614.013506,-15396.283594
1736.981120,30643.819920,9622.677246,-12583.501014
1736.981438,20454.749797,12879.583391,-25389.063811
1736.981755,14709.033562,-222.061783,-15840.407159
1736.982072,1149.143247,2368.659014,-13323.706956
1736.982390,-3907.087040,-10436.903782,25907.207970
1736.982707,-15475.129060,-15322.262999,10807.006753
1736.983025,-22063.550342,-24056.693115,14359.995275
1736.983342,-30184.162621,-29978.340651,30792.567187
1736.983660,-36619.364804,-29904.320057,43746.171172
1736.983977,-27349.609279,-35455.864622,43672.150578
1736.984295,-22140.159892,-17764.942608,28127.825796
1736.984612,-13713.109414,-814.226536,26943.496289
1736.984929,-3370.820191,10214.842000,18579.169144
1736.985247,8656.879127,17098.757260,17912.983796
1736.985564,21220.845295,16654.633695,9104.533087
1736.985882,20914.407095,32050.917289,-2886.803174
1736.986199,31563.134518,28423.908173,-10066.800811
1736.986517,31716.353617,24722.878463,-17912.983796
1736.986834,32022.791816,13323.706956,-10066.800811
1736.987152,29188.238474,8808.450710,-15840.407159
1736.987469,12180.918418,8882.471304,-27387.619854
1736.987786,10189.070123,296.082377,-11325.150913
1736.988104,-7967.393179,-2738.761985,4145.153275
1736.988421,-5975.544884,-9474.636058,17172.777854
1736.988739,-20224.921147,-21762.054695,15766.386565
1736.989056,-30030.943522,-24426.796086,21391.951724
1736.989374,-36619.364804,-33901.432144,38934.832549
1736.989691,-32329.230016,-37010.297100,47595.242071
1736.990008,-27962.485677,-29756.278868,39378.956114
1736.990326,-19075.777900,-9622.677246,26795.455100
1736.990643,-10035.851024,9326.594869,20873.807564
1736.990961,4979.620737,20873.807564,9548.656652
1736.991278,18845.949251,15618.345376,23686.590144
1736.991596,20301.530697,22428.240043,7402.059420
1736.991913,27043.171079,32495.040854,-12065.356855
1736.992231,35393.612008,28201.846390,-14359.995275
1736.992548,34321.078310,24056.693115,-22354.219448
1736.992865,33938.030561,9918.759623,-10288.862594
1736.993183,18999.168350,17172.777854,-27831.743419
1736.993500,13713.109414,666.185348,-15026.180623
1736.993818,-2298.286494,2368.659014,-12583.501014
1736.994135,-7431.126331,-11399.171507,33383.287984
1736.994453,-20071.702048,-19911.539840,16580.613101
1736.994770,-24591.665486,-24130.713709,16136.489536
1736.995088,-33784.811462,-28571.949361,29312.155303
1736.995405,-35163.783358,-30718.546593,44042.253549
1736.995722,-29724.505322,-42709.882853,45818.747810
1736.996040,-22523.207641,-19467.416275,28942.052332
1736.996357,-13483.280765,-0.000000,30274.423028
1736.996675,1532.190996,11843.295072,17987.004391
1736.996992,10342.289223,14804.118840,22354.219448
1736.997310,20301.530697,17690.922014,3775.050304
1736.997627,22293.378992,37232.358883,-2368.659014
1736.997945,37155.631653,29164.114115,-9696.697840
1736.998262,34550.906960,28719.990550,-23094.425390
1736.998579,37691.898502,19393.395680,-15692.365970
1736.998897,28115.704777,14656.077652,-21021.848753
1736.999214,14479.204912,10807.006753,-24204.734303
1736.999532,8810.098227,-4145.153275,-9030.512492
1736.999849,-10955.165621,-7031.956449,11843.295072
1737.000167,-11338.213370,-15100.201217,21984.116477
1737.000484,-22676.426741,-22724.322419,20059.581028
1737.000802,-29724.505322,-21614.013506,25092.981434
1737.001119,-33708.201912,-31384.731941,40267.203245
1737.001436,-30643.819920,-34641.638086,46410.912563
1737.001754,-25204.541884,-23686.590144,34419.576303
1737.002071,-17007.320056,-6365.771101,23686.590144
1737.002389,-4903.011187,5995.668130,21169.889941
1737.002706,7354.516781,17764.942608,12139.377449
1737.003024,18999.168350,17246.798449,15618.345376
1737.003341,21220.845295,27757.722825,1332.370696
1737.003659,27962.485677,27535.661042,-14582.057057
1737.003976,34167.859211,26647.413912,-21910.095883
1737.004293,32482.449115,16284.530724,-21317.931130
1737.004611,29341.457573,11251.130318,-13545.768739
1737.004928,13942.938064,14804.118840,-29016.072926
1737.005246,11874.480219,222.061783,-10732.986159
1737.005563,-10342.289223,-6809.894666,4811.338623
1737.005881,-7660.954980,-12287.418637,29682.258274
1737.006198,-22523.207641,-23020.404796,20799.786970
1737.006516,-27656.047478,-21539.992912,24130.713709
1737.006833,-32482.449115,-29756.278868,39008.853143
1737.007150,-32099.401366,-29904.320057,43228.027013
1737.007468,-23289.303139,-23020.404796,33309.267390
1737.007785,-15628.348159,-4737.318029,21688.034101
1737.008103,-7967.393179,3997.112087,19541.436869
1737.008420,5822.325785,14952.160028,14137.933492
1737.008738,18079.853753,15026.180623,18283.086767
1737.009055,19612.044749,18579.169144,-1332.370696
1737.009372,24821.494135,25463.084405,-10658.965565
1737.009690,30643.819920,20133.601622,-14137.933492
1737.010007,28651.971625,16284.530724,-16654.633695
1737.010325,24515.055936,10510.924376,-13471.748144
1737.010642,16088.005458,15692.365970,-17320.819043
1737.010960,7737.564530,3627.009116,-12509.480420
1737.011277,-3983.696590,-6069.688724,15174.221811
1737.011595,-9882.631924,-9474.636058,15174.221811
1737.011912,-17237.148705,-21317.931130,22576.281231
1737.012229,-22216.769442,-19763.498651,28275.866984
1737.012547,-26506.904231,-24056.693115,34493.596897
1737.012864,-21986.940793,-22206.178260,43228.027013
1737.013182,-18616.120601,-16802.674883,27979.784608
1737.013499,-10418.898773,-4589.276840,18653.189738
1737.013817,-1302.362347,7920.203579,18875.251521
1737.014134,8120.612279,11843.295072,16580.613101
1737.014452,19382.216099,15914.427753,9400.615463
1737.014769,23289.303139,19245.354492,-962.267725
1737.015086,25281.151434,23464.528361,-14137.933492
1737.015404,27885.876127,17172.777854,-16432.571912
1737.015721,24438.446386,13175.665768,-10288.862594
1737.016039,16088.005458,8734.430116,-14878.139434
1737.016356,10265.679673,10066.800811,-14878.139434
1737.016674,-2834.553343,-2516.700203,3330.926739
1737.016991,-4979.620737,-8734.430116,18135.045579
1737.017309,-15781.567259,-21095.869347,17172.777854
1737.017626,-22140.159892,-18357.107362,20059.581028
1737.017943,-23672.350888,-17394.839637,27017.516883
1737.018261,-22523.207641,-20947.828159,39230.914926
1737.018578,-19918.482948,-17912.983796,31828.855506
1737.018896,-10342.289223,-4959.379811,23982.672521
1737.019213,-7814.174080,4367.215058,15470.304188
1737.019531,229.828649,8956.491898,15840.407159
1737.019848,9652.803275,12435.459826,9400.615463
1737.020166,15934.786358,18061.024985,4367.215058
1737.020483,20148.311597,20947.828159,-4589.276840
1737.020800,21680.502593,18949.272115,-17616.901420
1737.021118,20224.921147,13767.830521,-13397.727550
1737.021435,16854.100956,7846.182985,-7254.018232
1737.021753,7124.688131,6883.915261,-8956.491898
1737.022070,2604.724693,-1628.453072,-1036.288319
1737.022388,-5209.449386,-5847.626942,7402.059420
1737.022705,-9193.145976,-16728.654289,18283.086767
1737.023023,-19995.092498,-21762.054695,18357.107362
1737.023340,-21910.331243,-20725.766376,25018.960840
1737.023657,-21833.721693,-17098.757260,31606.793723
1737.023975,-17850.025103,-13693.809927,30496.484810
1737.024292,-8120.612279,-4885.359217,26647.413912
1737.024610,-766.095498,5625.565159,16580.613101
1737.024927,6205.373534,11473.192101,9474.636058
1737.025245,8503.660028,12953.603985,6735.874072
1737.025562,18845.949251,12361.439231,12065.356855
1737.025879,23825.569988,21021.848753,-3849.070898
1737.026197,26353.685131,20133.601622,-13027.624579
1737.026514,22906.255390,11843.295072,-11473.192101
1737.026832,18922.558801,10214.842000,-8808.450710
1737.027149,14862.252661,4145.153275,-11473.192101
1737.027467,2681.334243,3108.864956,-8142.265362
1737.027784,536.266849,-2590.720797,16284.530724
1737.028102,-8580.269578,-9104.533087,11695.253884
1737.028419,-12334.137518,-21317.931130,15248.242405
1737.028736,-19382.216099,-26055.249158,23686.590144
1737.029054,-23289.303139,-21391.951724,29756.278868
1737.029371,-21450.673944,-20355.663405,31532.773129
1737.029689,-13559.890315,-13175.665768,26943.496289
1737.030006,-8120.612279,-1406.391290,20429.683999
1737.030324,-2451.505594,9622.677246,17172.777854
1737.030641,7890.783629,13767.830521,7994.224174
1737.030959,11491.432470,15766.386565,7105.977043
1737.031276,17696.806004,12953.603985,10807.006753
1737.031593,20991.016645,17690.922014,-9474.636058
1737.031911,20071.702048,17542.880825,-13027.624579
1737.032228,18156.463303,9696.697840,-7476.080014
1737.032546,13483.280765,7698.141797,-9326.594869
1737.032863,4903.011187,444.123565,-1850.514855
1737.033181,-306.438199,-0.000000,3108.864956
1737.033498,-6741.640382,-3997.112087,3627.009116
1737.033816,-10342.289223,-14137.933492,12879.583391
1737.034133,-19918.482948,-21021.848753,16580.613101
1737.034450,-24668.275036,-26573.393318,30718.546593
1737.034768,-25510.980083,-20799.786970,32272.979071
1737.035085,-16700.881856,-15248.242405,34567.617491
1737.035403,-9039.926876,-3182.885551,23242.466579
1737.035720,-306.438199,5773.606348,15322.262999
1737.036038,7277.907231,8808.450710,18653.189738
1737.036355,7967.393179,13397.727550,9474.636058
1737.036673,18079.853753,15914.427753,10362.883188
1737.036990,22293.378992,23094.425390,-2664.741391
1737.037307,27426.218828,23612.569550,-11769.274478
1737.037625,26123.856482,16358.551318,-11399.171507
1737.037942,20684.578446,14434.015869,-11769.274478
1737.038260,15704.957709,3997.112087,-14285.974681
1737.038577,3447.429741,-0.000000,-11399.171507
1737.038895,536.266849,-6957.935855,19763.498651
1737.039212,-10878.556072,-8956.491898,7031.956449
1737.039530,-14249.376263,-19171.333898,11399.171507
1737.039847,-24055.398637,-29460.196492,19393.395680
1737.040164,-28881.800275,-26499.372724,34271.535115
1737.040482,-24668.275036,-26425.352129,38786.791361
1737.040799,-18769.339701,-15766.386565,33383.287984
1737.041117,-13253.452115,-3701.029710,24796.899057
1737.041434,-4979.620737,7698.141797,19911.539840
1737.041752,5362.668486,12953.603985,16358.551318
1737.042069,10418.898773,12731.542202,8734.430116
1737.042387,16317.834107,23538.548956,8216.285956
1737.042704,24055.398637,28497.928767,-8586.388927
1737.043021,29035.019374,26721.434506,-17172.777854
1737.043339,28498.752526,17246.798449,-10140.821405
1737.043656,23365.912689,11325.150913,-11251.130318
1737.043974,15628.348159,6883.915261,-19689.478057
1737.044291,6205.373534,-74.020594,-11547.212695
1737.044609,229.828649,-5403.503377,26499.372724
1737.044926,-10418.898773,-9696.697840,4885.359217
1737.045243,-13559.890315,-20429.683999,14582.057057
1737.045561,-23519.131789,-27165.558071,22280.198854
1737.045878,-29877.724422,-22798.343014,32569.061448
1737.046196,-24515.055936,-26721.434506,36788.235317
1737.046513,-18922.558801,-17616.901420,33013.185013
1737.046831,-13483.280765,-4811.338623,25018.960840
1737.047148,-4060.306139,9992.780217,17098.757260
1737.047466,4519.963438,14582.057057,15470.304188
1737.047783,10878.556072,14137.933492,11991.336260
1737.048100,16624.272307,24204.734303,4811.338623
1737.048418,26123.856482,28571.949361,-9622.677246
1737.048735,27119.780629,24130.713709,-15026.180623
1737.049053,26889.951980,14582.057057,-10362.883188
1737.049370,22063.550342,8586.388927,-10807.006753
1737.049688,14019.547613,5255.462188,-14063.912898
1737.050005,2221.676944,-4071.132681,-7179.997637
1737.050323,-2834.553343,-10807.006753,26943.496289
1737.050640,-13330.061665,-10955.047942,9548.656652
1737.050957,-13330.061665,-19837.519246,20059.581028
1737.051275,-23289.303139,-22058.137072,19541.436869
1737.051592,-28192.314326,-19467.416275,31606.793723
1737.051910,-24208.617737,-26647.413912,33827.411549
1737.052227,-18309.682402,-16728.654289,29164.114115
1737.052545,-12257.527968,-3775.050304,21984.116477
1737.052862,-5515.887586,7402.059420,18653.189738
1737.053180,3983.696590,10955.047942,12065.356855
1737.053497,12870.404366,12065.356855,3701.029710
1737.053814,15245.300410,19393.395680,7698.141797
1737.054132,21986.940793,19319.375086,-5255.462188
1737.054449,23442.522239,19837.519246,-13175.665768
1737.054767,23902.179538,12509.480420,-7031.956449
1737.055084,18003.244203,8068.244768,-5995.668130
1737.055402,9806.022374,6439.791695,-10658.965565
1737.055719,1608.800546,-4811.338623,8660.409521
1737.056037,-3983.696590,-5403.503377,10140.821405
1737.056354,-6818.249932,-14211.954086,14211.954086
1737.056671,-12640.575717,-15618.345376,19023.292709
1737.056989,-16394.443657,-16432.571912,22576.281231
1737.057306,-16394.443657,-17098.757260,26721.434506
1737.057624,-13636.499864,-13471.748144,25241.022622
1737.057941,-6665.030833,-5551.544565,23834.631332
1737.058259,-1685.410096,8956.491898,8660.409521
1737.058576,6588.421283,15470.304188,4145.153275
1737.058894,11414.822920,10140.821405,8364.327145
1737.059211,13636.499864,8956.491898,6365.771101
1737.059528,18845.949251,14359.995275,-1332.370696
1737.059846,18616.120601,13989.892304,-10066.800811
1737.060163,15704.957709,6735.874072,-3923.091493
1737.060481,11874.480219,-2294.638420,4071.132681
1737.060798,2757.943793,-592.164754,3404.947333
1737.061116,76.609550,-4737.318029,6735.874072
1737.061433,-5975.544884,-2812.782580,7624.121203
1737.061750,-7431.126331,-9252.574275,13915.871710
1737.062068,-9269.755526,-15100.201217,18727.210333
1737.062385,-15015.471761,-11621.233289,15026.180623
1737.062703,-16241.224558,-10807.006753,21465.972318
1737.063020,-14325.985813,-7476.080014,22428.240043
1737.063338,-5975.544884,-2072.576638,20429.683999
1737.063655,-689.485948,9400.615463,7846.182985
1737.063973,1302.362347,8808.450710,5107.421000
1737.064290,3983.696590,4367.215058,6735.874072
1737.064607,7124.688131,3478.967927,9770.718434
1737.064925,8963.317327,3182.885551,4145.153275
1737.065242,7277.907231,5773.606348,-814.226536
1737.065560,5286.058936,5181.441594,-2294.638420
1737.065877,2604.724693,296.082377,7105.977043
1737.066195,-2374.896044,-1998.556043,10140.821405
1737.066512,-5286.058936,-0.000000,7105.977043
1737.066830,-6128.763984,296.082377,7476.080014
1737.067147,-5975.544884,-1850.514855,15248.242405
1737.067464,-7048.078582,-4663.297435,10732.986159
1737.067782,-5132.839837,-4589.276840,17690.922014
1737.068099,-4443.353888,-5107.421000,20947.828159
1737.068417,689.485948,1998.556043,15692.365970
1737.068734,7890.783629,7698.141797,10881.027347
1737.069052,11414.822920,9844.739029,6439.791695
1737.069369,11721.261119,6439.791695,3997.112087
1737.069686,13023.623466,4737.318029,5995.668130
1737.070004,10418.898773,1628.453072,4737.318029
1737.070321,9422.974625,1998.556043,4293.194464
1737.070639,7354.516781,3701.029710,-2664.741391
1737.070956,3370.820191,1406.391290,-1258.350101
1737.071274,1225.752797,-5773.606348,13249.686362
1737.071591,-4903.011187,-5181.441594,14508.036463
1737.071909,-6358.592633,-3775.050304,11473.192101
1737.072226,-6511.811733,-3404.947333,12805.562797
1737.072543,-5669.106685,-6809.894666,18949.272115
1737.072861,-5745.716235,-6587.832884,16728.654289
1737.073178,-4060.306139,-1628.453072,15692.365970
1737.073496,-2451.505594,-4071.132681,18505.148550
1737.073813,2145.067394,4737.318029,10066.800811
1737.074131,9039.926876,7624.121203,12731.542202
1737.074448,9269.755526,11399.171507,666.185348
1737.074765,10725.336972,3923.091493,1776.494261
1737.075083,5669.106685,-1850.514855,4293.194464
1737.075400,4979.620737,-4811.338623,7698.141797
1737.075718,919.314598,-1924.535449,6069.688724
1737.076035,-2604.724693,222.061783,222.061783
1737.076353,-5898.935335,-6735.874072,8068.244768
1737.076670,-10725.336972,-6661.853478,17987.004391
1737.076988,-11338.213370,-1036.288319,19245.354492
1737.077305,-9882.631924,2738.761985,9030.512492
1737.077622,-6588.421283,1406.391290,7772.162391
1737.077940,-3830.477490,-74.020594,16950.716072
1737.078257,-995.924147,1480.411884,15544.324782
1737.078575,76.609550,7846.182985,4811.338623
1737.078892,6741.640382,4959.379811,11621.233289
1737.079210,10265.679673,8142.265362,8364.327145
1737.079527,14632.424012,7031.956449,6365.771101
1737.079844,13023.623466,7550.100608,1036.288319
1737.080162,11414.822920,148.041188,3034.844362
1737.080479,6128.763984,-6365.771101,7031.956449
1737.080797,4673.182538,-6587.832884,8660.409521
1737.081114,-1149.143247,2220.617826,-222.061783
1737.081432,-6052.154434,-74.020594,-740.205942
1737.081749,-7660.954980,-7698.141797,11029.068536
1737.082067,-12487.356617,-7402.059420,19319.375086
1737.082384,-10035.851024,-148.041188,16654.633695
1737.082701,-6894.859482,2146.597232,10362.883188
1737.083019,-3524.039291,666.185348,15174.221811
1737.083336,0.000000,-1480.411884,17987.004391
1737.083654,1378.971896,1554.432478,11177.109724
1737.083971,1302.362347,1406.391290,9548.656652
1737.084289,7354.516781,6143.709319,7402.059420
1737.084606,13176.842566,4367.215058,10955.047942
1737.084923,12563.966167,7772.162391,-296.082377
1737.085241,9806.022374,2738.761985,2664.741391
1737.085558,3677.258390,-3997.112087,6661.853478
1737.085876,1991.848295,-13175.665768,14137.933492
1737.086193,-4826.401637,-9474.636058,7920.203579
1737.086511,-7890.783629,-3478.967927,7550.100608
1737.086828,-10878.556072,-7105.977043,8660.409521
1737.087146,-12410.747068,-6587.832884,17987.004391
1737.087463,-9806.022374,-740.205942,19023.292709
1737.087780,-6665.030833,9474.636058,9252.574275
1737.088098,-536.266849,6957.935855,10658.965565
1737.088415,5439.278036,5107.421000,13027.624579
1737.088733,8273.831378,5107.421000,9992.780217
1737.089050,8580.269578,7772.162391,3034.844362
1737.089368,10878.556072,6365.771101,1258.350101
1737.089685,15321.909960,4367.215058,8808.450710
1737.090002,17007.320056,814.226536,7550.100608
1737.090320,13483.280765,3034.844362,2368.659014
1737.090637,7737.564530,-74.020594,2368.659014
1737.090955,4290.134789,-4885.359217,11029.068536
1737.091272,766.095498,-7031.956449,9326.594869
1737.091590,-7660.954980,1110.308913,4885.359217
1737.091907,-9729.412825,-4589.276840,8438.347739
1737.092225,-13636.499864,-6143.709319,13323.706956
1737.092542,-10801.946522,-5403.503377,25241.022622
1737.092859,-7431.126331,4145.153275,12657.521608
1737.093177,-2604.724693,8364.327145,8660.409521
1737.093494,1455.581446,2146.597232,15914.427753
1737.093812,2987.772442,-518.144159,15914.427753
1737.094129,4979.620737,2072.576638,11621.233289
1737.094447,6665.030833,4737.318029,4885.359217
1737.094764,12487.356617,4663.297435,3627.009116
1737.095081,16930.710506,1184.329507,6957.935855
1737.095399,13023.623466,5403.503377,-1554.432478
1737.095716,8656.879127,-814.226536,2146.597232
1737.096034,-306.438199,-4293.194464,8512.368333
1737.096351,-1915.238745,-15026.180623,16432.571912
1737.096669,-10955.165621,-8512.368333,10881.027347
1737.096986,-16700.881856,-5995.668130,10510.924376
1737.097304,-15858.176809,-9992.780217,14137.933492
1737.097621,-18845.949251,-6143.709319,16136.489536
1737.097938,-10955.165621,-1332.370696,20133.601622
1737.098256,-7277.907231,9252.574275,10288.862594
1737.098573,-1685.410096,8882.471304,7550.100608
1737.098891,6205.373534,7550.100608,11769.274478
1737.099208,6281.983084,8216.285956,12435.459826
1737.099526,6128.763984,7772.162391,2072.576638
1737.099843,12563.966167,8512.368333,-444.123565
1737.100160,15551.738609,6883.915261,10955.047942
1737.100478,14938.862211,4885.359217,5033.400406
1737.100795,13789.718964,2516.700203,814.226536
1737.101113,4903.011187,3108.864956,-592.164754
1737.101430,5362.668486,-7624.121203,14730.098246
1737.101748,-2528.115143,-6143.709319,6291.750507
1737.102065,-8120.612279,-1184.329507,-1702.473667
1737.102383,-11644.651570,-8586.388927,7994.224174
1737.102700,-17160.539155,-8956.491898,18135.045579
1737.103017,-13100.233016,-4811.338623,22280.198854
1737.103335,-9269.755526,8660.409521,9992.780217
1737.103652,-4136.915689,4737.318029,9844.739029
1737.103970,-306.438199,814.226536,13693.809927
1737.104287,4519.963438,-222.061783,19541.436869
1737.104605,6511.811733,4959.379811,6291.750507
1737.104922,11338.213370,4219.173869,7105.977043
1737.105239,16088.005458,4293.194464,12361.439231
1737.105557,19458.825649,3404.947333,7550.100608
1737.105874,19228.997000,6883.915261,-1332.370696
1737.106192,10955.165621,1332.370696,370.102971
1737.106509,6741.640382,-7920.203579,14508.036463
1737.106827,2604.724693,-8882.471304,9770.718434
1737.107144,-3217.601092,-444.123565,6439.791695
1737.107462,-9806.022374,-4071.132681,1628.453072
1737.107779,-15551.738609,-8660.409521,8956.491898
1737.108096,-16930.710506,-11695.253884,18949.272115
1737.108414,-14938.862211,-4293.194464,17246.798449
1737.108731,-9959.241474,-1332.370696,11399.171507
1737.109049,-7354.516781,-2220.617826,15544.324782
1737.109366,-2757.943793,-3775.050304,16506.592507
1737.109684,0.000000,518.144159,13915.871710
1737.110001,842.705048,148.041188,13027.624579
1737.110318,7201.297681,296.082377,16580.613101
1737.110636,15321.909960,7179.997637,17024.736666
1737.110953,20531.359346,16950.716072,4145.153275
1737.111271,22063.550342,17098.757260,-296.082377
1737.111588,20607.968896,9992.780217,3775.050304
1737.111906,18156.463303,2442.679609,5329.482782
1737.112223,12104.308868,5551.544565,-2738.761985
1737.112541,4749.792088,8068.244768,-9326.594869
1737.112858,-1072.533697,-1036.288319,-5625.565159
1737.113175,-7814.174080,-8956.491898,6217.729913
1737.113493,-12410.747068,-7254.018232,12213.398043
1737.113810,-16930.710506,888.247130,1776.494261
1737.114128,-14785.643111,-5403.503377,9548.656652
1737.114445,-14479.204912,-13397.727550,17468.860231
1737.114763,-14172.766713,-16210.510130,25981.228564
1737.115080,-15398.519510,-12139.377449,22132.157666
1737.115397,-11644.651570,-6661.853478,18653.189738
1737.115715,-1991.848295,1332.370696,23390.507767
1737.116032,9499.584175,7846.182985,23390.507767
1737.116350,10035.851024,15618.345376,8216.285956
1737.116667,16777.491406,14508.036463,11251.130318
1737.116985,15704.957709,12435.459826,14508.036463
1737.117302,20454.749797,10584.944971,14582.057057
1737.117620,22140.159892,18505.148550,1258.350101
1737.117937,21680.502593,20799.786970,-7550.100608
1737.118254,20531.359346,6661.853478,-10214.842000
1737.118572,12793.794817,2220.617826,-9770.718434
1737.118889,4826.401637,-592.164754,-7550.100608
1737.119207,-1072.533697,814.226536,-5403.503377
1737.119524,-8350.440928,-4737.318029,-2590.720797
1737.119842,-12027.699319,-6439.791695,1184.329507
1737.120159,-17926.634653,-13545.768739,8808.450710
1737.120476,-31103.477219,-27387.619854,13915.871710
1737.120794,-38457.994000,-35529.885216,28275.866984
1737.121111,-32329.230016,-31014.628970,42857.924042
1737.121429,-25127.932334,-16580.613101,41525.553346
1737.121746,-16317.834107,-814.226536,30940.608376
1737.122064,0.000000,14730.098246,24722.878463
1737.122381,3830.477490,15988.448347,29386.175897
1737.122699,12180.918418,6143.709319,30644.525999
1737.123016,17160.539155,27165.558071,11843.295072
1737.123333,32788.887314,40785.347404,2368.659014
1737.123651,34167.859211,43820.191766,-11547.212695
1737.123968,49259.940521,28349.887579,962.267725
1737.124286,45199.634382,30718.546593,-19615.457463
1737.124603,43514.224286,16062.468941,-23982.672521
1737.124921,35240.392908,7031.956449,-25981.228564
1737.125238,19228.997000,6735.874072,-29386.175897
1737.125555,8810.098227,-10214.842000,-22428.240043
1737.125873,-1455.581446,-17616.901420,24130.713709
1737.126190,-25127.932334,-20059.581028,-11695.253884
1737.126508,-24591.665486,-26795.455100,19245.354492
1737.126825,-36083.097956,-42857.924042,24278.754898
1737.127143,-45046.415282,-35455.864622,35751.946999
1737.127460,-37921.727151,-41303.491564,54479.157331
1737.127778,-37308.850753,-28423.908173,49889.880491
1737.128095,-31103.477219,-16062.468941,41229.470969
1737.128412,-11491.432470,8882.471304,29238.134709
1737.128730,2757.943793,27831.743419,14730.098246
1737.129047,17696.806004,10658.965565,44634.418303
1737.129365,14402.595362,38564.729578,-3108.864956
1737.129682,27962.485677,52776.683665,-24130.713709
1737.130000,34857.345159,45300.603650,-3552.988522
1737.130317,41905.423741,27313.599260,-17690.922014
1737.130635,44127.100685,20059.581028,-21539.992912
1737.130952,31563.134518,13693.809927,-32050.917289
1737.131269,18156.463303,-7846.182985,-20133.601622
1737.131587,11491.432470,-1480.411884,-21762.054695
1737.131904,-536.266849,-19097.313304,31310.711347
1737.132222,-3140.991542,-31458.752535,36566.173535
1737.132539,-16854.100956,-29830.299463,18653.189738
1737.132857,-24208.617737,-26869.475695,38712.770767
1737.133174,-31333.305868,-40933.388593,34049.473332
1737.133491,-18386.291952,-30718.546593,40563.285622
1737.133809,-13330.061665,-7846.182985,18653.189738
1737.134126,-4366.744339,18431.127956,6143.709319
1737.134444,-4673.182538,30274.423028,-4071.132681
1737.134761,12257.527968,45966.788998,-7179.997637
1737.135079,24515.055936,31606.793723,-5995.668130
1737.135396,20837.797546,16432.571912,-8216.285956
1737.135714,25817.418283,16358.551318,-9548.656652
1737.136031,18539.511052,16802.674883,-15396.283594
1737.136348,21297.454844,-2072.576638,9252.574275
1737.136666,12563.966167,-13619.789333,23316.487173
1737.136983,1149.143247,-18431.127956,22354.219448
1737.137301,3983.696590,-6735.874072,21688.034101
1737.137618,-4136.915689,5699.585753,17320.819043
1737.137936,-1608.800546,5551.544565,28497.928767
1737.138253,1685.410096,13101.645173,10288.862594
1737.138570,4290.134789,21614.013506,-10955.047942
1737.138888,-4290.134789,15988.448347,-9918.759623
1737.139205,-6358.592633,4663.297435,-3775.050304
1737.139523,-10265.679673,-3701.029710,-16580.613101
1737.139840,-8656.879127,-9474.636058,-2590.720797
1737.140158,-7048.078582,-19911.539840,29238.134709
1737.140475,-7814.174080,-19837.519246,24648.857869
1737.140793,-1302.362347,-17320.819043,33161.226202
1737.141110,459.657299,-10362.883188,22280.198854
1737.141427,6128.763984,-11473.192101,29164.114115
1737.141745,5362.668486,6587.832884,17246.798449
1737.142062,10265.679673,19245.354492,14508.036463
1737.142380,14555.814462,31532.773129,7402.059420
1737.142697,15551.738609,39230.914926,370.102971
1737.143015,18079.853753,40045.141462,-4737.318029
1737.143332,14632.424012,40341.223839,-11103.089130
1737.143649,14479.204912,26573.393318,-16358.551318
1737.143967,5362.668486,-740.205942,-12583.501014
1737.144284,-4903.011187,-20429.683999,9400.615463
1737.144602,-10418.898773,-30274.423028,26277.310941
1737.144919,-12793.794817,-34715.658680,35603.905810
1737.145237,-10189.070123,-36788.235317,41895.656317
1737.145554,-9729.412825,-23834.631332,41673.594535
1737.145872,-4903.011187,-10436.903782,27905.764013
1737.146189,-6435.202183,9474.636058,8882.471304
1737.146506,1915.238745,16802.674883,14285.974681
1737.146824,4903.011187,24426.796086,7105.977043
1737.147141,12257.527968,29460.196492,-4071.132681
1737.147459,12257.527968,32346.999665,-7994.224174
1737.147776,10342.289223,28127.825796,-7624.121203
1737.148094,14249.376263,12583.501014,-4367.215058
1737.148411,12410.747068,-1036.288319,-4219.173869
1737.148728,10112.460574,-12509.480420,9104.533087
1737.149046,8120.612279,-14211.954086,21836.075289
1737.149363,3447.429741,-19393.395680,21243.910535
1737.149681,2987.772442,-18727.210333,28127.825796
1737.149998,-1072.533697,-15396.283594,27461.640448
1737.150316,-2298.286494,-5255.462188,17098.757260
1737.150633,-4213.525239,10140.821405,2886.803174
1737.150951,-3140.991542,17394.839637,-3552.988522
1737.151268,-2374.896044,11991.336260,-1110.308913
1737.151585,-536.266849,5995.668130,4811.338623
1737.151903,-3064.381992,8956.491898,6217.729913
1737.152220,-4749.792088,1184.329507,9474.636058
1737.152538,-4213.525239,-4885.359217,11917.315666
1737.152855,306.438199,-7476.080014,15248.242405
1737.153173,3217.601092,-4367.215058,15322.262999
1737.153490,7967.393179,-5107.421000,10807.006753
1737.153807,13330.061665,-2516.700203,7920.203579
1737.154125,12257.527968,7920.203579,1258.350101
1737.154442,16164.615008,7772.162391,740.205942
1737.154760,11031.775171,7328.038826,-740.205942
1737.155077,8733.488677,6957.935855,6069.688724
1737.155395,2451.505594,11991.336260,814.226536
1737.155712,-536.266849,9844.739029,-1406.391290
1737.156030,-2374.896044,888.247130,4737.318029
1737.156347,-4596.572988,-7179.997637,18209.066173
1737.156664,-4673.182538,-6291.750507,16654.633695
1737.156982,-3447.429741,-5477.523971,10658.965565
1737.157299,-2528.115143,-8438.347739,14582.057057
1737.157617,-842.705048,-6957.935855,20355.663405
1737.157934,3983.696590,-1184.329507,12509.480420
1737.158252,7737.564530,8364.327145,3478.967927
1737.158569,10878.556072,8438.347739,8586.388927
1737.158886,11184.994271,11177.109724,4293.194464
1737.159204,15015.471761,15026.180623,-1776.494261
1737.159521,15015.471761,17542.880825,-4811.338623
1737.159839,10418.898773,11399.171507,-2664.741391
1737.160156,5898.935335,2590.720797,2886.803174
1737.160474,1455.581446,-2590.720797,4811.338623
1737.160791,-2987.772442,-4515.256246,10881.027347
1737.161109,-7354.516781,-8734.430116,16062.468941
1737.161426,-7814.174080,-12657.521608,25981.228564
1737.161743,-8427.050478,-9918.759623,26351.331535
1737.162061,-9806.022374,-1406.391290,19097.313304
1737.162378,-5515.887586,2294.638420,17246.798449
1737.162696,-1225.752797,7772.162391,13693.809927
1737.163013,3753.867940,11843.295072,7846.182985
1737.163330,5745.716235,15248.242405,740.205942
1737.163648,7354.516781,14804.118840,-222.061783
1737.163965,11031.775171,11325.150913,1924.535449
1737.164283,9499.584175,8882.471304,2220.617826
1737.164600,8197.221829,2368.659014,4589.276840
1737.164917,4826.401637,-1184.329507,7105.977043
1737.165235,2451.505594,-6513.812290,17320.819043
1737.165552,0.000000,-6069.688724,16210.510130
1737.165869,-766.095498,-4441.235652,15100.201217
1737.166187,-2528.115143,-4293.194464,18357.107362
1737.166504,-2451.505594,-2072.576638,19097.313304
1737.166821,-766.095498,3478.967927,13767.830521
1737.167139,919.314598,10140.821405,10658.965565
1737.167456,3140.991542,11473.192101,10362.883188
1737.167774,3600.648841,13397.727550,9992.780217
1737.168091,5515.887586,13323.706956,5921.647536
1737.168408,6358.592633,11991.336260,5403.503377
1737.168726,6052.154434,8290.306550,5625.565159
1737.169043,8273.831378,2738.761985,7031.956449
1737.169360,10265.679673,-1036.288319,5847.626942
1737.169678,10112.460574,-1924.535449,6809.894666
1737.169995,7890.783629,-4219.173869,9400.615463
1737.170312,5822.325785,-4589.276840,11843.295072
1737.170630,4366.744339,-2886.803174,13397.727550
1737.170947,536.266849,-296.082377,14508.036463
1737.171265,-2757.943793,2960.823768,14730.098246
1737.171582,-3140.991542,5477.523971,13397.727550
1737.171899,-1762.019645,7179.997637,11917.315666
1737.172217,-2068.457845,6069.688724,9474.636058
1737.172534,0.000000,4959.379811,10362.883188
1737.172851,1302.362347,5329.482782,8216.285956
1737.173169,3370.820191,4293.194464,7105.977043
1737.173486,4596.572988,1184.329507,7105.977043
1737.173803,4903.011187,-74.020594,6809.894666
1737.174121,7660.954980,444.123565,5477.523971
1737.174438,7124.688131,1184.329507,3478.967927
1737.174755,6052.154434,-1850.514855,4811.338623
1737.175073,4519.963438,-2886.803174,6365.771101
1737.175390,2451.505594,962.267725,5625.565159
1737.175708,459.657299,740.205942,7772.162391
1737.176025,-2451.505594,-2294.638420,9992.780217
1737.176342,-3907.087040,-2738.761985,13027.624579
1737.176660,-3524.039291,-888.247130,15692.365970
1737.176977,-2987.772442,3330.926739,11177.109724
1737.177294,0.000000,4737.318029,11103.089130
1737.177612,229.828649,5255.462188,7772.162391
1737.177929,3830.477490,5403.503377,7402.059420
1737.178246,3907.087040,5847.626942,3182.885551
1737.178564,5439.278036,3775.050304,5403.503377
1737.178881,7277.907231,1110.308913,7328.038826
1737.179199,8044.002729,1406.391290,5329.482782
1737.179516,8427.050478,1628.453072,4145.153275
1737.179833,6205.373534,1110.308913,6439.791695
1737.180151,4673.182538,370.102971,8808.450710
1737.180468,2987.772442,1184.329507,7698.141797
1737.180785,919.314598,1776.494261,7550.100608
1737.181103,-995.924147,-444.123565,9992.780217
1737.181420,-2298.286494,-1776.494261,12657.521608
1737.181737,-1149.143247,-2294.638420,15618.345376
1737.182055,-383.047749,-0.000000,12805.562797
1737.182372,76.609550,1036.288319,11917.315666
1737.182689,1838.629195,666.185348,11621.233289
1737.183007,3064.381992,3182.885551,9474.636058
1737.183324,4213.525239,4737.318029,6735.874072
1737.183642,4596.572988,4071.132681,5847.626942
1737.183959,5362.668486,1406.391290,8068.244768
1737.184276,5362.668486,1924.535449,6809.894666
1737.184594,4596.572988,592.164754,7698.141797
1737.184911,2221.676944,-740.205942,10066.800811
1737.185228,1072.533697,-2146.597232,12435.459826
1737.185546,-842.705048,-0.000000,12657.521608
1737.185863,-1762.019645,1110.308913,13767.830521
1737.186180,-2681.334243,2516.700203,12805.562797
1737.186498,-1991.848295,2146.597232,13323.706956
1737.186815,-229.828649,3182.885551,12361.439231
1737.187133,1838.629195,2812.782580,11103.089130
1737.187450,2451.505594,4737.318029,9770.718434
1737.187767,3907.087040,4663.297435,8956.491898
1737.188085,4749.792088,4589.276840,7328.038826
1737.188402,4903.011187,5773.606348,6883.915261
1737.188719,4826.401637,4811.338623,7105.977043
1737.189037,3447.429741,4441.235652,8290.306550
1737.189354,3600.648841,4441.235652,9252.574275
1737.189671,3064.381992,4515.256246,8808.450710
1737.189989,2451.505594,2516.700203,9844.739029
1737.190306,2068.457845,-1036.288319,12287.418637
1737.190624,689.485948,-1554.432478,13545.768739
1737.190941,0.000000,-814.226536,13101.645173
1737.191258,0.000000,1258.350101,11769.274478
1737.191576,383.047749,3404.947333,10658.965565
1737.191893,1608.800546,4885.359217,10362.883188
1737.192210,2451.505594,4885.359217,9992.780217
1737.192528,2451.505594,3923.091493,9770.718434
1737.192845,3217.601092,2664.741391,10214.842000
1737.193162,4519.963438,1554.432478,10584.944971
1737.193480,4903.011187,962.267725,10140.821405
1737.193797,6052.154434,1628.453072,10066.800811
1737.194114,6128.763984,1480.411884,9178.553681
1737.194432,6818.249932,1924.535449,8068.244768
1737.194749,7048.078582,2516.700203,8142.265362
1737.195067,5822.325785,4293.194464,7179.997637
1737.195384,4366.744339,4367.215058,7031.956449
1737.195701,1762.019645,2368.659014,8586.388927
1737.196019,-459.657299,296.082377,10066.800811
1737.196336,-1532.190996,-1110.308913,10807.006753
1737.196653,-1378.971896,-814.226536,10362.883188
1737.196971,-1149.143247,-1406.391290,11547.212695
1737.197288,0.000000,-370.102971,11843.295072
1737.197605,1225.752797,1406.391290,11547.212695
1737.197923,2451.505594,3330.926739,10510.924376
1737.198240,3370.820191,4663.297435,9770.718434
1737.198558,4136.915689,5847.626942,7550.100608
1737.198875,4903.011187,6587.832884,4811.338623
1737.199192,6358.592633,6513.812290,4071.132681
1737.199510,6435.202183,6217.729913,2442.679609
1737.199827,6741.640382,5921.647536,2368.659014
1737.200144,6052.154434,4737.318029,2516.700203
1737.200462,4826.401637,2368.659014,4589.276840
1737.200779,3140.991542,-148.041188,7402.059420
1737.201096,1302.362347,-814.226536,9770.718434
1737.201414,383.047749,-296.082377,9918.759623
1737.201731,383.047749,1184.329507,9918.759623
1737.202048,1149.143247,2368.659014,9696.697840
1737.202366,1838.629195,3775.050304,8586.388927
1737.202683,2451.505594,4959.379811,8068.244768
1737.203001,3217.601092,4589.276840,7920.203579
1737.203318,3983.696590,4071.132681,7624.121203
1737.203635,5132.839837,3404.947333,8142.265362
1737.203953,6205.373534,2516.700203,9030.512492
1737.204270,6741.640382,1998.556043,8586.388927
1737.204587,7277.907231,1924.535449,9252.574275
1737.204905,7814.174080,1776.494261,9252.574275
1737.205222,7967.393179,2516.700203,9104.533087
1737.205539,8427.050478,3775.050304,7772.162391
1737.205857,7048.078582,3775.050304,8512.368333
1737.206174,5898.935335,3404.947333,8660.409521
1737.206492,4903.011187,2812.782580,9696.697840
1737.206809,3600.648841,1850.514855,10732.986159
1737.207126,2451.505594,2146.597232,11917.315666
1737.207444,2221.676944,2294.638420,11621.233289
1737.207761,2374.896044,1850.514855,12213.398043
1737.208078,2604.724693,740.205942,12879.583391
1737.208396,2757.943793,-0.000000,13249.686362
1737.208713,2911.162892,444.123565,12657.521608
1737.209030,3753.867940,1480.411884,11991.336260
1737.209348,4519.963438,3330.926739,10362.883188
1737.209665,4979.620737,4367.215058,9696.697840
1737.209982,4903.011187,4367.215058,8660.409521
1737.210300,4213.525239,4219.173869,8734.430116
1737.210617,2987.772442,3552.988522,8512.368333
1737.210935,2068.457845,2368.659014,9030.512492
1737.211252,612.876398,1110.308913,10066.800811
1737.211569,-1225.752797,370.102971,10584.944971
1737.211887,-2528.115143,-222.061783,10881.027347
1737.212204,-3370.820191,-444.123565,11473.192101
1737.212521,-3677.258390,222.061783,11917.315666
1737.212839,-3524.039291,1480.411884,11399.171507
1737.213156,-3370.820191,2960.823768,10066.800811
1737.213473,-2757.943793,3552.988522,10066.800811
1737.213791,-2528.115143,3182.885551,9918.759623
1737.214108,-1378.971896,2516.700203,9252.574275
1737.214426,-1072.533697,2294.638420,9326.594869
1737.214743,0.000000,1998.556043,9252.574275
1737.215060,1149.143247,1480.411884,10214.842000
1737.215378,2451.505594,1702.473667,10436.903782
1737.215695,3524.039291,2368.659014,9622.677246
1737.216012,3907.087040,3108.864956,9770.718434
1737.216330,4826.401637,3627.009116,9104.533087
1737.216647,5439.278036,4737.318029,7402.059420
1737.216964,5515.887586,5699.585753,5477.523971
1737.217282,5745.716235,4885.359217,5033.400406
1737.217599,5439.278036,3034.844362,5181.441594
1737.217917,5056.230287,1036.288319,6143.709319
1737.218234,4290.134789,-962.267725,7179.997637
1737.218551,3600.648841,-2442.679609,8956.491898
1737.218869,2604.724693,-3256.906145,10510.924376
1737.219186,2604.724693,-2590.720797,12139.377449
1737.219503,2298.286494,-1628.453072,11917.315666
1737.219821,2298.286494,888.247130,10807.006753
1737.220138,3294.210641,3330.926739,9474.636058
1737.220455,4060.306139,4737.318029,7698.141797
1737.220773,4903.011187,5921.647536,7402.059420
1737.221090,6281.983084,5403.503377,6735.874072
1737.221407,5745.716235,4959.379811,5181.441594
1737.221725,6358.592633,2886.803174,7031.956449
1737.222042,6205.373534,2368.659014,7550.100608
1737.222360,6281.983084,1184.329507,7772.162391
1737.222677,6741.640382,518.144159,8142.265362
1737.222994,5592.497135,518.144159,8438.347739
1737.223312,6205.373534,814.226536,9622.677246
1737.223629,5286.058936,2368.659014,8216.285956
1737.223946,4443.353888,3627.009116,7402.059420
1737.224264,4060.306139,3256.906145,8734.430116
1737.224581,2298.286494,3330.926739,8364.327145
1737.224898,2221.676944,3108.864956,9030.512492
1737.225216,1838.629195,2886.803174,10140.821405
1737.225533,919.314598,2812.782580,9992.780217
1737.225851,1915.238745,2442.679609,11399.171507
1737.226168,2145.067394,2960.823768,10362.883188
1737.226485,2987.772442,2146.597232,11547.212695
1737.226803,1915.238745,2664.741391,9696.697840
1737.227120,3447.429741,2220.617826,11103.089130
1737.227437,2604.724693,3404.947333,9474.636058
1737.227755,3907.087040,3627.009116,9104.533087
1737.228072,2987.772442,4589.276840,7772.162391
1737.228389,3064.381992,4959.379811,7624.121203
1737.228707,2834.553343,3552.988522,7920.203579
1737.229024,1532.190996,3108.864956,9474.636058
1737.229341,1915.238745,1554.432478,11843.295072
1737.229659,229.828649,1702.473667,11547.212695
1737.229976,0.000000,2072.576638,12435.459826
1737.230294,-689.485948,1332.370696,13323.706956
1737.230611,-459.657299,2146.597232,14063.912898
1737.230928,689.485948,4367.215058,12139.377449
1737.231246,919.314598,6217.729913,10881.027347
1737.231563,1991.848295,6809.894666,10066.800811
1737.231880,2528.115143,5921.647536,9178.553681
1737.232198,3064.381992,5921.647536,7624.121203
1737.232515,2451.505594,4663.297435,7402.059420
1737.232832,2145.067394,2146.597232,9252.574275
1737.233150,1915.238745,1406.391290,9918.759623
1737.233467,1455.581446,1776.494261,10436.903782
1737.233785,1225.752797,1110.308913,11177.109724
1737.234102,306.438199,1406.391290,12583.501014
1737.234419,0.000000,2368.659014,13101.645173
1737.234737,919.314598,3552.988522,11769.274478
1737.235054,1149.143247,4071.132681,10140.821405
1737.235371,1838.629195,3997.112087,10140.821405
1737.235689,2145.067394,4145.153275,8808.450710
1737.236006,3140.991542,3404.947333,7328.038826
1737.236323,3524.039291,2146.597232,7624.121203
1737.236641,3830.477490,814.226536,8068.244768
1737.236958,4290.134789,-74.020594,8660.409521
1737.237275,4290.134789,-888.247130,9474.636058
1737.237593,4366.744339,-1258.350101,10955.047942
1737.237910,4136.915689,-296.082377,11843.295072
1737.238228,5362.668486,2072.576638,11177.109724
1737.238545,5822.325785,4663.297435,9622.677246
1737.238862,7124.688131,6513.812290,8808.450710
1737.239180,7584.345430,6587.832884,7179.997637
1737.239497,8044.002729,7254.018232,5995.668130
1737.239814,7660.954980,6365.771101,4219.173869
1737.240132,6971.469032,4367.215058,4441.235652
1737.240449,6205.373534,1258.350101,6957.935855
1737.240766,4596.572988,-1554.432478,7328.038826
1737.241084,2757.943793,-3775.050304,9400.615463
1737.241401,1532.190996,-5033.400406,10955.047942
1737.241719,1378.971896,-3478.967927,11621.233289
1737.242036,1685.410096,-2368.659014,11177.109724
1737.242353,1915.238745,-962.267725,11991.336260
1737.242671,2528.115143,1776.494261,11029.068536
1737.242988,3140.991542,4663.297435,7846.182985
1737.243305,4366.744339,5995.668130,6439.791695
1737.243623,4519.963438,5329.482782,5551.544565
1737.243940,4826.401637,5181.441594,4811.338623
1737.244257,5286.058936,3627.009116,5033.400406
1737.244575,3524.039291,962.267725,5699.585753
1737.244892,3140.991542,-1924.535449,9104.533087
1737.245210,1532.190996,-2590.720797,8734.430116
1737.245527,383.047749,-3182.885551,9548.656652
1737.245844,-459.657299,-2294.638420,10288.862594
1737.246162,-1455.581446,-1258.350101,10436.903782
1737.246479,-1762.019645,1850.514855,8290.306550
1737.246796,-1378.971896,2368.659014,10140.821405
1737.247114,-1685.410096,3552.988522,10214.842000
1737.247431,-919.314598,3478.967927,10066.800811
1737.247748,0.000000,4515.256246,9696.697840
1737.248066,842.705048,4441.235652,10288.862594
1737.248383,842.705048,5773.606348,8586.388927
1737.248700,2221.676944,5255.462188,8216.285956
1737.249018,2145.067394,5403.503377,7031.956449
1737.249335,3524.039291,4663.297435,8068.244768
1737.249653,4290.134789,3997.112087,8068.244768
1737.249970,4136.915689,2146.597232,7476.080014
1737.250287,3600.648841,888.247130,8956.491898
1737.250605,2911.162892,222.061783,10436.903782
1737.250922,2374.896044,-296.082377,11547.212695
1737.251239,1378.971896,1036.288319,12361.439231
1737.251557,1532.190996,3330.926739,12361.439231
1737.251874,2604.724693,7624.121203,10584.944971
1737.252191,3064.381992,9400.615463,9696.697840
1737.252509,3753.867940,9770.718434,9252.574275
1737.252826,3600.648841,9622.677246,7179.997637
1737.253144,4213.525239,7846.182985,7254.018232
1737.253461,4366.744339,5255.462188,7772.162391
1737.253778,3524.039291,2294.638420,8290.306550
1737.254096,2987.772442,-888.247130,8734.430116
1737.254413,2604.724693,-3627.009116,9770.718434
1737.254730,459.657299,-5329.482782,12139.377449
1737.255048,229.828649,-5773.606348,14656.077652
1737.255365,-1302.362347,-2738.761985,14508.036463
1737.255682,-1149.143247,2072.576638,12805.562797
1737.256000,-766.095498,3701.029710,11695.253884
1737.256317,-2145.067394,3478.967927,12065.356855
1737.256634,-1991.848295,3256.906145,13545.768739
1737.256952,0.000000,4145.153275,13767.830521
1737.257269,1378.971896,5181.441594,10140.821405
1737.257587,3294.210641,4515.256246,8290.306550
1737.257904,2681.334243,1776.494261,6513.812290
1737.258221,3217.601092,-2072.576638,8142.265362
1737.258539,2757.943793,-5995.668130,9992.780217
1737.258856,1762.019645,-7402.059420,10955.047942
1737.259173,1991.848295,-5921.647536,9770.718434
1737.259491,1685.410096,-3775.050304,9400.615463
1737.259808,1225.752797,-2220.617826,11325.150913
1737.260125,229.828649,-1776.494261,11917.315666
1737.260443,-1838.629195,-1406.391290,11029.068536
1737.260760,-1149.143247,-814.226536,11177.109724
1737.261078,-1455.581446,2294.638420,10658.965565
1737.261395,536.266849,2886.803174,9696.697840
1737.261712,1378.971896,2590.720797,8660.409521
1737.262030,1532.190996,814.226536,8808.450710
1737.262347,1455.581446,370.102971,8290.306550
1737.262664,1838.629195,-518.144159,6957.935855
1737.262982,3140.991542,-2442.679609,5699.585753
1737.263299,1991.848295,-2146.597232,5995.668130
1737.263616,1532.190996,-2442.679609,5033.400406
1737.263934,-1762.019645,-4441.235652,5033.400406
1737.264251,-3217.601092,-7105.977043,8216.285956
1737.264568,-3677.258390,-8068.244768,11251.130318
1737.264886,-3983.696590,-5551.544565,11621.233289
1737.265203,-2987.772442,-3849.070898,10955.047942
1737.265521,-4826.401637,-222.061783,9104.533087
1737.265838,-4290.134789,518.144159,9622.677246
1737.266155,-3677.258390,3404.947333,8808.450710
1737.266473,-1838.629195,3404.947333,8660.409521
1737.266790,0.000000,3478.967927,5921.647536
1737.267107,1149.143247,2738.761985,4071.132681
1737.267425,1762.019645,666.185348,3997.112087
1737.267742,2298.286494,-1628.453072,5625.565159
1737.268059,1991.848295,-4515.256246,7328.038826
1737.268377,842.705048,-5625.565159,7846.182985
1737.268694,-153.219100,-7328.038826,8142.265362
1737.269011,-1532.190996,-4959.379811,9844.739029
1737.269329,-995.924147,-3775.050304,11917.315666
1737.269646,-2528.115143,-370.102971,9844.739029
1737.269963,-1685.410096,740.205942,11843.295072
1737.270281,-2374.896044,2590.720797,11621.233289
1737.270598,-1225.752797,3775.050304,13619.789333
1737.270915,1838.629195,5477.523971,10807.006753
1737.271233,3064.381992,5995.668130,7179.997637
1737.271550,4903.011187,5921.647536,6735.874072
1737.271867,5898.935335,4663.297435,4959.379811
1737.272185,5515.887586,1184.329507,4737.318029
1737.272502,6128.763984,-1850.514855,8808.450710
1737.272819,5745.716235,-3478.967927,8734.430116
1737.273137,3447.429741,-3034.844362,8364.327145
1737.273454,3370.820191,-1924.535449,11547.212695
1737.273771,2681.334243,-814.226536,13323.706956
1737.274089,1532.190996,1406.391290,13101.645173
1737.274406,2987.772442,3701.029710,11399.171507
1737.274723,1762.019645,5847.626942,11473.192101
1737.275041,3217.601092,5773.606348,12509.480420
1737.275358,4136.915689,6809.894666,11695.253884
1737.275676,4290.134789,7179.997637,9104.533087
1737.275993,4903.011187,7920.203579,8216.285956
1737.276310,4826.401637,6809.894666,5403.503377
1737.276628,3753.867940,3849.070898,6587.832884
1737.276945,3294.210641,814.226536,9622.677246
1737.277262,1302.362347,-666.185348,9400.615463
1737.277580,-459.657299,-2368.659014,9326.594869
1737.277897,-536.266849,-3997.112087,11325.150913
1737.278214,-2451.505594,-6587.832884,14285.974681
1737.278532,-3907.087040,-5625.565159,14359.995275
1737.278849,-4749.792088,-2738.761985,14359.995275
1737.279166,-4826.401637,-1406.391290,15248.242405
1737.279484,-4136.915689,888.247130,16062.468941
1737.279801,-2987.772442,4811.338623,14063.912898
1737.280118,-1225.752797,8882.471304,10807.006753
1737.280436,-766.095498,10288.862594,6217.729913
1737.280753,1378.971896,7179.997637,5847.626942
1737.281070,1685.410096,4293.194464,4959.379811
1737.281388,2911.162892,-0.000000,6735.874072
1737.281705,919.314598,-5107.421000,6735.874072
1737.282022,-766.095498,-9622.677246,9030.512492
1737.282340,-919.314598,-11177.109724,12435.459826
1737.282657,-2757.943793,-10807.006753,14582.057057
1737.282974,-3983.696590,-8956.491898,15544.324782
1737.283292,-4519.963438,-3775.050304,15248.242405
1737.283609,-3064.381992,2072.576638,11103.089130
1737.283926,-2451.505594,7031.956449,7624.121203
1737.284244,-1378.971896,6883.915261,8586.388927
1737.284561,-995.924147,3997.112087,8216.285956
1737.284878,76.609550,2960.823768,7550.100608
1737.285196,2221.676944,2516.700203,6513.812290
1737.285513,3217.601092,296.082377,4959.379811
1737.285831,2911.162892,-2960.823768,5403.503377
1737.286148,3907.087040,-4145.153275,6291.750507
1737.286465,2604.724693,-7254.018232,6143.709319
1737.286783,536.266849,-7920.203579,8364.327145
1737.287100,612.876398,-8290.306550,10288.862594
1737.287417,306.438199,-4737.318029,9252.574275
1737.287735,2145.067394,-2072.576638,9400.615463
1737.288052,229.828649,-1702.473667,9030.512492
1737.288369,-689.485948,-962.267725,9918.759623
1737.288687,459.657299,1998.556043,9622.677246
1737.289004,1991.848295,4663.297435,7994.224174
1737.289321,3830.477490,5329.482782,7105.977043
1737.289639,4596.572988,3923.091493,5329.482782
1737.289956,4673.182538,1702.473667,4071.132681
1737.290273,4903.011187,-666.185348,5699.585753
1737.290591,4366.744339,-2960.823768,4589.276840
1737.290908,4366.744339,-4515.256246,6735.874072
1737.291225,3370.820191,-5255.462188,7476.080014
1737.291543,2681.334243,-3775.050304,6513.812290
1737.291860,459.657299,-7031.956449,8586.388927
1737.292177,-1225.752797,-7105.977043,11547.212695
1737.292495,-1608.800546,-4811.338623,11843.295072
1737.292812,-2604.724693,-1036.288319,10436.903782
1737.293129,-2145.067394,-814.226536,13915.871710
1737.293447,-1838.629195,2368.659014,14804.118840
1737.293764,-1072.533697,6291.750507,11843.295072
1737.294081,1991.848295,9252.574275,8142.265362
1737.294399,2757.943793,9770.718434,5995.668130
1737.294716,4213.525239,7031.956449,4811.338623
1737.295033,5439.278036,4737.318029,4219.173869
1737.295351,4596.572988,1332.370696,3849.070898
1737.295668,2681.334243,-3997.112087,7105.977043
1737.295986,1225.752797,-8216.285956,9474.636058
1737.296303,-919.314598,-7994.224174,10584.944971
1737.296620,-2528.115143,-6217.729913,13545.768739
1737.296938,-3830.477490,-3701.029710,14730.098246
1737.297255,-4979.620737,666.185348,13841.851115
1737.297572,-4136.915689,4145.153275,15248.242405
1737.297890,-4060.306139,7031.956449,13323.706956
1737.298207,-3677.258390,7920.203579,12139.377449
1737.298524,-2068.457845,8882.471304,9918.759623
1737.298842,766.095498,9326.594869,7402.059420
1737.299159,1838.629195,5921.647536,6143.709319
1737.299476,1762.019645,2146.597232,7846.182985
1737.299794,1991.848295,-1110.308913,8734.430116
1737.300111,0.000000,-2664.741391,7772.162391
1737.300428,-536.266849,-5699.585753,11029.068536
1737.300746,-1455.581446,-6513.812290,12361.439231
1737.301063,-2145.067394,-5699.585753,14211.954086
1737.301380,-2374.896044,-4737.318029,14211.954086
1737.301698,-3140.991542,-2812.782580,14434.015869
1737.302015,-3447.429741,-740.205942,14804.118840
1737.302332,-2298.286494,1332.370696,15248.242405
1737.302650,-1302.362347,4959.379811,13175.665768
1737.302967,0.000000,7920.203579,10140.821405
1737.303284,2374.896044,10658.965565,7846.182985
1737.303602,4443.353888,9474.636058,5551.544565
1737.303919,3983.696590,6365.771101,5773.606348
1737.304236,5745.716235,2664.741391,6957.935855
1737.304554,5056.230287,-1480.411884,5921.647536
1737.304871,3983.696590,-5181.441594,6735.874072
1737.305188,3217.601092,-10288.862594,11843.295072
1737.305506,536.266849,-10732.986159,13323.706956
1737.305823,0.000000,-8882.471304,13693.809927
1737.306141,306.438199,-5921.647536,13175.665768
1737.306458,-919.314598,-1850.514855,12583.501014
1737.306775,0.000000,2960.823768,11843.295072
1737.307093,459.657299,5773.606348,10362.883188
1737.307410,536.266849,7550.100608,9030.512492
1737.307727,3370.820191,9178.553681,8882.471304
1737.308045,5132.839837,11103.089130,3997.112087
1737.308362,7354.516781,7698.141797,1332.370696
1737.308679,7048.078582,1850.514855,2442.679609
1737.308997,5592.497135,-3034.844362,4737.318029
1737.309314,4366.744339,-7402.059420,4515.256246
1737.309631,2068.457845,-9770.718434,5329.482782
1737.309949,-306.438199,-12657.521608,10510.924376
1737.310266,-2528.115143,-10955.047942,12287.418637
1737.310583,-2604.724693,-6217.729913,12435.459826
1737.310901,-3370.820191,-2368.659014,10955.047942
1737.311218,-4060.306139,888.247130,10881.027347
1737.311535,-2757.943793,3849.070898,12657.521608
1737.311853,-1225.752797,7179.997637,9844.739029
1737.312170,536.266849,8142.265362,8734.430116
1737.312487,1762.019645,8586.388927,5033.400406
1737.312805,2604.724693,5699.585753,3034.844362
1737.313122,4596.572988,2664.741391,3849.070898
1737.313439,4596.572988,-1924.535449,4811.338623
1737.313757,3907.087040,-6661.853478,6291.750507
1737.314074,1991.848295,-9400.615463,7031.956449
1737.314391,766.095498,-9400.615463,7550.100608
1737.314709,-612.876398,-8808.450710,8438.347739
1737.315026,-1991.848295,-7920.203579,11843.295072
1737.315343,-2681.334243,-6217.729913,13693.809927
1737.315661,-4443.353888,-814.226536,12657.521608
1737.315978,-3217.601092,1258.350101,14582.057057
1737.316296,-3064.381992,3627.009116,16210.510130
1737.316613,-689.485948,5773.606348,15840.407159
1737.316930,1455.581446,11029.068536,8882.471304
1737.317248,3140.991542,12657.521608,4071.132681
1737.317565,5975.544884,10732.986159,4737.318029
1737.317882,7660.954980,7994.224174,2738.761985
1737.318200,9116.536426,4441.235652,2072.576638
1737.318517,6894.859482,-2072.576638,2294.638420
1737.318834,4749.792088,-7994.224174,6661.853478
1737.319152,1532.190996,-10510.924376,9252.574275
1737.319469,-995.924147,-9696.697840,11695.253884
1737.319786,-2221.676944,-7328.038826,16432.571912
1737.320104,-4673.182538,-3478.967927,16580.613101
1737.320421,-5515.887586,1998.556043,14359.995275
1737.320738,-5209.449386,6143.709319,14656.077652
1737.321056,-5056.230287,8438.347739,14804.118840
1737.321373,-1991.848295,10066.800811,15026.180623
1737.321690,766.095498,14952.160028,8364.327145
1737.322008,3217.601092,13767.830521,4737.318029
1737.322325,4749.792088,8882.471304,4515.256246
1737.322642,6281.983084,2368.659014,6809.894666
1737.322960,5515.887586,-2812.782580,6809.894666
1737.323277,3064.381992,-7254.018232,6809.894666
1737.323594,2145.067394,-10807.006753,10881.027347
1737.323912,306.438199,-8734.430116,12509.480420
1737.324229,76.609550,-7476.080014,15248.242405
1737.324546,-995.924147,-4737.318029,15544.324782
1737.324864,-2911.162892,-148.041188,15248.242405
1737.325181,-2834.553343,3478.967927,14656.077652
1737.325498,-2374.896044,7994.224174,13545.768739
1737.325816,-1225.752797,9770.718434,11325.150913
1737.326133,1838.629195,11695.253884,9622.677246
1737.326451,2911.162892,10288.862594,4959.379811
1737.326768,4213.525239,6365.771101,4515.256246
1737.327085,4826.401637,888.247130,6291.750507
1737.327403,4596.572988,-2886.803174,7254.018232
1737.327720,4443.353888,-7624.121203,6883.915261
1737.328037,2145.067394,-10881.027347,9030.512492
1737.328355,229.828649,-11621.233289,12287.418637
1737.328672,-1762.019645,-8882.471304,12731.542202
1737.328989,-995.924147,-4811.338623,12139.377449
1737.329307,-1149.143247,-1036.288319,12361.439231
1737.329624,-1991.848295,2368.659014,12139.377449
1737.329941,-2528.115143,6069.688724,11251.130318
1737.330259,-2374.896044,6661.853478,12287.418637
1737.330576,-1072.533697,8808.450710,11103.089130
1737.330893,1378.971896,11473.192101,6291.750507
1737.331211,3447.429741,12213.398043,74.020594
1737.331528,5209.449386,7105.977043,-296.082377
1737.331845,6588.421283,-0.000000,2442.679609
1737.332163,5439.278036,-6069.688724,2664.741391
1737.332480,3217.601092,-11843.295072,4145.153275
1737.332797,1455.581446,-15544.324782,8512.368333
1737.333115,-1838.629195,-13989.892304,11547.212695
1737.333432,-2604.724693,-10881.027347,13249.686362
1737.333749,-4060.306139,-5699.585753,13619.789333
1737.334067,-5669.106685,1036.288319,11917.315666
1737.334384,-3907.087040,5773.606348,13027.624579
1737.334701,-3830.477490,9474.636058,9474.636058
1737.335019,-842.705048,8364.327145,11177.109724
1737.335336,306.438199,9030.512492,9548.656652
1737.335653,2298.286494,9992.780217,3404.947333
1737.335971,5515.887586,5107.421000,2738.761985
1737.336288,5898.935335,-1332.370696,3330.926739
1737.336606,6052.154434,-6587.832884,6883.915261
1737.336923,3524.039291,-9400.615463,5403.503377
1737.337240,2451.505594,-11991.336260,8882.471304
1737.337558,766.095498,-11547.212695,9992.780217
1737.337875,0.000000,-8512.368333,13101.645173
1737.338192,-459.657299,-4737.318029,14434.015869
1737.338510,-2068.457845,148.041188,12953.603985
1737.338827,-1685.410096,3478.967927,14730.098246
1737.339144,-459.657299,7402.059420,14730.098246
1737.339462,1991.848295,10140.821405,12065.356855
1737.339779,4213.525239,13619.789333,7772.162391
1737.340096,6281.983084,12953.603985,4441.235652
1737.340414,7584.345430,10584.944971,1036.288319
1737.340731,7354.516781,4959.379811,1628.453072
1737.341048,7660.954980,-1332.370696,5625.565159
1737.341366,5975.544884,-6069.688724,5921.647536
1737.341683,3677.258390,-9992.780217,8364.327145
1737.342000,995.924147,-11473.192101,12805.562797
1737.342318,-1378.971896,-8660.409521,13915.871710
1737.342635,-1991.848295,-4811.338623,15396.283594
1737.342952,-2834.553343,-814.226536,15988.448347
