#time,accel_x,accel_y,accel_z
1114.082174,689.485948,444.123565,9104.533087
1114.082492,536.266849,370.102971,9030.512492
1114.082811,612.876398,518.144159,9178.553681
1114.083130,229.828649,592.164754,9474.636058
1114.083449,383.047749,370.102971,9326.594869
1114.083768,229.828649,222.061783,9178.553681
1114.084087,536.266849,370.102971,9178.553681
1114.084406,459.657299,370.102971,9252.574275
1114.084724,842.705048,222.061783,9252.574275
1114.085043,459.657299,370.102971,9400.615463
1114.085362,459.657299,222.061783,9178.553681
1114.085681,306.438199,444.123565,9400.615463
1114.086000,536.266849,148.041188,9252.574275
1114.086319,459.657299,148.041188,9326.594869
1114.086638,536.266849,-0.000000,9104.533087
1114.086957,383.047749,296.082377,9104.533087
1114.087275,459.657299,370.102971,9252.574275
1114.087594,612.876398,296.082377,9030.512492
1114.087913,306.438199,148.041188,9326.594869
1114.088232,612.876398,444.123565,9252.574275
1114.088551,459.657299,370.102971,9326.594869
1114.088870,229.828649,148.041188,9400.615463
1114.089189,612.876398,-0.000000,9252.574275
1114.089507,536.266849,444.123565,9252.574275
1114.089826,459.657299,296.082377,9178.553681
1114.090145,689.485948,296.082377,9178.553681
1114.090464,536.266849,518.144159,9326.594869
1114.090783,536.266849,518.144159,9474.636058
1114.091102,383.047749,518.144159,9252.574275
1114.091421,459.657299,592.164754,9326.594869
1114.091739,689.485948,370.102971,9252.574275
1114.092058,995.924147,-0.000000,9030.512492
1114.092377,612.876398,444.123565,9326.594869
1114.092696,536.266849,296.082377,9252.574275
1114.093015,306.438199,370.102971,9104.533087
1114.093334,689.485948,592.164754,9400.615463
1114.093653,766.095498,370.102971,9474.636058
1114.093972,536.266849,592.164754,9474.636058
1114.094290,229.828649,148.041188,9400.615463
1114.094609,536.266849,370.102971,9400.615463
1114.094928,536.266849,-0.000000,9104.533087
1114.095247,306.438199,518.144159,9326.594869
1114.095566,383.047749,370.102971,9326.594869
1114.095885,383.047749,444.123565,9252.574275
1114.096204,459.657299,370.102971,9178.553681
1114.096522,536.266849,-0.000000,8956.491898
1114.096841,383.047749,888.247130,9474.636058
1114.097160,306.438199,148.041188,9252.574275
1114.097479,383.047749,222.061783,9030.512492
1114.097798,689.485948,296.082377,9252.574275
1114.098117,612.876398,444.123565,9474.636058
1114.098436,536.266849,222.061783,9104.533087
1114.098754,459.657299,296.082377,9252.574275
1114.099073,536.266849,296.082377,9178.553681
1114.099392,612.876398,370.102971,9400.615463
1114.099711,306.438199,444.123565,9400.615463
1114.100030,459.657299,444.123565,9326.594869
1114.100349,766.095498,592.164754,9400.615463
1114.100668,612.876398,444.123565,9178.553681
1114.100987,459.657299,370.102971,9178.553681
1114.101305,842.705048,444.123565,9104.533087
1114.101624,689.485948,370.102971,9252.574275
1114.101943,459.657299,444.123565,9326.594869
1114.102262,612.876398,592.164754,9326.594869
1114.102581,536.266849,370.102971,9178.553681
1114.102900,842.705048,222.061783,9474.636058
1114.103219,459.657299,148.041188,9400.615463
1114.103537,306.438199,370.102971,9030.512492
1114.103856,229.828649,-148.041188,8956.491898
1114.104175,0.000000,-296.082377,9030.512492
1114.104494,0.000000,-74.020594,9104.533087
1114.104813,-153.219100,-370.102971,9030.512492
1114.105132,-383.047749,-592.164754,8882.471304
1114.105451,-612.876398,-666.185348,9104.533087
1114.105769,-536.266849,-888.247130,9178.553681
1114.106088,-612.876398,-592.164754,8438.347739
1114.106407,-1072.533697,-888.247130,8660.409521
1114.106726,-1378.971896,-1036.288319,8364.327145
1114.107045,-1838.629195,-1332.370696,9030.512492
1114.107364,-1762.019645,-1554.432478,9030.512492
1114.107683,-1915.238745,-1628.453072,8956.491898
1114.108002,-1838.629195,-1406.391290,8734.430116
1114.108320,-1455.581446,-1036.288319,8660.409521
1114.108639,-1455.581446,-666.185348,8216.285956
1114.108958,-919.314598,-666.185348,8290.306550
1114.109277,-1532.190996,-1184.329507,7476.080014
1114.109596,-1608.800546,-1036.288319,7550.100608
1114.109915,-1991.848295,-1776.494261,7624.121203
1114.110234,-1532.190996,-2220.617826,8142.265362
1114.110552,-2145.067394,-2442.679609,8808.450710
1114.110871,-2298.286494,-2516.700203,8882.471304
1114.111190,-2145.067394,-2294.638420,8882.471304
1114.111509,-2221.676944,-2294.638420,9030.512492
1114.111828,-2221.676944,-1924.535449,9252.574275
1114.112147,-2528.115143,-2146.597232,8216.285956
1114.112466,-2451.505594,-2072.576638,8068.244768
1114.112784,-2604.724693,-3034.844362,8660.409521
1114.113103,-3294.210641,-3849.070898,9326.594869
1114.113422,-3064.381992,-4515.256246,9548.656652
1114.113741,-3370.820191,-4811.338623,10436.903782
1114.114060,-3217.601092,-4441.235652,11103.089130
1114.114379,-3370.820191,-4219.173869,11177.109724
1114.114698,-3217.601092,-3182.885551,11325.150913
1114.115016,-2681.334243,-2590.720797,10807.006753
1114.115335,-2451.505594,-2442.679609,11029.068536
1114.115654,-2451.505594,-2368.659014,10807.006753
1114.115973,-2451.505594,-2738.761985,10436.903782
1114.116292,-2528.115143,-3256.906145,10732.986159
1114.116611,-2604.724693,-3627.009116,10658.965565
1114.116930,-2681.334243,-3849.070898,10362.883188
1114.117249,-2987.772442,-4367.215058,10584.944971
1114.117567,-3217.601092,-4441.235652,11103.089130
1114.117886,-3447.429741,-4367.215058,11251.130318
1114.118205,-3753.867940,-3923.091493,11473.192101
1114.118524,-4060.306139,-3404.947333,11473.192101
1114.118843,-4290.134789,-2960.823768,11251.130318
1114.119162,-4979.620737,-2812.782580,10807.006753
1114.119481,-4443.353888,-2960.823768,10362.883188
1114.119799,-4596.572988,-3256.906145,10584.944971
1114.120118,-4290.134789,-3478.967927,10807.006753
1114.120437,-3600.648841,-3923.091493,11399.171507
1114.120756,-2604.724693,-3404.947333,11695.253884
1114.121075,-1455.581446,-2516.700203,11029.068536
1114.121394,-306.438199,-962.267725,10436.903782
1114.121713,536.266849,740.205942,8512.368333
1114.122031,1608.800546,1628.453072,6587.832884
1114.122350,2221.676944,2590.720797,4811.338623
1114.122669,2145.067394,2220.617826,4367.215058
1114.122988,1378.971896,592.164754,4811.338623
1114.123307,766.095498,-1110.308913,6661.853478
1114.123626,153.219100,-2368.659014,8364.327145
1114.123945,-995.924147,-2960.823768,9252.574275
1114.124264,-1608.800546,-2294.638420,9918.759623
1114.124582,-1378.971896,-1332.370696,10436.903782
1114.124901,-919.314598,740.205942,9770.718434
1114.125220,0.000000,1776.494261,8956.491898
1114.125539,383.047749,2516.700203,8142.265362
1114.125858,766.095498,2590.720797,7254.018232
1114.126177,689.485948,1776.494261,6661.853478
1114.126496,536.266849,888.247130,5847.626942
1114.126814,-153.219100,-1110.308913,5699.585753
1114.127133,-612.876398,-1406.391290,5921.647536
1114.127452,-1302.362347,-1924.535449,6957.935855
1114.127771,-1532.190996,-3034.844362,8882.471304
1114.128090,-3140.991542,-3330.926739,10510.924376
1114.128409,-2987.772442,-3034.844362,11177.109724
1114.128728,-2757.943793,-1998.556043,11843.295072
1114.129046,-3294.210641,-1184.329507,11991.336260
1114.129365,-3064.381992,-1110.308913,11325.150913
1114.129684,-2987.772442,-1184.329507,11029.068536
1114.130003,-2604.724693,-1628.453072,9770.718434
1114.130322,-2451.505594,-1776.494261,8734.430116
1114.130641,-2451.505594,-2146.597232,7920.203579
1114.130960,-2298.286494,-2664.741391,7772.162391
1114.131279,-2528.115143,-3923.091493,8734.430116
1114.131597,-2681.334243,-4293.194464,9844.739029
1114.131916,-2451.505594,-3552.988522,10881.027347
1114.132235,-3217.601092,-2368.659014,11103.089130
1114.132554,-3524.039291,-1776.494261,11325.150913
1114.132873,-3753.867940,-1332.370696,11399.171507
1114.133192,-4443.353888,-1776.494261,11325.150913
1114.133511,-4979.620737,-2146.597232,10584.944971
1114.133829,-4903.011187,-2368.659014,9992.780217
1114.134148,-4213.525239,-3923.091493,10436.903782
1114.134467,-3983.696590,-5181.441594,12139.377449
1114.134786,-2681.334243,-6143.709319,13101.645173
1114.135105,-2221.676944,-4885.359217,12065.356855
1114.135424,306.438199,-3552.988522,11843.295072
1114.135743,1991.848295,-1332.370696,10140.821405
1114.136061,3677.258390,370.102971,8142.265362
1114.136380,4213.525239,1850.514855,5921.647536
1114.136699,3677.258390,2516.700203,4293.194464
1114.137018,3447.429741,-222.061783,4441.235652
1114.137337,2068.457845,-2220.617826,5625.565159
1114.137656,919.314598,-4515.256246,8068.244768
1114.137975,-383.047749,-5181.441594,9474.636058
1114.138293,-1608.800546,-5403.503377,10510.924376
1114.138612,-2221.676944,-4885.359217,12065.356855
1114.138931,-2987.772442,-3701.029710,12139.377449
1114.139250,-3983.696590,-1998.556043,11029.068536
1114.139569,-3677.258390,-444.123565,9622.677246
1114.139888,-3524.039291,222.061783,8512.368333
1114.140207,-2987.772442,-740.205942,8290.306550
1114.140526,-2757.943793,-1406.391290,7772.162391
1114.140844,-2987.772442,-2738.761985,8216.285956
1114.141163,-2834.553343,-3182.885551,9326.594869
1114.141482,-2451.505594,-2664.741391,9030.512492
1114.141801,-995.924147,-1406.391290,9104.533087
1114.142120,0.000000,-370.102971,8364.327145
1114.142439,383.047749,-296.082377,8438.347739
1114.142758,383.047749,222.061783,7994.224174
1114.143076,229.828649,1110.308913,6513.812290
1114.143395,-459.657299,222.061783,5847.626942
1114.143714,-1225.752797,-1184.329507,6143.709319
1114.144033,-3064.381992,-2664.741391,5699.585753
1114.144352,-4519.963438,-4293.194464,7031.956449
1114.144671,-5669.106685,-5033.400406,9474.636058
1114.144990,-5898.935335,-5773.606348,11399.171507
1114.145308,-6128.763984,-4959.379811,12065.356855
1114.145627,-5592.497135,-3478.967927,13619.789333
1114.145946,-4673.182538,-2738.761985,14582.057057
1114.146265,-2757.943793,-1406.391290,13619.789333
1114.146584,-1532.190996,370.102971,11251.130318
1114.146903,0.000000,962.267725,10214.842000
1114.147221,1072.533697,592.164754,8734.430116
1114.147540,919.314598,444.123565,5773.606348
1114.147859,2451.505594,-1258.350101,5699.585753
1114.148178,995.924147,-1850.514855,4663.297435
1114.148497,-612.876398,-3404.947333,4663.297435
1114.148815,-1608.800546,-3256.906145,5921.647536
1114.149134,-2987.772442,-4589.276840,7846.182985
1114.149453,-4749.792088,-6587.832884,10584.944971
1114.149772,-6511.811733,-6661.853478,13841.851115
1114.150091,-6665.030833,-6587.832884,16728.654289
1114.150409,-6205.373534,-5773.606348,16654.633695
1114.150728,-4903.011187,-3552.988522,16950.716072
1114.151047,-3370.820191,-1850.514855,15692.365970
1114.151366,-612.876398,592.164754,12361.439231
1114.151685,1608.800546,2220.617826,8734.430116
1114.152003,3677.258390,3849.070898,6143.709319
1114.152322,5592.497135,4515.256246,2442.679609
1114.152641,4979.620737,3849.070898,296.082377
1114.152960,4673.182538,2220.617826,1406.391290
1114.153279,2374.896044,-592.164754,2294.638420
1114.153597,0.000000,-3923.091493,4959.379811
1114.153916,-2834.553343,-5773.606348,9474.636058
1114.154235,-5056.230287,-5773.606348,11991.336260
1114.154554,-5898.935335,-6883.915261,15618.345376
1114.154873,-7890.783629,-4145.153275,16654.633695
1114.155191,-5745.716235,-3182.885551,19245.354492
1114.155510,-4979.620737,-0.000000,15396.283594
1114.155829,-2221.676944,3034.844362,13397.727550
1114.156148,76.609550,2812.782580,9918.759623
1114.156467,1991.848295,4145.153275,5699.585753
1114.156785,3830.477490,2146.597232,2812.782580
1114.157104,4443.353888,592.164754,666.185348
1114.157423,4290.134789,-1184.329507,370.102971
1114.157742,2451.505594,-3478.967927,1702.473667
1114.158061,383.047749,-3552.988522,4367.215058
1114.158379,-1455.581446,-5699.585753,7254.018232
1114.158698,-3983.696590,-5181.441594,12953.603985
1114.159017,-4443.353888,-4219.173869,17764.942608
1114.159336,-4596.572988,-3034.844362,19245.354492
1114.159655,-3217.601092,-814.226536,19763.498651
1114.159973,-1378.971896,2146.597232,18801.230927
1114.160292,1532.190996,2368.659014,15100.201217
1114.160611,3983.696590,2886.803174,9178.553681
1114.160930,6741.640382,4145.153275,5107.421000
1114.161249,9039.926876,2960.823768,74.020594
1114.161567,8733.488677,2220.617826,-3034.844362
1114.161886,7967.393179,-148.041188,-2516.700203
1114.162205,5056.230287,-1258.350101,-1036.288319
1114.162524,1838.629195,-2294.638420,2442.679609
1114.162843,-1302.362347,-3478.967927,7698.141797
1114.163161,-4366.744339,-3034.844362,14211.954086
1114.163480,-5822.325785,-3404.947333,19393.395680
1114.163799,-6588.421283,-3108.864956,23464.528361
1114.164118,-5669.106685,-1036.288319,24352.775492
1114.164437,-3753.867940,2368.659014,21910.095883
1114.164755,-1225.752797,4663.297435,16432.571912
1114.165074,2374.896044,6513.812290,9918.759623
1114.165393,5286.058936,6661.853478,4145.153275
1114.165712,6971.469032,5921.647536,-1628.453072
1114.166031,7660.954980,5181.441594,-4811.338623
1114.166349,7277.907231,3034.844362,-6069.688724
1114.166668,4979.620737,296.082377,-4441.235652
1114.166987,1608.800546,-2664.741391,1110.308913
1114.167306,-2145.067394,-3775.050304,7105.977043
1114.167625,-5439.278036,-5921.647536,14285.974681
1114.167943,-7507.735880,-5625.565159,20799.786970
1114.168262,-7737.564530,-3997.112087,25315.043216
1114.168581,-7584.345430,-296.082377,24500.816680
1114.168900,-4979.620737,5033.400406,20651.745782
1114.169219,-2987.772442,3997.112087,16728.654289
1114.169537,612.876398,9030.512492,9400.615463
1114.169856,3983.696590,4737.318029,3552.988522
1114.170175,6128.763984,5625.565159,-2368.659014
1114.170494,6435.202183,1554.432478,-4441.235652
1114.170813,6358.592633,-222.061783,-2294.638420
1114.171132,5592.497135,-3108.864956,-518.144159
1114.171450,3064.381992,-4589.276840,3108.864956
1114.171769,919.314598,-3404.947333,9104.533087
1114.172088,-2298.286494,-3108.864956,14434.015869
1114.172407,-2987.772442,-2368.659014,21095.869347
1114.172726,-3753.867940,-0.000000,23168.445985
1114.173044,-3753.867940,2960.823768,22576.281231
1114.173363,-3140.991542,3923.091493,17394.839637
1114.173682,-1225.752797,5847.626942,14434.015869
1114.174001,1455.581446,5033.400406,9918.759623
1114.174320,4366.744339,2738.761985,2664.741391
1114.174638,7354.516781,1702.473667,-2442.679609
1114.174957,7584.345430,1110.308913,-3552.988522
1114.175276,7737.564530,-3182.885551,-3330.926739
1114.175595,6435.202183,-4367.215058,592.164754
1114.175914,4903.011187,-3997.112087,5255.462188
1114.176232,1225.752797,-3478.967927,9400.615463
1114.176551,-459.657299,-2960.823768,13101.645173
1114.176870,-3140.991542,-1776.494261,19319.375086
1114.177189,-3677.258390,-740.205942,23538.548956
1114.177508,-3907.087040,3108.864956,20429.683999
1114.177826,-3447.429741,4589.276840,18949.272115
1114.178145,0.000000,6587.832884,16062.468941
1114.178464,2221.676944,5329.482782,7624.121203
1114.178783,4213.525239,3775.050304,444.123565
1114.179102,6358.592633,2516.700203,-3182.885551
1114.179420,5056.230287,-444.123565,-5255.462188
1114.179739,4213.525239,-4219.173869,-3997.112087
1114.180058,1685.410096,-5551.544565,1110.308913
1114.180377,-1532.190996,-6365.771101,5181.441594
1114.180696,-3600.648841,-6513.812290,11547.212695
1114.181014,-6281.983084,-5255.462188,18579.169144
1114.181333,-6358.592633,-2590.720797,24056.693115
1114.181652,-6128.763984,1036.288319,24500.816680
1114.181971,-5209.449386,4811.338623,23094.425390
1114.182290,-2068.457845,10807.006753,16728.654289
1114.182608,842.705048,11843.295072,11325.150913
1114.182927,2604.724693,8512.368333,2812.782580
1114.183246,5898.935335,6439.791695,-4811.338623
1114.183565,5898.935335,2146.597232,-7846.182985
1114.183884,4903.011187,-3404.947333,-5847.626942
1114.184202,2604.724693,-8660.409521,-1406.391290
1114.184521,-1762.019645,-8882.471304,2960.823768
1114.184840,-4519.963438,-10066.800811,9104.533087
1114.185159,-6588.421283,-8882.471304,16802.674883
1114.185478,-6588.421283,-6883.915261,23168.445985
1114.185796,-6665.030833,-2294.638420,24796.899057
1114.186115,-5362.668486,5181.441594,25241.022622
1114.186434,-2298.286494,11991.336260,20059.581028
1114.186753,1302.362347,12213.398043,16950.716072
1114.187072,5745.716235,14952.160028,8438.347739
1114.187390,7660.954980,9400.615463,888.247130
1114.187709,10265.679673,6291.750507,-6217.729913
1114.188028,10112.460574,1184.329507,-9622.677246
1114.188347,9499.584175,-5625.565159,-6217.729913
1114.188666,5898.935335,-9474.636058,-1924.535449
1114.188984,2757.943793,-8660.409521,3478.967927
1114.189303,-1915.238745,-10066.800811,8586.388927
1114.189622,-5898.935335,-8512.368333,16136.489536
1114.189941,-6358.592633,-5329.482782,24796.899057
1114.190260,-6205.373534,-1406.391290,28127.825796
1114.190578,-5362.668486,4959.379811,26499.372724
1114.190897,-2221.676944,10214.842000,23686.590144
1114.191216,2528.115143,10955.047942,18949.272115
1114.191535,9039.926876,17024.736666,7698.141797
1114.191854,12180.918418,10066.800811,-2072.576638
1114.192172,13789.718964,6957.935855,-7698.141797
1114.192491,14172.766713,3775.050304,-11843.295072
1114.192810,12257.527968,-1110.308913,-10881.027347
1114.193129,6281.983084,-6365.771101,-6957.935855
1114.193448,842.705048,-8438.347739,1554.432478
1114.193766,-5975.544884,-11325.150913,6661.853478
1114.194085,-10265.679673,-13027.624579,17172.777854
1114.194404,-11951.089769,-13841.851115,30348.443622
1114.194723,-13789.718964,-4219.173869,29238.134709
1114.195042,-11414.822920,2368.659014,31680.814318
1114.195360,-6281.983084,13989.892304,27683.702231
1114.195679,-612.876398,17172.777854,20947.828159
1114.195998,7354.516781,16950.716072,9104.533087
1114.196317,10955.165621,17246.798449,-3404.947333
1114.196636,13253.452115,12657.521608,-12361.439231
1114.196954,12487.356617,4515.256246,-16654.633695
1114.197273,9422.974625,-3404.947333,-10807.006753
1114.197592,3524.039291,-11917.315666,-6513.812290
1114.197911,-3524.039291,-13397.727550,-1184.329507
1114.198230,-8350.440928,-13989.892304,8364.327145
1114.198548,-10878.556072,-17468.860231,21984.116477
1114.198867,-14709.033562,-9844.739029,27091.537477
1114.199186,-13023.623466,-3182.885551,33975.452738
1114.199505,-12410.747068,7920.203579,33309.267390
1114.199824,-6588.421283,17320.819043,30052.361245
1114.200142,-2068.457845,15692.365970,18209.066173
1114.200461,5822.325785,16802.674883,9770.718434
1114.200780,11491.432470,15026.180623,-2590.720797
1114.201099,16700.881856,11843.295072,-14359.995275
1114.201418,14555.814462,1628.453072,-14508.036463
1114.201736,12410.747068,-10140.821405,-7402.059420
1114.202055,7814.174080,-10955.047942,-5699.585753
1114.202374,-383.047749,-13619.789333,-4737.318029
1114.202693,-4903.011187,-13101.645173,7105.977043
1114.203012,-6052.154434,-17172.777854,18801.230927
1114.203330,-12410.747068,-11843.295072,24944.940245
1114.203649,-10572.117872,-6957.935855,35159.782245
1114.203968,-11951.089769,2886.803174,33605.349767
1114.204287,-6281.983084,12805.562797,29756.278868
1114.204606,1225.752797,17172.777854,20133.601622
1114.204924,7660.954980,16062.468941,15026.180623
1114.205243,13483.280765,16876.695478,370.102971
1114.205562,18462.901502,9992.780217,-15396.283594
1114.205881,16317.834107,1406.391290,-15174.221811
1114.206200,12334.137518,-6439.791695,-9770.718434
1114.206518,11414.822920,-11917.315666,-7179.997637
1114.206837,1532.190996,-9992.780217,-8660.409521
1114.207156,-4673.182538,-10362.883188,2664.741391
1114.207475,-5745.716235,-12657.521608,17616.901420
1114.207794,-9806.022374,-12435.459826,24426.796086
1114.208112,-11184.994271,-11325.150913,35529.885216
1114.208431,-11568.042020,222.061783,37380.400071
1114.208750,-9346.365076,16358.551318,30718.546593
1114.209069,-2681.334243,14952.160028,15248.242405
1114.209388,7354.516781,20059.581028,15322.262999
1114.209706,12334.137518,15026.180623,-1406.391290
1114.210025,17696.806004,12509.480420,-15988.448347
1114.210344,18922.558801,4737.318029,-17912.983796
1114.210663,14862.252661,-4219.173869,-14656.077652
1114.210982,6971.469032,-8290.306550,-12953.603985
1114.211300,229.828649,-13915.871710,-5181.441594
1114.211619,-10572.117872,-16358.551318,592.164754
1114.211938,-12257.527968,-15988.448347,15840.407159
1114.212257,-14402.595362,-18209.066173,29238.134709
1114.212576,-15168.690860,-13027.624579,35751.946999
1114.212894,-15168.690860,814.226536,40785.347404
1114.213213,-11721.261119,16210.510130,30792.567187
1114.213532,-4213.525239,23316.487173,24352.775492
1114.213851,3370.820191,20725.766376,16432.571912
1114.214170,8197.221829,20503.704593,-518.144159
1114.214488,14096.157163,14952.160028,-11177.109724
1114.214807,17237.148705,6735.874072,-22132.157666
1114.215126,14325.985813,-3923.091493,-13989.892304
1114.215445,6281.983084,-11103.089130,-9622.677246
1114.215764,-306.438199,-16062.468941,-2886.803174
1114.216082,-7967.393179,-17394.839637,-1184.329507
1114.216401,-9116.536426,-15322.262999,13397.727550
1114.216720,-13176.842566,-15988.448347,27017.516883
1114.217039,-13253.452115,-12657.521608,36862.255912
1114.217358,-13023.623466,518.144159,40711.326810
1114.217676,-11951.089769,18801.230927,33827.411549
1114.217995,-5286.058936,25315.043216,30718.546593
1114.218314,2911.162892,15766.386565,19689.478057
1114.218633,10495.508323,26425.352129,444.123565
1114.218952,16241.224558,16876.695478,-11029.068536
1114.219270,18539.511052,5329.482782,-17246.798449
1114.219589,16394.443657,-5921.647536,-14508.036463
1114.219908,13636.499864,-7846.182985,-7476.080014
1114.220227,3524.039291,-17838.963202,-3034.844362
1114.220546,-3524.039291,-12361.439231,-2146.597232
1114.220865,-5822.325785,-14730.098246,12065.356855
1114.221183,-9959.241474,-19689.478057,24796.899057
1114.221502,-12410.747068,-13841.851115,35455.864622
1114.221821,-10265.679673,-3997.112087,40859.367998
1114.222140,-14096.157163,12879.583391,35529.885216
1114.222459,-3753.867940,20059.581028,32643.082042
1114.222777,3677.258390,23390.507767,23168.445985
1114.223096,7660.954980,23242.466579,4589.276840
1114.223415,15781.567259,17542.880825,-8364.327145
1114.223734,22369.988542,12731.542202,-20207.622217
1114.224053,19612.044749,-1776.494261,-23612.569550
1114.224371,14402.595362,-6809.894666,-12731.542202
1114.224690,4519.963438,-17987.004391,-3701.029710
1114.225009,-4903.011187,-17690.922014,-2590.720797
1114.225328,-5975.544884,-15692.365970,9400.615463
1114.225647,-13023.623466,-22206.178260,19393.395680
1114.225965,-13942.938064,-17987.004391,31310.711347
1114.226284,-12410.747068,-9326.594869,44190.294737
1114.226603,-16164.615008,8438.347739,37528.441259
1114.226922,-8350.440928,15914.427753,25315.043216
1114.227241,-919.314598,26055.249158,22354.219448
1114.227559,8044.002729,27535.661042,5773.606348
1114.227878,14172.766713,17838.963202,-14434.015869
1114.228197,21757.112143,12583.501014,-19985.560434
1114.228516,19535.435199,2220.617826,-21688.034101
1114.228835,14632.424012,-12657.521608,-13027.624579
1114.229153,7048.078582,-17542.880825,-6291.750507
1114.229472,-6435.202183,-25463.084405,-4367.215058
1114.229791,-8886.707777,-16136.489536,2886.803174
1114.230110,-10648.727422,-24722.878463,19541.436869
1114.230429,-13636.499864,-20947.828159,31162.670158
1114.230747,-14402.595362,-8956.491898,36196.070564
1114.231066,-17773.415554,6143.709319,36270.091158
1114.231385,-13176.842566,22428.240043,34641.638086
1114.231704,-2451.505594,24944.940245,29756.278868
1114.232023,4443.353888,19393.395680,10955.047942
1114.232341,10801.946522,21984.116477,-5107.421000
1114.232660,19228.997000,16728.654289,-18579.169144
1114.232979,18386.291952,4145.153275,-22872.363608
1114.233298,18233.072852,-6957.935855,-11399.171507
1114.233617,12487.356617,-11325.150913,-4589.276840
1114.233935,-2221.676944,-18949.272115,-10140.821405
1114.234254,-9729.412825,-14063.912898,1184.329507
1114.234573,-7431.126331,-21614.013506,19689.478057
1114.234892,-13942.938064,-18727.210333,17246.798449
1114.235211,-16471.053207,-11621.233289,32569.061448
1114.235529,-15321.909960,-2886.803174,48409.468607
1114.235848,-16777.491406,15248.242405,35529.885216
1114.236167,-8120.612279,24796.899057,25092.981434
1114.236486,-1225.752797,16876.695478,16728.654289
1114.236805,10265.679673,25537.104999,1184.329507
1114.237123,22140.159892,23538.548956,-15100.201217
1114.237442,23978.789087,11473.192101,-26351.331535
1114.237761,20761.187996,-1850.514855,-13249.686362
1114.238080,18616.120601,-8438.347739,-4811.338623
1114.238399,4366.744339,-15100.201217,-12583.501014
1114.238717,-8580.269578,-20207.622217,222.061783
1114.239036,-2834.553343,-20281.642811,16284.530724
1114.239355,-15092.081311,-20577.725188,22724.322419
1114.239674,-11644.651570,-12361.439231,32939.164419
1114.239993,-15092.081311,-5033.400406,37306.379477
1114.240311,-15092.081311,9696.697840,37380.400071
1114.240630,-8503.660028,19985.560434,32272.979071
1114.240949,-229.828649,23168.445985,27683.702231
1114.241268,3600.648841,19541.436869,3404.947333
1114.241587,17083.929605,24130.713709,-7624.121203
1114.241905,24515.055936,19245.354492,-16802.674883
1114.242224,18462.901502,-1406.391290,-22724.322419
1114.242543,21603.893044,-10881.027347,-5921.647536
1114.242862,8963.317327,-14508.036463,-8512.368333
1114.243181,-5822.325785,-14730.098246,-9178.553681
1114.243499,-3830.477490,-19319.375086,8068.244768
1114.243818,-9806.022374,-22650.301825,23390.507767
1114.244137,-11414.822920,-19171.333898,29238.134709
1114.244456,-15858.176809,-4589.276840,38120.606013
1114.244775,-17926.634653,962.267725,43228.027013
1114.245093,-15321.909960,18653.189738,34937.720462
1114.245412,-4673.182538,22872.363608,23686.590144
1114.245731,0.000000,18135.045579,11473.192101
1114.246050,7354.516781,18209.066173,-2072.576638
1114.246369,18616.120601,12953.603985,-12435.459826
1114.246688,18845.949251,814.226536,-20355.663405
1114.247007,20071.702048,-6883.915261,-11695.253884
1114.247326,12640.575717,-9400.615463,-6143.709319
1114.247645,-536.266849,-17468.860231,-11251.130318
1114.247964,-6128.763984,-15248.242405,-3034.844362
1114.248282,-6511.811733,-17246.798449,11843.295072
1114.248601,-14479.204912,-17987.004391,22724.322419
1114.248920,-16777.491406,-13175.665768,32865.143825
1114.249239,-18462.901502,-6291.750507,42487.821071
1114.249558,-18539.511052,9104.533087,37232.358883
1114.249877,-10189.070123,18283.086767,30126.381839
1114.250196,2528.115143,17394.839637,20577.725188
1114.250515,5592.497135,19911.539840,2368.659014
1114.250834,18692.730151,18283.086767,-6661.853478
1114.251152,22446.598091,10658.965565,-15470.304188
1114.251471,22293.378992,962.267725,-15766.386565
1114.251790,19612.044749,-6069.688724,-12435.459826
1114.252109,10189.070123,-11103.089130,-12139.377449
1114.252428,-1685.410096,-10881.027347,-11843.295072
1114.252747,-3064.381992,-19985.560434,2812.782580
1114.253066,-9499.584175,-23390.507767,15988.448347
1114.253385,-16241.224558,-18801.230927,25537.104999
1114.253704,-19152.387450,-13841.851115,43450.088795
1114.254023,-20761.187996,-3923.091493,38712.770767
1114.254341,-17083.929605,17320.819043,33605.349767
1114.254660,-306.438199,19171.333898,32569.061448
1114.254979,-842.705048,22872.363608,3923.091493
1114.255298,11874.480219,21169.889941,-4959.379811
1114.255617,22599.817191,17468.860231,-12731.542202
1114.255936,20837.797546,9178.553681,-22132.157666
1114.256255,22063.550342,-3701.029710,-12583.501014
1114.256574,15475.129060,-7254.018232,-11251.130318
1114.256893,536.266849,-13027.624579,-13915.871710
1114.257211,-1532.190996,-18653.189738,-3256.906145
1114.257530,-4519.963438,-15100.201217,9992.780217
1114.257849,-11184.994271,-17912.983796,19245.354492
1114.258168,-15245.300410,-16358.551318,34641.638086
1114.258487,-16088.005458,-7328.038826,48039.365636
1114.258806,-21067.626195,8660.409521,37750.503042
1114.259125,-5898.935335,19097.313304,36714.214723
1114.259444,229.828649,18949.272115,24796.899057
1114.259763,8120.612279,23094.425390,2590.720797
1114.260081,21220.845295,24204.734303,-6513.812290
1114.260400,25740.808733,16136.489536,-13989.892304
1114.260719,23059.474490,4293.194464,-17987.004391
1114.261038,24208.617737,-2220.617826,-11177.109724
1114.261357,10801.946522,-5995.668130,-13619.789333
1114.261676,-1455.581446,-14508.036463,-13693.809927
1114.261995,-3217.601092,-12879.583391,1258.350101
1114.262314,-12334.137518,-23538.548956,18061.024985
1114.262633,-15015.471761,-20503.704593,31310.711347
1114.262952,-17696.806004,-17542.880825,43524.109390
1114.263270,-22369.988542,-3849.070898,47817.303853
1114.263589,-18845.949251,16580.613101,35529.885216
1114.263908,-5209.449386,19023.292709,35381.844028
1114.264227,1149.143247,21539.992912,12435.459826
1114.264546,9652.803275,26943.496289,-1332.370696
1114.264865,20991.016645,24796.899057,-10140.821405
1114.265184,21297.454844,16950.716072,-21243.910535
1114.265503,25051.322785,3182.885551,-18209.066173
1114.265822,19305.606550,-2590.720797,-16432.571912
1114.266140,2221.676944,-14730.098246,-19245.354492
1114.266459,-6435.202183,-19985.560434,-7402.059420
1114.266778,-7584.345430,-23316.487173,10066.800811
1114.267097,-17083.929605,-30126.381839,19911.539840
1114.267416,-16777.491406,-21539.992912,37676.482448
1114.267735,-23365.912689,-15322.262999,46558.953752
1114.268054,-26430.294681,-0.000000,40119.162056
1114.268373,-16088.005458,16136.489536,34493.596897
1114.268692,-5592.497135,22502.260637,27979.784608
1114.269010,383.047749,24574.837274,7402.059420
1114.269329,13176.842566,32643.082042,-8512.368333
1114.269648,23136.084040,19467.416275,-13027.624579
1114.269967,20684.578446,12805.562797,-18283.086767
1114.270286,25740.808733,-5181.441594,-11399.171507
1114.270605,13866.328514,-12361.439231,-19097.313304
1114.270924,1378.971896,-17912.983796,-15988.448347
1114.271243,842.705048,-21688.034101,4959.379811
1114.271562,-7431.126331,-23686.590144,11769.274478
1114.271881,-15398.519510,-24426.796086,25537.104999
1114.272199,-12793.794817,-13767.830521,43598.129984
1114.272518,-17313.758255,-3034.844362,44782.459491
1114.272837,-18309.682402,13619.789333,27979.784608
1114.273156,-7584.345430,18209.066173,33605.349767
1114.273475,4290.134789,18875.251521,23020.404796
1114.273794,6665.030833,23686.590144,-3849.070898
1114.274113,21833.721693,25241.022622,-8882.471304
1114.274432,21450.673944,15322.262999,-20577.725188
1114.274751,28881.800275,6735.874072,-18949.272115
1114.275069,24515.055936,-4885.359217,-12435.459826
1114.275388,9422.974625,-13027.624579,-17172.777854
1114.275707,-1532.190996,-20503.704593,-12435.459826
1114.276026,-2068.457845,-20281.642811,592.164754
1114.276345,-11031.775171,-30126.381839,16358.551318
1114.276664,-14555.814462,-24130.713709,37824.523636
1114.276983,-17696.806004,-10584.944971,44042.253549
1114.277302,-22063.550342,-1628.453072,37158.338288
1114.277621,-12487.356617,17616.901420,36048.029375
1114.277939,-1838.629195,20947.828159,35751.946999
1114.278258,3447.429741,18801.230927,7476.080014
1114.278577,12793.794817,33309.267390,-10288.862594
1114.278896,26506.904231,21614.013506,-12657.521608
1114.279215,23212.693589,11473.192101,-22354.219448
1114.279534,24515.055936,-1406.391290,-12361.439231
1114.279853,16317.834107,-9178.553681,-14508.036463
1114.280172,1991.848295,-20281.642811,-12657.521608
1114.280491,-3447.429741,-19245.354492,-6809.894666
1114.280810,-7277.907231,-19171.333898,11991.336260
1114.281128,-15092.081311,-25092.981434,35751.946999
1114.281447,-17160.539155,-19319.375086,40415.244433
1114.281766,-21986.940793,-2664.741391,45596.686027
1114.282085,-25587.589633,12583.501014,33235.246796
1114.282404,-12487.356617,24944.940245,31088.649564
1114.282723,-7277.907231,11473.192101,19467.416275
1114.283042,4213.525239,30644.525999,4589.276840
1114.283361,12563.966167,26647.413912,-10288.862594
1114.283680,21680.502593,17764.942608,-13101.645173
1114.283998,19841.873398,9104.533087,-17542.880825
1114.284317,24898.103685,-4811.338623,-7846.182985
1114.284636,7354.516781,-11399.171507,-16580.613101
1114.284955,-919.314598,-17172.777854,-10362.883188
1114.285274,-2757.943793,-21762.054695,3775.050304
1114.285593,-8044.002729,-20651.745782,16136.489536
1114.285912,-12640.575717,-20651.745782,34345.555709
1114.286231,-16930.710506,-8512.368333,38046.585419
1114.286550,-22063.550342,1628.453072,38342.667796
1114.286868,-18462.901502,9252.574275,37602.461854
1114.287187,-8886.707777,16062.468941,34493.596897
1114.287506,536.266849,15544.324782,16580.613101
1114.287825,8197.221829,28571.949361,1628.453072
1114.288144,19305.606550,24204.734303,-7328.038826
1114.288463,21910.331243,11547.212695,-17542.880825
1114.288782,23442.522239,5773.606348,-15100.201217
1114.289101,21067.626195,-5477.523971,-11769.274478
1114.289420,8427.050478,-11769.274478,-15100.201217
1114.289739,0.000000,-13989.892304,-12805.562797
1114.290057,-536.266849,-15248.242405,5033.400406
1114.290376,-9652.803275,-25463.084405,24722.878463
1114.290695,-13100.233016,-21095.869347,38786.791361
1114.291014,-19918.482948,-11769.274478,43746.171172
1114.291333,-20837.797546,222.061783,37898.544230
1114.291652,-15781.567259,13693.809927,33531.329173
1114.291971,-3907.087040,16432.571912,36492.152941
1114.292290,6971.469032,17320.819043,8882.471304
1114.292609,17160.539155,33901.432144,-10732.986159
1114.292927,26506.904231,23242.466579,-9992.780217
1114.293246,20761.187996,4663.297435,-17838.963202
1114.293565,25434.370534,-3775.050304,-12657.521608
1114.293884,18462.901502,-11843.295072,-15988.448347
1114.294203,2298.286494,-18949.272115,-14508.036463
1114.294522,-153.219100,-19171.333898,-8438.347739
1114.294841,-4903.011187,-18949.272115,13175.665768
1114.295160,-10418.898773,-24796.899057,27239.578666
1114.295479,-17160.539155,-18283.086767,42561.841665
1114.295798,-20071.702048,-7698.141797,43450.088795
1114.296116,-24668.275036,9696.697840,28942.052332
1114.296435,-10648.727422,17320.819043,33975.452738
1114.296754,-4290.134789,22354.219448,28868.031738
1114.297073,3830.477490,24056.693115,-2960.823768
1114.297392,16394.443657,29460.196492,-6513.812290
1114.297711,22140.159892,16062.468941,-15396.283594
1114.298030,21374.064394,3627.009116,-15396.283594
1114.298349,19612.044749,-6661.853478,-10807.006753
1114.298668,10648.727422,-6513.812290,-16432.571912
1114.298986,-1302.362347,-18875.251521,-13323.706956
1114.299305,-1378.971896,-18431.127956,-1554.432478
1114.299624,-11874.480219,-18061.024985,7772.162391
1114.299943,-10725.336972,-22428.240043,30422.464216
1114.300262,-19535.435199,-16876.695478,45004.521274
1114.300581,-24132.008187,-8808.450710,40489.265027
1114.300900,-22523.207641,15396.283594,38934.832549
1114.301219,-9422.974625,15026.180623,37232.358883
1114.301538,1149.143247,22946.384202,13175.665768
1114.301856,8120.612279,28423.908173,-7254.018232
1114.302175,17466.977354,25907.207970,-6439.791695
1114.302494,20301.530697,15618.345376,-17987.004391
1114.302813,24208.617737,1332.370696,-14804.118840
1114.303132,20837.797546,-5403.503377,-13619.789333
1114.303451,6128.763984,-12139.377449,-14804.118840
1114.303770,-306.438199,-17024.736666,-6809.894666
1114.304089,-2681.334243,-21539.992912,-444.123565
1114.304408,-11491.432470,-25092.981434,19985.560434
1114.304727,-13330.061665,-23686.590144,37454.420665
1114.305045,-22140.159892,-14359.995275,42561.841665
1114.305364,-24744.884585,1628.453072,40193.182651
1114.305683,-17926.634653,16580.613101,41599.573940
1114.306002,-2451.505594,23538.548956,39378.956114
1114.306321,5132.839837,25167.002028,10140.821405
1114.306640,12104.308868,29460.196492,-2368.659014
1114.306959,21450.673944,27017.516883,-13915.871710
1114.307278,21833.721693,11325.150913,-16876.695478
1114.307597,26123.856482,-2886.803174,-8364.327145
1114.307915,16777.491406,-11103.089130,-9548.656652
1114.308234,2145.067394,-15914.427753,-14434.015869
1114.308553,3217.601092,-21317.931130,-888.247130
1114.308872,-5439.278036,-18949.272115,8586.388927
1114.309191,-10801.946522,-23686.590144,21317.931130
1114.309510,-14709.033562,-16210.510130,37602.461854
1114.309829,-19228.997000,-4145.153275,44116.274143
1114.310148,-22523.207641,7846.182985,31458.752535
1114.310467,-11568.042020,18801.230927,38712.770767
1114.310785,-1838.629195,17172.777854,30792.567187
1114.311104,7354.516781,27313.599260,-148.041188
1114.311423,17543.586904,30274.423028,-12805.562797
1114.311742,22599.817191,16062.468941,-16876.695478
1114.312061,24438.446386,7179.997637,-18727.210333
1114.312380,26047.246932,-3478.967927,-11103.089130
1114.312699,11644.651570,-11621.233289,-15914.427753
1114.313018,0.000000,-15470.304188,-14582.057057
1114.313337,-2145.067394,-16210.510130,-3478.967927
1114.313656,-8963.317327,-21465.972318,16358.551318
1114.313974,-14555.814462,-26499.372724,33457.308578
1114.314293,-19612.044749,-14730.098246,41747.615129
1114.314612,-22140.159892,-2442.679609,36936.276506
1114.314931,-20837.797546,14211.954086,33161.226202
1114.315250,-7584.345430,17098.757260,37602.461854
1114.315569,-459.657299,20651.745782,17838.963202
1114.315888,8350.440928,27165.558071,-6809.894666
1114.316207,15015.471761,31162.670158,-21614.013506
1114.316526,18845.949251,9104.533087,-18505.148550
1114.316844,22599.817191,-0.000000,-15100.201217
1114.317163,21220.845295,-9400.615463,-11991.336260
1114.317482,3677.258390,-15248.242405,-17838.963202
1114.317801,-1838.629195,-21169.889941,-8438.347739
1114.318120,-5592.497135,-18283.086767,740.205942
1114.318439,-12257.527968,-30496.484810,19837.519246
1114.318758,-19228.997000,-22798.343014,39378.956114
1114.319077,-22063.550342,-17542.880825,42783.903448
1114.319396,-28192.314326,888.247130,30718.546593
1114.319714,-18769.339701,16358.551318,34567.617491
1114.320033,-7048.078582,19319.375086,32717.102636
1114.320352,995.924147,32124.937883,4145.153275
1114.320671,10265.679673,26499.372724,0.000000
1114.320990,18999.168350,21465.972318,-12213.398043
1114.321309,20224.921147,11695.253884,-17098.757260
1114.321628,26047.246932,-2146.597232,-9030.512492
1114.321947,15704.957709,-6661.853478,-13989.892304
1114.322266,5975.544884,-15766.386565,-14730.098246
1114.322585,-229.828649,-19097.313304,-6513.812290
1114.322903,-3907.087040,-19911.539840,6069.688724
1114.323222,-10189.070123,-25759.166782,24278.754898
1114.323541,-17313.758255,-17616.901420,32272.979071
1114.323860,-20607.968896,-7031.956449,37824.523636
1114.324179,-22063.550342,4145.153275,31162.670158
1114.324498,-10265.679673,19763.498651,37158.338288
1114.324817,-2604.724693,14878.139434,33901.432144
1114.325136,4903.011187,25241.022622,7550.100608
1114.325455,16011.395908,28942.052332,-7624.121203
1114.325773,25204.541884,19171.333898,-13027.624579
1114.326092,26813.342430,7994.224174,-14656.077652
1114.326411,26277.075581,74.020594,-13397.727550
1114.326730,15551.738609,-6439.791695,-17912.983796
1114.327049,5515.887586,-14359.995275,-13989.892304
1114.327368,459.657299,-17838.963202,-5625.565159
1114.327687,-7354.516781,-20873.807564,12953.603985
1114.328006,-12870.404366,-29238.134709,30718.546593
1114.328325,-19918.482948,-19097.313304,40415.244433
1114.328643,-21833.721693,-5403.503377,42635.862259
1114.328962,-19228.997000,11769.274478,36862.255912
1114.329281,-7048.078582,23020.404796,37750.503042
1114.329600,0.000000,20059.581028,23316.487173
1114.329919,7660.954980,25241.022622,-1258.350101
1114.330238,18539.511052,29460.196492,-6809.894666
1114.330557,20684.578446,16506.592507,-18283.086767
1114.330876,22982.864940,1480.411884,-16284.530724
1114.331195,20224.921147,-7179.997637,-9326.594869
1114.331514,8886.707777,-11399.171507,-13841.851115
1114.331832,-459.657299,-17987.004391,-11769.274478
1114.332151,-4366.744339,-16506.592507,-2960.823768
1114.332470,-12717.185267,-23168.445985,18653.189738
1114.332789,-12563.966167,-25611.125593,36640.194129
1114.333108,-24515.055936,-11547.212695,37898.544230
1114.333427,-23902.179538,1998.556043,40045.141462
1114.333746,-23212.693589,13323.706956,34419.576303
1114.334065,-5898.935335,18949.272115,36048.029375
1114.334384,0.000000,20355.663405,16876.695478
1114.334702,8580.269578,31236.690752,-1480.411884
1114.335021,13559.890315,22206.178260,-10436.903782
1114.335340,19458.825649,11473.192101,-16654.633695
1114.335659,23519.131789,3478.967927,-12287.418637
1114.335978,19075.777900,-7328.038826,-6809.894666
1114.336297,5362.668486,-12731.542202,-20651.745782
1114.336616,-1455.581446,-14508.036463,-9400.615463
1114.336935,-4060.306139,-19911.539840,5625.565159
1114.337254,-11031.775171,-21984.116477,18949.272115
1114.337573,-14019.547613,-21169.889941,36196.070564
1114.337891,-21374.064394,-12583.501014,42487.821071
1114.338210,-24744.884585,-2220.617826,39526.997303
1114.338529,-13713.109414,12657.521608,38194.626607
1114.338848,-5056.230287,14656.077652,34123.493926
1114.339167,4749.792088,29978.340651,6365.771101
1114.339486,14632.424012,25981.228564,-6587.832884
1114.339805,19612.044749,23834.631332,-14359.995275
1114.340124,24055.398637,10955.047942,-20577.725188
1114.340443,27196.390179,-1258.350101,-8142.265362
1114.340761,17466.977354,-7994.224174,-14508.036463
1114.341080,5898.935335,-14434.015869,-14434.015869
1114.341399,459.657299,-19837.519246,-6069.688724
1114.341718,-4826.401637,-24278.754898,8586.388927
1114.342037,-9039.926876,-26129.269753,25611.125593
1114.342356,-14019.547613,-19467.416275,35603.905810
1114.342675,-19612.044749,-5255.462188,41451.532752
1114.342994,-18539.511052,7031.956449,37232.358883
1114.343313,-10878.556072,11695.253884,35529.885216
1114.343631,0.000000,19467.416275,28349.887579
1114.343950,4596.572988,29830.299463,5551.544565
1114.344269,16547.662757,27461.640448,-11103.089130
1114.344588,21067.626195,21021.848753,-15914.427753
1114.344907,24591.665486,5255.462188,-11917.315666
1114.345226,21757.112143,-7476.080014,-8734.430116
1114.345545,10572.117872,-9400.615463,-13989.892304
1114.345864,3447.429741,-17172.777854,-7476.080014
1114.346183,1455.581446,-19985.560434,-1924.535449
1114.346502,-7124.688131,-21391.951724,10881.027347
1114.346820,-11568.042020,-22428.240043,29830.299463
1114.347139,-17083.929605,-15618.345376,38564.729578
1114.347458,-19612.044749,-1036.288319,37158.338288
1114.347777,-16624.272307,12583.501014,32791.123231
1114.348096,-8503.660028,18209.066173,33309.267390
1114.348415,-383.047749,26129.269753,20281.642811
1114.348734,5056.230287,20355.663405,-2368.659014
1114.349053,16930.710506,27017.516883,-8734.430116
1114.349372,20301.530697,13249.686362,-17542.880825
1114.349691,22982.864940,4145.153275,-12953.603985
1114.350010,18692.730151,-6587.832884,-12953.603985
1114.350329,6741.640382,-10955.047942,-11769.274478
1114.350648,153.219100,-18727.210333,-10140.821405
1114.350967,-5132.839837,-17690.922014,-222.061783
1114.351286,-10878.556072,-24500.816680,18949.272115
1114.351605,-16624.272307,-22428.240043,34863.699868
1114.351924,-19995.092498,-15766.386565,42339.779882
1114.352243,-22829.645840,5181.441594,35529.885216
1114.352562,-19228.997000,10658.965565,39082.873738
1114.352881,-6052.154434,18357.107362,35085.761651
1114.353200,-536.266849,26943.496289,15766.386565
1114.353519,8580.269578,29238.134709,-2664.741391
1114.353838,16700.881856,25611.125593,-15026.180623
1114.354157,21603.893044,13841.851115,-14434.015869
1114.354476,24821.494135,1702.473667,-11695.253884
1114.354795,16471.053207,-9918.759623,-13915.871710
1114.355114,3447.429741,-15766.386565,-12731.542202
1114.355433,-2528.115143,-25092.981434,-5995.668130
1114.355752,-5286.058936,-19541.436869,4219.173869
1114.356071,-12334.137518,-25981.228564,22280.198854
1114.356390,-14402.595362,-21391.951724,39601.017897
1114.356709,-20071.702048,-9030.512492,42709.882853
1114.357028,-23365.912689,8808.450710,34567.617491
1114.357347,-12027.699319,15914.427753,36936.276506
1114.357666,-5286.058936,24648.857869,29016.072926
1114.357985,3294.210641,23686.590144,9474.636058
1114.358304,13330.061665,26499.372724,-7031.956449
1114.358623,20071.702048,23020.404796,-7994.224174
1114.358942,23748.960438,6661.853478,-19467.416275
1114.359261,26430.294681,-3256.906145,-10881.027347
1114.359580,15475.129060,-7994.224174,-9178.553681
1114.359899,6128.763984,-19319.375086,-10955.047942
1114.360218,2528.115143,-15840.407159,-8586.388927
1114.360537,-4060.306139,-21984.116477,8512.368333
1114.360856,-8427.050478,-24574.837274,21539.992912
1114.361175,-14096.157163,-18357.107362,33827.411549
1114.361494,-17083.929605,-2886.803174,39156.894332
1114.361813,-18539.511052,7254.018232,39008.853143
1114.362132,-10265.679673,17098.757260,28201.846390
1114.362451,-383.047749,15988.448347,29534.217086
1114.362770,6511.811733,25537.104999,-1406.391290
1114.363089,17696.806004,28571.949361,-13619.789333
1114.363408,20531.359346,12287.418637,-18579.169144
1114.363727,25587.589633,5403.503377,-14582.057057
1114.364046,23595.741338,-5699.585753,-13767.830521
1114.364365,10955.165621,-8142.265362,-14137.933492
1114.364684,5132.839837,-16062.468941,-12065.356855
1114.365003,-4443.353888,-18949.272115,-4885.359217
1114.365322,-9039.926876,-21984.116477,14582.057057
1114.365641,-13176.842566,-27165.558071,33383.287984
1114.365960,-20148.311597,-16802.674883,37454.420665
1114.366279,-19612.044749,296.082377,37306.379477
1114.366598,-18539.511052,15840.407159,29534.217086
1114.366917,-8810.098227,19245.354492,34123.493926
1114.367236,229.828649,23168.445985,19911.539840
1114.367555,5898.935335,22280.198854,1628.453072
1114.367874,13866.328514,25685.146187,-3775.050304
1114.368193,17543.586904,16284.530724,-17838.963202
1114.368512,21986.940793,1110.308913,-14878.139434
1114.368831,17390.367805,-5107.421000,-10955.047942
1114.369150,6358.592633,-15322.262999,-12065.356855
1114.369469,-536.266849,-16654.633695,-8660.409521
1114.369788,-5669.106685,-19319.375086,-2886.803174
1114.370107,-10342.289223,-25833.187376,16580.613101
1114.370426,-14632.424012,-23168.445985,36048.029375
1114.370745,-22063.550342,-12361.439231,38268.647201
1114.371064,-23365.912689,2664.741391,36936.276506
1114.371383,-19305.606550,12509.480420,37602.461854
1114.371702,-5975.544884,15174.221811,36196.070564
1114.372021,3217.601092,25463.084405,15470.304188
1114.372340,8580.269578,24056.693115,740.205942
1114.372659,15781.567259,23686.590144,-11547.212695
1114.372978,22063.550342,10436.903782,-15914.427753
1114.373297,23136.084040,1776.494261,-11769.274478
1114.373616,18922.558801,-11473.192101,-9030.512492
1114.373935,4903.011187,-14508.036463,-11473.192101
1114.374254,5515.887586,-15470.304188,-10732.986159
1114.374573,-4213.525239,-15544.324782,1184.329507
1114.374892,-6741.640382,-19023.292709,21243.910535
1114.375211,-12487.356617,-21169.889941,36196.070564
1114.375530,-17083.929605,-10807.006753,39304.935520
1114.375849,-19535.435199,2294.638420,39156.894332
1114.376168,-14632.424012,8882.471304,40267.203245
1114.376487,-3447.429741,16210.510130,29978.340651
1114.376806,5056.230287,28571.949361,12953.603985
1114.377125,15015.471761,26795.455100,-5403.503377
1114.377444,20378.140247,22354.219448,-13545.768739
1114.377763,24821.494135,13989.892304,-16950.716072
1114.378082,27656.047478,814.226536,-9548.656652
1114.378401,16088.005458,-9474.636058,-14211.954086
1114.378720,7507.735880,-13619.789333,-9918.759623
1114.379039,-766.095498,-16506.592507,-9326.594869
1114.379358,-4136.915689,-20503.704593,8660.409521
1114.379677,-11951.089769,-27905.764013,25759.166782
1114.379996,-14402.595362,-19911.539840,40119.162056
1114.380315,-18999.168350,-9030.512492,36714.214723
1114.380634,-18386.291952,11251.130318,31680.814318
1114.380953,-13330.061665,15322.262999,33753.390955
1114.381272,-5822.325785,20725.766376,28127.825796
1114.381591,3600.648841,22354.219448,8512.368333
1114.381910,11031.775171,26277.310941,-7105.977043
1114.382229,16317.834107,18431.127956,-13323.706956
1114.382548,18233.072852,5477.523971,-13841.851115
1114.382867,20991.016645,-6809.894666,-10510.924376
1114.383186,10725.336972,-6143.709319,-9178.553681
1114.383505,2604.724693,-14434.015869,-10288.862594
1114.383824,-306.438199,-18801.230927,-5033.400406
1114.384143,-8963.317327,-18653.189738,7920.203579
1114.384462,-9806.022374,-24278.754898,29608.237680
1114.384781,-18386.291952,-15914.427753,31606.793723
1114.385100,-18386.291952,-2220.617826,33531.329173
1114.385419,-21603.893044,11843.295072,31680.814318
1114.385738,-11491.432470,15618.345376,36788.235317
1114.386057,-6128.763984,15988.448347,21984.116477
1114.386376,5822.325785,25611.125593,6069.688724
1114.386695,11414.822920,25241.022622,-7105.977043
1114.387014,18309.682402,19541.436869,-16802.674883
1114.387333,22216.769442,8068.244768,-15692.365970
1114.387652,20991.016645,-2220.617826,-10732.986159
1114.387971,9269.755526,-11473.192101,-10362.883188
1114.388290,2298.286494,-15322.262999,-10584.944971
1114.388609,-1991.848295,-16210.510130,-2664.741391
1114.388928,-7737.564530,-23020.404796,8808.450710
1114.389247,-9959.241474,-29238.134709,29460.196492
1114.389566,-19918.482948,-17838.963202,39526.997303
1114.389885,-18003.244203,-4367.215058,39971.120868
1114.390204,-21680.502593,12879.583391,30422.464216
1114.390523,-6205.373534,18875.251521,36418.132346
1114.390842,-1378.971896,17542.880825,24944.940245
1114.391161,10955.165621,36714.214723,-1850.514855
1114.391480,14862.252661,23094.425390,-7698.141797
1114.391799,20071.702048,17764.942608,-17912.983796
1114.392118,23289.303139,3775.050304,-12509.480420
1114.392437,20837.797546,-9622.677246,-7550.100608
1114.392756,8120.612279,-14582.057057,-7698.141797
1114.393075,3983.696590,-14211.954086,-8882.471304
1114.393394,-3600.648841,-21539.992912,-5847.626942
1114.393713,-7737.564530,-16950.716072,14508.036463
1114.394032,-8503.660028,-26647.413912,35085.761651
1114.394351,-17773.415554,-14730.098246,37454.420665
1114.394670,-19841.873398,-2368.659014,38786.791361
1114.394988,-19841.873398,9474.636058,33605.349767
1114.395307,-7737.564530,12435.459826,38490.708984
1114.395626,2911.162892,22058.137072,17764.942608
1114.395945,9422.974625,27017.516883,592.164754
1114.396264,15781.567259,24722.878463,-9770.718434
1114.396583,21833.721693,15914.427753,-15692.365970
1114.396902,25664.199183,6217.729913,-14656.077652
1114.397221,18462.901502,-4145.153275,-12435.459826
1114.397540,11031.775171,-15988.448347,-6883.915261
1114.397859,2451.505594,-13101.645173,-11473.192101
1114.398178,-3830.477490,-14211.954086,-1480.411884
1114.398497,-6665.030833,-24352.775492,20281.642811
1114.398816,-13789.718964,-21021.848753,32272.979071
1114.399135,-16011.395908,-10510.924376,38268.647201
1114.399454,-19612.044749,1184.329507,34049.473332
1114.399773,-18156.463303,13101.645173,29386.175897
1114.400092,-7431.126331,14063.912898,34197.514520
1114.400411,-842.705048,22872.363608,16580.613101
1114.400730,9116.536426,27609.681637,-3330.926739
1114.401049,15245.300410,22428.240043,-8734.430116
1114.401368,19841.873398,19837.519246,-18949.272115
1114.401687,22982.864940,740.205942,-15692.365970
1114.402006,16088.005458,-4145.153275,-12213.398043
1114.402325,7354.516781,-12805.562797,-9696.697840
1114.402644,153.219100,-16136.489536,-9252.574275
1114.402963,-6052.154434,-22650.301825,-1332.370696
1114.403282,-10342.289223,-28053.805202,21243.910535
1114.403601,-14019.547613,-24500.816680,39156.894332
1114.403920,-20148.311597,-10881.027347,39675.038491
1114.404239,-22982.864940,1184.329507,34419.576303
1114.404558,-19458.825649,12583.501014,37824.523636
1114.404877,-8656.879127,16580.613101,32421.020260
1114.405196,1685.410096,25833.187376,10066.800811
1114.405515,7507.735880,30052.361245,-6735.874072
1114.405834,12334.137518,21391.951724,-9622.677246
1114.406153,17160.539155,14211.954086,-16950.716072
1114.406472,20991.016645,222.061783,-11769.274478
1114.406791,16394.443657,-9400.615463,-8660.409521
1114.407110,6358.592633,-13693.809927,-7328.038826
1114.407429,2221.676944,-14730.098246,-3997.112087
1114.407748,-3524.039291,-17246.798449,-222.061783
1114.408067,-6665.030833,-22576.281231,21317.931130
1114.408386,-10342.289223,-20799.786970,39675.038491
1114.408705,-18156.463303,-9326.594869,32495.040854
1114.409024,-19228.997000,3627.009116,33531.329173
1114.409343,-15781.567259,14285.974681,30644.525999
1114.409662,-4060.306139,18431.127956,34789.679274
1114.409981,6665.030833,26203.290347,8808.450710
1114.410300,12947.013916,28719.990550,-4737.318029
1114.410619,18386.291952,17987.004391,-11843.295072
1114.410938,21144.235745,12287.418637,-13175.665768
1114.411257,26583.513781,-1332.370696,-8216.285956
1114.411576,15781.567259,-9252.574275,-9770.718434
1114.411895,8580.269578,-10658.965565,-8882.471304
1114.412214,2451.505594,-14730.098246,-9548.656652
1114.412533,-2757.943793,-21391.951724,7476.080014
1114.412852,-8427.050478,-25685.146187,23612.569550
1114.413171,-13176.842566,-23982.672521,35011.741057
1114.413490,-19535.435199,-5625.565159,37528.441259
1114.413809,-19841.873398,3330.926739,31458.752535
1114.414128,-16624.272307,16062.468941,30940.608376
1114.414447,-3600.648841,14359.995275,27387.619854
1114.414766,5669.106685,30422.464216,7402.059420
1114.415085,15168.690860,24870.919651,-10214.842000
1114.415404,17620.196454,19097.313304,-16358.551318
1114.415723,21603.893044,10584.944971,-16136.489536
1114.416042,19075.777900,-6069.688724,-11029.068536
1114.416361,10112.460574,-11547.212695,-10214.842000
1114.416680,153.219100,-20873.807564,-7550.100608
1114.416999,-2451.505594,-16950.716072,-3034.844362
1114.417318,-9806.022374,-21243.910535,2294.638420
1114.417637,-12027.699319,-25981.228564,25833.187376
1114.417956,-18692.730151,-20207.622217,36344.111752
1114.418275,-20378.140247,-4663.297435,37528.441259
1114.418594,-25740.808733,8660.409521,26573.393318
1114.418913,-16471.053207,15026.180623,34123.493926
1114.419232,-6128.763984,15248.242405,30200.402434
1114.419551,3830.477490,25759.166782,3552.988522
1114.419870,9269.755526,22206.178260,-7328.038826
1114.420189,16011.395908,21095.869347,-11917.315666
1114.420508,21067.626195,9548.656652,-15692.365970
1114.420827,20914.407095,-5255.462188,-10140.821405
1114.421146,10112.460574,-13693.809927,-4737.318029
1114.421465,2681.334243,-12287.418637,-8068.244768
1114.421784,-2068.457845,-15766.386565,-5551.544565
1114.422103,-5439.278036,-19097.313304,4589.276840
1114.422422,-10265.679673,-21317.931130,28645.969955
1114.422741,-14938.862211,-16580.613101,34419.576303
1114.423060,-19228.997000,-5033.400406,33531.329173
1114.423379,-20684.578446,7031.956449,32569.061448
1114.423698,-13330.061665,8956.491898,35455.864622
1114.424017,-5822.325785,16654.633695,31458.752535
1114.424336,5745.716235,18949.272115,4663.297435
1114.424655,15168.690860,24056.693115,-6587.832884
1114.424974,19305.606550,18653.189738,-12065.356855
1114.425293,23212.693589,11177.109724,-13915.871710
1114.425612,25281.151434,-2664.741391,-13693.809927
1114.425931,15398.519510,-9770.718434,-6735.874072
1114.426250,7584.345430,-15470.304188,-5921.647536
1114.426569,2451.505594,-16432.571912,-4293.194464
1114.426888,-5056.230287,-19319.375086,7994.224174
1114.427207,-8810.098227,-23464.528361,30126.381839
1114.427526,-11261.603821,-18135.045579,37972.564825
1114.427845,-16241.224558,-2812.782580,34419.576303
1114.428164,-14709.033562,7994.224174,35381.844028
1114.428483,-10342.289223,17024.736666,28053.805202
1114.428802,612.876398,17172.777854,20799.786970
1114.429121,8427.050478,24352.775492,7402.059420
1114.429440,13100.233016,21614.013506,-6661.853478
1114.429759,16777.491406,18431.127956,-15914.427753
1114.430078,22216.769442,6883.915261,-13175.665768
1114.430397,18692.730151,-6883.915261,-7402.059420
1114.430716,10572.117872,-12435.459826,-8364.327145
1114.431035,2451.505594,-10362.883188,-6513.812290
1114.431354,-995.924147,-13397.727550,-3108.864956
1114.431673,-7660.954980,-20947.828159,12435.459826
1114.431992,-10418.898773,-19541.436869,34641.638086
1114.432311,-14325.985813,-13101.645173,36196.070564
1114.432630,-18079.853753,1998.556043,33087.205607
1114.432949,-19535.435199,11843.295072,27683.702231
1114.433268,-10955.165621,9030.512492,29830.299463
1114.433587,-2451.505594,19837.519246,15248.242405
1114.433906,6818.249932,24944.940245,1776.494261
1114.434225,9806.022374,15914.427753,-7105.977043
1114.434544,14555.814462,13619.789333,-12953.603985
1114.434863,19228.997000,4811.338623,-9844.739029
1114.435182,16164.615008,-4367.215058,-6883.915261
1114.435501,5515.887586,-7624.121203,-5847.626942
1114.435820,0.000000,-11621.233289,-10214.842000
1114.436139,-4826.401637,-14359.995275,-444.123565
1114.436458,-7967.393179,-21317.931130,16876.695478
1114.436777,-15781.567259,-23390.507767,31384.731941
1114.437096,-15781.567259,-18727.210333,41377.512158
1114.437415,-21067.626195,-518.144159,34419.576303
1114.437734,-18233.072852,14730.098246,28497.928767
1114.438053,-11108.384721,13249.686362,28127.825796
1114.438372,995.924147,19911.539840,21762.054695
1114.438691,8656.879127,23390.507767,666.185348
1114.439010,14709.033562,25092.981434,-11769.274478
1114.439329,19152.387450,16654.633695,-17912.983796
1114.439648,21833.721693,2738.761985,-14656.077652
1114.439967,19305.606550,-9992.780217,-5921.647536
1114.440286,9422.974625,-13101.645173,-4885.359217
1114.440605,3907.087040,-15026.180623,-6587.832884
1114.440924,-383.047749,-17024.736666,-5107.421000
1114.441243,-4673.182538,-24500.816680,17764.942608
1114.441562,-8503.660028,-21984.116477,33753.390955
1114.441881,-16164.615008,-13027.624579,36344.111752
1114.442200,-18999.168350,1036.288319,33161.226202
1114.442519,-15015.471761,13545.768739,33753.390955
1114.442838,-6741.640382,17246.798449,33753.390955
1114.443157,2451.505594,22650.301825,18653.189738
1114.443476,7967.393179,18505.148550,3108.864956
1114.443795,14938.862211,19023.292709,-5329.482782
1114.444114,18922.558801,11695.253884,-15692.365970
1114.444433,22753.036291,1850.514855,-13397.727550
1114.444752,18845.949251,-7698.141797,-5995.668130
1114.445071,9882.631924,-14804.118840,-5625.565159
1114.445390,3217.601092,-14211.954086,-7846.182985
1114.445709,-995.924147,-14656.077652,-2886.803174
1114.446028,-4060.306139,-15914.427753,12879.583391
1114.446347,-9806.022374,-16580.613101,27979.784608
1114.446666,-15475.129060,-13619.789333,36788.235317
1114.446985,-19612.044749,-888.247130,34197.514520
1114.447304,-15398.519510,10807.006753,33309.267390
1114.447623,-8427.050478,13767.830521,25389.063811
1114.447941,1149.143247,15248.242405,12361.439231
1114.448260,8503.660028,19911.539840,1924.535449
1114.448579,14632.424012,21688.034101,-9400.615463
1114.448898,20454.749797,15396.283594,-15174.221811
1114.449217,18692.730151,4737.318029,-15618.345376
1114.449536,16930.710506,-6735.874072,-5995.668130
1114.449855,8427.050478,-7624.121203,-8512.368333
1114.450174,2604.724693,-8882.471304,-11621.233289
1114.450493,-4826.401637,-19393.395680,-4145.153275
1114.450812,-8810.098227,-21391.951724,17690.922014
1114.451130,-12104.308868,-20281.642811,31162.670158
1114.451449,-18462.901502,-14434.015869,35751.946999
1114.451768,-21297.454844,962.267725,35085.761651
1114.452087,-19612.044749,13101.645173,32346.999665
1114.452406,-7431.126331,15322.262999,33309.267390
1114.452725,-1455.581446,21317.931130,15692.365970
1114.453044,6205.373534,21762.054695,-1406.391290
1114.453362,12487.356617,17912.983796,-3108.864956
1114.453681,16471.053207,14434.015869,-13693.809927
1114.454000,17390.367805,2146.597232,-13101.645173
1114.454319,15628.348159,-5033.400406,-8586.388927
1114.454638,6435.202183,-13841.851115,-5329.482782
1114.454957,1225.752797,-13545.768739,-5403.503377
1114.455275,-3753.867940,-14656.077652,-814.226536
1114.455594,-6358.592633,-16136.489536,16580.613101
1114.455913,-9193.145976,-18357.107362,33161.226202
1114.456232,-14785.643111,-9178.553681,34419.576303
1114.456551,-18845.949251,-74.020594,35233.802839
1114.456870,-15934.786358,10732.986159,32717.102636
1114.457189,-8197.221829,14211.954086,28942.052332
1114.457507,689.485948,18949.272115,15470.304188
1114.457826,9806.022374,12139.377449,1628.453072
1114.458145,15628.348159,26277.310941,-10584.944971
1114.458464,19841.873398,14211.954086,-18727.210333
1114.458783,20378.140247,-148.041188,-11695.253884
1114.459102,18079.853753,-8956.491898,-4737.318029
1114.459421,10189.070123,-7179.997637,-4441.235652
1114.459739,5669.106685,-7994.224174,-9252.574275
1114.460058,-1608.800546,-11399.171507,-518.144159
1114.460377,-6052.154434,-22132.157666,18801.230927
1114.460696,-9806.022374,-20059.581028,31976.896694
1114.461015,-13789.718964,-13027.624579,35825.967593
1114.461334,-19535.435199,-4737.318029,31902.876100
1114.461652,-16547.662757,5329.482782,31828.855506
1114.461971,-9576.193725,10288.862594,33901.432144
1114.462290,2451.505594,21243.910535,19171.333898
1114.462609,11414.822920,23760.610738,2294.638420
1114.462928,14938.862211,21539.992912,-6957.935855
1114.463247,21067.626195,19245.354492,-16358.551318
1114.463566,23748.960438,6513.812290,-14063.912898
1114.463884,19765.263848,-3923.091493,-9770.718434
1114.464203,8503.660028,-16062.468941,-2886.803174
1114.464522,1225.752797,-14878.139434,-6957.935855
1114.464841,-3217.601092,-17320.819043,-1554.432478
1114.465160,-8120.612279,-20281.642811,20281.642811
1114.465479,-11797.870669,-24870.919651,31162.670158
1114.465798,-14709.033562,-13027.624579,36344.111752
1114.466116,-19688.654299,370.102971,31976.896694
1114.466435,-17313.758255,9770.718434,34271.535115
1114.466754,-11031.775171,19097.313304,26795.455100
1114.467073,-919.314598,15544.324782,19763.498651
1114.467392,6281.983084,19763.498651,4441.235652
1114.467711,10648.727422,24204.734303,-12435.459826
1114.468029,18616.120601,14508.036463,-14804.118840
1114.468348,20531.359346,3701.029710,-13175.665768
1114.468667,19152.387450,-8438.347739,-6365.771101
1114.468986,8503.660028,-7994.224174,-10732.986159
1114.469305,2528.115143,-8068.244768,-8068.244768
1114.469624,-459.657299,-13323.706956,-2294.638420
1114.469943,-7507.735880,-17838.963202,11917.315666
1114.470261,-10725.336972,-16580.613101,27757.722825
1114.470580,-14555.814462,-15174.221811,32050.917289
1114.470899,-20301.530697,-3849.070898,28275.866984
1114.471218,-19152.387450,2812.782580,33013.185013
1114.471537,-11491.432470,8586.388927,32050.917289
1114.471856,-2911.162892,18875.251521,21836.075289
1114.472174,6818.249932,17912.983796,5847.626942
1114.472493,12563.966167,22354.219448,-5329.482782
1114.472812,20224.921147,17320.819043,-11991.336260
1114.473131,22523.207641,11029.068536,-16580.613101
1114.473450,18616.120601,-740.205942,-9696.697840
1114.473769,9269.755526,-10436.903782,-9992.780217
1114.474088,1378.971896,-15396.283594,-6735.874072
1114.474406,-3064.381992,-14656.077652,222.061783
1114.474725,-6588.421283,-22132.157666,13175.665768
1114.475044,-12640.575717,-17987.004391,25833.187376
1114.475363,-13713.109414,-18579.169144,38564.729578
1114.475682,-18692.730151,-6291.750507,37898.544230
1114.476001,-18692.730151,7476.080014,32124.937883
1114.476320,-11874.480219,13175.665768,28942.052332
1114.476638,-612.876398,18653.189738,20947.828159
1114.476957,7890.783629,22428.240043,7254.018232
1114.477276,12793.794817,22650.301825,-7624.121203
1114.477595,19152.387450,17394.839637,-14063.912898
1114.477914,20684.578446,7920.203579,-15100.201217
1114.478233,19688.654299,-6735.874072,-7105.977043
1114.478551,10725.336972,-12509.480420,-7031.956449
1114.478870,5515.887586,-10807.006753,-3923.091493
1114.479189,3140.991542,-11695.253884,370.102971
1114.479508,-1532.190996,-18135.045579,14804.118840
1114.479827,-10265.679673,-17616.901420,25685.146187
1114.480146,-7814.174080,-12509.480420,35233.802839
1114.480465,-15321.909960,-2072.576638,31014.628970
1114.480783,-16700.881856,8364.327145,28275.866984
1114.481102,-9959.241474,7179.997637,36492.152941
1114.481421,-1532.190996,16728.654289,21836.075289
1114.481740,8886.707777,21021.848753,8142.265362
1114.482059,10725.336972,20429.683999,-5477.523971
1114.482378,17850.025103,14656.077652,-13619.789333
1114.482697,19918.482948,8734.430116,-14582.057057
1114.483015,17466.977354,-1258.350101,-9992.780217
1114.483334,9806.022374,-9844.739029,-7105.977043
1114.483653,2451.505594,-9622.677246,-6809.894666
1114.483972,-1991.848295,-9918.759623,-2960.823768
1114.484291,-8273.831378,-18431.127956,15026.180623
1114.484610,-13253.452115,-22132.157666,26795.455100
1114.484928,-14632.424012,-18653.189738,39897.100274
1114.485247,-18616.120601,-4885.359217,35455.864622
1114.485566,-19841.873398,7402.059420,28053.805202
1114.485885,-13942.938064,10584.944971,25685.146187
1114.486204,-4136.915689,11843.295072,27831.743419
1114.486523,6511.811733,24056.693115,4589.276840
1114.486842,8273.831378,23094.425390,-9844.739029
1114.487160,15934.786358,21762.054695,-14952.160028
1114.487479,19228.997000,6661.853478,-12805.562797
1114.487798,17083.929605,-5551.544565,-11177.109724
1114.488117,9422.974625,-13989.892304,-7772.162391
1114.488436,1685.410096,-9400.615463,-6809.894666
1114.488755,-229.828649,-15914.427753,-4663.297435
1114.489074,-7354.516781,-19319.375086,10362.883188
1114.489392,-10725.336972,-25167.002028,29164.114115
1114.489711,-14249.376263,-15396.283594,35381.844028
1114.490030,-18539.511052,-5847.626942,32939.164419
1114.490349,-19458.825649,4737.318029,31976.896694
1114.490668,-13023.623466,8364.327145,33087.205607
1114.490987,-5362.668486,17468.860231,25907.207970
1114.491305,4979.620737,11843.295072,8734.430116
1114.491624,10189.070123,22428.240043,-10510.924376
1114.491943,17850.025103,16654.633695,-10955.047942
1114.492262,20607.968896,4811.338623,-13545.768739
1114.492581,21527.283494,-3552.988522,-11177.109724
1114.492900,15015.471761,-10584.944971,-8068.244768
1114.493219,6894.859482,-13841.851115,-5255.462188
1114.493537,3294.210641,-8882.471304,-5625.565159
1114.493856,-3217.601092,-15396.283594,4367.215058
1114.494175,-8120.612279,-18949.272115,22058.137072
1114.494494,-10572.117872,-17912.983796,36196.070564
1114.494813,-15168.690860,-11177.109724,31828.855506
1114.495132,-19305.606550,2738.761985,33383.287984
1114.495451,-13100.233016,6809.894666,29460.196492
1114.495769,-3600.648841,13619.789333,26721.434506
1114.496088,7354.516781,18801.230927,12361.439231
1114.496407,12487.356617,25833.187376,-2664.741391
1114.496726,15475.129060,23316.487173,-15914.427753
1114.497045,23519.131789,12583.501014,-17468.860231
1114.497364,21450.673944,3330.926739,-12731.542202
1114.497682,15475.129060,-9400.615463,-5847.626942
1114.498001,7048.078582,-13989.892304,-6809.894666
1114.498320,919.314598,-9030.512492,-7105.977043
1114.498639,-3370.820191,-13249.686362,7476.080014
1114.498958,-8120.612279,-23316.487173,23686.590144
1114.499277,-12410.747068,-16580.613101,35159.782245
1114.499596,-16930.710506,-6587.832884,32791.123231
1114.499914,-21144.235745,3701.029710,28275.866984
1114.500233,-15551.738609,7624.121203,35529.885216
1114.500552,-8350.440928,16802.674883,27979.784608
1114.500871,-153.219100,17690.922014,14137.933492
1114.501190,8273.831378,24278.754898,814.226536
1114.501509,11568.042020,13619.789333,-6809.894666
1114.501827,14709.033562,8660.409521,-10510.924376
1114.502146,18156.463303,1554.432478,-12287.418637
1114.502465,13559.890315,-7254.018232,-6809.894666
1114.502784,4903.011187,-9474.636058,-2590.720797
1114.503103,536.266849,-7772.162391,-6661.853478
1114.503422,-4673.182538,-15100.201217,2368.659014
1114.503741,-7124.688131,-15100.201217,21021.848753
1114.504059,-10418.898773,-13397.727550,27979.784608
1114.504378,-14172.766713,-9770.718434,33605.349767
1114.504697,-19612.044749,962.267725,30718.546593
1114.505016,-14709.033562,7179.997637,34197.514520
1114.505335,-10878.556072,12731.542202,24574.837274
1114.505654,2604.724693,8808.450710,15544.324782
1114.505973,8886.707777,20725.766376,2072.576638
1114.506291,12870.404366,20725.766376,-11029.068536
1114.506610,18003.244203,10732.986159,-14211.954086
1114.506929,18845.949251,1406.391290,-10214.842000
1114.507248,14785.643111,-8734.430116,-2960.823768
1114.507567,6358.592633,-8882.471304,-5995.668130
1114.507886,2374.896044,-5477.523971,-5847.626942
1114.508204,-3217.601092,-13101.645173,-1554.432478
1114.508523,-6588.421283,-19467.416275,18875.251521
1114.508842,-10878.556072,-13989.892304,33975.452738
1114.509161,-15321.909960,-14952.160028,31088.649564
1114.509480,-18079.853753,-5181.441594,32569.061448
1114.509799,-15398.519510,4071.132681,35085.761651
1114.510118,-7814.174080,12361.439231,30570.505405
1114.510436,612.876398,15618.345376,15544.324782
1114.510755,9882.631924,19541.436869,4367.215058
1114.511074,12870.404366,17468.860231,-9696.697840
1114.511393,19228.997000,15914.427753,-18135.045579
1114.511712,22829.645840,3404.947333,-12435.459826
1114.512031,16241.224558,-4737.318029,-9548.656652
1114.512350,9806.022374,-12065.356855,-6513.812290
1114.512668,3217.601092,-9918.759623,-6143.709319
1114.512987,-383.047749,-15840.407159,1110.308913
1114.513306,-6358.592633,-17172.777854,15618.345376
1114.513625,-10955.165621,-18801.230927,31532.773129
1114.513944,-10265.679673,-15470.304188,34123.493926
1114.514263,-17773.415554,-2738.761985,30422.464216
1114.514581,-13942.938064,8290.306550,33087.205607
1114.514900,-8503.660028,12139.377449,24056.693115
1114.515219,0.000000,18949.272115,17987.004391
1114.515538,10112.460574,14285.974681,12879.583391
1114.515857,12870.404366,21836.075289,-12657.521608
1114.516176,21527.283494,22354.219448,-14508.036463
1114.516495,20224.921147,5477.523971,-16136.489536
1114.516813,16241.224558,-4885.359217,-9918.759623
1114.517132,8427.050478,-9178.553681,-4219.173869
1114.517451,2451.505594,-8438.347739,-8438.347739
1114.517770,-2145.067394,-10288.862594,-2516.700203
1114.518089,-7890.783629,-16580.613101,13175.665768
1114.518408,-12640.575717,-18727.210333,28201.846390
1114.518727,-12793.794817,-13693.809927,36862.255912
1114.519045,-18999.168350,-4885.359217,33753.390955
1114.519364,-17007.320056,2738.761985,31680.814318
1114.519683,-12487.356617,11029.068536,31680.814318
1114.520002,-1072.533697,17912.983796,25759.166782
1114.520321,6358.592633,20725.766376,3108.864956
1114.520640,11108.384721,20799.786970,-2294.638420
1114.520958,17620.196454,16358.551318,-13915.871710
1114.521277,22523.207641,10807.006753,-18061.024985
1114.521596,17850.025103,2146.597232,-13545.768739
1114.521915,10801.946522,-11325.150913,-3701.029710
1114.522234,1378.971896,-12435.459826,-5477.523971
1114.522553,-1072.533697,-12731.542202,-3997.112087
1114.522872,-7737.564530,-17024.736666,12509.480420
1114.523190,-13330.061665,-25018.960840,27165.558071
1114.523509,-12487.356617,-17764.942608,37898.544230
1114.523828,-18999.168350,-6291.750507,35011.741057
1114.524147,-17926.634653,2738.761985,31162.670158
1114.524466,-14172.766713,10955.047942,29164.114115
1114.524785,-5286.058936,16654.633695,22502.260637
1114.525104,6511.811733,18579.169144,10214.842000
1114.525422,9806.022374,20725.766376,-1258.350101
1114.525741,16394.443657,17912.983796,-13397.727550
1114.526060,19228.997000,7920.203579,-10584.944971
1114.526379,18156.463303,-2664.741391,-8660.409521
1114.526698,12487.356617,-12287.418637,-666.185348
1114.527017,4136.915689,-10140.821405,-7031.956449
1114.527335,995.924147,-6957.935855,-3923.091493
1114.527654,-3447.429741,-14211.954086,9696.697840
1114.527973,-7660.954980,-17468.860231,23834.631332
1114.528292,-12257.527968,-9548.656652,30570.505405
1114.528611,-15781.567259,-3997.112087,31458.752535
1114.528930,-17466.977354,2442.679609,29756.278868
1114.529249,-13023.623466,7402.059420,34567.617491
1114.529567,-2681.334243,8882.471304,26055.249158
1114.529886,5515.887586,18283.086767,6587.832884
1114.530205,11797.870669,20725.766376,-6143.709319
1114.530524,17160.539155,12435.459826,-9474.636058
1114.530843,22063.550342,11473.192101,-13471.748144
1114.531162,21374.064394,1406.391290,-12435.459826
1114.531481,14555.814462,-5921.647536,-7254.018232
1114.531799,8120.612279,-6735.874072,-6069.688724
1114.532118,3140.991542,-7846.182985,-6513.812290
1114.532437,-2987.772442,-16210.510130,4737.318029
1114.532756,-9499.584175,-20651.745782,23908.651927
1114.533075,-12793.794817,-18579.169144,36640.194129
1114.533394,-16241.224558,-10658.965565,33753.390955
1114.533712,-18003.244203,2368.659014,28794.011144
1114.534031,-10801.946522,9770.718434,33975.452738
1114.534350,-7507.735880,17468.860231,19985.560434
1114.534669,3600.648841,13915.871710,11177.109724
1114.534988,9806.022374,20947.828159,148.041188
1114.535307,13559.890315,17542.880825,-9918.759623
1114.535626,15858.176809,7254.018232,-14211.954086
1114.535944,16777.491406,-1998.556043,-9844.739029
1114.536263,12870.404366,-10881.027347,-3849.070898
1114.536582,7354.516781,-9178.553681,-6365.771101
1114.536901,383.047749,-8216.285956,-3849.070898
1114.537220,-1838.629195,-13915.871710,7846.182985
1114.537539,-7737.564530,-15470.304188,18431.127956
1114.537857,-12793.794817,-12879.583391,30200.402434
1114.538176,-15398.519510,-4737.318029,29682.258274
1114.538495,-17237.148705,4441.235652,27683.702231
1114.538814,-12717.185267,3775.050304,28942.052332
1114.539133,-7354.516781,10732.986159,22206.178260
1114.539452,306.438199,12139.377449,14359.995275
1114.539771,7584.345430,15174.221811,-148.041188
1114.540089,12257.527968,15766.386565,-9696.697840
1114.540408,14709.033562,9696.697840,-10658.965565
1114.540727,16164.615008,1480.411884,-7476.080014
1114.541046,12257.527968,-2146.597232,-7105.977043
1114.541365,6128.763984,-4441.235652,-10584.944971
1114.541684,2681.334243,-5033.400406,-3478.967927
1114.542003,-3140.991542,-10955.047942,3330.926739
1114.542321,-8350.440928,-16210.510130,16358.551318
1114.542640,-11644.651570,-18653.189738,32495.040854
1114.542959,-16471.053207,-11103.089130,35974.008781
1114.543278,-17160.539155,-4663.297435,32198.958477
1114.543597,-14019.547613,8586.388927,30348.443622
1114.543916,-5822.325785,10658.965565,23020.404796
1114.544234,1685.410096,21836.075289,9844.739029
1114.544553,7584.345430,12805.562797,4145.153275
1114.544872,12717.185267,16802.674883,-7105.977043
1114.545191,17696.806004,10955.047942,-13915.871710
1114.545510,17466.977354,1776.494261,-12509.480420
1114.545829,14632.424012,-9400.615463,-4071.132681
1114.546148,8656.879127,-9178.553681,-2442.679609
1114.546466,4366.744339,-9696.697840,-4293.194464
1114.546785,0.000000,-7254.018232,2368.659014
1114.547104,-4979.620737,-14211.954086,18357.107362
1114.547423,-11031.775171,-12583.501014,30052.361245
1114.547742,-13713.109414,-9474.636058,33827.411549
1114.548061,-16164.615008,962.267725,30792.567187
1114.548379,-14172.766713,5625.565159,28275.866984
1114.548698,-7814.174080,5921.647536,29682.258274
1114.549017,1532.190996,18431.127956,18949.272115
1114.549336,8427.050478,14952.160028,7328.038826
1114.549654,14709.033562,13101.645173,-2442.679609
1114.549973,18692.730151,13841.851115,-9622.677246
1114.550292,22216.769442,3478.967927,-7920.203579
1114.550611,17007.320056,296.082377,-11103.089130
1114.550930,11184.994271,-2516.700203,-7772.162391
1114.551248,4366.744339,-4885.359217,-6439.791695
1114.551567,1378.971896,-3256.906145,-2960.823768
1114.551886,-4979.620737,-9918.759623,7328.038826
1114.552205,-10495.508323,-14804.118840,22428.240043
1114.552523,-15321.909960,-15322.262999,30792.567187
1114.552842,-19765.263848,-9548.656652,32791.123231
1114.553161,-18922.558801,-1924.535449,33013.185013
1114.553480,-12104.308868,8882.471304,28497.928767
1114.553799,-3217.601092,12065.356855,18949.272115
1114.554117,7354.516781,15174.221811,9770.718434
1114.554436,9652.803275,16654.633695,-2146.597232
1114.554755,15934.786358,15100.201217,-9104.533087
1114.555074,20071.702048,10436.903782,-13323.706956
1114.555393,16164.615008,1702.473667,-9548.656652
1114.555711,10035.851024,-8068.244768,-6365.771101
1114.556030,4060.306139,-5699.585753,-7846.182985
1114.556349,-306.438199,-6365.771101,-1998.556043
1114.556668,-6511.811733,-11325.150913,3775.050304
1114.556986,-9269.755526,-15174.221811,16062.468941
1114.557305,-14632.424012,-11843.295072,31754.834912
1114.557624,-20761.187996,-9770.718434,33975.452738
1114.557943,-22140.159892,-6661.853478,37084.317694
1114.558262,-16777.491406,1628.453072,36048.029375
1114.558580,-9959.241474,7105.977043,29016.072926
1114.558899,1302.362347,6661.853478,16136.489536
1114.559218,8044.002729,17468.860231,-1554.432478
1114.559537,15934.786358,14285.974681,-1702.473667
1114.559855,17390.367805,6661.853478,-12065.356855
1114.560174,20914.407095,2294.638420,-10288.862594
1114.560493,15934.786358,-2072.576638,-7105.977043
1114.560812,11261.603821,-3701.029710,-8142.265362
1114.561131,4673.182538,-3701.029710,-9474.636058
1114.561449,2221.676944,-5477.523971,1924.535449
1114.561768,-5745.716235,-8808.450710,11769.274478
1114.562087,-8810.098227,-11917.315666,24130.713709
1114.562406,-15628.348159,-13175.665768,29904.320057
1114.562724,-16471.053207,-7846.182985,38638.750172
1114.563043,-14862.252661,-3404.947333,36714.214723
1114.563362,-7967.393179,5107.421000,27535.661042
1114.563681,1991.848295,10362.883188,23094.425390
1114.564000,9959.241474,16358.551318,8512.368333
1114.564318,14172.766713,17468.860231,-6365.771101
1114.564637,22216.769442,16284.530724,-11177.109724
1114.564956,24285.227287,11325.150913,-16580.613101
1114.565275,20378.140247,3552.988522,-12731.542202
1114.565593,14632.424012,-3478.967927,-7920.203579
1114.565912,5822.325785,-3849.070898,-8290.306550
1114.566231,995.924147,-7402.059420,-3701.029710
1114.566550,-6818.249932,-12435.459826,9622.677246
1114.566869,-11031.775171,-17394.839637,23168.445985
1114.567187,-15551.738609,-14878.139434,30274.423028
1114.567506,-19535.435199,-9474.636058,33753.390955
1114.567825,-18462.901502,-3997.112087,35974.008781
1114.568144,-12717.185267,2368.659014,36936.276506
1114.568462,-7124.688131,8068.244768,25537.104999
1114.568781,4826.401637,15914.427753,8882.471304
1114.569100,6128.763984,26647.413912,-5033.400406
1114.569419,14172.766713,13027.624579,-2886.803174
1114.569738,15092.081311,10436.903782,-12879.583391
1114.570056,16854.100956,5921.647536,-12509.480420
1114.570375,11261.603821,-1406.391290,-12213.398043
1114.570694,4749.792088,-4811.338623,-4515.256246
1114.571013,0.000000,-4071.132681,-1184.329507
1114.571331,-4979.620737,-10510.924376,3849.070898
1114.571650,-9576.193725,-12657.521608,16802.674883
1114.571969,-12640.575717,-13989.892304,27313.599260
1114.572288,-16088.005458,-8882.471304,28349.887579
1114.572607,-17926.634653,-4071.132681,33087.205607
1114.572925,-13789.718964,2146.597232,32272.979071
1114.573244,-7507.735880,10140.821405,26277.310941
1114.573563,2528.115143,15840.407159,19097.313304
1114.573882,6971.469032,19615.457463,4219.173869
1114.574200,14172.766713,17838.963202,-6513.812290
1114.574519,19995.092498,16950.716072,-19393.395680
1114.574838,21833.721693,5847.626942,-11695.253884
1114.575157,15781.567259,-5847.626942,-7328.038826
1114.575476,7737.564530,-7031.956449,-7105.977043
1114.575794,3140.991542,-4663.297435,-4811.338623
1114.576113,-1072.533697,-9178.553681,2960.823768
1114.576432,-4673.182538,-14656.077652,17468.860231
1114.576751,-13023.623466,-16432.571912,25389.063811
1114.577069,-14019.547613,-13619.789333,29756.278868
1114.577388,-16930.710506,-7179.997637,31902.876100
1114.577707,-14785.643111,222.061783,30644.525999
1114.578026,-9193.145976,3775.050304,35899.988187
1114.578345,-2911.162892,14359.995275,20503.704593
1114.578663,6511.811733,10955.047942,6957.935855
1114.578982,12257.527968,24870.919651,-7920.203579
1114.579301,18692.730151,13175.665768,-13841.851115
1114.579620,17926.634653,3256.906145,-15988.448347
1114.579938,17850.025103,-3034.844362,-8438.347739
1114.580257,7584.345430,-6587.832884,-4219.173869
1114.580576,4443.353888,-9252.574275,-4071.132681
1114.580895,0.000000,-7476.080014,370.102971
1114.581214,-5132.839837,-11991.336260,13989.892304
1114.581532,-11338.213370,-16876.695478,24870.919651
1114.581851,-14479.204912,-11547.212695,32272.979071
1114.582170,-14325.985813,-8290.306550,31976.896694
1114.582489,-14172.766713,3775.050304,31976.896694
1114.582807,-8427.050478,6143.709319,31014.628970
1114.583126,-842.705048,14211.954086,19837.519246
1114.583445,6358.592633,19097.313304,7698.141797
1114.583764,11491.432470,16284.530724,-2590.720797
1114.584083,17237.148705,15396.283594,-10584.944971
1114.584401,20684.578446,8660.409521,-17616.901420
1114.584720,19458.825649,-1036.288319,-12805.562797
1114.585039,11568.042020,-7920.203579,-7105.977043
1114.585358,4826.401637,-7402.059420,-3923.091493
1114.585676,995.924147,-4885.359217,-3627.009116
1114.585995,-6435.202183,-9474.636058,6143.709319
1114.586314,-10189.070123,-16876.695478,23686.590144
1114.586633,-16241.224558,-14285.974681,28423.908173
1114.586952,-17083.929605,-10214.842000,30792.567187
1114.587270,-18003.244203,-1554.432478,30792.567187
1114.587589,-13100.233016,3330.926739,32346.999665
1114.587908,-5209.449386,7254.018232,22798.343014
1114.588227,2757.943793,17098.757260,16062.468941
1114.588545,8656.879127,18061.024985,1480.411884
1114.588864,13176.842566,15396.283594,-10732.986159
1114.589183,18386.291952,9770.718434,-11251.130318
1114.589502,17390.367805,3478.967927,-10807.006753
1114.589821,14938.862211,-3849.070898,-9548.656652
1114.590139,4596.572988,-6957.935855,-6217.729913
1114.590458,612.876398,-7846.182985,-1924.535449
1114.590777,-4826.401637,-8734.430116,3108.864956
1114.591096,-8350.440928,-13693.809927,14359.995275
1114.591414,-15398.519510,-14434.015869,22946.384202
1114.591733,-16930.710506,-8956.491898,32643.082042
1114.592052,-19612.044749,-4367.215058,29608.237680
1114.592371,-15628.348159,6143.709319,32050.917289
1114.592690,-10572.117872,6439.791695,25833.187376
1114.593008,-2298.286494,12139.377449,14508.036463
1114.593327,7660.954980,16876.695478,3034.844362
1114.593646,12640.575717,13323.706956,-9178.553681
1114.593965,17313.758255,9548.656652,-10955.047942
1114.594283,20761.187996,1628.453072,-8438.347739
1114.594602,16088.005458,-1332.370696,-4885.359217
1114.594921,9729.412825,-10584.944971,-2146.597232
1114.595240,5132.839837,-5403.503377,-1776.494261
1114.595559,1072.533697,-2960.823768,2220.617826
1114.595877,-1915.238745,-6735.874072,13767.830521
1114.596196,-6435.202183,-9844.739029,20873.807564
1114.596515,-14709.033562,-6291.750507,23760.610738
1114.596834,-15245.300410,-4811.338623,28645.969955
1114.597152,-15475.129060,1332.370696,28423.908173
1114.597471,-8044.002729,-74.020594,30274.423028
1114.597790,-2145.067394,5551.544565,23612.569550
1114.598109,5669.106685,13989.892304,11399.171507
1114.598428,10648.727422,15766.386565,-5699.585753
1114.598746,17160.539155,12583.501014,-8660.409521
1114.599065,20837.797546,7179.997637,-8216.285956
1114.599384,18999.168350,2368.659014,-8882.471304
1114.599703,13559.890315,-1332.370696,-8808.450710
1114.600021,5592.497135,-3552.988522,-3849.070898
1114.600340,459.657299,-5107.421000,2146.597232
1114.600659,-2911.162892,-7846.182985,10214.842000
1114.600978,-8350.440928,-10066.800811,17320.819043
1114.601297,-13942.938064,-13471.748144,26277.310941
1114.601615,-17390.367805,-8882.471304,29460.196492
1114.601934,-16088.005458,-1628.453072,30496.484810
1114.602253,-10725.336972,3552.988522,30792.567187
1114.602572,-7354.516781,8290.306550,25611.125593
1114.602890,3294.210641,12509.480420,13397.727550
1114.603209,7201.297681,14137.933492,-2812.782580
1114.603528,13559.890315,8956.491898,-5699.585753
1114.603847,15858.176809,4293.194464,-6513.812290
1114.604166,17160.539155,-1776.494261,-9992.780217
1114.604484,11108.384721,-3627.009116,-7476.080014
1114.604803,7814.174080,-7846.182985,0.000000
1114.605122,536.266849,-4959.379811,1924.535449
1114.605441,-612.876398,-4293.194464,4071.132681
1114.605759,-5669.106685,-3256.906145,14434.015869
1114.606078,-11031.775171,-6217.729913,21095.869347
1114.606397,-14785.643111,-6217.729913,23834.631332
1114.606716,-16547.662757,-2664.741391,28423.908173
1114.607035,-11338.213370,-0.000000,31976.896694
1114.607353,-6971.469032,-222.061783,28349.887579
1114.607672,-2145.067394,4663.297435,17616.901420
1114.607991,5745.716235,6957.935855,9030.512492
1114.608310,10725.336972,12805.562797,-5699.585753
1114.608628,14938.862211,6513.812290,-5403.503377
1114.608947,17160.539155,5699.585753,-7328.038826
1114.609266,15475.129060,3330.926739,-10288.862594
1114.609585,10725.336972,-1406.391290,-7550.100608
1114.609904,4136.915689,-2368.659014,-2812.782580
1114.610222,-919.314598,-2368.659014,740.205942
1114.610541,-4826.401637,-5477.523971,6513.812290
1114.610860,-12027.699319,-8512.368333,15470.304188
1114.611179,-15321.909960,-12287.418637,26055.249158
1114.611497,-17850.025103,-9474.636058,30644.525999
1114.611816,-15934.786358,-4515.256246,34271.535115
1114.612135,-10725.336972,962.267725,31680.814318
1114.612454,-3753.867940,8734.430116,20059.581028
1114.612773,5975.544884,14656.077652,10214.842000
1114.613091,10648.727422,12213.398043,1924.535449
1114.613410,14709.033562,10658.965565,-4811.338623
1114.613729,18233.072852,7624.121203,-8290.306550
1114.614048,16700.881856,1184.329507,-10732.986159
1114.614366,12717.185267,-2516.700203,-6143.709319
1114.614685,7660.954980,-4885.359217,0.000000
1114.615004,1915.238745,-5403.503377,0.000000
1114.615323,-2451.505594,-2590.720797,6883.915261
1114.615642,-3064.381992,-7994.224174,17320.819043
1114.615960,-10955.165621,-4589.276840,19837.519246
1114.616279,-10878.556072,-7179.997637,26869.475695
1114.616598,-13176.842566,-3330.926739,27831.743419
1114.616917,-9193.145976,-296.082377,30126.381839
1114.617235,-2604.724693,2442.679609,25092.981434
1114.617554,2451.505594,3478.967927,14211.954086
1114.617873,8733.488677,8586.388927,4145.153275
1114.618192,14709.033562,13175.665768,-5477.523971
1114.618511,16394.443657,6661.853478,-10214.842000
1114.618829,18462.901502,4737.318029,-8142.265362
1114.619148,14479.204912,1998.556043,-7698.141797
1114.619467,7967.393179,-370.102971,-6439.791695
1114.619786,2145.067394,-2516.700203,-1036.288319
1114.620104,-4213.525239,-4885.359217,6365.771101
1114.620423,-8044.002729,-7698.141797,13989.892304
1114.620742,-12257.527968,-8882.471304,18209.066173
1114.621061,-17007.320056,-11473.192101,27831.743419
1114.621380,-17160.539155,-7920.203579,32421.020260
1114.621698,-14785.643111,-444.123565,32643.082042
1114.622017,-7584.345430,5107.421000,29460.196492
1114.622336,-1302.362347,9474.636058,17616.901420
1114.622655,2604.724693,15988.448347,8068.244768
1114.622973,10265.679673,9178.553681,-3701.029710
1114.623292,12717.185267,12435.459826,-10214.842000
1114.623611,14785.643111,6587.832884,-11843.295072
1114.623930,10725.336972,-2220.617826,-10362.883188
1114.624249,8580.269578,-8068.244768,-2738.761985
1114.624567,3447.429741,-4441.235652,-592.164754
1114.624886,-2298.286494,-8216.285956,3552.988522
1114.625205,-6894.859482,-8068.244768,11399.171507
1114.625524,-11031.775171,-8068.244768,19245.354492
1114.625842,-14555.814462,-8882.471304,24130.713709
1114.626161,-17390.367805,-5995.668130,28497.928767
1114.626480,-14632.424012,-3849.070898,33901.432144
1114.626799,-11261.603821,-1036.288319,30644.525999
1114.627118,-2221.676944,5403.503377,22798.343014
1114.627436,5592.497135,8364.327145,15396.283594
1114.627755,11031.775171,12065.356855,1110.308913
1114.628074,15398.519510,10955.047942,-6291.750507
1114.628393,18769.339701,6735.874072,-11621.233289
1114.628711,19612.044749,2812.782580,-9474.636058
1114.629030,16241.224558,-1332.370696,-5995.668130
1114.629349,9959.241474,-4219.173869,-3627.009116
1114.629668,2911.162892,-2072.576638,-2664.741391
1114.629987,-995.924147,-2368.659014,4589.276840
1114.630305,-6588.421283,-4885.359217,10510.924376
1114.630624,-13713.109414,-8364.327145,15470.304188
1114.630943,-17160.539155,-11695.253884,21910.095883
1114.631262,-18079.853753,-10584.944971,31680.814318
1114.631580,-13789.718964,-6439.791695,35159.782245
1114.631899,-8197.221829,-666.185348,34049.473332
1114.632218,1685.410096,7476.080014,20207.622217
1114.632537,5975.544884,13397.727550,7105.977043
1114.632856,13406.671215,12805.562797,740.205942
1114.633174,16164.615008,11769.274478,-10214.842000
1114.633493,21910.331243,13693.809927,-12213.398043
1114.633812,18922.558801,7772.162391,-14730.098246
1114.634131,15092.081311,444.123565,-8290.306550
1114.634449,7048.078582,-4219.173869,-1480.411884
1114.634768,689.485948,-6513.812290,370.102971
1114.635087,-6128.763984,-8734.430116,6661.853478
1114.635406,-9346.365076,-10584.944971,16136.489536
1114.635725,-15858.176809,-12213.398043,20429.683999
1114.636043,-16777.491406,-11325.150913,27905.764013
1114.636362,-16317.834107,-7994.224174,32643.082042
1114.636681,-11031.775171,-2590.720797,34049.473332
1114.637000,-4826.401637,-222.061783,26055.249158
1114.637318,1072.533697,6291.750507,15470.304188
1114.637637,6435.202183,13841.851115,888.247130
1114.637956,9806.022374,10807.006753,-5107.421000
1114.638275,14479.204912,11251.130318,-9474.636058
1114.638594,18539.511052,6217.729913,-9622.677246
1114.638912,15704.957709,5255.462188,-8068.244768
1114.639231,10495.508323,-888.247130,-5033.400406
1114.639550,4136.915689,-1406.391290,-3108.864956
1114.639869,-2757.943793,518.144159,592.164754
1114.640187,-5822.325785,-5551.544565,12435.459826
1114.640506,-13253.452115,-9104.533087,14804.118840
1114.640825,-16854.100956,-10288.862594,20651.745782
1114.641144,-19688.654299,-12139.377449,26573.393318
1114.641463,-17850.025103,-8808.450710,30052.361245
1114.641781,-12257.527968,-5329.482782,35233.802839
1114.642100,-3600.648841,592.164754,28423.908173
1114.642419,2145.067394,14730.098246,11843.295072
1114.642738,8656.879127,14137.933492,2960.823768
1114.643056,13636.499864,14508.036463,-3552.988522
1114.643375,17160.539155,14285.974681,-11843.295072
1114.643694,19228.997000,9474.636058,-13323.706956
1114.644013,14709.033562,4367.215058,-9104.533087
1114.644332,10035.851024,-1184.329507,-1998.556043
1114.644650,3983.696590,-2442.679609,-1406.391290
1114.644969,-2528.115143,-2590.720797,4219.173869
1114.645288,-5975.544884,-10510.924376,15470.304188
1114.645607,-13176.842566,-12583.501014,17246.798449
1114.645925,-17237.148705,-12509.480420,22872.363608
1114.646244,-17926.634653,-12361.439231,29978.340651
1114.646563,-13713.109414,-7402.059420,34493.596897
1114.646882,-7431.126331,-888.247130,34049.473332
1114.647201,153.219100,5255.462188,24944.940245
1114.647519,5669.106685,11695.253884,13397.727550
1114.647838,13483.280765,11621.233289,1406.391290
1114.648157,16930.710506,11251.130318,-7105.977043
1114.648476,18999.168350,12879.583391,-11843.295072
1114.648794,19918.482948,4663.297435,-11843.295072
1114.649113,16777.491406,3182.885551,-10510.924376
1114.649432,11108.384721,-592.164754,-3256.906145
1114.649751,4596.572988,-2960.823768,-2590.720797
1114.650070,-1149.143247,-4071.132681,3775.050304
1114.650388,-8503.660028,-7846.182985,9474.636058
1114.650707,-15398.519510,-13619.789333,17764.942608
1114.651026,-18309.682402,-14656.077652,26573.393318
1114.651344,-17313.758255,-14063.912898,34345.555709
1114.651663,-13942.938064,-9474.636058,37528.441259
1114.651982,-7431.126331,-2960.823768,32124.937883
1114.652301,-766.095498,8956.491898,23094.425390
1114.652619,5286.058936,9992.780217,10066.800811
1114.652938,11568.042020,16950.716072,2072.576638
1114.653257,16930.710506,15248.242405,-11029.068536
1114.653576,17160.539155,16284.530724,-16580.613101
1114.653894,18922.558801,8142.265362,-14359.995275
1114.654213,13942.938064,3552.988522,-10362.883188
1114.654532,7507.735880,-3330.926739,-7550.100608
1114.654851,2221.676944,-2220.617826,-2294.638420
1114.655169,-5439.278036,-6217.729913,3404.947333
1114.655488,-10878.556072,-15322.262999,16062.468941
1114.655807,-16547.662757,-17764.942608,22502.260637
1114.656125,-20224.921147,-15174.221811,29830.299463
1114.656444,-18922.558801,-11843.295072,32569.061448
1114.656763,-15092.081311,-3034.844362,32124.937883
1114.657082,-7507.735880,-222.061783,33383.287984
1114.657400,-1378.971896,9770.718434,20133.601622
1114.657719,4673.182538,13323.706956,10584.944971
1114.658038,9806.022374,16062.468941,-1110.308913
1114.658357,14938.862211,17912.983796,-10362.883188
1114.658675,17083.929605,11917.315666,-12435.459826
1114.658994,18003.244203,5329.482782,-11251.130318
1114.659313,12563.966167,666.185348,-6735.874072
1114.659632,6281.983084,-2812.782580,-4071.132681
1114.659950,306.438199,-1924.535449,-1184.329507
1114.660269,-4749.792088,-11029.068536,12213.398043
1114.660588,-9269.755526,-13767.830521,18431.127956
1114.660906,-16930.710506,-12583.501014,19023.292709
1114.661225,-19995.092498,-13027.624579,29534.217086
1114.661544,-17313.758255,-6587.832884,29164.114115
1114.661863,-12717.185267,-3034.844362,30940.608376
1114.662181,-4290.134789,-1110.308913,33235.246796
1114.662500,306.438199,8734.430116,19245.354492
1114.662819,6894.859482,18727.210333,4071.132681
1114.663138,14325.985813,15248.242405,-3404.947333
1114.663456,17773.415554,16728.654289,-10658.965565
1114.663775,19152.387450,9326.594869,-12435.459826
1114.664094,18233.072852,6291.750507,-13249.686362
1114.664412,11031.775171,2738.761985,-7920.203579
1114.664731,6358.592633,-3627.009116,148.041188
1114.665050,306.438199,-2960.823768,296.082377
1114.665369,-5362.668486,-10807.006753,14211.954086
1114.665687,-12334.137518,-14656.077652,22058.137072
1114.666006,-17313.758255,-15544.324782,25685.146187
1114.666325,-17083.929605,-11029.068536,27979.784608
1114.666644,-13789.718964,-3034.844362,28794.011144
1114.666962,-8886.707777,-444.123565,32346.999665
1114.667281,-2145.067394,4145.153275,30792.567187
1114.667600,5669.106685,6439.791695,13249.686362
1114.667919,11338.213370,15766.386565,-2072.576638
1114.668237,17007.320056,17616.901420,-5995.668130
1114.668556,18616.120601,12435.459826,-15470.304188
1114.668875,21450.673944,8142.265362,-13027.624579
1114.669193,17007.320056,-222.061783,-7772.162391
1114.669512,11338.213370,-3478.967927,-3478.967927
1114.669831,4366.744339,-2368.659014,-1406.391290
1114.670150,-306.438199,-2294.638420,1850.514855
1114.670468,-7737.564530,-8734.430116,15322.262999
1114.670787,-13330.061665,-12435.459826,21688.034101
1114.671106,-18845.949251,-14285.974681,24500.816680
1114.671425,-19535.435199,-9178.553681,29312.155303
1114.671743,-14172.766713,-4737.318029,26055.249158
1114.672062,-9193.145976,-962.267725,29534.217086
1114.672381,-1378.971896,962.267725,27387.619854
1114.672700,3447.429741,13175.665768,10881.027347
1114.673018,7124.688131,12879.583391,1776.494261
1114.673337,14325.985813,12731.542202,-4663.297435
1114.673656,16854.100956,15766.386565,-13545.768739
1114.673974,19152.387450,9400.615463,-13471.748144
1114.674293,15628.348159,3552.988522,-10807.006753
1114.674612,7277.907231,2738.761985,-7031.956449
1114.674931,2374.896044,-3701.029710,-1776.494261
1114.675249,-4519.963438,-3182.885551,1998.556043
1114.675568,-10265.679673,-13545.768739,15100.201217
1114.675887,-18999.168350,-17616.901420,22946.384202
1114.676206,-21374.064394,-17098.757260,28868.031738
1114.676524,-21757.112143,-11325.150913,29312.155303
1114.676843,-15321.909960,-3108.864956,28571.949361
1114.677162,-9346.365076,-296.082377,29978.340651
1114.677481,-1608.800546,1850.514855,25167.002028
1114.677799,4443.353888,9696.697840,14508.036463
1114.678118,9959.241474,17542.880825,592.164754
1114.678437,16854.100956,18431.127956,-8216.285956
1114.678755,20607.968896,14285.974681,-13471.748144
1114.679074,21144.235745,6217.729913,-10066.800811
1114.679393,15934.786358,-74.020594,-10140.821405
1114.679712,9039.926876,-2590.720797,-7031.956449
1114.680030,2451.505594,-3775.050304,-148.041188
1114.680349,-1915.238745,-5773.606348,6365.771101
1114.680668,-8044.002729,-13471.748144,18431.127956
1114.680987,-14632.424012,-13915.871710,22428.240043
1114.681305,-18616.120601,-13027.624579,25759.166782
1114.681624,-18233.072852,-7254.018232,26869.475695
1114.681943,-11338.213370,-2072.576638,28868.031738
1114.682262,-4290.134789,444.123565,31236.690752
1114.682580,1378.971896,4515.256246,27609.681637
1114.682899,7814.174080,9326.594869,12435.459826
1114.683218,11031.775171,16876.695478,592.164754
1114.683536,18539.511052,13693.809927,-5551.544565
1114.683855,21450.673944,15174.221811,-14804.118840
1114.684174,22523.207641,9622.677246,-14359.995275
1114.684493,14632.424012,4219.173869,-14434.015869
1114.684811,7354.516781,-1850.514855,-5181.441594
1114.685130,2221.676944,-3256.906145,3034.844362
1114.685449,-4596.572988,-6439.791695,6365.771101
1114.685768,-10648.727422,-14137.933492,19985.560434
1114.686086,-17773.415554,-17764.942608,25537.104999
1114.686405,-20301.530697,-14211.954086,27535.661042
1114.686724,-18003.244203,-10955.047942,30792.567187
1114.687042,-13713.109414,-2738.761985,28645.969955
1114.687361,-4826.401637,740.205942,32346.999665
1114.687680,1532.190996,7476.080014,19541.436869
1114.687999,8044.002729,14656.077652,7846.182985
1114.688317,12640.575717,16654.633695,-1998.556043
1114.688636,17696.806004,15914.427753,-10362.883188
1114.688955,19382.216099,13693.809927,-15766.386565
1114.689274,18769.339701,3997.112087,-10510.924376
1114.689592,12104.308868,-1998.556043,-10807.006753
1114.689911,6281.983084,-3775.050304,-2516.700203
1114.690230,689.485948,-5477.523971,4145.153275
1114.690549,-5822.325785,-6513.812290,8142.265362
1114.690867,-12027.699319,-12879.583391,21836.075289
1114.691186,-18386.291952,-12805.562797,24056.693115
1114.691505,-20301.530697,-9992.780217,25018.960840
1114.691823,-17160.539155,-7179.997637,28275.866984
1114.692142,-10878.556072,-2442.679609,29238.134709
1114.692461,-5132.839837,-1258.350101,29534.217086
1114.692780,0.000000,3701.029710,20133.601622
1114.693098,5975.544884,11177.109724,10288.862594
1114.693417,11721.261119,12953.603985,-2960.823768
1114.693736,16700.881856,17764.942608,-11917.315666
1114.694055,18999.168350,16136.489536,-13767.830521
1114.694373,18692.730151,6883.915261,-11177.109724
1114.694692,10572.117872,2368.659014,-14211.954086
1114.695011,4060.306139,-0.000000,-3997.112087
1114.695330,-3064.381992,-4737.318029,1628.453072
1114.695648,-9039.926876,-8956.491898,9548.656652
1114.695967,-14555.814462,-15914.427753,22502.260637
1114.696286,-20914.407095,-17172.777854,26499.372724
1114.696604,-20684.578446,-14434.015869,31532.773129
1114.696923,-16547.662757,-5255.462188,28645.969955
1114.697242,-8120.612279,-370.102971,27461.640448
1114.697561,-2451.505594,5921.647536,25018.960840
1114.697879,3907.087040,8364.327145,19097.313304
1114.698198,9729.412825,16802.674883,4737.318029
1114.698517,16241.224558,17838.963202,-4663.297435
1114.698836,18845.949251,14656.077652,-14359.995275
1114.699154,19918.482948,7402.059420,-14359.995275
1114.699473,19841.873398,2146.597232,-11325.150913
1114.699792,11644.651570,-3182.885551,-10732.986159
1114.700111,6205.373534,-5921.647536,-1110.308913
1114.700429,-1762.019645,-6661.853478,4441.235652
1114.700748,-5745.716235,-9770.718434,16876.695478
1114.701067,-12027.699319,-15026.180623,26425.352129
1114.701385,-18539.511052,-10510.924376,24278.754898
1114.701704,-16088.005458,-10584.944971,31236.690752
1114.702023,-13330.061665,-2812.782580,28423.908173
1114.702342,-6281.983084,-3182.885551,32272.979071
1114.702660,1838.629195,-444.123565,24796.899057
1114.702979,6511.811733,10288.862594,11695.253884
1114.703298,11721.261119,13619.789333,3182.885551
1114.703617,16164.615008,15026.180623,-7254.018232
1114.703935,21680.502593,16580.613101,-15322.262999
1114.704254,21067.626195,7328.038826,-13767.830521
1114.704573,18079.853753,1480.411884,-12065.356855
1114.704891,6358.592633,-1702.473667,-7402.059420
1114.705210,689.485948,-3330.926739,1702.473667
1114.705529,-7431.126331,-6291.750507,6291.750507
1114.705848,-10801.946522,-10658.965565,20281.642811
1114.706166,-16624.272307,-18209.066173,30274.423028
1114.706485,-17850.025103,-16506.592507,33309.267390
1114.706804,-16777.491406,-11917.315666,31458.752535
1114.707123,-10418.898773,-962.267725,28423.908173
1114.707441,-689.485948,7328.038826,27609.681637
1114.707760,6588.421283,15988.448347,18727.210333
1114.708079,13483.280765,19911.539840,4811.338623
1114.708398,17620.196454,24204.734303,-6809.894666
1114.708716,22140.159892,23020.404796,-16802.674883
1114.709035,23519.131789,16136.489536,-23612.569550
1114.709354,20301.530697,3478.967927,-14211.954086
1114.709672,13100.233016,-3701.029710,-13027.624579
1114.709991,3983.696590,-7105.977043,-2516.700203
1114.710310,-3447.429741,-9400.615463,8216.285956
1114.710629,-7431.126331,-10436.903782,15322.262999
1114.710947,-10112.460574,-15174.221811,30126.381839
1114.711266,-12793.794817,-9326.594869,32198.958477
1114.711585,-14785.643111,-3997.112087,33605.349767
1114.711904,-10035.851024,7550.100608,27461.640448
1114.712222,-2911.162892,15174.221811,21317.931130
1114.712541,4519.963438,17468.860231,16062.468941
1114.712860,9499.584175,15470.304188,6661.853478
1114.713179,12563.966167,17838.963202,-4737.318029
1114.713497,17160.539155,18135.045579,-15692.365970
1114.713816,19152.387450,7105.977043,-16950.716072
1114.714135,15934.786358,-444.123565,-10140.821405
1114.714453,11797.870669,-8512.368333,74.020594
1114.714772,2221.676944,-4219.173869,0.000000
1114.715091,-2987.772442,-7105.977043,9770.718434
1114.715410,-4366.744339,-5033.400406,19467.416275
1114.715728,-9499.584175,-6143.709319,24944.940245
1114.716047,-8580.269578,-5847.626942,33087.205607
1114.716366,-13483.280765,1332.370696,27313.599260
1114.716685,-10189.070123,6513.812290,25759.166782
1114.717003,-3294.210641,11029.068536,20059.581028
1114.717322,2757.943793,15248.242405,13175.665768
1114.717641,8120.612279,12731.542202,4071.132681
1114.717960,12717.185267,15914.427753,-6365.771101
1114.718278,15245.300410,12139.377449,-13175.665768
1114.718597,18539.511052,370.102971,-6069.688724
1114.718916,15245.300410,-4071.132681,-3923.091493
1114.719234,11338.213370,-5773.606348,814.226536
1114.719553,6665.030833,-7772.162391,4737.318029
1114.719872,0.000000,-5995.668130,12435.459826
1114.720191,-1991.848295,-7254.018232,22724.322419
1114.720509,-7814.174080,-4071.132681,21095.869347
1114.720828,-7354.516781,666.185348,22872.363608
1114.721147,-9729.412825,6143.709319,17394.839637
1114.721466,-7354.516781,9548.656652,17246.798449
1114.721784,-4596.572988,5255.462188,17616.901420
1114.722103,919.314598,7846.182985,13027.624579
1114.722422,5056.230287,8142.265362,4737.318029
1114.722741,11108.384721,9474.636058,-1332.370696
1114.723059,13483.280765,2294.638420,-3108.864956
1114.723378,14709.033562,-3552.988522,-1184.329507
1114.723697,12793.794817,-6291.750507,2072.576638
1114.724015,10035.851024,-4367.215058,1406.391290
1114.724334,6358.592633,-2738.761985,4589.276840
1114.724653,459.657299,1036.288319,5995.668130
1114.724972,-3447.429741,518.144159,12731.542202
1114.725290,-7507.735880,1480.411884,16728.654289
1114.725609,-9959.241474,1850.514855,20355.663405
1114.725928,-10418.898773,2368.659014,17320.819043
1114.726247,-8886.707777,2072.576638,18357.107362
1114.726565,-5286.058936,4219.173869,16950.716072
1114.726884,-153.219100,2072.576638,14730.098246
1114.727203,4979.620737,2664.741391,9696.697840
1114.727521,11031.775171,2664.741391,4441.235652
1114.727840,14632.424012,1776.494261,666.185348
1114.728159,16471.053207,2368.659014,-1850.514855
1114.728478,14709.033562,3701.029710,-3775.050304
1114.728796,12563.966167,4663.297435,-4145.153275
1114.729115,8197.221829,4071.132681,-2442.679609
1114.729434,2298.286494,1702.473667,2738.761985
1114.729753,-4290.134789,-1480.411884,8660.409521
1114.730071,-9193.145976,-3849.070898,16876.695478
1114.730390,-12027.699319,-1998.556043,19097.313304
1114.730709,-10572.117872,-592.164754,22650.301825
1114.731028,-9346.365076,2812.782580,23538.548956
1114.731346,-6052.154434,6143.709319,18949.272115
1114.731665,-1455.581446,8956.491898,13249.686362
1114.731984,4519.963438,9918.759623,7476.080014
1114.732302,9422.974625,7179.997637,3701.029710
1114.732621,12870.404366,3478.967927,148.041188
1114.732940,15321.909960,740.205942,-962.267725
1114.733259,15398.519510,-222.061783,-1702.473667
1114.733577,14479.204912,592.164754,74.020594
1114.733896,11261.603821,2516.700203,2294.638420
1114.734215,7201.297681,5551.544565,4737.318029
1114.734534,1532.190996,7105.977043,6883.915261
1114.734852,-4979.620737,6069.688724,9104.533087
1114.735171,-8350.440928,2886.803174,15322.262999
1114.735490,-10418.898773,-444.123565,18653.189738
1114.735809,-9806.022374,-3997.112087,21910.095883
1114.736127,-7660.954980,-5255.462188,23168.445985
1114.736446,-4443.353888,-4737.318029,21910.095883
1114.736765,536.266849,-518.144159,18135.045579
1114.737083,6818.249932,4293.194464,12879.583391
1114.737402,11644.651570,8142.265362,4885.359217
1114.737721,15704.957709,11843.295072,-518.144159
1114.738040,16854.100956,14582.057057,-5255.462188
1114.738358,16777.491406,14137.933492,-6587.832884
1114.738677,13330.061665,9548.656652,-4367.215058
1114.738996,8580.269578,3627.009116,2146.597232
1114.739315,2834.553343,-1776.494261,7698.141797
1114.739633,-2834.553343,-5551.544565,11695.253884
1114.739952,-8503.660028,-7031.956449,17172.777854
1114.740271,-10265.679673,-6513.812290,22132.157666
1114.740590,-10648.727422,-1702.473667,22206.178260
1114.740908,-9193.145976,2368.659014,21243.910535
1114.741227,-6588.421283,4959.379811,18653.189738
1114.741546,-3907.087040,8882.471304,15100.201217
1114.741864,1302.362347,6217.729913,12065.356855
1114.742183,5132.839837,6143.709319,8512.368333
1114.742502,8580.269578,4885.359217,4293.194464
1114.742821,11644.651570,5329.482782,-370.102971
1114.743139,14019.547613,5995.668130,-1406.391290
1114.743458,14555.814462,5699.585753,-1036.288319
1114.743777,12334.137518,5921.647536,-592.164754
1114.744096,8427.050478,4441.235652,2590.720797
1114.744414,4443.353888,4145.153275,5699.585753
1114.744733,-1149.143247,2960.823768,9770.718434
1114.745052,-5439.278036,-296.082377,15174.221811
1114.745371,-8350.440928,-4441.235652,18283.086767
1114.745689,-9576.193725,-6513.812290,21317.931130
1114.746008,-7737.564530,-8068.244768,22132.157666
1114.746327,-5669.106685,-4145.153275,17468.860231
1114.746645,-1608.800546,-1480.411884,14582.057057
1114.746964,2221.676944,2368.659014,10510.924376
1114.747283,6281.983084,4737.318029,6143.709319
1114.747602,9729.412825,7846.182985,2368.659014
1114.747920,11644.651570,9622.677246,0.000000
1114.748239,13559.890315,9474.636058,-814.226536
1114.748558,13330.061665,7402.059420,-444.123565
1114.748877,11261.603821,5403.503377,1554.432478
1114.749195,8044.002729,1036.288319,4737.318029
1114.749514,4519.963438,-2368.659014,7994.224174
1114.749833,0.000000,-4737.318029,11769.274478
1114.750151,-2987.772442,-3849.070898,14730.098246
1114.750470,-4903.011187,-2590.720797,16802.674883
1114.750789,-4903.011187,-1702.473667,17246.798449
1114.751108,-4903.011187,-0.000000,15618.345376
1114.751426,-2911.162892,2368.659014,13249.686362
1114.751745,-1608.800546,3775.050304,9104.533087
1114.752064,1302.362347,4811.338623,7402.059420
1114.752383,4213.525239,5477.523971,4885.359217
1114.752701,6665.030833,5255.462188,3849.070898
1114.753020,8197.221829,4737.318029,2220.617826
1114.753339,8963.317327,4515.256246,3034.844362
1114.753658,8120.612279,3108.864956,3627.009116
1114.753977,7584.345430,4293.194464,3997.112087
1114.754295,5362.668486,2812.782580,8586.388927
1114.754614,2298.286494,2442.679609,10510.924376
1114.754933,-383.047749,3330.926739,11695.253884
1114.755252,-2374.896044,2442.679609,12953.603985
1114.755570,-3524.039291,1702.473667,13545.768739
1114.755889,-4979.620737,-444.123565,13175.665768
1114.756208,-4979.620737,-2072.576638,12583.501014
1114.756527,-4826.401637,-1036.288319,10881.027347
1114.756845,-3217.601092,-1110.308913,10658.965565
1114.757164,-995.924147,962.267725,9770.718434
1114.757483,1225.752797,2664.741391,9622.677246
1114.757802,4213.525239,2738.761985,9030.512492
1114.758120,4749.792088,5921.647536,6957.935855
1114.758439,6435.202183,6217.729913,7254.018232
1114.758758,6665.030833,6143.709319,7254.018232
1114.759077,6741.640382,5033.400406,8290.306550
1114.759395,5898.935335,2738.761985,8512.368333
1114.759714,4673.182538,2664.741391,9770.718434
1114.760033,4213.525239,740.205942,11103.089130
1114.760352,2987.772442,222.061783,10955.047942
1114.760671,1762.019645,888.247130,10140.821405
1114.760989,536.266849,1258.350101,9770.718434
1114.761308,-612.876398,1332.370696,9918.759623
1114.761627,-1225.752797,1258.350101,10140.821405
1114.761946,-842.705048,740.205942,11029.068536
1114.762264,-306.438199,592.164754,11251.130318
1114.762583,153.219100,1258.350101,11029.068536
1114.762902,1072.533697,1332.370696,10881.027347
1114.763221,2451.505594,1998.556043,11177.109724
1114.763539,3600.648841,1702.473667,11029.068536
1114.763858,3217.601092,3182.885551,9622.677246
1114.764177,5362.668486,4885.359217,9326.594869
1114.764496,5439.278036,6291.750507,7772.162391
1114.764814,6894.859482,5995.668130,7846.182985
1114.765133,5822.325785,4145.153275,7476.080014
1114.765452,4903.011187,2368.659014,8216.285956
1114.765771,3830.477490,370.102971,9696.697840
1114.766090,2451.505594,666.185348,9474.636058
1114.766408,1302.362347,-222.061783,9474.636058
1114.766727,459.657299,-740.205942,10732.986159
1114.767046,-459.657299,-1036.288319,11399.171507
1114.767365,-536.266849,-814.226536,12213.398043
1114.767683,-689.485948,518.144159,11695.253884
1114.768002,-306.438199,1998.556043,11621.233289
1114.768321,459.657299,2738.761985,11251.130318
1114.768640,1072.533697,3627.009116,10362.883188
1114.768958,2145.067394,3775.050304,9844.739029
1114.769277,3447.429741,4515.256246,8364.327145
1114.769596,4673.182538,4589.276840,7031.956449
1114.769915,4979.620737,4145.153275,6735.874072
1114.770233,4749.792088,2886.803174,6513.812290
1114.770552,4136.915689,1480.411884,7105.977043
1114.770871,2911.162892,370.102971,8290.306550
1114.771190,2068.457845,-148.041188,8956.491898
1114.771509,1378.971896,-74.020594,9992.780217
1114.771827,153.219100,444.123565,10510.924376
1114.772146,-153.219100,1110.308913,10510.924376
1114.772465,-153.219100,1998.556043,10140.821405
1114.772784,-536.266849,2368.659014,9030.512492
1114.773102,-383.047749,2886.803174,8660.409521
1114.773421,612.876398,2960.823768,7550.100608
1114.773740,2451.505594,3330.926739,7105.977043
1114.774059,4136.915689,3182.885551,7254.018232
1114.774377,6205.373534,3849.070898,6809.894666
1114.774696,8350.440928,4219.173869,6809.894666
1114.775015,9806.022374,4885.359217,5995.668130
1114.775334,11108.384721,5847.626942,5107.421000
1114.775652,11184.994271,6809.894666,4737.318029
1114.775971,10418.898773,7105.977043,4145.153275
1114.776290,9499.584175,6883.915261,3701.029710
1114.776609,8044.002729,5773.606348,4293.194464
1114.776928,6435.202183,4367.215058,4959.379811
1114.777246,4903.011187,2960.823768,6809.894666
1114.777565,3217.601092,1998.556043,8512.368333
1114.777884,1838.629195,1776.494261,9696.697840
1114.778203,919.314598,2294.638420,10066.800811
1114.778521,919.314598,3552.988522,9992.780217
1114.778840,1608.800546,4589.276840,10214.842000
1114.779159,2374.896044,4885.359217,9474.636058
1114.779478,3370.820191,5033.400406,9474.636058
1114.779796,4903.011187,4885.359217,9622.677246
1114.780115,5669.106685,4737.318029,9400.615463
1114.780434,6052.154434,5033.400406,8956.491898
1114.780753,6435.202183,5329.482782,8142.265362
1114.781071,6205.373534,5699.585753,7550.100608
1114.781390,5592.497135,5551.544565,7105.977043
1114.781709,4060.306139,4959.379811,7550.100608
1114.782028,2298.286494,4145.153275,7994.224174
1114.782347,76.609550,2516.700203,9326.594869
1114.782665,-1838.629195,1406.391290,11029.068536
1114.782984,-3294.210641,-370.102971,12509.480420
1114.783303,-4443.353888,-2072.576638,14359.995275
1114.783622,-4903.011187,-2886.803174,15988.448347
1114.783940,-4673.182538,-2886.803174,16802.674883
1114.784259,-3370.820191,-1480.411884,16950.716072
1114.784578,-2068.457845,814.226536,15914.427753
1114.784897,-383.047749,3108.864956,13471.748144
1114.785215,1608.800546,5033.400406,11177.109724
1114.785534,2987.772442,5255.462188,9178.553681
1114.785853,3830.477490,4737.318029,7994.224174
1114.786172,4749.792088,3108.864956,6957.935855
1114.786490,4060.306139,1776.494261,7105.977043
1114.786809,3370.820191,-222.061783,8290.306550
1114.787128,2451.505594,-2220.617826,10066.800811
1114.787447,1149.143247,-3552.988522,12213.398043
1114.787766,842.705048,-2664.741391,13619.789333
1114.788084,383.047749,-1036.288319,13767.830521
1114.788403,76.609550,1036.288319,13693.809927
1114.788722,919.314598,3182.885551,12435.459826
1114.789041,995.924147,4811.338623,9844.739029
1114.789359,2451.505594,4663.297435,8512.368333
1114.789678,3294.210641,3923.091493,7105.977043
1114.789997,4903.011187,2442.679609,5995.668130
1114.790316,6511.811733,1110.308913,4959.379811
1114.790634,7124.688131,-0.000000,4885.359217
1114.790953,7890.783629,-148.041188,6143.709319
1114.791272,7660.954980,518.144159,6439.791695
1114.791591,8427.050478,1628.453072,7105.977043
1114.791909,6358.592633,4367.215058,5773.606348
1114.792228,5362.668486,5329.482782,6365.771101
1114.792547,2987.772442,6365.771101,5181.441594
1114.792866,1762.019645,5477.523971,5699.585753
1114.793185,-919.314598,2368.659014,5329.482782
1114.793503,-2528.115143,-592.164754,6661.853478
1114.793822,-3294.210641,-2960.823768,9474.636058
1114.794141,-3064.381992,-3256.906145,10066.800811
1114.794460,-2068.457845,-2294.638420,11177.109724
1114.794778,-612.876398,444.123565,10436.903782
1114.795097,1378.971896,2368.659014,9104.533087
1114.795416,3753.867940,6587.832884,6809.894666
1114.795735,4826.401637,7624.121203,5329.482782
1114.796053,5439.278036,7772.162391,3775.050304
1114.796372,5362.668486,6143.709319,2738.761985
1114.796691,5669.106685,3849.070898,4367.215058
1114.797010,4903.011187,962.267725,6143.709319
1114.797328,3447.429741,-592.164754,7846.182985
1114.797647,2528.115143,-1924.535449,9548.656652
1114.797966,1685.410096,-962.267725,10362.883188
1114.798285,842.705048,1036.288319,10584.944971
1114.798604,1302.362347,2738.761985,11029.068536
1114.798922,153.219100,3404.947333,10732.986159
1114.799241,842.705048,3330.926739,12139.377449
1114.799560,1455.581446,3627.009116,10955.047942
1114.799879,1455.581446,3627.009116,9326.594869
1114.800197,1838.629195,2220.617826,9104.533087
1114.800516,1915.238745,1850.514855,9030.512492
1114.800835,2757.943793,-0.000000,10066.800811
1114.801154,3447.429741,-0.000000,10658.965565
1114.801472,3447.429741,1332.370696,11621.233289
1114.801791,4366.744339,2738.761985,12731.542202
1114.802110,4596.572988,5033.400406,12583.501014
1114.802429,4903.011187,5995.668130,11177.109724
1114.802747,5439.278036,6217.729913,10807.006753
1114.803066,4596.572988,5847.626942,10066.800811
1114.803385,4979.620737,3478.967927,10066.800811
1114.803704,3600.648841,1850.514855,9474.636058
1114.804023,2451.505594,1110.308913,9252.574275
1114.804341,842.705048,-0.000000,9252.574275
1114.804660,766.095498,1480.411884,8808.450710
1114.804979,0.000000,1406.391290,9474.636058
1114.805298,-995.924147,1406.391290,10288.862594
1114.805616,-1149.143247,1850.514855,12953.603985
1114.805935,-306.438199,2960.823768,15322.262999
1114.806254,-383.047749,4071.132681,15840.407159
1114.806573,919.314598,3923.091493,15692.365970
1114.806891,1762.019645,5107.421000,13989.892304
1114.807210,4213.525239,5477.523971,13175.665768
1114.807529,5132.839837,6513.812290,8586.388927
1114.807848,6128.763984,7476.080014,5699.585753
1114.808166,6971.469032,7994.224174,3552.988522
1114.808485,6205.373534,8068.244768,2072.576638
1114.808804,5286.058936,5773.606348,2294.638420
1114.809123,4136.915689,3849.070898,3923.091493
1114.809442,1991.848295,814.226536,5699.585753
1114.809760,0.000000,-1480.411884,9474.636058
1114.810079,-919.314598,-2442.679609,13471.748144
1114.810398,-1072.533697,-3108.864956,16580.613101
1114.810717,-1225.752797,-2738.761985,18505.148550
1114.811035,-306.438199,-148.041188,18727.210333
1114.811354,1455.581446,2738.761985,14730.098246
1114.811673,3983.696590,6365.771101,10066.800811
1114.811992,6894.859482,8216.285956,7179.997637
1114.812310,8656.879127,9696.697840,2590.720797
1114.812629,9882.631924,10288.862594,-1998.556043
1114.812948,9652.803275,8438.347739,-3478.967927
1114.813267,9422.974625,3552.988522,-1850.514855
1114.813585,7354.516781,-1184.329507,296.082377
1114.813904,5286.058936,-3775.050304,3849.070898
1114.814223,2757.943793,-6587.832884,9252.574275
1114.814542,-306.438199,-6809.894666,13545.768739
1114.814860,-1838.629195,-7105.977043,18801.230927
1114.815179,-3524.039291,-3997.112087,20133.601622
1114.815498,-3524.039291,-222.061783,18283.086767
1114.815817,-2757.943793,3552.988522,14582.057057
1114.816136,-2221.676944,6217.729913,11251.130318
1114.816454,-383.047749,6735.874072,6661.853478
1114.816773,612.876398,7698.141797,740.205942
1114.817092,2451.505594,5551.544565,-518.144159
1114.817411,3217.601092,1332.370696,-2368.659014
1114.817729,2528.115143,-2442.679609,-1406.391290
1114.818048,1991.848295,-7031.956449,2886.803174
1114.818367,0.000000,-7920.203579,6661.853478
1114.818686,-1455.581446,-7105.977043,10881.027347
1114.819004,-3140.991542,-6291.750507,16506.592507
1114.819323,-4903.011187,-3775.050304,19023.292709
1114.819642,-5898.935335,-1036.288319,20651.745782
1114.819961,-7354.516781,2294.638420,18653.189738
1114.820279,-6128.763984,2590.720797,14656.077652
1114.820598,-4903.011187,4071.132681,11917.315666
1114.820917,-2681.334243,4811.338623,8512.368333
1114.821236,842.705048,5107.421000,3997.112087
1114.821555,2681.334243,2368.659014,592.164754
1114.821873,3753.867940,666.185348,-296.082377
1114.822192,5286.058936,-1850.514855,740.205942
1114.822511,5286.058936,-4219.173869,3182.885551
1114.822830,4060.306139,-5995.668130,6365.771101
1114.823148,2757.943793,-6661.853478,11473.192101
1114.823467,1225.752797,-5847.626942,16284.530724
1114.823786,-459.657299,-4515.256246,20281.642811
1114.824105,-1762.019645,-1258.350101,21317.931130
1114.824423,-2681.334243,740.205942,18949.272115
1114.824742,-2528.115143,4737.318029,14730.098246
1114.825061,-1302.362347,7254.018232,11251.130318
1114.825380,995.924147,8734.430116,7846.182985
1114.825698,3140.991542,9400.615463,3404.947333
1114.826017,4290.134789,8068.244768,0.000000
1114.826336,5669.106685,5921.647536,-1332.370696
1114.826655,5439.278036,592.164754,-888.247130
1114.826974,4443.353888,-5773.606348,2590.720797
1114.827292,2604.724693,-9252.574275,7105.977043
1114.827611,689.485948,-9104.533087,12509.480420
1114.827930,-459.657299,-7105.977043,17394.839637
1114.828249,-1455.581446,-3256.906145,20355.663405
1114.828567,-2757.943793,296.082377,21762.054695
1114.828886,-2911.162892,8216.285956,17838.963202
1114.829205,-3140.991542,9696.697840,13249.686362
1114.829524,-2068.457845,12731.542202,9400.615463
1114.829842,306.438199,14137.933492,5329.482782
1114.830161,2451.505594,12953.603985,370.102971
1114.830480,3830.477490,9030.512492,-2072.576638
1114.830799,4596.572988,3182.885551,-2516.700203
1114.831117,4136.915689,-4737.318029,-888.247130
1114.831436,3677.258390,-10658.965565,3552.988522
1114.831755,1072.533697,-13249.686362,9030.512492
1114.832074,-459.657299,-11695.253884,13175.665768
1114.832393,-1762.019645,-7031.956449,19023.292709
1114.832711,-2757.943793,-1702.473667,21910.095883
1114.833030,-4519.963438,3034.844362,21539.992912
1114.833349,-5286.058936,5773.606348,17394.839637
1114.833668,-5132.839837,9844.739029,13767.830521
1114.833986,-2374.896044,10807.006753,10881.027347
1114.834305,-1302.362347,11473.192101,5477.523971
1114.834624,2145.067394,9474.636058,2664.741391
1114.834943,4903.011187,6365.771101,-740.205942
1114.835261,6205.373534,1110.308913,-3108.864956
1114.835580,6588.421283,-6069.688724,-1850.514855
1114.835899,4979.620737,-11029.068536,740.205942
1114.836218,4136.915689,-12805.562797,4737.318029
1114.836536,1685.410096,-13027.624579,11695.253884
1114.836855,-766.095498,-10807.006753,18949.272115
1114.837174,-3217.601092,-7402.059420,22724.322419
1114.837493,-5745.716235,-1406.391290,20873.807564
1114.837812,-5975.544884,1924.535449,20281.642811
1114.838130,-5975.544884,7772.162391,17764.942608
1114.838449,-3294.210641,8882.471304,12361.439231
1114.838768,459.657299,12805.562797,7476.080014
1114.839087,2298.286494,14063.912898,2220.617826
1114.839405,5439.278036,10214.842000,-4293.194464
1114.839724,6741.640382,4959.379811,-6661.853478
