#time,accel_x,accel_y,accel_z
1828.951231,3830.477490,5033.400406,11843.295072
1828.951548,3294.210641,3997.112087,11991.336260
1828.951866,1149.143247,3404.947333,13027.624579
1828.952183,919.314598,3256.906145,14359.995275
1828.952500,229.828649,3478.967927,14508.036463
1828.952817,76.609550,3849.070898,14359.995275
1828.953134,383.047749,2812.782580,14804.118840
1828.953452,612.876398,2442.679609,14656.077652
1828.953769,1685.410096,1406.391290,14359.995275
1828.954086,2221.676944,740.205942,13841.851115
1828.954403,2145.067394,-0.000000,13693.809927
1828.954720,1608.800546,444.123565,13397.727550
1828.955038,1072.533697,296.082377,12731.542202
1828.955355,842.705048,2072.576638,11695.253884
1828.955672,459.657299,2072.576638,11399.171507
1828.955989,459.657299,2146.597232,11103.089130
1828.956306,0.000000,1110.308913,10214.842000
1828.956624,306.438199,-0.000000,10510.924376
1828.956941,306.438199,-1332.370696,9770.718434
1828.957258,229.828649,-2072.576638,9252.574275
1828.957575,76.609550,-2220.617826,8512.368333
1828.957892,383.047749,-2368.659014,8290.306550
1828.958210,76.609550,-1036.288319,7920.203579
1828.958527,-229.828649,-296.082377,7550.100608
1828.958844,-612.876398,-0.000000,7105.977043
1828.959161,-1149.143247,-74.020594,6957.935855
1828.959478,-1302.362347,-1036.288319,7550.100608
1828.959796,-1455.581446,-2072.576638,7402.059420
1828.960113,-1991.848295,-2146.597232,6661.853478
1828.960430,-1378.971896,-1776.494261,6069.688724
1828.960747,0.000000,-2072.576638,5699.585753
1828.961065,766.095498,-1924.535449,4959.379811
1828.961382,1225.752797,-1998.556043,4367.215058
1828.961699,995.924147,-2220.617826,4663.297435
1828.962016,1149.143247,-3034.844362,5403.503377
1828.962333,689.485948,-3997.112087,5847.626942
1828.962651,76.609550,-4663.297435,6587.832884
1828.962968,76.609550,-4663.297435,6661.853478
1828.963285,153.219100,-4367.215058,6143.709319
1828.963602,995.924147,-3923.091493,6069.688724
1828.963919,1302.362347,-3034.844362,6143.709319
1828.964237,1608.800546,-2368.659014,6809.894666
1828.964554,1762.019645,-2072.576638,6365.771101
1828.964871,1608.800546,-2442.679609,6809.894666
1828.965188,1378.971896,-3034.844362,7846.182985
1828.965505,1072.533697,-2738.761985,8512.368333
1828.965823,1072.533697,-2516.700203,8586.388927
1828.966140,995.924147,-1554.432478,8290.306550
1828.966457,995.924147,-444.123565,8956.491898
1828.966774,919.314598,222.061783,8882.471304
1828.967091,995.924147,-0.000000,9252.574275
1828.967409,1072.533697,-0.000000,9696.697840
1828.967726,1072.533697,592.164754,9992.780217
1828.968043,919.314598,740.205942,9696.697840
1828.968360,766.095498,888.247130,9992.780217
1828.968677,1378.971896,518.144159,9918.759623
1828.968995,1762.019645,1332.370696,9844.739029
1828.969312,1608.800546,2220.617826,9696.697840
1828.969629,1915.238745,2220.617826,9696.697840
1828.969946,1685.410096,2590.720797,9918.759623
1828.970263,1455.581446,2368.659014,9770.718434
1828.970581,1302.362347,2516.700203,10362.883188
1828.970898,919.314598,2664.741391,10288.862594
1828.971215,689.485948,2960.823768,10288.862594
1828.971532,1149.143247,3182.885551,10140.821405
1828.971850,1378.971896,3330.926739,10436.903782
1828.972167,1072.533697,3552.988522,10584.944971
1828.972484,842.705048,3997.112087,10510.924376
1828.972801,536.266849,3330.926739,10955.047942
1828.973118,306.438199,2960.823768,11325.150913
1828.973436,-536.266849,3330.926739,11695.253884
1828.973753,-689.485948,3404.947333,12139.377449
1828.974070,-536.266849,3108.864956,12509.480420
1828.974387,-383.047749,3330.926739,12657.521608
1828.974704,-153.219100,2812.782580,12213.398043
1828.975022,-306.438199,2812.782580,12509.480420
1828.975339,229.828649,2516.700203,12509.480420
1828.975656,0.000000,2294.638420,12287.418637
1828.975973,229.828649,2368.659014,12361.439231
1828.976290,459.657299,2072.576638,12287.418637
1828.976608,612.876398,2146.597232,12287.418637
1828.976925,612.876398,2072.576638,11991.336260
1828.977242,842.705048,1850.514855,11769.274478
1828.977559,766.095498,1554.432478,11621.233289
1828.977876,919.314598,1776.494261,10807.006753
1828.978194,1149.143247,1258.350101,10288.862594
1828.978511,1455.581446,1184.329507,10066.800811
1828.978828,1685.410096,814.226536,9474.636058
1828.979145,1915.238745,444.123565,9178.553681
1828.979462,2068.457845,518.144159,8660.409521
1828.979780,2145.067394,740.205942,8438.347739
1828.980097,1915.238745,814.226536,8216.285956
1828.980414,1532.190996,444.123565,7846.182985
1828.980731,995.924147,222.061783,7846.182985
1828.981049,612.876398,370.102971,7920.203579
1828.981366,459.657299,-0.000000,8068.244768
1828.981683,0.000000,-296.082377,8068.244768
1828.982000,0.000000,-666.185348,7920.203579
1828.982317,-383.047749,-148.041188,8290.306550
1828.982635,-306.438199,-962.267725,7920.203579
1828.982952,-229.828649,-1110.308913,8216.285956
1828.983269,-383.047749,-1184.329507,7994.224174
1828.983586,0.000000,-1332.370696,8142.265362
1828.983903,-536.266849,-1628.453072,8216.285956
1828.984221,-842.705048,-1776.494261,8142.265362
1828.984538,-612.876398,-1850.514855,7994.224174
1828.984855,-229.828649,-1628.453072,7698.141797
1828.985172,-306.438199,-1776.494261,7476.080014
1828.985489,229.828649,-1480.411884,7402.059420
1828.985807,1072.533697,-1332.370696,7179.997637
1828.986124,919.314598,-1702.473667,7254.018232
1828.986441,766.095498,-1998.556043,7402.059420
1828.986758,689.485948,-2442.679609,7994.224174
1828.987075,995.924147,-2516.700203,8142.265362
1828.987393,995.924147,-2368.659014,8808.450710
1828.987710,919.314598,-2368.659014,8956.491898
1828.988027,919.314598,-2294.638420,9252.574275
1828.988344,766.095498,-2220.617826,9696.697840
1828.988661,612.876398,-1554.432478,9474.636058
1828.988979,919.314598,-962.267725,9400.615463
1828.989296,689.485948,-666.185348,9400.615463
1828.989613,842.705048,-148.041188,9474.636058
1828.989930,766.095498,-74.020594,9400.615463
1828.990247,536.266849,-0.000000,9474.636058
1828.990565,459.657299,518.144159,9400.615463
1828.990882,536.266849,962.267725,9400.615463
1828.991199,842.705048,1480.411884,9104.533087
1828.991516,612.876398,1776.494261,9178.553681
1828.991834,383.047749,1850.514855,8956.491898
1828.992151,612.876398,2738.761985,8882.471304
1828.992468,689.485948,3182.885551,8734.430116
1828.992785,153.219100,3182.885551,8808.450710
1828.993102,766.095498,3330.926739,8882.471304
1828.993420,536.266849,3330.926739,9030.512492
1828.993737,612.876398,3404.947333,9548.656652
1828.994054,459.657299,3182.885551,9918.759623
1828.994371,229.828649,2886.803174,10140.821405
1828.994688,383.047749,2738.761985,10362.883188
1828.995006,383.047749,2886.803174,10658.965565
1828.995323,306.438199,2886.803174,10955.047942
1828.995640,383.047749,2886.803174,11029.068536
1828.995957,76.609550,2516.700203,11177.109724
1828.996274,459.657299,2368.659014,11029.068536
1828.996592,306.438199,2294.638420,11325.150913
1828.996909,306.438199,1776.494261,11621.233289
1828.997226,0.000000,1332.370696,11843.295072
1828.997543,0.000000,1036.288319,11991.336260
1828.997860,0.000000,888.247130,12361.439231
1828.998178,459.657299,962.267725,11917.315666
1828.998495,383.047749,1258.350101,12139.377449
1828.998812,766.095498,592.164754,11547.212695
1828.999129,689.485948,1036.288319,11843.295072
1828.999446,842.705048,370.102971,11547.212695
1828.999764,1149.143247,148.041188,10807.006753
1829.000081,1225.752797,-0.000000,10436.903782
1829.000398,1685.410096,148.041188,10510.924376
1829.000715,1685.410096,-74.020594,10436.903782
1829.001033,1455.581446,148.041188,10066.800811
1829.001350,1532.190996,-148.041188,9548.656652
1829.001667,1685.410096,148.041188,9400.615463
1829.001984,1302.362347,370.102971,9104.533087
1829.002301,1608.800546,148.041188,9030.512492
1829.002620,1225.752797,-0.000000,8364.327145
1829.002937,919.314598,-0.000000,8364.327145
1829.003255,1225.752797,-370.102971,8068.244768
1829.003572,766.095498,-666.185348,7994.224174
1829.003890,536.266849,-888.247130,8068.244768
1829.004207,536.266849,-814.226536,8068.244768
1829.004524,459.657299,-1110.308913,7920.203579
1829.004842,536.266849,-962.267725,7846.182985
1829.005159,766.095498,-1480.411884,7550.100608
1829.005476,612.876398,-1628.453072,7031.956449
1829.005794,1072.533697,-1776.494261,7179.997637
1829.006111,1378.971896,-1702.473667,6809.894666
1829.006429,1455.581446,-2220.617826,6957.935855
1829.006746,1532.190996,-2516.700203,7105.977043
1829.007063,1225.752797,-2516.700203,6957.935855
1829.007381,1685.410096,-2590.720797,7254.018232
1829.007698,1762.019645,-2738.761985,7476.080014
1829.008016,1302.362347,-2738.761985,7624.121203
1829.008333,1378.971896,-2516.700203,7846.182985
1829.008650,842.705048,-2812.782580,7994.224174
1829.008968,842.705048,-2812.782580,8068.244768
1829.009285,612.876398,-2738.761985,8364.327145
1829.009603,612.876398,-2442.679609,8734.430116
1829.009920,919.314598,-2368.659014,8734.430116
1829.010237,766.095498,-2072.576638,9178.553681
1829.010555,536.266849,-1924.535449,9474.636058
1829.010872,689.485948,-1554.432478,9844.739029
1829.011189,306.438199,-1554.432478,9696.697840
1829.011507,459.657299,-1036.288319,9844.739029
1829.011824,536.266849,-666.185348,9992.780217
1829.012142,383.047749,-592.164754,9770.718434
1829.012459,919.314598,-0.000000,9992.780217
1829.012776,1225.752797,-0.000000,9770.718434
1829.013094,919.314598,-0.000000,9844.739029
1829.013411,1455.581446,222.061783,9992.780217
1829.013729,766.095498,148.041188,9918.759623
1829.014046,1072.533697,518.144159,9918.759623
1829.014363,919.314598,814.226536,9992.780217
1829.014681,919.314598,1184.329507,9992.780217
1829.014998,995.924147,1554.432478,9992.780217
1829.015315,1072.533697,1776.494261,10510.924376
1829.015633,1149.143247,1850.514855,9844.739029
1829.015950,995.924147,2220.617826,9918.759623
1829.016268,995.924147,2368.659014,9918.759623
1829.016585,1302.362347,2516.700203,10066.800811
1829.016902,919.314598,2516.700203,10214.842000
1829.017220,995.924147,2590.720797,10066.800811
1829.017537,689.485948,2442.679609,10288.862594
1829.017855,306.438199,2516.700203,10807.006753
1829.018172,536.266849,2516.700203,10807.006753
1829.018489,306.438199,2442.679609,10807.006753
1829.018807,536.266849,2516.700203,10881.027347
1829.019124,536.266849,2368.659014,11251.130318
1829.019442,536.266849,2294.638420,10881.027347
1829.019759,383.047749,2072.576638,11103.089130
1829.020076,536.266849,2220.617826,11029.068536
1829.020394,766.095498,2146.597232,11103.089130
1829.020711,536.266849,1702.473667,10881.027347
1829.021028,689.485948,1554.432478,10881.027347
1829.021346,689.485948,1554.432478,10658.965565
1829.021663,383.047749,1258.350101,10658.965565
1829.021981,383.047749,1110.308913,10658.965565
1829.022298,536.266849,814.226536,10288.862594
1829.022615,689.485948,370.102971,10214.842000
1829.022933,383.047749,148.041188,9770.718434
1829.023250,919.314598,-0.000000,9770.718434
1829.023568,383.047749,-222.061783,9548.656652
1829.023885,459.657299,-444.123565,9770.718434
1829.024202,229.828649,-666.185348,9474.636058
1829.024520,383.047749,-1406.391290,9622.677246
1829.024837,229.828649,-962.267725,9252.574275
1829.025154,306.438199,-1258.350101,9400.615463
1829.025472,536.266849,-1110.308913,8882.471304
1829.025789,1225.752797,-1332.370696,8956.491898
1829.026107,689.485948,-1554.432478,8586.388927
1829.026424,766.095498,-1332.370696,8216.285956
1829.026741,1225.752797,-1406.391290,7920.203579
1829.027059,995.924147,-1480.411884,7920.203579
1829.027376,995.924147,-1702.473667,7698.141797
1829.027694,995.924147,-1776.494261,7476.080014
1829.028011,1149.143247,-1554.432478,7698.141797
1829.028328,1225.752797,-1628.453072,7476.080014
1829.028646,1225.752797,-1924.535449,7179.997637
1829.028963,1608.800546,-1998.556043,7254.018232
1829.029280,1225.752797,-1850.514855,7105.977043
1829.029598,1149.143247,-1850.514855,7105.977043
1829.029915,1149.143247,-1924.535449,7179.997637
1829.030233,1225.752797,-1702.473667,7698.141797
1829.030550,1225.752797,-2072.576638,7624.121203
1829.030867,919.314598,-1702.473667,7846.182985
1829.031185,995.924147,-1554.432478,7920.203579
1829.031502,919.314598,-1554.432478,8216.285956
1829.031820,1072.533697,-1554.432478,8512.368333
1829.032137,766.095498,-1332.370696,8734.430116
1829.032454,842.705048,-1184.329507,8956.491898
1829.032772,459.657299,-1480.411884,9030.512492
1829.033089,919.314598,-962.267725,9104.533087
1829.033407,766.095498,-814.226536,9104.533087
1829.033724,919.314598,-740.205942,9326.594869
1829.034041,1149.143247,-222.061783,9400.615463
1829.034359,1149.143247,-296.082377,9400.615463
1829.034676,1149.143247,-0.000000,9622.677246
1829.034993,1225.752797,-74.020594,9548.656652
1829.035311,689.485948,370.102971,9918.759623
1829.035628,842.705048,888.247130,9918.759623
1829.035946,995.924147,1110.308913,9696.697840
1829.036263,919.314598,1184.329507,9770.718434
1829.036580,995.924147,1480.411884,9992.780217
1829.036898,995.924147,1850.514855,9918.759623
1829.037215,919.314598,1998.556043,10140.821405
1829.037533,842.705048,2220.617826,10140.821405
1829.037850,995.924147,1998.556043,10436.903782
1829.038167,766.095498,2146.597232,10436.903782
1829.038485,766.095498,2368.659014,10584.944971
1829.038802,689.485948,2220.617826,10584.944971
1829.039119,459.657299,2294.638420,10881.027347
1829.039437,919.314598,2442.679609,11029.068536
1829.039754,919.314598,2664.741391,10807.006753
1829.040072,612.876398,2664.741391,10955.047942
1829.040389,612.876398,2442.679609,10732.986159
1829.040706,842.705048,2294.638420,10584.944971
1829.041024,1072.533697,1924.535449,10881.027347
1829.041341,919.314598,1850.514855,10584.944971
1829.041659,842.705048,1554.432478,10362.883188
1829.041976,1072.533697,1850.514855,10732.986159
1829.042293,1072.533697,1702.473667,10732.986159
1829.042611,1762.019645,1184.329507,10807.006753
1829.042928,1302.362347,1480.411884,10436.903782
1829.043246,1455.581446,1332.370696,10362.883188
1829.043563,1302.362347,1110.308913,10140.821405
1829.043880,1225.752797,962.267725,9992.780217
1829.044198,1225.752797,888.247130,9696.697840
1829.044515,1149.143247,592.164754,9770.718434
1829.044832,995.924147,370.102971,9770.718434
1829.045150,1225.752797,222.061783,9548.656652
1829.045467,842.705048,-0.000000,9622.677246
1829.045785,0.000000,-370.102971,9844.739029
1829.046102,536.266849,-0.000000,9770.718434
1829.046419,306.438199,-74.020594,9474.636058
1829.046737,229.828649,-74.020594,9252.574275
1829.047054,306.438199,-518.144159,9252.574275
1829.047372,0.000000,-296.082377,8882.471304
1829.047689,0.000000,-296.082377,8512.368333
1829.048006,0.000000,-296.082377,8660.409521
1829.048324,76.609550,-592.164754,8586.388927
1829.048641,459.657299,-1184.329507,8586.388927
1829.048958,76.609550,-888.247130,8512.368333
1829.049276,153.219100,-1184.329507,8364.327145
1829.049593,153.219100,-1110.308913,8290.306550
1829.049911,536.266849,-1036.288319,8068.244768
1829.050228,536.266849,-1332.370696,7920.203579
1829.050545,536.266849,-1554.432478,7920.203579
1829.050863,842.705048,-1480.411884,7772.162391
1829.051180,919.314598,-1480.411884,7698.141797
1829.051498,766.095498,-1554.432478,7698.141797
1829.051815,1455.581446,-1628.453072,7920.203579
1829.052132,689.485948,-1258.350101,8142.265362
1829.052450,153.219100,-1332.370696,8216.285956
1829.052767,459.657299,-1036.288319,8142.265362
1829.053084,383.047749,-888.247130,8068.244768
1829.053402,306.438199,-666.185348,8734.430116
1829.053719,536.266849,-666.185348,8290.306550
1829.054037,459.657299,-666.185348,8660.409521
1829.054354,612.876398,-444.123565,8734.430116
1829.054671,229.828649,-296.082377,8808.450710
1829.054989,0.000000,-222.061783,9178.553681
1829.055306,229.828649,74.020594,9178.553681
1829.055624,536.266849,444.123565,9252.574275
1829.055941,459.657299,518.144159,9178.553681
1829.056258,383.047749,592.164754,9474.636058
1829.056576,536.266849,962.267725,9622.677246
1829.056893,612.876398,962.267725,9548.656652
1829.057211,689.485948,1184.329507,9844.739029
1829.057528,766.095498,1332.370696,9844.739029
1829.057845,612.876398,1332.370696,9844.739029
1829.058163,1149.143247,1332.370696,10288.862594
1829.058480,1072.533697,1776.494261,9992.780217
1829.058797,306.438199,1702.473667,10214.842000
1829.059115,536.266849,1776.494261,10288.862594
1829.059432,459.657299,1850.514855,10510.924376
1829.059750,689.485948,1998.556043,10362.883188
1829.060067,536.266849,2146.597232,10436.903782
1829.060384,383.047749,2072.576638,10510.924376
1829.060702,459.657299,2294.638420,10362.883188
1829.061019,306.438199,2072.576638,10584.944971
1829.061337,306.438199,2442.679609,10658.965565
1829.061654,459.657299,2294.638420,10510.924376
1829.061971,306.438199,2146.597232,10732.986159
1829.062289,76.609550,2072.576638,10955.047942
1829.062606,-153.219100,1924.535449,11325.150913
1829.062923,383.047749,1998.556043,11029.068536
1829.063241,306.438199,2072.576638,10955.047942
1829.063558,383.047749,2072.576638,10881.027347
1829.063876,383.047749,1924.535449,10807.006753
1829.064193,459.657299,1776.494261,10732.986159
1829.064510,612.876398,1480.411884,10510.924376
1829.064828,689.485948,1850.514855,10436.903782
1829.065145,995.924147,1554.432478,10288.862594
1829.065463,689.485948,1258.350101,10288.862594
1829.065780,995.924147,1332.370696,10066.800811
1829.066097,842.705048,1110.308913,9918.759623
1829.066415,1072.533697,1036.288319,9622.677246
1829.066732,1302.362347,814.226536,9548.656652
1829.067050,995.924147,740.205942,9474.636058
1829.067367,1072.533697,518.144159,9474.636058
1829.067684,1378.971896,444.123565,9252.574275
1829.068002,919.314598,-0.000000,9104.533087
1829.068319,1072.533697,-74.020594,9178.553681
1829.068636,919.314598,-222.061783,9030.512492
1829.068954,995.924147,-296.082377,8956.491898
1829.069271,842.705048,-592.164754,8882.471304
1829.069589,612.876398,-666.185348,8956.491898
1829.069906,536.266849,-592.164754,8882.471304
1829.070223,306.438199,-888.247130,9030.512492
1829.070541,383.047749,-814.226536,8734.430116
1829.070858,612.876398,-1110.308913,8586.388927
1829.071176,689.485948,-1110.308913,8068.244768
1829.071493,689.485948,-1258.350101,8216.285956
1829.071810,689.485948,-1258.350101,8438.347739
1829.072128,612.876398,-1332.370696,8142.265362
1829.072445,689.485948,-1110.308913,8142.265362
1829.072762,612.876398,-1258.350101,8142.265362
1829.073080,766.095498,-1110.308913,8068.244768
1829.073397,459.657299,-1628.453072,7846.182985
1829.073715,459.657299,-1406.391290,8068.244768
1829.074032,1072.533697,-1184.329507,7772.162391
1829.074349,459.657299,-1406.391290,7994.224174
1829.074667,1455.581446,-1184.329507,7920.203579
1829.074984,766.095498,-1406.391290,8290.306550
1829.075302,1072.533697,-1480.411884,8142.265362
1829.075619,766.095498,-1480.411884,8438.347739
1829.075936,1072.533697,-1110.308913,8586.388927
1829.076254,919.314598,-1406.391290,8364.327145
1829.076571,689.485948,-1184.329507,8734.430116
1829.076888,536.266849,-1036.288319,8734.430116
1829.077206,536.266849,-888.247130,9030.512492
1829.077523,689.485948,-888.247130,9104.533087
1829.077841,842.705048,-444.123565,8956.491898
1829.078158,689.485948,-296.082377,8808.450710
1829.078475,842.705048,-296.082377,9030.512492
1829.078793,689.485948,-74.020594,9030.512492
1829.079110,842.705048,-148.041188,9326.594869
1829.079428,766.095498,-0.000000,9474.636058
1829.079745,612.876398,444.123565,9474.636058
1829.080062,766.095498,518.144159,9548.656652
1829.080380,995.924147,666.185348,9696.697840
1829.080697,766.095498,370.102971,9770.718434
1829.081015,842.705048,1036.288319,9918.759623
1829.081332,459.657299,1258.350101,9992.780217
1829.081649,766.095498,1406.391290,10066.800811
1829.081967,1149.143247,1480.411884,10288.862594
1829.082284,612.876398,1628.453072,10584.944971
1829.082601,842.705048,1480.411884,10362.883188
1829.082919,919.314598,1702.473667,10436.903782
1829.083236,689.485948,1924.535449,10584.944971
1829.083554,842.705048,1554.432478,10436.903782
1829.083871,536.266849,1702.473667,10362.883188
1829.084188,459.657299,1776.494261,10732.986159
1829.084506,459.657299,1702.473667,10658.965565
1829.084823,383.047749,1702.473667,10436.903782
1829.085141,459.657299,1850.514855,10807.006753
1829.085458,536.266849,1480.411884,10732.986159
1829.085775,459.657299,1332.370696,10658.965565
1829.086093,383.047749,1184.329507,10584.944971
1829.086410,536.266849,1184.329507,10510.924376
1829.086727,842.705048,962.267725,10658.965565
1829.087045,229.828649,888.247130,10584.944971
1829.087362,612.876398,962.267725,10658.965565
1829.087680,612.876398,740.205942,10436.903782
1829.087997,842.705048,814.226536,10436.903782
1829.088314,1072.533697,592.164754,10510.924376
1829.088632,842.705048,518.144159,10288.862594
1829.088949,689.485948,370.102971,9770.718434
1829.089267,766.095498,592.164754,9992.780217
1829.089584,689.485948,-0.000000,9622.677246
1829.089901,766.095498,444.123565,9918.759623
1829.090219,766.095498,148.041188,9474.636058
1829.090536,536.266849,-0.000000,9252.574275
1829.090853,995.924147,-74.020594,9326.594869
1829.091171,1149.143247,-148.041188,9178.553681
1829.091488,766.095498,-148.041188,9104.533087
1829.091806,766.095498,-370.102971,9104.533087
1829.092123,766.095498,-222.061783,8956.491898
1829.092440,766.095498,-296.082377,8882.471304
1829.092758,689.485948,-666.185348,8660.409521
1829.093075,919.314598,-740.205942,8586.388927
1829.093393,919.314598,-1110.308913,8438.347739
1829.093710,1149.143247,-962.267725,8586.388927
1829.094027,1072.533697,-962.267725,8290.306550
1829.094345,1072.533697,-1036.288319,8290.306550
1829.094662,1072.533697,-1184.329507,8216.285956
1829.094980,1149.143247,-1258.350101,8216.285956
1829.095297,1072.533697,-1480.411884,8142.265362
1829.095614,919.314598,-1258.350101,8216.285956
1829.095932,612.876398,-1406.391290,8512.368333
1829.096249,995.924147,-1332.370696,8364.327145
1829.096566,459.657299,-1480.411884,8660.409521
1829.096884,612.876398,-1258.350101,8364.327145
1829.097201,919.314598,-1406.391290,8290.306550
1829.097519,842.705048,-1406.391290,8438.347739
1829.097836,919.314598,-1184.329507,8512.368333
1829.098153,995.924147,-1036.288319,8512.368333
1829.098471,919.314598,-740.205942,8586.388927
1829.098788,1149.143247,-666.185348,8734.430116
1829.099106,1455.581446,-888.247130,8808.450710
1829.099423,1149.143247,-740.205942,8956.491898
1829.099740,842.705048,-592.164754,9104.533087
1829.100058,1302.362347,-370.102971,9252.574275
1829.100375,1455.581446,-444.123565,9326.594869
1829.100692,1225.752797,-444.123565,9104.533087
1829.101010,1072.533697,-148.041188,9326.594869
1829.101327,995.924147,-74.020594,9252.574275
1829.101645,1225.752797,-0.000000,9400.615463
1829.101962,1225.752797,-0.000000,9474.636058
1829.102279,919.314598,444.123565,9696.697840
1829.102597,1225.752797,296.082377,9474.636058
1829.102914,766.095498,222.061783,9622.677246
1829.103232,842.705048,518.144159,9770.718434
1829.103549,1455.581446,444.123565,9548.656652
1829.103866,1072.533697,740.205942,9844.739029
1829.104184,919.314598,962.267725,10066.800811
1829.104501,919.314598,962.267725,9918.759623
1829.104819,612.876398,888.247130,9992.780217
1829.105136,842.705048,962.267725,9918.759623
1829.105454,1072.533697,1184.329507,10140.821405
1829.105771,689.485948,962.267725,9992.780217
1829.106089,1149.143247,1110.308913,10066.800811
1829.106406,995.924147,1036.288319,10140.821405
1829.106724,1378.971896,1110.308913,10584.944971
1829.107042,1072.533697,1258.350101,10214.842000
1829.107359,689.485948,1184.329507,10066.800811
1829.107677,995.924147,1184.329507,10140.821405
1829.107994,1149.143247,1184.329507,10288.862594
1829.108312,612.876398,1184.329507,10436.903782
1829.108629,536.266849,1110.308913,10214.842000
1829.108947,766.095498,1480.411884,10214.842000
1829.109264,919.314598,1406.391290,10140.821405
1829.109582,689.485948,1628.453072,9992.780217
1829.109899,919.314598,1258.350101,9918.759623
1829.110217,689.485948,1184.329507,9844.739029
1829.110534,536.266849,1110.308913,9844.739029
1829.110852,612.876398,1036.288319,9992.780217
1829.111169,842.705048,740.205942,9844.739029
1829.111487,459.657299,814.226536,9696.697840
1829.111804,0.000000,444.123565,9696.697840
1829.112122,76.609550,740.205942,9548.656652
1829.112439,0.000000,518.144159,9474.636058
1829.112757,0.000000,444.123565,9622.677246
1829.113074,-383.047749,518.144159,9474.636058
1829.113392,-536.266849,370.102971,9474.636058
1829.113709,-766.095498,518.144159,9474.636058
1829.114027,-1072.533697,296.082377,9400.615463
1829.114344,-1225.752797,222.061783,9326.594869
1829.114662,-1455.581446,296.082377,9178.553681
1829.114979,-1685.410096,370.102971,9178.553681
1829.115297,-1685.410096,222.061783,9252.574275
1829.115614,-1302.362347,-0.000000,9548.656652
1829.115932,-1991.848295,148.041188,8882.471304
1829.116250,-1915.238745,296.082377,8956.491898
1829.116567,-2145.067394,370.102971,8808.450710
1829.116885,-2298.286494,296.082377,8660.409521
1829.117202,-2221.676944,370.102971,8438.347739
1829.117520,-2451.505594,444.123565,8438.347739
1829.117837,-2145.067394,740.205942,8586.388927
1829.118155,-1991.848295,888.247130,8586.388927
1829.118472,-1455.581446,666.185348,8586.388927
1829.118790,-1225.752797,1110.308913,8734.430116
1829.119107,-1072.533697,1480.411884,8512.368333
1829.119425,-842.705048,1554.432478,8660.409521
1829.119742,-536.266849,1924.535449,8364.327145
1829.120060,76.609550,2516.700203,8512.368333
1829.120377,153.219100,2442.679609,8142.265362
1829.120695,536.266849,2516.700203,7920.203579
1829.121012,919.314598,2738.761985,8068.244768
1829.121330,919.314598,2738.761985,7994.224174
1829.121647,1149.143247,2738.761985,7920.203579
1829.121965,1072.533697,2738.761985,8142.265362
1829.122282,995.924147,2442.679609,8438.347739
1829.122600,995.924147,2294.638420,8660.409521
1829.122917,766.095498,2294.638420,8956.491898
1829.123235,1149.143247,2146.597232,9252.574275
1829.123552,1072.533697,2146.597232,9326.594869
1829.123870,1532.190996,1850.514855,9770.718434
1829.124187,1378.971896,1554.432478,9548.656652
1829.124505,1302.362347,1702.473667,9548.656652
1829.124822,1302.362347,1554.432478,10140.821405
1829.125140,1532.190996,1554.432478,9918.759623
1829.125457,1608.800546,1776.494261,9992.780217
1829.125775,1378.971896,1776.494261,9474.636058
1829.126093,919.314598,1110.308913,10288.862594
1829.126410,459.657299,814.226536,10584.944971
1829.126728,-153.219100,518.144159,10658.965565
1829.127045,-842.705048,370.102971,10807.006753
1829.127363,-1149.143247,296.082377,11325.150913
1829.127680,-1225.752797,-74.020594,11547.212695
1829.127998,-1302.362347,-74.020594,12361.439231
1829.128315,-1455.581446,-0.000000,11843.295072
1829.128633,-1532.190996,-0.000000,11621.233289
1829.128950,-1072.533697,-0.000000,11843.295072
1829.129268,0.000000,-222.061783,11769.274478
1829.129585,-306.438199,-222.061783,11843.295072
1829.129903,229.828649,-0.000000,11177.109724
1829.130220,766.095498,592.164754,11029.068536
1829.130538,1838.629195,962.267725,10584.944971
1829.130855,2298.286494,962.267725,9696.697840
1829.131173,3064.381992,666.185348,9770.718434
1829.131490,2757.943793,666.185348,9474.636058
1829.131808,2911.162892,814.226536,8808.450710
1829.132125,2834.553343,740.205942,8512.368333
1829.132443,2681.334243,518.144159,8956.491898
1829.132760,2145.067394,148.041188,9252.574275
1829.133078,1838.629195,-0.000000,9178.553681
1829.133395,1455.581446,-0.000000,9178.553681
1829.133713,1915.238745,-222.061783,9252.574275
1829.134030,1225.752797,222.061783,9030.512492
1829.134348,1225.752797,222.061783,8882.471304
1829.134665,1378.971896,148.041188,8808.450710
1829.134983,1072.533697,-0.000000,8364.327145
1829.135301,1149.143247,-148.041188,8438.347739
1829.135618,1378.971896,-0.000000,8290.306550
1829.135936,1378.971896,-148.041188,8216.285956
1829.136253,1225.752797,-0.000000,7624.121203
1829.136571,995.924147,296.082377,7994.224174
1829.136888,689.485948,-296.082377,7846.182985
1829.137206,689.485948,-148.041188,7772.162391
1829.137523,766.095498,-0.000000,7476.080014
1829.137841,306.438199,-370.102971,7402.059420
1829.138158,0.000000,-592.164754,7476.080014
1829.138476,76.609550,-1036.288319,7476.080014
1829.138793,-459.657299,-1184.329507,7920.203579
1829.139111,-842.705048,-1258.350101,8290.306550
1829.139428,-536.266849,-1036.288319,8364.327145
1829.139746,-1378.971896,-814.226536,8586.388927
1829.140063,-919.314598,-444.123565,8808.450710
1829.140381,-612.876398,-222.061783,9030.512492
1829.140698,-536.266849,-296.082377,8734.430116
1829.141016,-229.828649,-222.061783,8956.491898
1829.141333,76.609550,-0.000000,9030.512492
1829.141651,459.657299,296.082377,8882.471304
1829.141968,842.705048,222.061783,8956.491898
1829.142286,1072.533697,592.164754,8734.430116
1829.142603,1149.143247,888.247130,8734.430116
1829.142921,1685.410096,888.247130,8882.471304
1829.143238,1302.362347,1184.329507,8956.491898
1829.143556,1302.362347,888.247130,9104.533087
1829.143873,1378.971896,888.247130,9030.512492
1829.144191,1378.971896,740.205942,9178.553681
1829.144509,689.485948,518.144159,9474.636058
1829.144826,459.657299,370.102971,9696.697840
1829.145144,76.609550,518.144159,10214.842000
1829.145461,0.000000,592.164754,10584.944971
1829.145779,-229.828649,814.226536,10881.027347
1829.146096,-306.438199,814.226536,10955.047942
1829.146414,-383.047749,962.267725,11103.089130
1829.146731,0.000000,1332.370696,11177.109724
1829.147049,0.000000,1702.473667,10807.006753
1829.147366,383.047749,1258.350101,10436.903782
1829.147684,612.876398,1702.473667,10584.944971
1829.148001,612.876398,1628.453072,10584.944971
1829.148319,689.485948,1702.473667,10510.924376
1829.148636,1225.752797,1628.453072,10510.924376
1829.148954,612.876398,1628.453072,10436.903782
1829.149271,612.876398,1406.391290,10140.821405
1829.149589,612.876398,1184.329507,10066.800811
1829.149906,76.609550,814.226536,10436.903782
1829.150224,76.609550,888.247130,10658.965565
1829.150541,0.000000,222.061783,10732.986159
1829.150859,-306.438199,592.164754,10881.027347
1829.151176,0.000000,1184.329507,10658.965565
1829.151494,0.000000,1258.350101,10584.944971
1829.151811,-153.219100,1628.453072,10732.986159
1829.152129,229.828649,1776.494261,10288.862594
1829.152446,536.266849,1850.514855,10066.800811
1829.152764,1378.971896,1702.473667,9770.718434
1829.153081,1378.971896,1406.391290,9548.656652
1829.153399,1991.848295,1406.391290,9474.636058
1829.153716,1762.019645,1332.370696,9400.615463
1829.154034,1838.629195,1036.288319,9252.574275
1829.154352,1915.238745,1036.288319,8882.471304
1829.154669,1991.848295,1258.350101,8512.368333
1829.154987,1455.581446,962.267725,8734.430116
1829.155304,1149.143247,518.144159,8734.430116
1829.155622,995.924147,-0.000000,8660.409521
1829.155939,459.657299,-370.102971,8808.450710
1829.156257,76.609550,-592.164754,9104.533087
1829.156574,0.000000,-740.205942,9548.656652
1829.156892,-229.828649,-888.247130,9400.615463
1829.157209,-612.876398,-1036.288319,9622.677246
1829.157527,-766.095498,-814.226536,9474.636058
1829.157844,-689.485948,-740.205942,9474.636058
1829.158162,-842.705048,-1110.308913,9474.636058
1829.158479,-306.438199,-814.226536,9178.553681
1829.158797,-306.438199,-1110.308913,8956.491898
1829.159114,0.000000,-1110.308913,8882.471304
1829.159432,229.828649,-1702.473667,9030.512492
1829.159749,689.485948,-1332.370696,8808.450710
1829.160067,536.266849,-1332.370696,8808.450710
1829.160384,229.828649,-1184.329507,8734.430116
1829.160702,536.266849,-1184.329507,8660.409521
1829.161019,459.657299,-1110.308913,8512.368333
1829.161337,459.657299,-1184.329507,8512.368333
1829.161654,612.876398,-1258.350101,8364.327145
1829.161972,536.266849,-1332.370696,8586.388927
1829.162289,612.876398,-1184.329507,8734.430116
1829.162607,842.705048,-1036.288319,8956.491898
1829.162924,1149.143247,-740.205942,9030.512492
1829.163242,1072.533697,-370.102971,8808.450710
1829.163560,1455.581446,-74.020594,8882.471304
1829.163877,1532.190996,-0.000000,8882.471304
1829.164195,2145.067394,222.061783,9030.512492
1829.164512,2221.676944,370.102971,8882.471304
1829.164830,2068.457845,370.102971,8808.450710
1829.165147,2298.286494,296.082377,8734.430116
1829.165465,2374.896044,370.102971,8808.450710
1829.165782,2528.115143,-0.000000,8882.471304
1829.166100,2068.457845,74.020594,9104.533087
1829.166417,2145.067394,666.185348,9104.533087
1829.166735,1991.848295,296.082377,9104.533087
1829.167052,1838.629195,148.041188,9104.533087
1829.167370,1838.629195,148.041188,9474.636058
1829.167687,1608.800546,-0.000000,9474.636058
1829.168005,1149.143247,-0.000000,9474.636058
1829.168322,919.314598,-0.000000,9918.759623
1829.168640,919.314598,-0.000000,10214.842000
1829.168957,612.876398,-0.000000,10584.944971
1829.169275,1072.533697,370.102971,10288.862594
1829.169592,689.485948,370.102971,10288.862594
1829.169910,842.705048,444.123565,10362.883188
1829.170227,1072.533697,-0.000000,10214.842000
1829.170545,1149.143247,370.102971,10214.842000
1829.170862,919.314598,222.061783,9992.780217
1829.171180,842.705048,222.061783,10140.821405
1829.171497,919.314598,296.082377,10140.821405
1829.171815,1378.971896,222.061783,10436.903782
1829.172132,306.438199,-0.000000,10214.842000
1829.172450,229.828649,-0.000000,10066.800811
1829.172768,306.438199,-0.000000,10066.800811
1829.173085,459.657299,-0.000000,9992.780217
1829.173403,383.047749,-0.000000,10140.821405
1829.173720,536.266849,-0.000000,9992.780217
1829.174038,306.438199,222.061783,9918.759623
1829.174355,229.828649,-0.000000,9696.697840
1829.174673,459.657299,-74.020594,9992.780217
1829.174990,306.438199,592.164754,9918.759623
1829.175308,766.095498,814.226536,9548.656652
1829.175625,459.657299,666.185348,9474.636058
1829.175943,919.314598,518.144159,9474.636058
1829.176260,1455.581446,296.082377,9400.615463
1829.176578,1072.533697,370.102971,9104.533087
1829.176895,1225.752797,370.102971,9104.533087
1829.177213,1225.752797,370.102971,8734.430116
1829.177530,1378.971896,148.041188,8734.430116
1829.177848,1302.362347,148.041188,8956.491898
1829.178165,766.095498,-0.000000,8882.471304
1829.178483,1072.533697,222.061783,8956.491898
1829.178800,766.095498,-148.041188,8882.471304
1829.179118,919.314598,-370.102971,8808.450710
1829.179435,842.705048,-444.123565,9030.512492
1829.179753,842.705048,-592.164754,9030.512492
1829.180070,842.705048,-592.164754,9326.594869
1829.180388,919.314598,-444.123565,9326.594869
1829.180705,1149.143247,-740.205942,9178.553681
1829.181023,1149.143247,-592.164754,9474.636058
1829.181340,1302.362347,-592.164754,9400.615463
1829.181658,1225.752797,-592.164754,9178.553681
1829.181975,1378.971896,-666.185348,9104.533087
1829.182293,1302.362347,-592.164754,9104.533087
1829.182611,1225.752797,-740.205942,9030.512492
1829.182928,1455.581446,-740.205942,8882.471304
1829.183246,1302.362347,-888.247130,8956.491898
1829.183563,1302.362347,-814.226536,9104.533087
1829.183881,919.314598,-888.247130,8956.491898
1829.184198,995.924147,-888.247130,9104.533087
1829.184516,842.705048,-1036.288319,9252.574275
1829.184833,995.924147,-814.226536,9178.553681
1829.185151,1225.752797,-740.205942,9030.512492
1829.185468,689.485948,-592.164754,8956.491898
1829.185786,536.266849,-370.102971,9252.574275
1829.186103,689.485948,-222.061783,9252.574275
1829.186421,689.485948,-148.041188,9178.553681
1829.186738,766.095498,-592.164754,9326.594869
1829.187056,1149.143247,-0.000000,9326.594869
1829.187373,995.924147,-0.000000,9104.533087
1829.187691,995.924147,444.123565,8956.491898
1829.188008,995.924147,444.123565,9030.512492
1829.188326,1532.190996,592.164754,9030.512492
1829.188643,612.876398,666.185348,9030.512492
1829.188961,842.705048,592.164754,9252.574275
1829.189278,536.266849,444.123565,9326.594869
1829.189596,766.095498,666.185348,9400.615463
1829.189913,612.876398,666.185348,9918.759623
1829.190231,689.485948,592.164754,9474.636058
1829.190548,536.266849,814.226536,9548.656652
1829.190866,306.438199,814.226536,9622.677246
1829.191183,459.657299,814.226536,9696.697840
1829.191501,689.485948,1036.288319,9622.677246
1829.191819,536.266849,888.247130,9622.677246
1829.192136,536.266849,962.267725,9770.718434
1829.192454,229.828649,962.267725,9918.759623
1829.192771,536.266849,962.267725,10140.821405
1829.193089,766.095498,962.267725,10436.903782
1829.193406,766.095498,1036.288319,10288.862594
1829.193724,766.095498,1110.308913,10288.862594
1829.194041,919.314598,1184.329507,9918.759623
1829.194359,1072.533697,888.247130,9844.739029
1829.194676,1225.752797,962.267725,9844.739029
1829.194994,1072.533697,1036.288319,9844.739029
1829.195311,459.657299,518.144159,9844.739029
1829.195629,459.657299,740.205942,9992.780217
1829.195946,459.657299,592.164754,9844.739029
1829.196264,383.047749,518.144159,10066.800811
1829.196581,536.266849,666.185348,9770.718434
1829.196899,612.876398,518.144159,9770.718434
1829.197216,612.876398,962.267725,9622.677246
1829.197534,766.095498,888.247130,9992.780217
1829.197851,689.485948,592.164754,9326.594869
1829.198169,766.095498,962.267725,9400.615463
1829.198486,766.095498,592.164754,9696.697840
1829.198804,766.095498,518.144159,9770.718434
1829.199121,153.219100,222.061783,9770.718434
1829.199439,536.266849,666.185348,9474.636058
1829.199756,919.314598,518.144159,9548.656652
1829.200074,995.924147,518.144159,9252.574275
1829.200391,766.095498,370.102971,8882.471304
1829.200709,919.314598,296.082377,9104.533087
1829.201027,1225.752797,-0.000000,8882.471304
1829.201344,612.876398,-0.000000,8660.409521
1829.201662,1149.143247,-74.020594,9030.512492
1829.201979,766.095498,-148.041188,9104.533087
1829.202297,919.314598,-148.041188,9252.574275
1829.202614,689.485948,-148.041188,9104.533087
1829.202932,689.485948,-296.082377,9326.594869
1829.203249,842.705048,-222.061783,9400.615463
1829.203567,766.095498,-666.185348,9252.574275
1829.203884,383.047749,-296.082377,9178.553681
1829.204202,1072.533697,-444.123565,8956.491898
1829.204519,919.314598,-444.123565,9104.533087
1829.204837,1225.752797,-592.164754,9030.512492
1829.205154,1149.143247,-444.123565,9252.574275
1829.205472,1378.971896,-74.020594,9104.533087
1829.205789,1225.752797,-222.061783,9178.553681
1829.206106,1455.581446,-222.061783,8956.491898
1829.206424,1455.581446,-222.061783,8882.471304
1829.206741,1149.143247,-370.102971,8660.409521
1829.207058,1608.800546,-296.082377,8438.347739
1829.207376,1302.362347,-296.082377,8882.471304
1829.207693,1455.581446,-148.041188,9104.533087
1829.208010,995.924147,-592.164754,8808.450710
1829.208327,1072.533697,-148.041188,9030.512492
1829.208645,919.314598,-148.041188,9252.574275
1829.208962,689.485948,-0.000000,9252.574275
1829.209279,536.266849,-0.000000,9178.553681
1829.209597,612.876398,-0.000000,9252.574275
1829.209914,536.266849,-222.061783,9474.636058
1829.210231,612.876398,-74.020594,9474.636058
1829.210549,919.314598,296.082377,9400.615463
1829.210866,842.705048,222.061783,9474.636058
1829.211183,1378.971896,444.123565,9252.574275
1829.211500,766.095498,444.123565,9400.615463
1829.211818,766.095498,444.123565,9400.615463
1829.212135,919.314598,666.185348,9400.615463
1829.212452,995.924147,814.226536,9622.677246
1829.212770,612.876398,518.144159,9326.594869
1829.213087,459.657299,814.226536,9474.636058
1829.213404,612.876398,666.185348,9548.656652
1829.213722,0.000000,666.185348,9474.636058
1829.214039,153.219100,592.164754,9770.718434
1829.214356,229.828649,740.205942,9696.697840
1829.214673,0.000000,962.267725,9770.718434
1829.214991,0.000000,1110.308913,9770.718434
1829.215308,0.000000,1036.288319,9770.718434
1829.215625,153.219100,814.226536,9770.718434
1829.215943,0.000000,740.205942,9918.759623
1829.216260,0.000000,1036.288319,9992.780217
1829.216577,0.000000,1184.329507,9992.780217
1829.216894,0.000000,1036.288319,9622.677246
1829.217212,229.828649,1480.411884,9918.759623
1829.217529,459.657299,1554.432478,9696.697840
1829.217846,459.657299,1628.453072,9474.636058
1829.218164,383.047749,1480.411884,9400.615463
1829.218481,383.047749,1110.308913,9400.615463
1829.218798,536.266849,1184.329507,9400.615463
1829.219116,612.876398,1036.288319,9474.636058
1829.219433,76.609550,1184.329507,9696.697840
1829.219750,306.438199,962.267725,9770.718434
1829.220067,-306.438199,888.247130,9918.759623
1829.220385,0.000000,888.247130,10436.903782
1829.220702,153.219100,888.247130,9770.718434
1829.221019,229.828649,1036.288319,9992.780217
1829.221337,76.609550,888.247130,9548.656652
1829.221654,0.000000,740.205942,9622.677246
1829.221971,153.219100,370.102971,9548.656652
1829.222289,153.219100,444.123565,9548.656652
1829.222606,76.609550,740.205942,9622.677246
1829.222923,229.828649,592.164754,9622.677246
1829.223240,383.047749,222.061783,9474.636058
1829.223558,536.266849,-0.000000,9622.677246
1829.223875,612.876398,222.061783,9252.574275
1829.224192,766.095498,370.102971,9178.553681
1829.224510,995.924147,148.041188,9178.553681
1829.224827,1072.533697,-0.000000,9030.512492
1829.225144,1149.143247,296.082377,9178.553681
1829.225462,1072.533697,222.061783,9030.512492
1829.225779,766.095498,222.061783,9326.594869
1829.226096,612.876398,-0.000000,9252.574275
1829.226413,919.314598,148.041188,9400.615463
1829.226731,383.047749,370.102971,9400.615463
1829.227048,919.314598,-0.000000,9104.533087
1829.227365,459.657299,-74.020594,9252.574275
1829.227683,459.657299,-0.000000,9326.594869
1829.228000,919.314598,-74.020594,9400.615463
1829.228317,1149.143247,-148.041188,9326.594869
1829.228635,689.485948,222.061783,9326.594869
1829.228952,766.095498,-0.000000,9252.574275
1829.229269,689.485948,148.041188,9252.574275
1829.229586,1149.143247,-0.000000,9326.594869
1829.229904,1149.143247,296.082377,9400.615463
1829.230221,919.314598,-0.000000,8882.471304
1829.230538,689.485948,-0.000000,9030.512492
1829.230856,995.924147,-148.041188,9104.533087
1829.231173,612.876398,-296.082377,9178.553681
1829.231490,459.657299,-222.061783,9178.553681
1829.231808,153.219100,-222.061783,9400.615463
1829.232125,229.828649,-148.041188,9474.636058
1829.232442,306.438199,-74.020594,9474.636058
1829.232759,612.876398,-0.000000,9696.697840
1829.233077,306.438199,222.061783,9622.677246
1829.233394,229.828649,-0.000000,9696.697840
1829.233711,536.266849,-74.020594,9474.636058
1829.234029,689.485948,-0.000000,9622.677246
1829.234346,995.924147,296.082377,9548.656652
1829.234663,1072.533697,370.102971,9474.636058
1829.234980,1225.752797,518.144159,9400.615463
1829.235298,1072.533697,444.123565,9326.594869
1829.235615,1532.190996,296.082377,9474.636058
1829.235932,1302.362347,296.082377,9400.615463
1829.236250,1225.752797,444.123565,9548.656652
1829.236567,1378.971896,444.123565,9178.553681
1829.236884,1225.752797,-0.000000,9326.594869
1829.237202,1225.752797,-0.000000,9474.636058
1829.237519,1072.533697,-0.000000,9474.636058
1829.237836,842.705048,296.082377,9474.636058
1829.238153,995.924147,370.102971,9474.636058
1829.238471,995.924147,444.123565,9474.636058
1829.238788,995.924147,222.061783,9622.677246
1829.239105,995.924147,296.082377,9622.677246
1829.239423,1149.143247,444.123565,9474.636058
1829.239740,1302.362347,148.041188,9326.594869
1829.240057,995.924147,370.102971,9548.656652
1829.240375,1302.362347,296.082377,9622.677246
1829.240692,1149.143247,592.164754,9548.656652
1829.241009,1302.362347,370.102971,9474.636058
1829.241326,842.705048,296.082377,9474.636058
1829.241644,1302.362347,222.061783,9474.636058
1829.241961,1225.752797,-0.000000,9474.636058
1829.242278,1225.752797,-0.000000,9326.594869
1829.242596,842.705048,-222.061783,9400.615463
1829.242913,459.657299,-148.041188,9326.594869
1829.243230,536.266849,-222.061783,9474.636058
1829.243548,-459.657299,-666.185348,9622.677246
1829.243865,383.047749,-370.102971,9622.677246
1829.244182,229.828649,-370.102971,9696.697840
1829.244499,76.609550,-296.082377,9770.718434
1829.244817,0.000000,-444.123565,9474.636058
1829.245134,842.705048,-444.123565,9474.636058
1829.245451,153.219100,-222.061783,9474.636058
1829.245769,306.438199,-592.164754,9474.636058
1829.246086,536.266849,-296.082377,9622.677246
1829.246403,536.266849,-148.041188,9696.697840
1829.246721,612.876398,-222.061783,9474.636058
1829.247038,689.485948,-148.041188,9326.594869
1829.247355,689.485948,-0.000000,9252.574275
1829.247672,919.314598,-0.000000,9178.553681
1829.247990,995.924147,-296.082377,9104.533087
1829.248307,766.095498,-222.061783,9104.533087
1829.248624,1072.533697,-0.000000,8882.471304
1829.248942,842.705048,-74.020594,8882.471304
1829.249259,766.095498,-148.041188,9104.533087
1829.249576,612.876398,-74.020594,9400.615463
1829.249894,842.705048,-0.000000,9030.512492
1829.250211,919.314598,148.041188,9030.512492
1829.250528,919.314598,222.061783,9030.512492
1829.250845,919.314598,222.061783,9178.553681
1829.251163,1072.533697,-0.000000,9178.553681
1829.251480,1072.533697,444.123565,9178.553681
1829.251797,1072.533697,592.164754,8882.471304
1829.252115,995.924147,444.123565,9104.533087
1829.252432,1072.533697,518.144159,9178.553681
1829.252749,1225.752797,666.185348,9178.553681
1829.253067,1149.143247,518.144159,9104.533087
1829.253384,1072.533697,592.164754,9178.553681
1829.253701,995.924147,370.102971,9252.574275
1829.254018,842.705048,444.123565,9252.574275
1829.254336,766.095498,-0.000000,9474.636058
1829.254653,919.314598,74.020594,9400.615463
1829.254970,842.705048,148.041188,9400.615463
1829.255288,689.485948,148.041188,9548.656652
1829.255605,383.047749,296.082377,9844.739029
1829.255922,229.828649,-0.000000,9918.759623
1829.256239,0.000000,148.041188,9992.780217
1829.256557,0.000000,296.082377,9918.759623
1829.256874,383.047749,296.082377,9844.739029
1829.257191,383.047749,148.041188,9696.697840
1829.257509,229.828649,222.061783,9844.739029
1829.257826,229.828649,296.082377,9918.759623
1829.258143,459.657299,370.102971,9992.780217
1829.258461,842.705048,-0.000000,9918.759623
1829.258778,689.485948,444.123565,9918.759623
1829.259095,459.657299,370.102971,9844.739029
1829.259412,536.266849,518.144159,9696.697840
1829.259730,842.705048,518.144159,9770.718434
1829.260047,612.876398,148.041188,9770.718434
1829.260364,689.485948,222.061783,9622.677246
1829.260682,689.485948,296.082377,9696.697840
1829.260999,689.485948,-0.000000,9696.697840
1829.261316,1225.752797,-0.000000,9696.697840
1829.261634,919.314598,296.082377,9622.677246
1829.261951,1149.143247,666.185348,9474.636058
1829.262268,1072.533697,222.061783,9474.636058
1829.262585,1149.143247,296.082377,9474.636058
1829.262903,1532.190996,222.061783,9474.636058
1829.263220,1685.410096,444.123565,9622.677246
1829.263537,1455.581446,-0.000000,9548.656652
1829.263855,1608.800546,148.041188,9474.636058
1829.264172,1838.629195,222.061783,9474.636058
1829.264489,1762.019645,-0.000000,9474.636058
1829.264807,1455.581446,148.041188,9696.697840
1829.265124,2068.457845,296.082377,9178.553681
1829.265441,1915.238745,-0.000000,8734.430116
1829.265758,1762.019645,-0.000000,9178.553681
1829.266076,1762.019645,-222.061783,9104.533087
1829.266393,1685.410096,-296.082377,9326.594869
1829.266710,1455.581446,-296.082377,9252.574275
1829.267028,1225.752797,-518.144159,9326.594869
1829.267345,995.924147,-296.082377,9326.594869
1829.267662,995.924147,-518.144159,9252.574275
1829.267980,1455.581446,-518.144159,9400.615463
1829.268297,842.705048,-296.082377,9400.615463
1829.268614,689.485948,-0.000000,9104.533087
1829.268931,842.705048,-148.041188,9104.533087
1829.269249,383.047749,-296.082377,9104.533087
1829.269566,459.657299,-296.082377,9030.512492
1829.269883,689.485948,-222.061783,9104.533087
1829.270201,842.705048,-222.061783,9178.553681
1829.270518,689.485948,-0.000000,9030.512492
1829.270835,1072.533697,-148.041188,8956.491898
1829.271153,766.095498,-0.000000,8956.491898
1829.271470,612.876398,-222.061783,8734.430116
1829.271787,229.828649,-148.041188,8882.471304
1829.272104,766.095498,-222.061783,8734.430116
1829.272422,1072.533697,148.041188,8956.491898
1829.272739,536.266849,-74.020594,8882.471304
1829.273056,306.438199,-74.020594,8956.491898
1829.273374,229.828649,-0.000000,9252.574275
1829.273691,766.095498,-0.000000,9104.533087
1829.274008,153.219100,-0.000000,9400.615463
1829.274325,383.047749,148.041188,9400.615463
1829.274643,689.485948,-0.000000,9178.553681
1829.274960,766.095498,296.082377,9400.615463
1829.275277,919.314598,148.041188,9252.574275
1829.275595,1302.362347,-0.000000,9400.615463
1829.275912,1149.143247,-0.000000,9400.615463
1829.276229,1072.533697,222.061783,9548.656652
1829.276547,1225.752797,444.123565,9474.636058
1829.276864,919.314598,666.185348,9474.636058
1829.277181,1225.752797,518.144159,9548.656652
1829.277498,1455.581446,444.123565,9548.656652
1829.277816,1608.800546,444.123565,9474.636058
1829.278133,1532.190996,370.102971,9474.636058
1829.278450,1532.190996,370.102971,9548.656652
1829.278768,1608.800546,296.082377,9918.759623
1829.279085,1072.533697,444.123565,9918.759623
1829.279402,1149.143247,592.164754,9770.718434
1829.279720,919.314598,296.082377,9844.739029
1829.280037,995.924147,444.123565,9918.759623
1829.280354,766.095498,518.144159,9770.718434
1829.280671,766.095498,518.144159,9844.739029
1829.280989,383.047749,444.123565,10214.842000
1829.281306,306.438199,370.102971,10140.821405
1829.281623,536.266849,444.123565,9844.739029
1829.281941,459.657299,444.123565,9918.759623
1829.282258,459.657299,740.205942,9844.739029
1829.282575,459.657299,740.205942,9622.677246
1829.282893,459.657299,740.205942,9622.677246
1829.283210,383.047749,518.144159,9770.718434
1829.283527,383.047749,-0.000000,9696.697840
1829.283844,0.000000,296.082377,9474.636058
1829.284162,0.000000,592.164754,9696.697840
1829.284479,153.219100,740.205942,9696.697840
1829.284796,76.609550,518.144159,9474.636058
1829.285114,0.000000,740.205942,9622.677246
1829.285431,0.000000,888.247130,9548.656652
1829.285748,0.000000,888.247130,9474.636058
1829.286066,0.000000,962.267725,9548.656652
1829.286383,229.828649,740.205942,9474.636058
1829.286700,-229.828649,592.164754,9622.677246
1829.287017,383.047749,1036.288319,9252.574275
1829.287335,383.047749,814.226536,9400.615463
1829.287652,536.266849,1036.288319,9474.636058
1829.287969,1072.533697,518.144159,9548.656652
1829.288287,612.876398,962.267725,9252.574275
1829.288604,1072.533697,962.267725,9178.553681
1829.288921,1149.143247,814.226536,8956.491898
1829.289239,1455.581446,814.226536,8956.491898
1829.289556,1149.143247,592.164754,9178.553681
1829.289873,1302.362347,444.123565,9252.574275
1829.290190,842.705048,370.102971,9178.553681
1829.290508,919.314598,370.102971,9104.533087
1829.290825,842.705048,370.102971,9474.636058
1829.291142,766.095498,518.144159,9252.574275
1829.291460,612.876398,444.123565,9104.533087
1829.291777,689.485948,444.123565,9104.533087
1829.292094,536.266849,592.164754,9252.574275
1829.292412,689.485948,-0.000000,9178.553681
1829.292729,459.657299,296.082377,9400.615463
1829.293046,459.657299,74.020594,9474.636058
1829.293363,383.047749,296.082377,9474.636058
1829.293681,612.876398,296.082377,9548.656652
1829.293998,1378.971896,-0.000000,9104.533087
1829.294315,612.876398,370.102971,9326.594869
1829.294633,842.705048,518.144159,9030.512492
1829.294950,689.485948,296.082377,9104.533087
1829.295267,459.657299,222.061783,9030.512492
1829.295584,536.266849,148.041188,9326.594869
1829.295902,612.876398,-0.000000,9400.615463
1829.296219,842.705048,-0.000000,9326.594869
1829.296536,306.438199,148.041188,9548.656652
1829.296854,229.828649,-0.000000,9548.656652
1829.297171,153.219100,-0.000000,9548.656652
1829.297488,229.828649,296.082377,9770.718434
1829.297806,229.828649,-0.000000,9474.636058
1829.298123,459.657299,-0.000000,9548.656652
1829.298440,842.705048,-444.123565,9696.697840
1829.298757,536.266849,222.061783,9622.677246
1829.299075,766.095498,-0.000000,9844.739029
1829.299392,689.485948,296.082377,9770.718434
1829.299709,1072.533697,296.082377,9696.697840
1829.300027,995.924147,222.061783,9622.677246
1829.300344,1072.533697,444.123565,9474.636058
1829.300661,1072.533697,222.061783,9474.636058
1829.300979,995.924147,370.102971,9474.636058
1829.301296,1378.971896,-0.000000,9548.656652
1829.301613,1072.533697,222.061783,9252.574275
1829.301930,919.314598,-0.000000,9326.594869
1829.302248,995.924147,-0.000000,9400.615463
1829.302565,995.924147,74.020594,9548.656652
1829.302882,383.047749,-0.000000,9548.656652
1829.303200,459.657299,-0.000000,9548.656652
1829.303517,689.485948,222.061783,9622.677246
1829.303834,612.876398,-0.000000,9474.636058
1829.304152,459.657299,222.061783,9400.615463
1829.304469,383.047749,-0.000000,9474.636058
1829.304786,766.095498,296.082377,9474.636058
1829.305104,766.095498,296.082377,9474.636058
1829.305421,919.314598,444.123565,9326.594869
1829.305739,1378.971896,518.144159,9178.553681
1829.306056,1149.143247,370.102971,9252.574275
1829.306373,1072.533697,222.061783,9178.553681
1829.306691,919.314598,296.082377,9326.594869
1829.307008,919.314598,370.102971,8882.471304
1829.307326,995.924147,222.061783,8882.471304
1829.307643,1378.971896,444.123565,9104.533087
1829.307960,995.924147,592.164754,8956.491898
1829.308278,612.876398,370.102971,9252.574275
1829.308595,383.047749,296.082377,9178.553681
1829.308913,459.657299,222.061783,9178.553681
1829.309230,612.876398,222.061783,9326.594869
1829.309547,229.828649,296.082377,9252.574275
1829.309865,383.047749,-0.000000,9474.636058
1829.310182,229.828649,-74.020594,9548.656652
1829.310500,153.219100,-0.000000,9474.636058
1829.310817,0.000000,222.061783,9548.656652
1829.311134,383.047749,-0.000000,9474.636058
1829.311452,383.047749,296.082377,9400.615463
1829.311769,459.657299,370.102971,9326.594869
1829.312087,536.266849,370.102971,9400.615463
1829.312404,459.657299,444.123565,9696.697840
1829.312721,612.876398,74.020594,9178.553681
1829.313039,536.266849,-74.020594,9474.636058
1829.313356,612.876398,-74.020594,9326.594869
1829.313674,689.485948,-0.000000,9548.656652
1829.313991,536.266849,-222.061783,9326.594869
1829.314308,536.266849,-74.020594,9548.656652
1829.314626,612.876398,-0.000000,9548.656652
1829.314943,536.266849,-0.000000,9696.697840
1829.315261,689.485948,-0.000000,9696.697840
1829.315578,1072.533697,-74.020594,9474.636058
1829.315895,689.485948,370.102971,9770.718434
1829.316213,229.828649,-74.020594,9400.615463
1829.316530,842.705048,-0.000000,9474.636058
1829.316848,842.705048,296.082377,9474.636058
1829.317165,995.924147,-0.000000,9696.697840
1829.317482,1225.752797,222.061783,9474.636058
1829.317800,1302.362347,370.102971,9474.636058
1829.318117,1225.752797,370.102971,9252.574275
1829.318435,919.314598,296.082377,9104.533087
1829.318752,1532.190996,370.102971,9474.636058
1829.319069,1149.143247,148.041188,9326.594869
1829.319387,1149.143247,148.041188,9178.553681
1829.319704,842.705048,148.041188,9474.636058
1829.320022,689.485948,444.123565,9474.636058
1829.320339,1072.533697,-0.000000,9844.739029
1829.320656,459.657299,296.082377,9474.636058
1829.320974,766.095498,518.144159,9622.677246
1829.321291,612.876398,296.082377,9474.636058
1829.321609,536.266849,296.082377,9474.636058
1829.321926,612.876398,-0.000000,9548.656652
1829.322243,766.095498,444.123565,9474.636058
1829.322561,766.095498,296.082377,9548.656652
1829.322878,842.705048,592.164754,9474.636058
1829.323196,536.266849,444.123565,9474.636058
1829.323513,1072.533697,518.144159,9548.656652
1829.323830,842.705048,296.082377,9400.615463
1829.324148,766.095498,148.041188,9400.615463
1829.324465,536.266849,-0.000000,9326.594869
1829.324783,536.266849,444.123565,9844.739029
1829.325100,459.657299,370.102971,9548.656652
1829.325417,383.047749,-0.000000,9252.574275
1829.325735,153.219100,-0.000000,9474.636058
1829.326052,306.438199,-370.102971,9548.656652
1829.326370,0.000000,-74.020594,9918.759623
1829.326687,76.609550,-0.000000,10066.800811
1829.327004,153.219100,-0.000000,9918.759623
1829.327322,153.219100,-74.020594,9844.739029
1829.327639,153.219100,-0.000000,9548.656652
1829.327957,229.828649,-0.000000,9548.656652
1829.328274,459.657299,-222.061783,9474.636058
1829.328591,612.876398,-296.082377,9474.636058
1829.328909,689.485948,-0.000000,9474.636058
1829.329226,995.924147,-0.000000,9474.636058
1829.329544,1149.143247,-0.000000,9548.656652
1829.329861,1149.143247,-0.000000,9474.636058
1829.330178,1302.362347,-0.000000,9178.553681
1829.330496,995.924147,148.041188,9104.533087
1829.330813,1149.143247,-0.000000,9104.533087
1829.331131,1302.362347,-296.082377,8956.491898
1829.331448,1225.752797,-74.020594,9030.512492
1829.331765,1225.752797,-148.041188,9104.533087
1829.332083,1225.752797,222.061783,9252.574275
1829.332400,1225.752797,370.102971,9400.615463
1829.332718,1225.752797,-0.000000,9400.615463
1829.333035,1072.533697,444.123565,9104.533087
1829.333352,1302.362347,370.102971,9104.533087
1829.333670,1225.752797,444.123565,9104.533087
1829.333987,1455.581446,370.102971,9178.553681
1829.334305,1608.800546,222.061783,9030.512492
1829.334622,1685.410096,444.123565,9104.533087
1829.334939,1302.362347,296.082377,9252.574275
1829.335257,1378.971896,370.102971,9104.533087
1829.335574,1532.190996,296.082377,9030.512492
1829.335892,1072.533697,-0.000000,9252.574275
1829.336209,1225.752797,-0.000000,8956.491898
1829.336526,1149.143247,-0.000000,9178.553681
1829.336844,1225.752797,-0.000000,9252.574275
1829.337161,1225.752797,-74.020594,9326.594869
1829.337479,766.095498,-0.000000,9474.636058
1829.337796,689.485948,-148.041188,9326.594869
1829.338113,229.828649,-74.020594,9696.697840
1829.338431,76.609550,-74.020594,9622.677246
1829.338748,153.219100,-222.061783,9770.718434
1829.339066,306.438199,-0.000000,9548.656652
1829.339383,153.219100,-222.061783,9770.718434
1829.339700,383.047749,-74.020594,9770.718434
1829.340018,306.438199,-0.000000,9696.697840
1829.340335,612.876398,-0.000000,9696.697840
1829.340653,459.657299,148.041188,9696.697840
1829.340970,766.095498,-0.000000,9992.780217
1829.341287,995.924147,222.061783,9622.677246
1829.341605,919.314598,-0.000000,9548.656652
1829.341922,1149.143247,-296.082377,9622.677246
1829.342240,1072.533697,148.041188,9548.656652
1829.342557,995.924147,-0.000000,9474.636058
1829.342874,1072.533697,222.061783,9548.656652
1829.343192,919.314598,296.082377,9548.656652
1829.343509,919.314598,370.102971,9622.677246
1829.343827,842.705048,296.082377,9474.636058
1829.344144,1072.533697,592.164754,9548.656652
1829.344461,995.924147,518.144159,9474.636058
1829.344779,1072.533697,444.123565,9622.677246
1829.345096,1378.971896,-0.000000,9696.697840
1829.345414,1225.752797,-0.000000,9400.615463
1829.345731,1225.752797,148.041188,9252.574275
1829.346048,995.924147,592.164754,9400.615463
1829.346366,1532.190996,518.144159,9178.553681
1829.346683,1608.800546,518.144159,9400.615463
1829.347001,1378.971896,444.123565,9400.615463
1829.347318,1302.362347,444.123565,9400.615463
1829.347635,1225.752797,296.082377,9326.594869
1829.347953,1149.143247,148.041188,9326.594869
1829.348270,1225.752797,-0.000000,9326.594869
1829.348588,995.924147,-0.000000,9252.574275
1829.348905,1072.533697,222.061783,9178.553681
1829.349222,766.095498,296.082377,9178.553681
1829.349540,1072.533697,-0.000000,9474.636058
1829.349857,689.485948,148.041188,9400.615463
1829.350175,153.219100,-0.000000,9326.594869
1829.350492,306.438199,148.041188,9474.636058
1829.350809,229.828649,-0.000000,9474.636058
1829.351127,76.609550,518.144159,9622.677246
1829.351444,229.828649,-0.000000,9548.656652
1829.351762,0.000000,148.041188,9474.636058
1829.352079,229.828649,-0.000000,9400.615463
1829.352396,612.876398,148.041188,9474.636058
1829.352714,766.095498,-0.000000,9178.553681
1829.353031,612.876398,444.123565,9252.574275
1829.353348,536.266849,296.082377,9400.615463
1829.353666,536.266849,222.061783,9400.615463
1829.353983,459.657299,370.102971,9326.594869
1829.354301,459.657299,-0.000000,9178.553681
1829.354618,383.047749,222.061783,9400.615463
1829.354935,459.657299,296.082377,9326.594869
1829.355253,536.266849,370.102971,9474.636058
1829.355570,612.876398,444.123565,9400.615463
1829.355888,536.266849,370.102971,9252.574275
1829.356205,689.485948,518.144159,9326.594869
1829.356522,459.657299,740.205942,9474.636058
1829.356840,689.485948,370.102971,9326.594869
1829.357157,459.657299,222.061783,9474.636058
1829.357475,1072.533697,592.164754,9548.656652
1829.357792,766.095498,592.164754,9474.636058
1829.358109,1072.533697,592.164754,9696.697840
1829.358427,1225.752797,592.164754,9622.677246
1829.358744,1225.752797,592.164754,9918.759623
1829.359062,1685.410096,814.226536,9474.636058
1829.359379,1378.971896,592.164754,9252.574275
1829.359696,1762.019645,592.164754,9548.656652
1829.360014,1838.629195,-0.000000,9400.615463
1829.360331,1455.581446,296.082377,9474.636058
1829.360649,1455.581446,370.102971,9474.636058
1829.360966,1455.581446,148.041188,9622.677246
1829.361283,1149.143247,-0.000000,9844.739029
1829.361601,1225.752797,-222.061783,9770.718434
1829.361918,919.314598,-0.000000,9622.677246
1829.362236,1072.533697,-74.020594,9622.677246
1829.362553,919.314598,-0.000000,9770.718434
1829.362870,459.657299,-148.041188,9844.739029
1829.363188,919.314598,-148.041188,9548.656652
1829.363505,995.924147,-0.000000,9548.656652
1829.363823,459.657299,-74.020594,9622.677246
1829.364140,612.876398,222.061783,9548.656652
1829.364457,612.876398,370.102971,9548.656652
1829.364775,229.828649,296.082377,9474.636058
1829.365092,459.657299,296.082377,9400.615463
1829.365410,536.266849,222.061783,9104.533087
1829.365727,536.266849,296.082377,9252.574275
1829.366044,536.266849,222.061783,9252.574275
1829.366362,766.095498,296.082377,9178.553681
1829.366679,76.609550,222.061783,9252.574275
1829.366997,153.219100,148.041188,8882.471304
1829.367314,153.219100,-0.000000,9252.574275
1829.367631,0.000000,444.123565,9326.594869
1829.367949,0.000000,370.102971,9474.636058
1829.368266,229.828649,148.041188,9178.553681
1829.368584,76.609550,222.061783,9178.553681
1829.368901,76.609550,148.041188,9030.512492
1829.369218,76.609550,148.041188,8956.491898
1829.369536,689.485948,222.061783,9400.615463
1829.369853,612.876398,444.123565,9400.615463
1829.370171,842.705048,592.164754,9252.574275
1829.370488,995.924147,518.144159,9252.574275
1829.370805,1225.752797,444.123565,9178.553681
1829.371123,1072.533697,518.144159,9104.533087
1829.371440,1302.362347,296.082377,9178.553681
1829.371758,1225.752797,222.061783,8808.450710
1829.372075,1302.362347,296.082377,8956.491898
1829.372392,1302.362347,296.082377,9104.533087
1829.372710,1455.581446,-0.000000,9252.574275
1829.373027,1149.143247,222.061783,9400.615463
1829.373345,1225.752797,-0.000000,9474.636058
1829.373662,1072.533697,-0.000000,9474.636058
1829.373979,1225.752797,-0.000000,9400.615463
1829.374297,995.924147,-0.000000,9622.677246
1829.374614,612.876398,-0.000000,9696.697840
1829.374932,766.095498,74.020594,9696.697840
1829.375249,842.705048,-0.000000,9696.697840
1829.375566,1072.533697,148.041188,9770.718434
1829.375884,1225.752797,-0.000000,9622.677246
1829.376201,995.924147,444.123565,9696.697840
1829.376519,1225.752797,518.144159,9474.636058
1829.376836,1302.362347,518.144159,9548.656652
1829.377153,1532.190996,370.102971,9696.697840
1829.377471,1149.143247,444.123565,9326.594869
1829.377788,919.314598,296.082377,9400.615463
1829.378106,612.876398,148.041188,9474.636058
1829.378423,306.438199,-0.000000,9474.636058
1829.378740,766.095498,-0.000000,9622.677246
1829.379058,612.876398,-0.000000,9548.656652
1829.379375,0.000000,-0.000000,9474.636058
1829.379693,0.000000,296.082377,9622.677246
1829.380010,76.609550,-0.000000,9548.656652
1829.380327,76.609550,518.144159,9474.636058
1829.380645,0.000000,370.102971,9696.697840
1829.380962,0.000000,222.061783,9548.656652
1829.381280,0.000000,148.041188,9474.636058
1829.381597,612.876398,-0.000000,9696.697840
1829.381914,842.705048,-148.041188,9770.718434
1829.382232,153.219100,222.061783,9474.636058
1829.382549,459.657299,666.185348,9548.656652
1829.382867,766.095498,592.164754,9548.656652
1829.383184,842.705048,370.102971,9400.615463
1829.383501,1072.533697,666.185348,9178.553681
1829.383819,842.705048,296.082377,9252.574275
1829.384136,919.314598,370.102971,9326.594869
1829.384454,612.876398,222.061783,9326.594869
1829.384771,536.266849,222.061783,9474.636058
1829.385088,842.705048,-0.000000,9474.636058
1829.385406,842.705048,592.164754,9326.594869
1829.385723,689.485948,222.061783,9326.594869
1829.386041,842.705048,370.102971,9326.594869
1829.386358,1072.533697,296.082377,9474.636058
1829.386675,612.876398,-0.000000,9252.574275
1829.386993,612.876398,148.041188,9474.636058
1829.387310,689.485948,296.082377,9474.636058
1829.387628,689.485948,370.102971,9252.574275
1829.387945,76.609550,370.102971,9474.636058
1829.388262,842.705048,444.123565,9400.615463
1829.388580,689.485948,666.185348,9326.594869
1829.388897,612.876398,518.144159,9252.574275
1829.389215,1072.533697,518.144159,9030.512492
1829.389532,689.485948,148.041188,9178.553681
1829.389849,689.485948,296.082377,9326.594869
1829.390167,459.657299,-0.000000,9252.574275
1829.390484,306.438199,148.041188,9400.615463
1829.390802,153.219100,-0.000000,9326.594869
1829.391119,612.876398,-0.000000,9548.656652
1829.391436,76.609550,148.041188,9548.656652
1829.391754,229.828649,370.102971,9474.636058
1829.392071,153.219100,222.061783,9400.615463
1829.392389,459.657299,444.123565,9548.656652
1829.392706,383.047749,148.041188,9622.677246
1829.393023,383.047749,-0.000000,9696.697840
1829.393341,842.705048,-0.000000,9770.718434
1829.393658,766.095498,-0.000000,9696.697840
1829.393976,689.485948,296.082377,9844.739029
1829.394293,919.314598,444.123565,9918.759623
1829.394610,766.095498,370.102971,9474.636058
1829.394928,1149.143247,222.061783,9548.656652
1829.395245,919.314598,222.061783,9474.636058
1829.395563,612.876398,444.123565,9548.656652
1829.395880,1302.362347,148.041188,9474.636058
1829.396197,1225.752797,-0.000000,9400.615463
1829.396515,1149.143247,-0.000000,9474.636058
1829.396832,689.485948,-74.020594,9548.656652
1829.397150,842.705048,-0.000000,9622.677246
1829.397467,536.266849,296.082377,9400.615463
1829.397784,459.657299,222.061783,9474.636058
1829.398102,612.876398,222.061783,9474.636058
1829.398419,229.828649,296.082377,9400.615463
1829.398737,766.095498,296.082377,9474.636058
1829.399054,919.314598,444.123565,9400.615463
1829.399371,1072.533697,444.123565,9326.594869
1829.399689,766.095498,592.164754,9400.615463
1829.400006,766.095498,370.102971,9474.636058
1829.400324,689.485948,592.164754,9252.574275
1829.400641,919.314598,518.144159,9104.533087
1829.400958,1149.143247,592.164754,9178.553681
1829.401276,1608.800546,296.082377,9178.553681
1829.401593,842.705048,370.102971,9030.512492
1829.401911,766.095498,222.061783,9104.533087
1829.402228,842.705048,148.041188,9104.533087
1829.402545,612.876398,518.144159,9252.574275
1829.402863,689.485948,222.061783,8882.471304
1829.403180,383.047749,148.041188,9326.594869
1829.403498,383.047749,148.041188,9326.594869
1829.403815,536.266849,-148.041188,9400.615463
1829.404132,842.705048,-0.000000,9474.636058
1829.404450,766.095498,148.041188,9548.656652
1829.404767,306.438199,-0.000000,9474.636058
1829.405085,612.876398,148.041188,9548.656652
1829.405402,919.314598,-0.000000,9474.636058
1829.405719,1378.971896,444.123565,9622.677246
1829.406037,995.924147,222.061783,9474.636058
1829.406354,995.924147,222.061783,9400.615463
1829.406671,1149.143247,-0.000000,9326.594869
1829.406988,919.314598,-0.000000,9548.656652
1829.407306,1072.533697,-74.020594,9400.615463
1829.407623,1225.752797,-518.144159,9474.636058
1829.407940,689.485948,-222.061783,9474.636058
1829.408258,612.876398,-296.082377,9696.697840
1829.408575,612.876398,-296.082377,9548.656652
1829.408892,689.485948,-592.164754,9622.677246
1829.409210,536.266849,-444.123565,9622.677246
1829.409527,306.438199,-74.020594,9622.677246
1829.409844,536.266849,-148.041188,9548.656652
1829.410161,536.266849,-296.082377,9696.697840
1829.410479,459.657299,-222.061783,9696.697840
1829.410796,306.438199,-148.041188,9696.697840
1829.411113,1072.533697,-0.000000,9474.636058
1829.411431,919.314598,-0.000000,9696.697840
1829.411748,995.924147,-0.000000,9474.636058
1829.412065,1225.752797,-0.000000,9326.594869
1829.412383,1072.533697,222.061783,9326.594869
1829.412700,1378.971896,296.082377,9104.533087
1829.413017,1608.800546,148.041188,9104.533087
1829.413334,1302.362347,-0.000000,8956.491898
1829.413652,1378.971896,-0.000000,9178.553681
1829.413969,1302.362347,-0.000000,8956.491898
1829.414286,1149.143247,-0.000000,9104.533087
1829.414604,1225.752797,-0.000000,9178.553681
1829.414921,1149.143247,296.082377,9400.615463
1829.415238,1302.362347,-0.000000,9474.636058
1829.415556,1072.533697,222.061783,9252.574275
1829.415873,1072.533697,-0.000000,9104.533087
1829.416190,1225.752797,370.102971,9400.615463
1829.416507,1072.533697,296.082377,9326.594869
1829.416825,1378.971896,296.082377,9178.553681
1829.417142,536.266849,370.102971,9400.615463
1829.417459,1225.752797,518.144159,9474.636058
1829.417777,1302.362347,444.123565,9474.636058
1829.418094,1072.533697,370.102971,9178.553681
1829.418411,1225.752797,222.061783,9400.615463
1829.418728,995.924147,296.082377,9326.594869
1829.419046,919.314598,222.061783,9326.594869
1829.419363,689.485948,-0.000000,9326.594869
1829.419680,229.828649,-74.020594,9326.594869
1829.419998,306.438199,-370.102971,9622.677246
1829.420315,153.219100,-0.000000,9696.697840
1829.420632,0.000000,-222.061783,9622.677246
1829.420950,-153.219100,-0.000000,9918.759623
1829.421267,0.000000,-0.000000,9696.697840
1829.421584,0.000000,222.061783,9770.718434
1829.421901,153.219100,-0.000000,9696.697840
1829.422219,153.219100,370.102971,9474.636058
1829.422536,153.219100,592.164754,9696.697840
1829.422853,76.609550,666.185348,9844.739029
1829.423171,842.705048,148.041188,9326.594869
1829.423488,689.485948,740.205942,9622.677246
1829.423805,612.876398,740.205942,9400.615463
1829.424123,766.095498,740.205942,9252.574275
1829.424440,1072.533697,962.267725,9252.574275
1829.424757,919.314598,666.185348,9326.594869
1829.425074,842.705048,444.123565,9178.553681
1829.425392,842.705048,444.123565,9400.615463
1829.425709,919.314598,592.164754,9252.574275
1829.426026,919.314598,592.164754,9474.636058
1829.426344,766.095498,592.164754,9474.636058
1829.426661,536.266849,370.102971,9474.636058
1829.426978,766.095498,814.226536,9474.636058
1829.427296,995.924147,592.164754,9474.636058
1829.427613,536.266849,740.205942,9474.636058
1829.427930,995.924147,814.226536,9400.615463
1829.428247,1149.143247,592.164754,9400.615463
1829.428565,1149.143247,518.144159,9178.553681
1829.428882,1302.362347,592.164754,9326.594869
1829.429199,1608.800546,740.205942,9548.656652
1829.429517,919.314598,740.205942,9400.615463
1829.429834,1455.581446,888.247130,9326.594869
1829.430151,1149.143247,592.164754,9178.553681
1829.430469,1072.533697,444.123565,9252.574275
1829.430786,1072.533697,592.164754,9400.615463
1829.431103,919.314598,370.102971,9400.615463
1829.431420,995.924147,-0.000000,9474.636058
1829.431738,612.876398,-74.020594,9548.656652
1829.432055,536.266849,-0.000000,9918.759623
1829.432372,766.095498,-148.041188,9548.656652
1829.432690,306.438199,-0.000000,9696.697840
1829.433007,689.485948,-0.000000,9622.677246
1829.433324,689.485948,-148.041188,9622.677246
1829.433642,995.924147,-0.000000,9622.677246
1829.433959,536.266849,-0.000000,9622.677246
1829.434276,995.924147,-0.000000,9474.636058
1829.434593,842.705048,-0.000000,9474.636058
1829.434911,766.095498,-74.020594,9474.636058
1829.435228,1302.362347,-0.000000,9474.636058
1829.435545,995.924147,-0.000000,9696.697840
1829.435863,1302.362347,-0.000000,9474.636058
1829.436180,1149.143247,-0.000000,9474.636058
1829.436497,1378.971896,-0.000000,9474.636058
1829.436815,1225.752797,-0.000000,9326.594869
1829.437132,1149.143247,-0.000000,9178.553681
1829.437449,1225.752797,-74.020594,9326.594869
1829.437766,919.314598,-0.000000,9474.636058
1829.438084,1302.362347,-222.061783,9326.594869
1829.438401,1225.752797,-0.000000,9548.656652
1829.438718,919.314598,-0.000000,9474.636058
1829.439036,1302.362347,-0.000000,9252.574275
1829.439353,1455.581446,-0.000000,9178.553681
1829.439670,1302.362347,-0.000000,9104.533087
1829.439988,1378.971896,-0.000000,9178.553681
1829.440305,1225.752797,-74.020594,9178.553681
1829.440622,1302.362347,-0.000000,9252.574275
1829.440939,1225.752797,148.041188,9474.636058
1829.441257,1225.752797,148.041188,9178.553681
1829.441574,995.924147,148.041188,9030.512492
1829.441891,1072.533697,-0.000000,9252.574275
1829.442209,1072.533697,148.041188,9178.553681
1829.442526,995.924147,74.020594,9178.553681
1829.442843,919.314598,-0.000000,9030.512492
1829.443161,766.095498,-0.000000,9030.512492
1829.443478,612.876398,-0.000000,9030.512492
1829.443795,689.485948,-0.000000,9252.574275
1829.444112,383.047749,-148.041188,8956.491898
1829.444430,383.047749,-0.000000,9474.636058
1829.444747,153.219100,-0.000000,9474.636058
1829.445064,229.828649,148.041188,9474.636058
1829.445382,306.438199,-0.000000,9474.636058
1829.445699,766.095498,-0.000000,9474.636058
1829.446016,0.000000,222.061783,9326.594869
1829.446334,536.266849,-0.000000,9474.636058
1829.446651,383.047749,148.041188,9474.636058
1829.446968,536.266849,296.082377,9400.615463
1829.447285,383.047749,444.123565,9622.677246
1829.447603,536.266849,518.144159,9474.636058
1829.447920,612.876398,370.102971,9400.615463
1829.448237,536.266849,296.082377,9252.574275
1829.448555,612.876398,592.164754,9474.636058
1829.448872,919.314598,148.041188,9326.594869
1829.449189,306.438199,518.144159,9326.594869
1829.449507,383.047749,592.164754,9474.636058
1829.449824,229.828649,296.082377,9548.656652
1829.450141,383.047749,666.185348,9696.697840
1829.450458,229.828649,592.164754,9474.636058
1829.450776,229.828649,518.144159,9622.677246
1829.451093,153.219100,740.205942,9622.677246
1829.451410,229.828649,666.185348,9844.739029
1829.451728,306.438199,592.164754,9770.718434
1829.452045,459.657299,666.185348,9696.697840
1829.452362,383.047749,518.144159,9770.718434
1829.452680,919.314598,740.205942,9622.677246
1829.452997,995.924147,888.247130,9696.697840
1829.453314,1225.752797,814.226536,9252.574275
1829.453631,1378.971896,888.247130,9400.615463
1829.453949,1302.362347,740.205942,9400.615463
1829.454266,1225.752797,666.185348,9474.636058
1829.454583,1072.533697,370.102971,9400.615463
1829.454901,842.705048,518.144159,9474.636058
1829.455218,1149.143247,296.082377,9622.677246
1829.455535,842.705048,370.102971,9548.656652
1829.455852,766.095498,-0.000000,9548.656652
1829.456170,536.266849,296.082377,9548.656652
1829.456487,306.438199,222.061783,9770.718434
1829.456804,689.485948,148.041188,9474.636058
1829.457122,536.266849,296.082377,9548.656652
1829.457439,689.485948,148.041188,9474.636058
1829.457756,842.705048,148.041188,9696.697840
1829.458074,612.876398,148.041188,9918.759623
1829.458391,459.657299,222.061783,9844.739029
1829.458708,689.485948,296.082377,9474.636058
1829.459025,766.095498,222.061783,9474.636058
1829.459343,1302.362347,370.102971,9474.636058
1829.459660,1072.533697,296.082377,9178.553681
1829.459977,919.314598,296.082377,8734.430116
1829.460295,1072.533697,148.041188,8956.491898
1829.460612,766.095498,370.102971,8808.450710
1829.460929,536.266849,74.020594,9104.533087
1829.461247,229.828649,-0.000000,9400.615463
1829.461564,306.438199,-74.020594,9030.512492
1829.461881,306.438199,-0.000000,9400.615463
1829.462198,76.609550,-0.000000,9326.594869
1829.462516,153.219100,-148.041188,9326.594869
1829.462833,306.438199,-0.000000,9326.594869
1829.463150,536.266849,-74.020594,8956.491898
1829.463468,536.266849,-0.000000,9326.594869
1829.463785,612.876398,-0.000000,9326.594869
1829.464102,842.705048,-74.020594,9104.533087
1829.464420,919.314598,-0.000000,8956.491898
1829.464737,842.705048,-0.000000,9178.553681
1829.465054,1149.143247,148.041188,9030.512492
1829.465371,1149.143247,444.123565,9104.533087
1829.465689,1302.362347,-0.000000,9252.574275
1829.466006,1149.143247,-0.000000,8956.491898
1829.466323,1149.143247,-0.000000,8956.491898
1829.466641,1378.971896,-74.020594,9030.512492
1829.466958,1302.362347,-296.082377,9474.636058
1829.467275,995.924147,-592.164754,9474.636058
1829.467593,842.705048,-0.000000,9474.636058
1829.467910,612.876398,-148.041188,9548.656652
1829.468227,459.657299,-74.020594,9548.656652
1829.468544,919.314598,-74.020594,9696.697840
1829.468862,689.485948,-74.020594,9622.677246
1829.469179,536.266849,-0.000000,9474.636058
1829.469496,612.876398,-0.000000,9622.677246
1829.469814,919.314598,148.041188,9548.656652
1829.470131,1072.533697,222.061783,9696.697840
1829.470448,766.095498,222.061783,9696.697840
1829.470766,842.705048,444.123565,9548.656652
1829.471083,689.485948,296.082377,9474.636058
1829.471400,689.485948,444.123565,9474.636058
1829.471717,383.047749,370.102971,9548.656652
1829.472035,459.657299,148.041188,9474.636058
1829.472352,536.266849,296.082377,9474.636058
1829.472669,459.657299,-0.000000,9474.636058
1829.472987,153.219100,-0.000000,9474.636058
1829.473304,153.219100,-0.000000,9844.739029
1829.473621,153.219100,370.102971,9622.677246
1829.473939,229.828649,148.041188,9622.677246
1829.474256,383.047749,370.102971,9622.677246
1829.474573,-229.828649,444.123565,9696.697840
1829.474890,306.438199,592.164754,9770.718434
1829.475208,383.047749,518.144159,9622.677246
1829.475525,919.314598,296.082377,9474.636058
1829.475842,766.095498,666.185348,9770.718434
1829.476160,76.609550,444.123565,9622.677246
1829.476477,842.705048,592.164754,9548.656652
1829.476794,1072.533697,666.185348,9326.594869
1829.477112,1149.143247,814.226536,9400.615463
1829.477429,1455.581446,444.123565,9474.636058
1829.477746,1302.362347,740.205942,9474.636058
1829.478063,1072.533697,518.144159,9178.553681
1829.478381,842.705048,370.102971,9326.594869
1829.478698,842.705048,370.102971,9252.574275
1829.479015,919.314598,-0.000000,9548.656652
1829.479333,612.876398,222.061783,9474.636058
1829.479650,459.657299,222.061783,9474.636058
1829.479967,383.047749,370.102971,9474.636058
1829.480285,0.000000,148.041188,9474.636058
1829.480602,459.657299,-0.000000,9474.636058
1829.480919,612.876398,-0.000000,9400.615463
1829.481236,536.266849,222.061783,9548.656652
1829.481554,306.438199,222.061783,9474.636058
1829.481871,766.095498,518.144159,9548.656652
1829.482188,689.485948,222.061783,9548.656652
1829.482506,995.924147,370.102971,9474.636058
1829.482823,995.924147,296.082377,9252.574275
1829.483140,1072.533697,222.061783,9252.574275
1829.483458,1149.143247,370.102971,9252.574275
1829.483775,1378.971896,-0.000000,9178.553681
1829.484092,1072.533697,-0.000000,9030.512492
1829.484409,1072.533697,-296.082377,9104.533087
1829.484727,612.876398,-296.082377,9400.615463
1829.485044,766.095498,-0.000000,9400.615463
1829.485361,766.095498,-0.000000,9474.636058
1829.485679,689.485948,-0.000000,9326.594869
1829.485996,689.485948,148.041188,9474.636058
1829.486313,612.876398,-148.041188,9474.636058
1829.486631,689.485948,-0.000000,9474.636058
1829.486948,1072.533697,-0.000000,9696.697840
1829.487265,842.705048,-0.000000,9400.615463
1829.487582,995.924147,-0.000000,9770.718434
1829.487900,995.924147,-0.000000,9474.636058
1829.488217,995.924147,-148.041188,9474.636058
1829.488534,1149.143247,-0.000000,9400.615463
1829.488852,1149.143247,-0.000000,9326.594869
1829.489169,1302.362347,148.041188,9326.594869
1829.489486,1378.971896,-0.000000,9400.615463
1829.489804,1149.143247,-74.020594,9326.594869
1829.490121,995.924147,-148.041188,9400.615463
1829.490438,1225.752797,-0.000000,9104.533087
1829.490755,842.705048,-0.000000,9400.615463
1829.491073,536.266849,-0.000000,9400.615463
1829.491390,1225.752797,74.020594,9326.594869
1829.491707,766.095498,-0.000000,9474.636058
1829.492025,536.266849,-0.000000,9252.574275
1829.492342,689.485948,-0.000000,9400.615463
1829.492659,689.485948,-0.000000,9400.615463
1829.492977,612.876398,-222.061783,9474.636058
1829.493294,306.438199,-0.000000,9326.594869
1829.493611,842.705048,-0.000000,9474.636058
1829.493928,1149.143247,222.061783,9400.615463
1829.494246,919.314598,370.102971,9178.553681
1829.494563,919.314598,222.061783,8956.491898
1829.494880,1072.533697,518.144159,9252.574275
1829.495198,1149.143247,444.123565,9252.574275
1829.495515,995.924147,444.123565,9326.594869
1829.495832,689.485948,148.041188,9104.533087
1829.496149,1149.143247,518.144159,9400.615463
1829.496467,689.485948,444.123565,9400.615463
1829.496784,995.924147,740.205942,9400.615463
1829.497101,766.095498,296.082377,9474.636058
1829.497419,459.657299,444.123565,9474.636058
1829.497736,612.876398,296.082377,9548.656652
1829.498053,459.657299,370.102971,9548.656652
1829.498371,689.485948,296.082377,9770.718434
1829.498688,612.876398,370.102971,9770.718434
1829.499005,612.876398,-0.000000,9844.739029
1829.499322,459.657299,222.061783,9770.718434
1829.499640,689.485948,444.123565,9696.697840
1829.499957,919.314598,592.164754,9622.677246
1829.500274,995.924147,370.102971,9474.636058
1829.500592,1072.533697,296.082377,9474.636058
1829.500909,919.314598,370.102971,9548.656652
1829.501226,995.924147,-0.000000,9400.615463
1829.501544,995.924147,296.082377,9326.594869
1829.501861,766.095498,-0.000000,9474.636058
1829.502178,842.705048,222.061783,9474.636058
1829.502495,612.876398,-0.000000,9474.636058
1829.502813,383.047749,-0.000000,9844.739029
1829.503130,229.828649,-0.000000,9918.759623
1829.503447,76.609550,-74.020594,9548.656652
1829.503765,383.047749,-0.000000,9548.656652
1829.504082,76.609550,-0.000000,9696.697840
1829.504399,153.219100,-0.000000,9622.677246
1829.504717,229.828649,-0.000000,9474.636058
1829.505034,536.266849,-74.020594,9548.656652
1829.505351,689.485948,-0.000000,9548.656652
1829.505668,612.876398,148.041188,9474.636058
1829.505986,1149.143247,740.205942,9474.636058
1829.506303,995.924147,518.144159,9252.574275
1829.506620,1762.019645,444.123565,9030.512492
1829.506938,1532.190996,518.144159,9030.512492
1829.507255,1455.581446,148.041188,8956.491898
1829.507572,1302.362347,296.082377,9104.533087
1829.507890,1532.190996,-0.000000,8956.491898
1829.508207,1149.143247,444.123565,9030.512492
1829.508525,995.924147,148.041188,9104.533087
1829.508842,1149.143247,444.123565,9400.615463
1829.509160,995.924147,370.102971,9252.574275
1829.509477,1149.143247,222.061783,9474.636058
1829.509794,1455.581446,-0.000000,9326.594869
1829.510112,1149.143247,148.041188,9252.574275
1829.510429,1149.143247,-0.000000,9178.553681
1829.510747,1378.971896,444.123565,9400.615463
1829.511064,1149.143247,222.061783,9400.615463
1829.511381,1302.362347,222.061783,9178.553681
1829.511699,1378.971896,296.082377,9030.512492
1829.512016,1225.752797,222.061783,9400.615463
1829.512334,1225.752797,222.061783,9326.594869
1829.512651,1225.752797,-0.000000,9474.636058
1829.512968,995.924147,148.041188,9548.656652
1829.513286,1072.533697,-0.000000,9252.574275
1829.513603,842.705048,-0.000000,9252.574275
1829.513921,536.266849,-0.000000,9326.594869
1829.514238,1072.533697,-148.041188,9400.615463
1829.514555,383.047749,-222.061783,9696.697840
1829.514873,383.047749,-0.000000,9844.739029
1829.515190,0.000000,-444.123565,9548.656652
1829.515508,76.609550,-74.020594,9696.697840
1829.515825,0.000000,-444.123565,9474.636058
1829.516142,76.609550,-74.020594,9844.739029
1829.516460,306.438199,-74.020594,9548.656652
1829.516777,306.438199,-0.000000,9474.636058
1829.517095,383.047749,148.041188,9548.656652
1829.517412,689.485948,-0.000000,9474.636058
1829.517729,689.485948,-0.000000,9178.553681
1829.518047,459.657299,296.082377,9400.615463
1829.518364,842.705048,370.102971,9474.636058
1829.518682,766.095498,148.041188,9326.594869
1829.518999,995.924147,148.041188,9474.636058
1829.519316,919.314598,222.061783,9326.594869
1829.519634,919.314598,-0.000000,9400.615463
1829.519951,995.924147,-0.000000,9474.636058
1829.520269,842.705048,222.061783,9474.636058
1829.520586,689.485948,222.061783,9474.636058
1829.520903,766.095498,296.082377,9400.615463
1829.521221,842.705048,370.102971,9474.636058
1829.521538,842.705048,888.247130,9548.656652
1829.521856,536.266849,592.164754,9918.759623
1829.522173,1225.752797,962.267725,9326.594869
1829.522491,1149.143247,518.144159,9474.636058
1829.522808,1225.752797,592.164754,9252.574275
1829.523125,1378.971896,740.205942,9474.636058
1829.523443,919.314598,740.205942,9474.636058
1829.523760,1072.533697,666.185348,9326.594869
1829.524078,1378.971896,888.247130,9400.615463
1829.524395,1072.533697,814.226536,9178.553681
1829.524712,1455.581446,740.205942,9104.533087
1829.525030,1072.533697,444.123565,9252.574275
1829.525347,766.095498,740.205942,9326.594869
1829.525665,459.657299,296.082377,9400.615463
1829.525982,536.266849,370.102971,9474.636058
1829.526299,229.828649,-74.020594,9326.594869
1829.526617,153.219100,-0.000000,9474.636058
1829.526934,459.657299,296.082377,9548.656652
1829.527252,76.609550,222.061783,9548.656652
1829.527569,229.828649,296.082377,9474.636058
1829.527886,153.219100,370.102971,9474.636058
1829.528204,76.609550,-0.000000,9400.615463
1829.528521,306.438199,296.082377,9622.677246
1829.528839,76.609550,296.082377,9622.677246
1829.529156,153.219100,-0.000000,9696.697840
1829.529473,76.609550,-0.000000,9844.739029
1829.529791,306.438199,222.061783,9474.636058
1829.530108,459.657299,-0.000000,9474.636058
1829.530426,383.047749,222.061783,9474.636058
1829.530743,612.876398,74.020594,9400.615463
1829.531060,995.924147,-148.041188,9400.615463
1829.531378,842.705048,-0.000000,9326.594869
1829.531695,536.266849,-0.000000,9548.656652
1829.532013,536.266849,296.082377,9474.636058
1829.532330,766.095498,-0.000000,9548.656652
1829.532647,229.828649,-0.000000,9918.759623
1829.532965,459.657299,-74.020594,9696.697840
1829.533282,612.876398,-0.000000,9474.636058
1829.533600,689.485948,-0.000000,9474.636058
1829.533917,1225.752797,222.061783,9548.656652
1829.534234,536.266849,296.082377,9474.636058
1829.534552,766.095498,148.041188,9252.574275
1829.534869,995.924147,296.082377,9252.574275
1829.535187,1225.752797,296.082377,9474.636058
1829.535504,1225.752797,370.102971,9474.636058
1829.535822,1149.143247,444.123565,9252.574275
1829.536139,1149.143247,518.144159,9252.574275
1829.536456,1149.143247,222.061783,8956.491898
1829.536774,1149.143247,444.123565,9104.533087
1829.537091,1302.362347,518.144159,9178.553681
1829.537409,1225.752797,296.082377,9178.553681
1829.537726,536.266849,74.020594,9104.533087
1829.538043,919.314598,296.082377,9178.553681
1829.538361,842.705048,296.082377,9178.553681
1829.538678,536.266849,518.144159,9400.615463
1829.538996,536.266849,222.061783,9400.615463
1829.539313,229.828649,222.061783,9178.553681
1829.539630,383.047749,296.082377,9326.594869
1829.539948,153.219100,-0.000000,9252.574275
1829.540265,229.828649,222.061783,9400.615463
1829.540583,459.657299,148.041188,9400.615463
1829.540900,842.705048,592.164754,9474.636058
1829.541217,459.657299,148.041188,9474.636058
1829.541535,612.876398,370.102971,9474.636058
1829.541852,612.876398,222.061783,9400.615463
1829.542170,612.876398,444.123565,9326.594869
1829.542487,536.266849,296.082377,9178.553681
1829.542804,766.095498,-0.000000,9252.574275
1829.543122,612.876398,-0.000000,9252.574275
1829.543439,153.219100,-0.000000,9104.533087
1829.543757,383.047749,370.102971,9474.636058
1829.544074,229.828649,370.102971,9548.656652
1829.544391,306.438199,222.061783,9474.636058
1829.544709,76.609550,296.082377,9622.677246
1829.545026,306.438199,370.102971,9548.656652
1829.545344,306.438199,370.102971,9696.697840
1829.545661,306.438199,518.144159,9696.697840
1829.545978,383.047749,296.082377,9622.677246
1829.546296,229.828649,444.123565,9992.780217
1829.546613,383.047749,370.102971,9548.656652
1829.546931,995.924147,444.123565,9622.677246
1829.547248,919.314598,518.144159,9548.656652
1829.547565,1072.533697,296.082377,9622.677246
1829.547883,766.095498,444.123565,9548.656652
1829.548200,1072.533697,148.041188,9474.636058
1829.548518,1225.752797,-0.000000,9474.636058
1829.548835,842.705048,296.082377,9326.594869
1829.549153,1072.533697,-0.000000,9548.656652
1829.549470,1149.143247,-0.000000,9400.615463
1829.549787,1072.533697,-0.000000,9474.636058
1829.550105,842.705048,148.041188,9622.677246
1829.550422,919.314598,-0.000000,9548.656652
1829.550740,459.657299,-0.000000,9474.636058
1829.551057,1072.533697,-0.000000,9474.636058
1829.551374,689.485948,-0.000000,9474.636058
1829.551692,842.705048,-0.000000,9548.656652
1829.552009,919.314598,-0.000000,9474.636058
1829.552327,842.705048,-0.000000,9548.656652
1829.552644,842.705048,-0.000000,9474.636058
1829.552961,689.485948,370.102971,9622.677246
1829.553279,1149.143247,296.082377,9474.636058
1829.553596,995.924147,-0.000000,9474.636058
1829.553914,1302.362347,-0.000000,9474.636058
1829.554231,995.924147,-0.000000,9326.594869
1829.554548,1072.533697,-0.000000,9104.533087
1829.554866,1225.752797,-0.000000,9326.594869
1829.555183,689.485948,-222.061783,9252.574275
1829.555501,612.876398,-74.020594,9178.553681
1829.555818,459.657299,148.041188,9178.553681
1829.556135,306.438199,-0.000000,9252.574275
1829.556453,383.047749,-74.020594,9474.636058
1829.556770,842.705048,-74.020594,9474.636058
1829.557088,0.000000,-0.000000,9474.636058
1829.557405,76.609550,-0.000000,9252.574275
1829.557722,306.438199,-0.000000,9030.512492
1829.558040,153.219100,-148.041188,9400.615463
1829.558357,536.266849,-0.000000,9104.533087
1829.558675,459.657299,-0.000000,9400.615463
1829.558992,612.876398,148.041188,9252.574275
1829.559309,919.314598,148.041188,9326.594869
1829.559627,1149.143247,148.041188,9252.574275
1829.559944,919.314598,148.041188,9178.553681
1829.560262,919.314598,296.082377,9252.574275
1829.560579,689.485948,-0.000000,8882.471304
1829.560896,919.314598,-0.000000,9178.553681
1829.561214,766.095498,-0.000000,9326.594869
1829.561531,306.438199,-222.061783,9400.615463
1829.561849,536.266849,-222.061783,9548.656652
1829.562166,612.876398,-0.000000,9548.656652
1829.562484,995.924147,-74.020594,9474.636058
1829.562801,536.266849,-148.041188,9474.636058
1829.563118,766.095498,-0.000000,9474.636058
1829.563436,1072.533697,296.082377,9474.636058
1829.563753,842.705048,444.123565,9474.636058
1829.564071,995.924147,296.082377,9474.636058
1829.564388,1072.533697,518.144159,9474.636058
1829.564705,919.314598,592.164754,9622.677246
1829.565023,1072.533697,592.164754,9474.636058
1829.565340,1302.362347,592.164754,9400.615463
1829.565658,1302.362347,666.185348,9400.615463
1829.565975,1149.143247,814.226536,9400.615463
1829.566292,1072.533697,740.205942,9474.636058
1829.566610,1455.581446,592.164754,9474.636058
1829.566927,995.924147,518.144159,9474.636058
1829.567245,689.485948,518.144159,9548.656652
1829.567562,919.314598,518.144159,9400.615463
1829.567879,536.266849,666.185348,9622.677246
1829.568197,306.438199,518.144159,9474.636058
1829.568514,229.828649,518.144159,9622.677246
1829.568832,459.657299,666.185348,9474.636058
1829.569149,229.828649,518.144159,9474.636058
1829.569466,689.485948,148.041188,9622.677246
1829.569784,76.609550,518.144159,9622.677246
1829.570101,459.657299,222.061783,9696.697840
1829.570419,612.876398,518.144159,9548.656652
1829.570736,842.705048,740.205942,9770.718434
1829.571053,612.876398,592.164754,9474.636058
1829.571371,842.705048,444.123565,9548.656652
1829.571688,1149.143247,222.061783,9474.636058
1829.572006,1225.752797,74.020594,9474.636058
1829.572323,1378.971896,148.041188,9548.656652
1829.572640,995.924147,-0.000000,9474.636058
1829.572958,689.485948,-0.000000,9622.677246
1829.573275,919.314598,-0.000000,9548.656652
1829.573593,919.314598,-0.000000,9474.636058
1829.573910,842.705048,-74.020594,9474.636058
1829.574227,766.095498,-148.041188,9696.697840
1829.574545,689.485948,-222.061783,9548.656652
1829.574862,612.876398,-222.061783,9474.636058
1829.575180,689.485948,-148.041188,9548.656652
1829.575497,383.047749,-444.123565,9474.636058
1829.575815,536.266849,-0.000000,9326.594869
1829.576132,536.266849,222.061783,9696.697840
1829.576449,919.314598,-0.000000,9548.656652
1829.576767,919.314598,-0.000000,9400.615463
1829.577084,995.924147,-0.000000,9400.615463
1829.577402,919.314598,-0.000000,9178.553681
1829.577719,919.314598,296.082377,9252.574275
1829.578036,995.924147,148.041188,8808.450710
1829.578354,1225.752797,148.041188,9252.574275
1829.578671,1225.752797,-0.000000,9104.533087
1829.578989,766.095498,-0.000000,9252.574275
1829.579306,919.314598,222.061783,8808.450710
1829.579623,766.095498,-0.000000,8956.491898
1829.579941,919.314598,222.061783,9030.512492
1829.580258,919.314598,444.123565,8956.491898
1829.580576,842.705048,296.082377,8956.491898
1829.580893,612.876398,296.082377,9030.512492
1829.581210,459.657299,296.082377,9178.553681
1829.581528,612.876398,296.082377,9326.594869
1829.581845,459.657299,222.061783,9178.553681
1829.582163,536.266849,-0.000000,9104.533087
1829.582480,612.876398,148.041188,9474.636058
1829.582797,689.485948,518.144159,9400.615463
1829.583115,842.705048,370.102971,9326.594869
1829.583432,766.095498,518.144159,9326.594869
1829.583750,766.095498,-0.000000,9326.594869
1829.584067,919.314598,-0.000000,9252.574275
1829.584384,1225.752797,-0.000000,9252.574275
1829.584702,1149.143247,-0.000000,9548.656652
1829.585019,919.314598,296.082377,9474.636058
1829.585337,459.657299,74.020594,9400.615463
1829.585654,612.876398,-0.000000,9474.636058
1829.585971,383.047749,-74.020594,9622.677246
1829.586289,612.876398,-0.000000,9622.677246
1829.586606,459.657299,-0.000000,9548.656652
1829.586924,536.266849,-74.020594,9844.739029
1829.587241,536.266849,-0.000000,9622.677246
1829.587558,612.876398,296.082377,9918.759623
1829.587876,536.266849,-0.000000,9992.780217
1829.588193,689.485948,444.123565,9770.718434
1829.588511,612.876398,444.123565,9474.636058
1829.588828,919.314598,592.164754,9622.677246
1829.589146,1225.752797,518.144159,9474.636058
1829.589463,1072.533697,666.185348,9474.636058
1829.589780,1149.143247,814.226536,9252.574275
1829.590098,1149.143247,518.144159,9252.574275
1829.590415,1302.362347,592.164754,9178.553681
1829.590733,1378.971896,518.144159,9400.615463
1829.591050,1149.143247,370.102971,9474.636058
1829.591367,919.314598,370.102971,9474.636058
1829.591685,612.876398,518.144159,9474.636058
1829.592002,689.485948,518.144159,9474.636058
1829.592320,842.705048,592.164754,9548.656652
1829.592637,383.047749,370.102971,9622.677246
1829.592954,383.047749,370.102971,9548.656652
1829.593272,536.266849,296.082377,9696.697840
1829.593589,842.705048,222.061783,9918.759623
1829.593907,536.266849,666.185348,9696.697840
1829.594224,459.657299,370.102971,9548.656652
1829.594541,995.924147,444.123565,9696.697840
1829.594859,919.314598,518.144159,9622.677246
1829.595176,995.924147,222.061783,9400.615463
1829.595494,1072.533697,518.144159,9252.574275
1829.595811,919.314598,296.082377,9252.574275
1829.596128,995.924147,-0.000000,9326.594869
1829.596446,1072.533697,-148.041188,9252.574275
1829.596763,766.095498,-0.000000,9400.615463
1829.597081,842.705048,-0.000000,9474.636058
1829.597398,689.485948,-74.020594,9622.677246
1829.597715,766.095498,-370.102971,9622.677246
1829.598033,1072.533697,-296.082377,9474.636058
1829.598350,689.485948,-74.020594,9474.636058
1829.598668,153.219100,-222.061783,9400.615463
1829.598985,536.266849,-148.041188,9400.615463
1829.599302,612.876398,-148.041188,9474.636058
1829.599620,459.657299,-0.000000,9474.636058
1829.599937,919.314598,-0.000000,9548.656652
1829.600255,766.095498,-0.000000,9326.594869
1829.600572,995.924147,-0.000000,9252.574275
1829.600889,1149.143247,74.020594,9178.553681
1829.601207,1149.143247,-222.061783,8882.471304
1829.601524,995.924147,-0.000000,8660.409521
1829.601842,1225.752797,148.041188,8956.491898
1829.602159,919.314598,148.041188,8808.450710
1829.602477,689.485948,-0.000000,8956.491898
1829.602794,536.266849,-0.000000,8882.471304
1829.603111,689.485948,-74.020594,9030.512492
1829.603429,459.657299,148.041188,8956.491898
1829.603746,459.657299,222.061783,9104.533087
1829.604064,383.047749,-74.020594,9474.636058
1829.604381,306.438199,-74.020594,9178.553681
1829.604698,306.438199,-0.000000,9178.553681
1829.605016,306.438199,-0.000000,9400.615463
1829.605333,612.876398,296.082377,9400.615463
1829.605651,689.485948,222.061783,9400.615463
1829.605968,842.705048,74.020594,9474.636058
1829.606285,842.705048,518.144159,9474.636058
1829.606603,842.705048,740.205942,9178.553681
1829.606920,1149.143247,666.185348,9104.533087
1829.607238,842.705048,444.123565,9030.512492
1829.607555,536.266849,592.164754,9400.615463
1829.607872,842.705048,518.144159,9400.615463
1829.608190,842.705048,-0.000000,9400.615463
1829.608507,689.485948,222.061783,9474.636058
1829.608825,459.657299,370.102971,9474.636058
1829.609142,536.266849,370.102971,9400.615463
1829.609459,383.047749,370.102971,9696.697840
1829.609777,612.876398,296.082377,9548.656652
1829.610094,459.657299,444.123565,9696.697840
1829.610412,153.219100,222.061783,9548.656652
1829.610729,459.657299,222.061783,9918.759623
1829.611046,919.314598,296.082377,9696.697840
1829.611364,306.438199,444.123565,9918.759623
1829.611681,766.095498,666.185348,9844.739029
1829.611998,842.705048,814.226536,9696.697840
1829.612316,842.705048,666.185348,9548.656652
1829.612633,995.924147,814.226536,9326.594869
1829.612951,919.314598,666.185348,9474.636058
1829.613268,842.705048,518.144159,9474.636058
1829.613585,842.705048,444.123565,9474.636058
1829.613903,536.266849,-0.000000,9474.636058
1829.614220,536.266849,296.082377,9770.718434
1829.614538,383.047749,222.061783,9918.759623
1829.614855,766.095498,296.082377,9770.718434
1829.615172,612.876398,148.041188,9770.718434
1829.615490,306.438199,370.102971,9844.739029
1829.615807,536.266849,296.082377,9696.697840
1829.616125,689.485948,296.082377,9474.636058
1829.616442,612.876398,296.082377,9474.636058
1829.616759,459.657299,222.061783,9622.677246
1829.617077,1072.533697,518.144159,9696.697840
1829.617394,995.924147,296.082377,9622.677246
1829.617712,995.924147,370.102971,9770.718434
1829.618029,1072.533697,296.082377,9326.594869
1829.618346,842.705048,518.144159,9400.615463
1829.618664,919.314598,518.144159,9474.636058
1829.618981,1072.533697,296.082377,9178.553681
1829.619298,1072.533697,296.082377,9178.553681
1829.619616,842.705048,-0.000000,9178.553681
1829.619933,1455.581446,-0.000000,9548.656652
1829.620251,612.876398,-0.000000,9326.594869
1829.620568,842.705048,296.082377,9252.574275
1829.620885,459.657299,-74.020594,9326.594869
1829.621203,383.047749,-74.020594,9474.636058
1829.621520,459.657299,-148.041188,9474.636058
1829.621838,383.047749,-148.041188,9400.615463
1829.622155,459.657299,-222.061783,9252.574275
1829.622472,459.657299,-74.020594,9252.574275
1829.622790,229.828649,-222.061783,9400.615463
1829.623107,229.828649,-74.020594,9252.574275
1829.623425,689.485948,-0.000000,8956.491898
1829.623742,689.485948,-0.000000,9030.512492
1829.624059,536.266849,-74.020594,9104.533087
1829.624377,1225.752797,-0.000000,9178.553681
1829.624694,842.705048,-148.041188,9178.553681
1829.625011,766.095498,-222.061783,9178.553681
1829.625329,1072.533697,-148.041188,8808.450710
1829.625646,1072.533697,-0.000000,9030.512492
1829.625964,1149.143247,-74.020594,8808.450710
1829.626281,995.924147,-74.020594,9326.594869
1829.626598,1072.533697,-0.000000,9400.615463
1829.626916,766.095498,-222.061783,9474.636058
1829.627233,919.314598,-148.041188,9474.636058
1829.627551,842.705048,-370.102971,9696.697840
1829.627868,842.705048,-74.020594,9474.636058
1829.628185,1072.533697,296.082377,9474.636058
1829.628503,995.924147,148.041188,9474.636058
1829.628820,1302.362347,222.061783,9252.574275
1829.629138,1532.190996,-0.000000,9474.636058
1829.629455,1378.971896,148.041188,9326.594869
1829.629772,995.924147,-0.000000,9474.636058
1829.630090,1072.533697,-0.000000,9400.615463
1829.630407,1149.143247,296.082377,9474.636058
1829.630724,1225.752797,148.041188,9326.594869
1829.631042,1149.143247,-0.000000,9178.553681
1829.631359,919.314598,-0.000000,9474.636058
1829.631677,1072.533697,-0.000000,9326.594869
1829.631994,995.924147,-74.020594,9474.636058
1829.632311,919.314598,-0.000000,9474.636058
1829.632629,536.266849,-0.000000,9474.636058
1829.632946,383.047749,518.144159,9918.759623
1829.633264,383.047749,296.082377,9548.656652
1829.633581,459.657299,148.041188,9770.718434
1829.633898,459.657299,222.061783,9622.677246
1829.634216,306.438199,-0.000000,9548.656652
1829.634533,612.876398,444.123565,9548.656652
1829.634851,689.485948,148.041188,9622.677246
1829.635168,612.876398,222.061783,9548.656652
1829.635485,689.485948,370.102971,9400.615463
1829.635803,1302.362347,740.205942,9474.636058
1829.636120,995.924147,444.123565,9474.636058
1829.636437,919.314598,370.102971,9326.594869
1829.636755,842.705048,370.102971,9622.677246
1829.637072,919.314598,370.102971,9400.615463
1829.637390,919.314598,296.082377,9474.636058
1829.637707,689.485948,222.061783,9474.636058
1829.638024,766.095498,222.061783,9548.656652
1829.638342,229.828649,296.082377,9474.636058
1829.638659,612.876398,370.102971,9622.677246
1829.638977,459.657299,666.185348,9252.574275
1829.639294,612.876398,370.102971,9252.574275
1829.639611,383.047749,296.082377,9474.636058
1829.639929,153.219100,296.082377,9474.636058
1829.640246,306.438199,370.102971,9548.656652
1829.640564,0.000000,148.041188,9474.636058
1829.640881,229.828649,370.102971,9622.677246
1829.641198,229.828649,370.102971,9548.656652
1829.641516,0.000000,518.144159,9474.636058
1829.641833,459.657299,370.102971,9474.636058
1829.642150,689.485948,518.144159,9104.533087
1829.642468,766.095498,370.102971,9400.615463
1829.642785,766.095498,444.123565,9104.533087
1829.643103,766.095498,518.144159,9178.553681
1829.643420,536.266849,296.082377,9326.594869
1829.643737,612.876398,518.144159,9326.594869
1829.644055,689.485948,148.041188,9474.636058
1829.644372,459.657299,222.061783,9400.615463
1829.644690,459.657299,222.061783,9474.636058
1829.645007,689.485948,148.041188,9400.615463
1829.645324,536.266849,-0.000000,9548.656652
1829.645642,919.314598,296.082377,9474.636058
1829.645959,766.095498,-0.000000,9400.615463
1829.646277,612.876398,296.082377,9474.636058
1829.646594,612.876398,148.041188,9400.615463
1829.646911,919.314598,222.061783,9474.636058
1829.647229,766.095498,148.041188,9548.656652
1829.647546,766.095498,370.102971,9548.656652
1829.647863,1072.533697,296.082377,9474.636058
1829.648181,919.314598,518.144159,9474.636058
1829.648498,1225.752797,592.164754,9252.574275
1829.648816,1225.752797,518.144159,9326.594869
1829.649133,1149.143247,444.123565,9400.615463
1829.649450,1225.752797,370.102971,9252.574275
1829.649768,1072.533697,148.041188,9326.594869
1829.650085,919.314598,-0.000000,9400.615463
1829.650403,766.095498,-0.000000,9548.656652
1829.650720,842.705048,-0.000000,9548.656652
1829.651037,689.485948,222.061783,9548.656652
1829.651355,612.876398,296.082377,9696.697840
1829.651672,919.314598,-296.082377,9474.636058
1829.651990,995.924147,296.082377,9770.718434
1829.652307,842.705048,-0.000000,9548.656652
1829.652624,1302.362347,-0.000000,9548.656652
1829.652942,1225.752797,222.061783,9548.656652
1829.653259,995.924147,148.041188,9844.739029
1829.653576,1378.971896,370.102971,9474.636058
1829.653894,1378.971896,222.061783,9400.615463
1829.654211,1072.533697,148.041188,9326.594869
1829.654529,919.314598,148.041188,9326.594869
1829.654846,766.095498,-296.082377,9400.615463
1829.655163,766.095498,-148.041188,9400.615463
1829.655481,919.314598,-0.000000,9326.594869
1829.655798,766.095498,-0.000000,9474.636058
1829.656116,536.266849,-0.000000,9474.636058
1829.656433,383.047749,-74.020594,9622.677246
1829.656750,383.047749,-0.000000,9548.656652
1829.657068,229.828649,-0.000000,9770.718434
1829.657385,383.047749,-0.000000,9696.697840
1829.657703,1149.143247,-0.000000,9474.636058
1829.658020,612.876398,-148.041188,9770.718434
1829.658337,766.095498,370.102971,9400.615463
1829.658655,612.876398,296.082377,9252.574275
1829.658972,842.705048,592.164754,9178.553681
1829.659289,766.095498,592.164754,9252.574275
1829.659607,919.314598,370.102971,9252.574275
1829.659924,919.314598,370.102971,9178.553681
1829.660242,689.485948,222.061783,9030.512492
1829.660559,612.876398,-0.000000,9030.512492
1829.660876,536.266849,-0.000000,9104.533087
1829.661194,536.266849,-0.000000,9178.553681
1829.661511,766.095498,-0.000000,9030.512492
1829.661829,383.047749,148.041188,9400.615463
1829.662146,459.657299,148.041188,9400.615463
1829.662463,459.657299,-0.000000,9400.615463
1829.662781,689.485948,148.041188,9474.636058
1829.663098,689.485948,296.082377,9474.636058
1829.663416,536.266849,222.061783,9326.594869
1829.663733,766.095498,222.061783,9326.594869
1829.664050,766.095498,444.123565,9474.636058
1829.664368,919.314598,296.082377,9400.615463
1829.664685,995.924147,518.144159,9474.636058
1829.665002,1378.971896,666.185348,9326.594869
1829.665320,1455.581446,592.164754,9400.615463
1829.665637,1608.800546,444.123565,9030.512492
1829.665955,1685.410096,518.144159,9474.636058
1829.666272,1225.752797,518.144159,9178.553681
1829.666589,1302.362347,296.082377,9104.533087
1829.666907,1608.800546,222.061783,9474.636058
1829.667224,766.095498,296.082377,9400.615463
1829.667542,689.485948,-0.000000,9696.697840
1829.667859,689.485948,-0.000000,9474.636058
1829.668176,459.657299,-0.000000,9770.718434
1829.668494,229.828649,-222.061783,9992.780217
1829.668811,459.657299,148.041188,9992.780217
1829.669129,229.828649,148.041188,10066.800811
1829.669446,383.047749,222.061783,9770.718434
1829.669763,612.876398,148.041188,9770.718434
1829.670081,536.266849,370.102971,9696.697840
1829.670398,459.657299,148.041188,9770.718434
1829.670716,612.876398,444.123565,9622.677246
1829.671033,306.438199,296.082377,9474.636058
1829.671350,536.266849,296.082377,9474.636058
1829.671668,995.924147,-0.000000,9474.636058
1829.671985,842.705048,148.041188,9326.594869
1829.672302,689.485948,-0.000000,9548.656652
1829.672620,1072.533697,148.041188,9474.636058
1829.672937,536.266849,148.041188,9252.574275
1829.673255,919.314598,-0.000000,9400.615463
1829.673572,995.924147,-0.000000,9326.594869
1829.673889,919.314598,-0.000000,9696.697840
1829.674207,842.705048,-0.000000,9474.636058
1829.674524,842.705048,-0.000000,9696.697840
1829.674842,995.924147,222.061783,9400.615463
1829.675159,1072.533697,148.041188,9548.656652
1829.675476,919.314598,222.061783,9474.636058
1829.675794,1072.533697,-0.000000,9326.594869
1829.676111,1149.143247,222.061783,9474.636058
1829.676429,1532.190996,296.082377,9400.615463
1829.676746,1532.190996,370.102971,9326.594869
1829.677063,1225.752797,222.061783,9178.553681
1829.677381,1608.800546,148.041188,9252.574275
1829.677698,1149.143247,370.102971,9326.594869
1829.678015,1378.971896,296.082377,9252.574275
1829.678333,1302.362347,-0.000000,9104.533087
1829.678650,919.314598,-0.000000,9104.533087
1829.678968,919.314598,-0.000000,9252.574275
1829.679285,459.657299,222.061783,9400.615463
1829.679602,612.876398,-0.000000,9400.615463
1829.679920,459.657299,-0.000000,9400.615463
1829.680237,306.438199,-74.020594,9104.533087
1829.680555,76.609550,-296.082377,9252.574275
1829.680872,536.266849,-0.000000,9252.574275
1829.681189,0.000000,-0.000000,9326.594869
1829.681507,76.609550,148.041188,9474.636058
1829.681824,229.828649,-0.000000,9178.553681
1829.682142,0.000000,296.082377,9622.677246
1829.682459,0.000000,296.082377,9400.615463
1829.682776,0.000000,444.123565,9400.615463
1829.683094,383.047749,592.164754,9474.636058
1829.683411,689.485948,296.082377,9400.615463
1829.683728,229.828649,148.041188,8956.491898
1829.684046,459.657299,370.102971,9178.553681
1829.684363,459.657299,666.185348,9252.574275
1829.684681,459.657299,444.123565,9326.594869
1829.684998,536.266849,-0.000000,9474.636058
1829.685315,459.657299,518.144159,8956.491898
1829.685633,383.047749,518.144159,9474.636058
1829.685950,536.266849,518.144159,9326.594869
1829.686268,612.876398,592.164754,9400.615463
1829.686585,612.876398,296.082377,9474.636058
1829.686902,919.314598,666.185348,9696.697840
1829.687220,383.047749,222.061783,9474.636058
1829.687537,459.657299,444.123565,9474.636058
1829.687855,689.485948,444.123565,9622.677246
1829.688172,1225.752797,-148.041188,9622.677246
1829.688489,919.314598,370.102971,9696.697840
1829.688807,995.924147,666.185348,9622.677246
1829.689124,1378.971896,518.144159,9548.656652
1829.689441,1225.752797,518.144159,9474.636058
1829.689759,766.095498,666.185348,9622.677246
1829.690076,919.314598,222.061783,9474.636058
1829.690394,1685.410096,370.102971,9548.656652
1829.690711,1149.143247,-0.000000,9474.636058
1829.691028,995.924147,370.102971,9474.636058
1829.691346,1149.143247,296.082377,9622.677246
1829.691663,766.095498,222.061783,9548.656652
1829.691981,689.485948,222.061783,9918.759623
1829.692298,612.876398,-0.000000,9918.759623
1829.692615,612.876398,148.041188,9474.636058
1829.692933,612.876398,148.041188,9770.718434
1829.693250,689.485948,-0.000000,9696.697840
1829.693568,766.095498,74.020594,9548.656652
1829.693885,689.485948,-0.000000,9622.677246
1829.694202,919.314598,-0.000000,9474.636058
1829.694520,842.705048,370.102971,9474.636058
1829.694837,1149.143247,222.061783,9474.636058
1829.695154,766.095498,148.041188,9474.636058
1829.695472,842.705048,-0.000000,9474.636058
1829.695789,995.924147,-0.000000,9474.636058
1829.696107,689.485948,-0.000000,9474.636058
1829.696424,612.876398,-0.000000,9326.594869
1829.696741,842.705048,-0.000000,9178.553681
1829.697059,459.657299,-0.000000,9400.615463
1829.697376,536.266849,-0.000000,9400.615463
1829.697694,383.047749,-0.000000,9400.615463
1829.698011,612.876398,-0.000000,9326.594869
1829.698328,459.657299,-0.000000,9400.615463
1829.698646,919.314598,-74.020594,9474.636058
1829.698963,306.438199,-0.000000,9326.594869
1829.699281,612.876398,222.061783,9326.594869
1829.699598,612.876398,-0.000000,9104.533087
1829.699915,766.095498,222.061783,9474.636058
1829.700233,1072.533697,-148.041188,9326.594869
1829.700550,995.924147,296.082377,9252.574275
1829.700867,1302.362347,444.123565,9326.594869
1829.701185,1225.752797,444.123565,9030.512492
1829.701502,1302.362347,444.123565,8808.450710
1829.701820,1072.533697,296.082377,8734.430116
1829.702137,1302.362347,148.041188,8808.450710
1829.702454,1455.581446,296.082377,8660.409521
1829.702772,1225.752797,-0.000000,8956.491898
1829.703089,689.485948,148.041188,9104.533087
1829.703407,689.485948,-148.041188,9252.574275
1829.703724,383.047749,-74.020594,9326.594869
1829.704041,0.000000,-222.061783,9326.594869
1829.704359,76.609550,-148.041188,9474.636058
1829.704676,0.000000,-148.041188,9622.677246
1829.704994,-76.609550,-148.041188,9548.656652
1829.705311,76.609550,-0.000000,9696.697840
1829.705628,76.609550,-0.000000,9548.656652
1829.705946,229.828649,296.082377,9474.636058
1829.706263,536.266849,296.082377,9474.636058
1829.706580,229.828649,518.144159,9400.615463
1829.706898,689.485948,222.061783,9326.594869
1829.707215,383.047749,222.061783,9326.594869
1829.707533,689.485948,370.102971,9400.615463
1829.707850,536.266849,444.123565,9474.636058
1829.708167,842.705048,370.102971,9178.553681
1829.708485,229.828649,148.041188,9474.636058
1829.708802,229.828649,296.082377,9548.656652
1829.709119,0.000000,148.041188,9548.656652
1829.709437,306.438199,592.164754,9474.636058
1829.709754,383.047749,592.164754,9622.677246
1829.710071,459.657299,592.164754,9622.677246
1829.710389,842.705048,592.164754,9770.718434
1829.710706,689.485948,444.123565,9400.615463
1829.711024,766.095498,888.247130,9918.759623
1829.711341,1149.143247,962.267725,9770.718434
1829.711658,1225.752797,888.247130,9622.677246
1829.711976,1608.800546,1110.308913,9844.739029
1829.712293,2145.067394,814.226536,9622.677246
1829.712610,1762.019645,1184.329507,9622.677246
1829.712928,1838.629195,740.205942,9326.594869
1829.713245,1838.629195,666.185348,9400.615463
1829.713562,1685.410096,518.144159,9326.594869
1829.713880,1685.410096,222.061783,9474.636058
1829.714197,1302.362347,-0.000000,9474.636058
1829.714514,995.924147,222.061783,9696.697840
1829.714832,995.924147,148.041188,9548.656652
1829.715149,766.095498,222.061783,9622.677246
1829.715467,689.485948,-296.082377,9918.759623
1829.715784,612.876398,-148.041188,9696.697840
1829.716101,459.657299,-148.041188,9770.718434
1829.716419,536.266849,-148.041188,9770.718434
1829.716736,229.828649,-222.061783,9696.697840
1829.717053,919.314598,-0.000000,9696.697840
1829.717371,612.876398,-148.041188,9696.697840
1829.717688,689.485948,-148.041188,9474.636058
1829.718005,689.485948,-74.020594,9622.677246
1829.718323,766.095498,148.041188,9400.615463
1829.718640,1072.533697,-0.000000,9474.636058
1829.718958,995.924147,148.041188,9178.553681
1829.719275,995.924147,-0.000000,9030.512492
1829.719592,766.095498,-0.000000,9104.533087
1829.719910,1149.143247,-592.164754,8808.450710
1829.720227,689.485948,-222.061783,9178.553681
1829.720544,766.095498,-148.041188,9252.574275
1829.720862,612.876398,-296.082377,9104.533087
1829.721179,306.438199,-74.020594,9178.553681
1829.721496,612.876398,-0.000000,9548.656652
1829.721814,229.828649,-444.123565,9178.553681
1829.722131,459.657299,-222.061783,9326.594869
1829.722448,612.876398,-0.000000,9104.533087
1829.722766,536.266849,-74.020594,9178.553681
1829.723083,995.924147,-74.020594,9326.594869
1829.723401,842.705048,-74.020594,9178.553681
1829.723718,842.705048,-0.000000,9104.533087
1829.724035,689.485948,-0.000000,9104.533087
1829.724353,766.095498,296.082377,8734.430116
1829.724670,1685.410096,-0.000000,8734.430116
1829.724987,995.924147,444.123565,9030.512492
1829.725305,766.095498,-0.000000,8512.368333
1829.725622,919.314598,-0.000000,8808.450710
1829.725939,995.924147,-74.020594,8882.471304
1829.726257,383.047749,-148.041188,8808.450710
1829.726574,306.438199,-74.020594,9178.553681
1829.726891,383.047749,-0.000000,9104.533087
1829.727209,153.219100,-0.000000,9326.594869
1829.727526,0.000000,222.061783,9548.656652
1829.727844,229.828649,148.041188,9474.636058
1829.728161,536.266849,518.144159,9474.636058
1829.728478,459.657299,444.123565,9474.636058
1829.728796,536.266849,296.082377,9548.656652
1829.729113,459.657299,148.041188,9548.656652
1829.729430,689.485948,518.144159,9474.636058
1829.729748,1149.143247,740.205942,9548.656652
1829.730065,1149.143247,666.185348,9474.636058
1829.730382,1072.533697,740.205942,9252.574275
1829.730700,766.095498,888.247130,9474.636058
1829.731017,1302.362347,444.123565,9474.636058
1829.731335,1149.143247,592.164754,9474.636058
1829.731652,995.924147,370.102971,9696.697840
1829.731969,766.095498,444.123565,9770.718434
1829.732287,1072.533697,370.102971,9770.718434
1829.732604,842.705048,518.144159,9918.759623
1829.732921,612.876398,666.185348,9992.780217
1829.733239,842.705048,814.226536,9844.739029
1829.733556,842.705048,814.226536,9992.780217
1829.733873,1072.533697,518.144159,9696.697840
1829.734191,1149.143247,740.205942,9770.718434
1829.734508,766.095498,592.164754,9622.677246
1829.734825,842.705048,814.226536,9918.759623
1829.735143,995.924147,740.205942,9770.718434
1829.735460,689.485948,814.226536,9844.739029
1829.735778,995.924147,740.205942,9770.718434
1829.736095,995.924147,740.205942,9622.677246
1829.736412,995.924147,592.164754,9622.677246
1829.736730,689.485948,518.144159,9548.656652
1829.737047,919.314598,666.185348,9474.636058
1829.737364,459.657299,370.102971,9400.615463
1829.737682,689.485948,296.082377,9474.636058
1829.737999,459.657299,148.041188,9622.677246
1829.738316,153.219100,-74.020594,9770.718434
1829.738634,306.438199,-0.000000,9474.636058
1829.738951,229.828649,296.082377,9622.677246
1829.739268,459.657299,-0.000000,9474.636058
1829.739586,459.657299,148.041188,9474.636058
1829.739903,536.266849,-0.000000,9474.636058
1829.740221,689.485948,-0.000000,9252.574275
1829.740538,766.095498,-0.000000,9252.574275
1829.740855,689.485948,148.041188,9178.553681
1829.741173,919.314598,74.020594,9178.553681
1829.741490,842.705048,296.082377,9252.574275
1829.741807,919.314598,222.061783,9030.512492
1829.742125,1149.143247,222.061783,8956.491898
1829.742442,1149.143247,296.082377,8882.471304
1829.742759,1685.410096,-444.123565,9104.533087
1829.743077,1302.362347,-0.000000,9104.533087
1829.743394,1225.752797,-0.000000,8660.409521
1829.743712,995.924147,-222.061783,8956.491898
1829.744029,766.095498,148.041188,9252.574275
1829.744346,612.876398,-148.041188,9178.553681
1829.744664,612.876398,222.061783,9326.594869
1829.744981,459.657299,-0.000000,9252.574275
1829.745298,306.438199,-0.000000,9178.553681
1829.745616,612.876398,-222.061783,9252.574275
1829.745933,612.876398,-0.000000,9400.615463
1829.746250,612.876398,-74.020594,9030.512492
1829.746568,689.485948,-0.000000,9326.594869
1829.746885,842.705048,-222.061783,9326.594869
1829.747202,1149.143247,-148.041188,9400.615463
1829.747520,919.314598,148.041188,9622.677246
1829.747837,842.705048,-0.000000,9326.594869
1829.748155,995.924147,-0.000000,9474.636058
1829.748472,919.314598,-0.000000,9400.615463
1829.748789,1225.752797,-0.000000,9178.553681
1829.749107,995.924147,-222.061783,9326.594869
1829.749424,1072.533697,-74.020594,9474.636058
1829.749741,919.314598,-148.041188,9474.636058
1829.750059,995.924147,-370.102971,9400.615463
1829.750376,536.266849,-0.000000,9770.718434
1829.750693,766.095498,-0.000000,9622.677246
1829.751011,689.485948,-74.020594,9474.636058
1829.751328,612.876398,-74.020594,9622.677246
1829.751645,919.314598,-0.000000,9548.656652
1829.751963,76.609550,-0.000000,9474.636058
1829.752280,919.314598,-0.000000,9622.677246
1829.752598,1225.752797,296.082377,9548.656652
1829.752915,995.924147,370.102971,9474.636058
1829.753232,919.314598,222.061783,9474.636058
1829.753550,1378.971896,518.144159,9474.636058
1829.753867,1225.752797,592.164754,9400.615463
1829.754184,1149.143247,740.205942,9622.677246
1829.754502,1225.752797,740.205942,9474.636058
1829.754819,1072.533697,518.144159,9400.615463
1829.755136,919.314598,666.185348,9696.697840
1829.755454,1072.533697,740.205942,9252.574275
1829.755771,919.314598,888.247130,9548.656652
1829.756089,842.705048,740.205942,9400.615463
1829.756406,766.095498,-0.000000,9178.553681
1829.756723,919.314598,518.144159,9326.594869
1829.757041,689.485948,370.102971,9400.615463
1829.757358,459.657299,814.226536,9548.656652
1829.757675,383.047749,666.185348,9326.594869
1829.757993,306.438199,592.164754,9474.636058
1829.758310,306.438199,592.164754,9474.636058
1829.758627,76.609550,592.164754,9474.636058
1829.758945,383.047749,666.185348,9474.636058
1829.759262,76.609550,740.205942,9474.636058
1829.759579,0.000000,444.123565,9474.636058
1829.759897,459.657299,962.267725,9696.697840
1829.760214,0.000000,518.144159,9474.636058
1829.760532,76.609550,222.061783,9252.574275
1829.760849,229.828649,444.123565,9178.553681
1829.761166,0.000000,444.123565,9326.594869
1829.761484,0.000000,444.123565,9474.636058
1829.761801,153.219100,518.144159,9474.636058
1829.762118,76.609550,444.123565,9474.636058
1829.762436,306.438199,444.123565,9696.697840
1829.762753,612.876398,444.123565,9548.656652
1829.763070,612.876398,-0.000000,9252.574275
1829.763388,383.047749,296.082377,9622.677246
1829.763705,459.657299,222.061783,9548.656652
1829.764022,459.657299,518.144159,9474.636058
1829.764340,689.485948,296.082377,9400.615463
1829.764657,919.314598,-0.000000,9474.636058
1829.764975,766.095498,-0.000000,9474.636058
1829.765292,919.314598,148.041188,9548.656652
1829.765609,1378.971896,222.061783,9474.636058
1829.765927,1149.143247,-0.000000,9474.636058
1829.766244,1302.362347,148.041188,9474.636058
1829.766561,1685.410096,74.020594,9178.553681
1829.766879,1532.190996,518.144159,9104.533087
1829.767196,1455.581446,148.041188,9104.533087
1829.767513,1685.410096,-0.000000,9178.553681
1829.767831,1302.362347,-0.000000,9252.574275
1829.768148,1378.971896,222.061783,9252.574275
1829.768466,1149.143247,-0.000000,9474.636058
1829.768783,1225.752797,-0.000000,9474.636058
1829.769100,1378.971896,-222.061783,9400.615463
1829.769418,536.266849,-0.000000,9474.636058
1829.769735,1072.533697,-74.020594,9696.697840
1829.770052,1072.533697,-74.020594,9474.636058
1829.770370,1072.533697,-0.000000,9400.615463
