#time,accel_x,accel_y,accel_z
1932.560869,2911.162892,2516.700203,12509.480420
1932.561186,2681.334243,1554.432478,12953.603985
1932.561503,2145.067394,1036.288319,13101.645173
1932.561821,1072.533697,888.247130,13619.789333
1932.562138,0.000000,1554.432478,14359.995275
1932.562455,-766.095498,2072.576638,14211.954086
1932.562772,-1149.143247,2812.782580,14285.974681
1932.563089,-536.266849,2442.679609,13767.830521
1932.563406,-383.047749,1776.494261,12879.583391
1932.563723,612.876398,1110.308913,11843.295072
1932.564040,1378.971896,74.020594,10955.047942
1932.564357,1991.848295,-592.164754,10658.965565
1932.564674,1991.848295,-888.247130,10214.842000
1932.564991,995.924147,-814.226536,10140.821405
1932.565308,153.219100,-0.000000,10140.821405
1932.565626,-1072.533697,222.061783,9918.759623
1932.565943,-1915.238745,666.185348,9770.718434
1932.566260,-2374.896044,666.185348,9844.739029
1932.566577,-2374.896044,-0.000000,9622.677246
1932.566894,-2528.115143,-962.267725,9326.594869
1932.567211,-1915.238745,-1702.473667,8956.491898
1932.567528,-1072.533697,-1924.535449,8290.306550
1932.567845,-612.876398,-2146.597232,8142.265362
1932.568162,-153.219100,-1628.453072,7476.080014
1932.568479,-459.657299,-666.185348,7624.121203
1932.568796,-919.314598,-0.000000,7179.997637
1932.569113,-995.924147,296.082377,7105.977043
1932.569431,-1225.752797,592.164754,6661.853478
1932.569748,-842.705048,222.061783,6143.709319
1932.570065,-459.657299,-74.020594,5995.668130
1932.570382,306.438199,-962.267725,5847.626942
1932.570699,1685.410096,-1924.535449,5181.441594
1932.571016,1915.238745,-2220.617826,5329.482782
1932.571333,1838.629195,-2072.576638,5329.482782
1932.571650,1532.190996,-1850.514855,5551.544565
1932.571967,229.828649,-1628.453072,5921.647536
1932.572284,-766.095498,-1554.432478,6735.874072
1932.572601,-2221.676944,-1702.473667,7254.018232
1932.572918,-2681.334243,-1480.411884,7772.162391
1932.573236,-3524.039291,-1702.473667,7846.182985
1932.573553,-3600.648841,-1998.556043,8364.327145
1932.573870,-3294.210641,-2368.659014,8364.327145
1932.574187,-3907.087040,-2368.659014,8438.347739
1932.574504,-3677.258390,-1702.473667,8660.409521
1932.574821,-3753.867940,-814.226536,9104.533087
1932.575138,-3983.696590,518.144159,8734.430116
1932.575455,-3753.867940,1776.494261,8882.471304
1932.575772,-3753.867940,2590.720797,9030.512492
1932.576089,-3983.696590,3256.906145,9178.553681
1932.576406,-4136.915689,3701.029710,9178.553681
1932.576723,-4290.134789,3997.112087,9030.512492
1932.577041,-3983.696590,4071.132681,9178.553681
1932.577358,-3064.381992,4441.235652,8882.471304
1932.577675,-2451.505594,5033.400406,8290.306550
1932.577992,-1225.752797,5699.585753,8142.265362
1932.578309,-919.314598,6661.853478,8142.265362
1932.578626,-842.705048,7105.977043,7624.121203
1932.578943,-383.047749,6883.915261,8956.491898
1932.579260,-536.266849,7031.956449,9474.636058
1932.579577,-306.438199,5995.668130,9918.759623
1932.579894,76.609550,6883.915261,10732.986159
1932.580211,842.705048,7031.956449,10807.006753
1932.580528,1762.019645,7994.224174,9178.553681
1932.580846,2451.505594,8290.306550,8956.491898
1932.581163,3064.381992,8364.327145,8512.368333
1932.581480,2757.943793,7920.203579,7920.203579
1932.581797,1915.238745,7550.100608,7402.059420
1932.582114,229.828649,6883.915261,7624.121203
1932.582431,-1532.190996,5699.585753,9178.553681
1932.582748,-4749.792088,4441.235652,10288.862594
1932.583065,-7048.078582,3849.070898,11843.295072
1932.583382,-9499.584175,3552.988522,13027.624579
1932.583699,-10265.679673,3849.070898,14137.933492
1932.584016,-10725.336972,3923.091493,13841.851115
1932.584333,-10265.679673,4293.194464,14582.057057
1932.584651,-9499.584175,3997.112087,14730.098246
1932.584968,-8427.050478,4441.235652,13767.830521
1932.585285,-7354.516781,4737.318029,13249.686362
1932.585602,-6205.373534,5033.400406,13101.645173
1932.585919,-5362.668486,5329.482782,13027.624579
1932.586236,-4749.792088,6217.729913,12509.480420
1932.586553,-3524.039291,7105.977043,11695.253884
1932.586870,-2451.505594,7550.100608,11251.130318
1932.587187,-1302.362347,7031.956449,11177.109724
1932.587504,-153.219100,7031.956449,10807.006753
1932.587821,459.657299,6217.729913,9918.759623
1932.588138,1532.190996,5995.668130,9474.636058
1932.588456,2757.943793,5329.482782,8438.347739
1932.588773,2298.286494,4219.173869,8512.368333
1932.589090,1915.238745,3701.029710,9474.636058
1932.589407,689.485948,3182.885551,9696.697840
1932.589724,0.000000,2960.823768,10510.924376
1932.590041,-612.876398,2738.761985,11251.130318
1932.590358,-766.095498,2886.803174,11103.089130
1932.590675,-842.705048,2590.720797,10362.883188
1932.590993,-919.314598,2886.803174,9178.553681
1932.591310,-842.705048,2368.659014,8586.388927
1932.591628,0.000000,2368.659014,8290.306550
1932.591945,536.266849,1628.453072,8586.388927
1932.592262,689.485948,740.205942,9474.636058
1932.592580,842.705048,370.102971,10066.800811
1932.592897,383.047749,-148.041188,10881.027347
1932.593214,153.219100,-1332.370696,12361.439231
1932.593532,689.485948,-1110.308913,11473.192101
1932.593849,1608.800546,-888.247130,10066.800811
1932.594167,3294.210641,-888.247130,8808.450710
1932.594484,4903.011187,-592.164754,6883.915261
1932.594801,7048.078582,-592.164754,5107.421000
1932.595119,7660.954980,-592.164754,3997.112087
1932.595436,6665.030833,-1332.370696,4367.215058
1932.595754,4213.525239,-3256.906145,5477.523971
1932.596071,1072.533697,-5551.544565,7105.977043
1932.596388,-1762.019645,-7254.018232,10288.862594
1932.596706,-3294.210641,-7550.100608,12287.418637
1932.597023,-3217.601092,-6809.894666,12879.583391
1932.597340,-1455.581446,-5625.565159,12139.377449
1932.597658,153.219100,-4071.132681,10584.944971
1932.597975,1378.971896,-3627.009116,9622.677246
1932.598293,1762.019645,-3701.029710,9030.512492
1932.598610,2068.457845,-3849.070898,7846.182985
1932.598927,2374.896044,-3404.947333,7402.059420
1932.599245,2604.724693,-2072.576638,7105.977043
1932.599562,4290.134789,-1258.350101,6217.729913
1932.599880,4519.963438,-370.102971,5921.647536
1932.600197,4596.572988,148.041188,5847.626942
1932.600514,4060.306139,74.020594,5847.626942
1932.600832,3064.381992,-444.123565,5551.544565
1932.601149,2451.505594,-1258.350101,5329.482782
1932.601466,1685.410096,-1702.473667,5329.482782
1932.601784,842.705048,-1998.556043,5995.668130
1932.602101,153.219100,-1998.556043,7328.038826
1932.602419,-689.485948,-1036.288319,8438.347739
1932.602736,-1762.019645,-74.020594,9696.697840
1932.603053,-2681.334243,518.144159,10584.944971
1932.603371,-3064.381992,1110.308913,11029.068536
1932.603688,-2681.334243,1258.350101,11325.150913
1932.604006,-1915.238745,2072.576638,9770.718434
1932.604323,-153.219100,2294.638420,8808.450710
1932.604640,1378.971896,2812.782580,7846.182985
1932.604958,2757.943793,2812.782580,7328.038826
1932.605275,2834.553343,2368.659014,7550.100608
1932.605592,1685.410096,1998.556043,7846.182985
1932.605910,76.609550,1776.494261,8586.388927
1932.606227,-995.924147,1850.514855,9770.718434
1932.606545,-2298.286494,2516.700203,10510.924376
1932.606862,-3064.381992,2442.679609,11029.068536
1932.607179,-3370.820191,1850.514855,11621.233289
1932.607497,-2834.553343,1184.329507,11843.295072
1932.607814,-1608.800546,1406.391290,11547.212695
1932.608132,-229.828649,1110.308913,10510.924376
1932.608449,0.000000,1924.535449,10436.903782
1932.608766,229.828649,3478.967927,9992.780217
1932.609084,689.485948,4811.338623,9918.759623
1932.609401,459.657299,5477.523971,9474.636058
1932.609718,383.047749,5921.647536,9770.718434
1932.610036,-306.438199,6217.729913,10066.800811
1932.610353,-153.219100,5329.482782,10658.965565
1932.610671,-306.438199,4219.173869,11621.233289
1932.610988,-612.876398,3478.967927,11769.274478
1932.611305,0.000000,3108.864956,11621.233289
1932.611623,0.000000,2960.823768,10881.027347
1932.611940,536.266849,2738.761985,11029.068536
1932.612258,1149.143247,3330.926739,10807.006753
1932.612575,1149.143247,4071.132681,10362.883188
1932.612892,842.705048,4589.276840,10288.862594
1932.613210,229.828649,3923.091493,10881.027347
1932.613527,-689.485948,2442.679609,11473.192101
1932.613844,-689.485948,1924.535449,11769.274478
1932.614162,-689.485948,1480.411884,11843.295072
1932.614479,0.000000,814.226536,11991.336260
1932.614797,1455.581446,1110.308913,11029.068536
1932.615114,2298.286494,1110.308913,10214.842000
1932.615431,2757.943793,814.226536,9918.759623
1932.615749,2834.553343,-74.020594,9474.636058
1932.616066,2068.457845,-518.144159,9548.656652
1932.616384,919.314598,-888.247130,9844.739029
1932.616701,-306.438199,-1702.473667,10584.944971
1932.617018,-1225.752797,-2516.700203,11843.295072
1932.617336,-1915.238745,-3108.864956,12509.480420
1932.617653,-1838.629195,-3034.844362,12213.398043
1932.617970,-842.705048,-2812.782580,11695.253884
1932.618288,612.876398,-2960.823768,10658.965565
1932.618605,1915.238745,-2886.803174,9400.615463
1932.618923,3140.991542,-3478.967927,8438.347739
1932.619240,2987.772442,-3034.844362,7698.141797
1932.619557,3217.601092,-2812.782580,7550.100608
1932.619875,2834.553343,-2590.720797,7994.224174
1932.620192,2374.896044,-2590.720797,9030.512492
1932.620510,1838.629195,-2812.782580,9474.636058
1932.620827,1302.362347,-2368.659014,9770.718434
1932.621144,1378.971896,-2368.659014,9474.636058
1932.621462,2451.505594,-1702.473667,8290.306550
1932.621779,3677.258390,-1258.350101,7031.956449
1932.622096,4673.182538,-1036.288319,5699.585753
1932.622414,5669.106685,-1036.288319,4959.379811
1932.622731,5592.497135,-1036.288319,4515.256246
1932.623049,5056.230287,-1258.350101,4737.318029
1932.623366,3524.039291,-1850.514855,5699.585753
1932.623683,2068.457845,-2368.659014,7402.059420
1932.624001,766.095498,-2368.659014,8142.265362
1932.624318,459.657299,-2294.638420,8660.409521
1932.624636,459.657299,-2146.597232,8364.327145
1932.624953,766.095498,-2146.597232,8068.244768
1932.625270,1838.629195,-1628.453072,6809.894666
1932.625588,2145.067394,-1554.432478,5995.668130
1932.625905,1762.019645,-1480.411884,6439.791695
1932.626222,995.924147,-1776.494261,7328.038826
1932.626540,306.438199,-1480.411884,8290.306550
1932.626857,-1072.533697,-1332.370696,8586.388927
1932.627175,-2374.896044,-1036.288319,9474.636058
1932.627492,-2911.162892,-740.205942,10510.924376
1932.627809,-2681.334243,-1110.308913,10732.986159
1932.628127,-2451.505594,-740.205942,9992.780217
1932.628444,-1608.800546,-370.102971,9474.636058
1932.628762,-689.485948,-444.123565,8512.368333
1932.629079,153.219100,-740.205942,8438.347739
1932.629396,919.314598,-814.226536,8956.491898
1932.629714,153.219100,-296.082377,9548.656652
1932.630031,-919.314598,296.082377,10140.821405
1932.630348,-1608.800546,592.164754,11029.068536
1932.630666,-1378.971896,1110.308913,12435.459826
1932.630983,-1455.581446,1554.432478,12139.377449
1932.631301,-995.924147,2442.679609,11843.295072
1932.631618,0.000000,2664.741391,11325.150913
1932.631935,1455.581446,2960.823768,9474.636058
1932.632253,2451.505594,2664.741391,9104.533087
1932.632570,3217.601092,2516.700203,9252.574275
1932.632888,3064.381992,2368.659014,9400.615463
1932.633205,2451.505594,2368.659014,9030.512492
1932.633522,1608.800546,2368.659014,10066.800811
1932.633840,689.485948,2368.659014,10955.047942
1932.634157,0.000000,1998.556043,11251.130318
1932.634474,-229.828649,2146.597232,11473.192101
1932.634792,-612.876398,1850.514855,11251.130318
1932.635109,0.000000,2294.638420,10584.944971
1932.635427,842.705048,2146.597232,9474.636058
1932.635744,1915.238745,1628.453072,9696.697840
1932.636061,1838.629195,1776.494261,9696.697840
1932.636379,1838.629195,1406.391290,9844.739029
1932.636696,1302.362347,1036.288319,10436.903782
1932.637014,612.876398,888.247130,11695.253884
1932.637331,459.657299,1036.288319,11621.233289
1932.637648,0.000000,1554.432478,11325.150913
1932.637966,459.657299,1332.370696,11843.295072
1932.638283,1608.800546,592.164754,11177.109724
1932.638600,1762.019645,518.144159,10510.924376
1932.638918,2374.896044,444.123565,9770.718434
1932.639235,2987.772442,-0.000000,9252.574275
1932.639553,2987.772442,-814.226536,8956.491898
1932.639870,2374.896044,-1184.329507,9400.615463
1932.640187,1532.190996,-1406.391290,9178.553681
1932.640505,306.438199,-1850.514855,9696.697840
1932.640822,-229.828649,-2146.597232,10288.862594
1932.641140,-1072.533697,-2368.659014,10362.883188
1932.641457,-919.314598,-3034.844362,10658.965565
1932.641774,-1532.190996,-2738.761985,9474.636058
1932.642092,-995.924147,-2812.782580,9400.615463
1932.642409,383.047749,-3108.864956,9178.553681
1932.642726,153.219100,-2368.659014,8364.327145
1932.643044,919.314598,-3108.864956,8142.265362
1932.643361,612.876398,-2590.720797,8586.388927
1932.643679,919.314598,-2812.782580,9474.636058
1932.643996,229.828649,-2738.761985,8882.471304
1932.644313,459.657299,-2590.720797,9474.636058
1932.644631,1762.019645,-1998.556043,9918.759623
1932.644948,2528.115143,-1776.494261,8808.450710
1932.645266,3830.477490,-1258.350101,7179.997637
1932.645583,4903.011187,-1036.288319,6957.935855
1932.645900,5592.497135,-1184.329507,5699.585753
1932.646218,6052.154434,-666.185348,5033.400406
1932.646535,5975.544884,-1480.411884,5699.585753
1932.646852,5286.058936,-518.144159,5329.482782
1932.647170,4673.182538,-518.144159,6217.729913
1932.647487,3677.258390,-444.123565,7254.018232
1932.647805,2757.943793,-1184.329507,8660.409521
1932.648122,1838.629195,-296.082377,7698.141797
1932.648439,2068.457845,-74.020594,7994.224174
1932.648757,2374.896044,-222.061783,8364.327145
1932.649074,2911.162892,-370.102971,7105.977043
1932.649392,2834.553343,-74.020594,7105.977043
1932.649709,2604.724693,-0.000000,7402.059420
1932.650026,2068.457845,-814.226536,7994.224174
1932.650344,995.924147,-1036.288319,8438.347739
1932.650661,0.000000,-1036.288319,9622.677246
1932.650978,-1072.533697,-444.123565,10066.800811
1932.651296,-1302.362347,-444.123565,10658.965565
1932.651613,-1302.362347,-666.185348,10807.006753
1932.651931,-689.485948,-666.185348,10288.862594
1932.652248,-536.266849,-74.020594,10066.800811
1932.652565,-306.438199,-296.082377,9622.677246
1932.652883,459.657299,-148.041188,9326.594869
1932.653200,153.219100,-0.000000,8808.450710
1932.653518,-229.828649,592.164754,9178.553681
1932.653835,-919.314598,1184.329507,9770.718434
1932.654152,-1608.800546,666.185348,10807.006753
1932.654470,-2221.676944,518.144159,11843.295072
1932.654787,-2298.286494,888.247130,11917.315666
1932.655104,-2145.067394,1258.350101,12361.439231
1932.655422,-1532.190996,1036.288319,11251.130318
1932.655739,-1378.971896,1332.370696,10584.944971
1932.656057,-459.657299,1184.329507,10658.965565
1932.656374,-383.047749,1850.514855,10584.944971
1932.656691,306.438199,1850.514855,10140.821405
1932.657009,-1225.752797,1776.494261,11399.171507
1932.657326,-1991.848295,1480.411884,12731.542202
1932.657644,-2298.286494,1702.473667,13027.624579
1932.657961,-2681.334243,370.102971,12657.521608
1932.658278,-1302.362347,1702.473667,13175.665768
1932.658596,-383.047749,2072.576638,12509.480420
1932.658913,1302.362347,2664.741391,9474.636058
1932.659230,2987.772442,2072.576638,9400.615463
1932.659548,2834.553343,1258.350101,9474.636058
1932.659865,2911.162892,2442.679609,7846.182985
1932.660183,2681.334243,1924.535449,8068.244768
1932.660500,2298.286494,1480.411884,9030.512492
1932.660817,1455.581446,1110.308913,9622.677246
1932.661135,459.657299,1406.391290,9474.636058
1932.661452,995.924147,1110.308913,11991.336260
1932.661770,612.876398,-0.000000,11547.212695
1932.662087,919.314598,666.185348,9474.636058
1932.662404,919.314598,1480.411884,8808.450710
1932.662722,2145.067394,1554.432478,9400.615463
1932.663039,2681.334243,1258.350101,7846.182985
1932.663356,2451.505594,1406.391290,7328.038826
1932.663674,2298.286494,1924.535449,8734.430116
1932.663991,1378.971896,1554.432478,8734.430116
1932.664309,1225.752797,1332.370696,8882.471304
1932.664626,612.876398,296.082377,9400.615463
1932.664943,-229.828649,370.102971,9844.739029
1932.665261,76.609550,1110.308913,9030.512492
1932.665578,842.705048,814.226536,7772.162391
1932.665896,1915.238745,296.082377,7402.059420
1932.666213,1378.971896,518.144159,7031.956449
1932.666530,1225.752797,444.123565,7328.038826
1932.666848,766.095498,-0.000000,6809.894666
1932.667165,229.828649,-518.144159,7920.203579
1932.667482,-1072.533697,-0.000000,8586.388927
1932.667800,-1608.800546,-0.000000,9548.656652
1932.668117,-1915.238745,-518.144159,9400.615463
1932.668435,-1608.800546,-1036.288319,9104.533087
1932.668752,-306.438199,-222.061783,9252.574275
1932.669069,76.609550,-0.000000,8216.285956
1932.669387,1532.190996,-148.041188,7254.018232
1932.669704,1072.533697,-740.205942,7254.018232
1932.670022,1149.143247,-1110.308913,8364.327145
1932.670339,76.609550,-740.205942,8734.430116
1932.670656,-766.095498,-1110.308913,9622.677246
1932.670974,-1072.533697,-1036.288319,10436.903782
1932.671291,-1685.410096,-222.061783,10955.047942
1932.671609,-1608.800546,-148.041188,10807.006753
1932.671926,-1072.533697,-0.000000,10510.924376
1932.672243,0.000000,-0.000000,10066.800811
1932.672561,612.876398,518.144159,9104.533087
1932.672878,1685.410096,1480.411884,8290.306550
1932.673195,2068.457845,740.205942,8216.285956
1932.673513,2298.286494,370.102971,8808.450710
1932.673830,1608.800546,296.082377,9178.553681
1932.674148,919.314598,740.205942,9770.718434
1932.674465,689.485948,666.185348,10955.047942
1932.674782,1838.629195,592.164754,11695.253884
1932.675100,1608.800546,592.164754,11695.253884
1932.675417,2068.457845,1480.411884,10584.944971
1932.675735,2757.943793,1776.494261,9696.697840
1932.676052,3753.867940,1850.514855,9178.553681
1932.676369,4519.963438,1924.535449,8808.450710
1932.676687,4213.525239,2146.597232,8882.471304
1932.677004,3600.648841,1628.453072,9252.574275
1932.677321,2374.896044,814.226536,9622.677246
1932.677639,1532.190996,222.061783,10732.986159
1932.677956,306.438199,-0.000000,11547.212695
1932.678274,153.219100,444.123565,11843.295072
1932.678591,919.314598,592.164754,11843.295072
1932.678908,1378.971896,888.247130,11103.089130
1932.679226,2298.286494,1184.329507,10140.821405
1932.679543,2451.505594,1036.288319,9548.656652
1932.679861,2451.505594,888.247130,9474.636058
1932.680178,2145.067394,1332.370696,9474.636058
1932.680495,1915.238745,2072.576638,9548.656652
1932.680813,1149.143247,1776.494261,10436.903782
1932.681130,76.609550,1184.329507,11029.068536
1932.681447,-536.266849,666.185348,10955.047942
1932.681765,-229.828649,2072.576638,10584.944971
1932.682082,153.219100,2368.659014,9400.615463
1932.682400,459.657299,2072.576638,8956.491898
1932.682717,766.095498,1554.432478,8882.471304
1932.683034,459.657299,888.247130,8512.368333
1932.683352,-153.219100,-0.000000,8142.265362
1932.683669,-383.047749,-0.000000,8660.409521
1932.683987,-1685.410096,-296.082377,9548.656652
1932.684304,-2681.334243,-296.082377,10066.800811
1932.684621,-3983.696590,-814.226536,10584.944971
1932.684939,-4366.744339,-592.164754,11029.068536
1932.685256,-3217.601092,-222.061783,9918.759623
1932.685573,-2528.115143,370.102971,9622.677246
1932.685891,-1838.629195,296.082377,8438.347739
1932.686208,-766.095498,-74.020594,7476.080014
1932.686526,-229.828649,-296.082377,7328.038826
1932.686843,76.609550,-0.000000,7254.018232
1932.687160,612.876398,296.082377,6957.935855
1932.687478,-153.219100,370.102971,7179.997637
1932.687795,-536.266849,296.082377,7920.203579
1932.688113,-459.657299,222.061783,8438.347739
1932.688430,0.000000,-148.041188,8512.368333
1932.688747,153.219100,-0.000000,7994.224174
1932.689065,689.485948,-518.144159,7550.100608
1932.689382,1072.533697,-814.226536,6957.935855
1932.689699,1225.752797,-592.164754,7105.977043
1932.690017,1991.848295,-296.082377,7550.100608
1932.690334,1915.238745,-518.144159,8068.244768
1932.690652,612.876398,-148.041188,8882.471304
1932.690969,459.657299,-0.000000,9252.574275
1932.691286,229.828649,222.061783,9992.780217
1932.691604,0.000000,518.144159,10362.883188
1932.691921,536.266849,962.267725,10140.821405
1932.692239,1072.533697,1110.308913,9252.574275
1932.692556,2068.457845,1258.350101,8438.347739
1932.692874,3140.991542,888.247130,7624.121203
1932.693191,3524.039291,1184.329507,7698.141797
1932.693508,3447.429741,518.144159,7550.100608
1932.693826,3140.991542,888.247130,8068.244768
1932.694143,1838.629195,518.144159,8660.409521
1932.694461,842.705048,-0.000000,9770.718434
1932.694778,0.000000,-148.041188,10807.006753
1932.695096,-383.047749,-0.000000,11621.233289
1932.695413,-383.047749,222.061783,11473.192101
1932.695731,153.219100,-0.000000,11177.109724
1932.696048,459.657299,-0.000000,10214.842000
1932.696366,842.705048,-0.000000,10510.924376
1932.696683,842.705048,222.061783,10140.821405
1932.697001,536.266849,148.041188,10288.862594
1932.697318,229.828649,444.123565,10658.965565
1932.697636,-459.657299,518.144159,11177.109724
1932.697953,-1149.143247,444.123565,11917.315666
1932.698270,-1532.190996,-0.000000,12583.501014
1932.698588,-1455.581446,-370.102971,12805.562797
1932.698905,-919.314598,148.041188,12065.356855
1932.699223,0.000000,592.164754,10955.047942
1932.699540,612.876398,296.082377,10288.862594
1932.699858,1225.752797,-148.041188,9918.759623
1932.700175,1455.581446,370.102971,10214.842000
1932.700493,1225.752797,-0.000000,10288.862594
1932.700810,1072.533697,518.144159,10510.924376
1932.701128,766.095498,148.041188,11103.089130
1932.701445,306.438199,222.061783,11843.295072
1932.701763,689.485948,296.082377,11547.212695
1932.702080,1072.533697,518.144159,11103.089130
1932.702398,1991.848295,814.226536,10732.986159
1932.702715,3064.381992,1406.391290,9474.636058
1932.703032,3907.087040,1554.432478,8956.491898
1932.703350,4290.134789,1036.288319,8216.285956
1932.703667,3447.429741,1258.350101,8068.244768
1932.703985,2911.162892,1184.329507,8290.306550
1932.704302,1762.019645,1258.350101,9104.533087
1932.704620,766.095498,592.164754,9474.636058
1932.704937,153.219100,740.205942,10066.800811
1932.705255,0.000000,666.185348,10066.800811
1932.705572,0.000000,814.226536,9252.574275
1932.705890,612.876398,444.123565,8586.388927
1932.706207,995.924147,370.102971,7846.182985
1932.706525,1762.019645,148.041188,7254.018232
1932.706842,1685.410096,370.102971,6883.915261
1932.707160,1455.581446,296.082377,6957.935855
1932.707477,919.314598,148.041188,7254.018232
1932.707794,0.000000,-148.041188,7550.100608
1932.708112,-689.485948,-0.000000,8586.388927
1932.708429,-766.095498,-74.020594,8734.430116
1932.708747,-689.485948,-592.164754,9252.574275
1932.709064,0.000000,-814.226536,8808.450710
1932.709382,306.438199,-962.267725,7846.182985
1932.709699,766.095498,-888.247130,6957.935855
1932.710017,1302.362347,-814.226536,7476.080014
1932.710334,1225.752797,-296.082377,7328.038826
1932.710652,536.266849,-962.267725,7994.224174
1932.710969,0.000000,-888.247130,8882.471304
1932.711287,-612.876398,-1110.308913,9252.574275
1932.711604,-995.924147,-1406.391290,9992.780217
1932.711922,-995.924147,-888.247130,10732.986159
1932.712239,0.000000,-1110.308913,10140.821405
1932.712556,383.047749,-1036.288319,9104.533087
1932.712874,1532.190996,-1184.329507,8586.388927
1932.713191,2298.286494,-1184.329507,8068.244768
1932.713509,2604.724693,-1110.308913,7846.182985
1932.713826,2604.724693,-1332.370696,8216.285956
1932.714144,2298.286494,-1184.329507,8660.409521
1932.714461,1455.581446,-1110.308913,9326.594869
1932.714779,842.705048,-814.226536,9992.780217
1932.715096,612.876398,-740.205942,10955.047942
1932.715414,842.705048,-518.144159,11103.089130
1932.715731,459.657299,-74.020594,9844.739029
1932.716049,2068.457845,-666.185348,10362.883188
1932.716366,2145.067394,-518.144159,9178.553681
1932.716684,2145.067394,-740.205942,8882.471304
1932.717001,2681.334243,-1036.288319,8660.409521
1932.717318,1915.238745,-740.205942,9400.615463
1932.717636,1302.362347,-740.205942,9622.677246
1932.717953,153.219100,-666.185348,10436.903782
1932.718271,-306.438199,-814.226536,11325.150913
1932.718588,-612.876398,-1184.329507,11769.274478
1932.718906,-383.047749,-370.102971,11325.150913
1932.719223,842.705048,-370.102971,10288.862594
1932.719541,1378.971896,-444.123565,9770.718434
1932.719858,1991.848295,-0.000000,8660.409521
1932.720176,2681.334243,-444.123565,8438.347739
1932.720493,2451.505594,-148.041188,8364.327145
1932.720811,2374.896044,-296.082377,8882.471304
1932.721128,1378.971896,444.123565,9252.574275
1932.721446,995.924147,370.102971,10436.903782
1932.721763,76.609550,-0.000000,10732.986159
1932.722080,229.828649,-296.082377,10881.027347
1932.722398,459.657299,-370.102971,10807.006753
1932.722715,1225.752797,-592.164754,10436.903782
1932.723033,1838.629195,-592.164754,9696.697840
1932.723350,2145.067394,-518.144159,8882.471304
1932.723668,2451.505594,222.061783,8586.388927
1932.723985,2068.457845,444.123565,8216.285956
1932.724303,1302.362347,444.123565,9030.512492
1932.724620,459.657299,888.247130,9548.656652
1932.724938,-459.657299,814.226536,9696.697840
1932.725255,-612.876398,592.164754,10362.883188
1932.725573,-536.266849,370.102971,10436.903782
1932.725890,0.000000,296.082377,10140.821405
1932.726208,1149.143247,370.102971,8882.471304
1932.726525,1838.629195,444.123565,8142.265362
1932.726842,1991.848295,296.082377,7772.162391
1932.727160,1685.410096,370.102971,7846.182985
1932.727477,1378.971896,592.164754,7994.224174
1932.727795,536.266849,592.164754,9030.512492
1932.728112,-383.047749,296.082377,9770.718434
1932.728430,-995.924147,518.144159,9992.780217
1932.728747,-842.705048,444.123565,10066.800811
1932.729065,-689.485948,518.144159,10140.821405
1932.729382,-383.047749,1036.288319,9474.636058
1932.729700,383.047749,814.226536,8734.430116
1932.730017,919.314598,888.247130,8068.244768
1932.730335,842.705048,222.061783,7846.182985
1932.730652,766.095498,296.082377,8364.327145
1932.730970,383.047749,370.102971,8660.409521
1932.731287,-995.924147,370.102971,9326.594869
1932.731604,-1149.143247,518.144159,10362.883188
1932.731922,-1838.629195,296.082377,11029.068536
1932.732239,-1532.190996,518.144159,11029.068536
1932.732557,-689.485948,962.267725,10510.924376
1932.732874,76.609550,1036.288319,9474.636058
1932.733192,1149.143247,1184.329507,8512.368333
1932.733509,2221.676944,1036.288319,8734.430116
1932.733827,2834.553343,1480.411884,8142.265362
1932.734144,2681.334243,1850.514855,8438.347739
1932.734462,2374.896044,1702.473667,8808.450710
1932.734779,1915.238745,1628.453072,9474.636058
1932.735097,1225.752797,1332.370696,10214.842000
1932.735414,1072.533697,740.205942,11103.089130
1932.735731,1455.581446,592.164754,10807.006753
1932.736049,1838.629195,666.185348,10214.842000
1932.736366,2374.896044,962.267725,9474.636058
1932.736684,2757.943793,666.185348,8882.471304
1932.737001,2987.772442,518.144159,8586.388927
1932.737319,2681.334243,444.123565,8586.388927
1932.737636,1838.629195,444.123565,9326.594869
1932.737954,536.266849,296.082377,9770.718434
1932.738271,-229.828649,-148.041188,10732.986159
1932.738589,-612.876398,-222.061783,11769.274478
1932.738906,-1149.143247,-592.164754,11843.295072
1932.739224,-536.266849,-370.102971,11251.130318
1932.739541,459.657299,-0.000000,10584.944971
1932.739859,1608.800546,-148.041188,9622.677246
1932.740176,2374.896044,-296.082377,9104.533087
1932.740493,2528.115143,-296.082377,8512.368333
1932.740811,2681.334243,-296.082377,8586.388927
1932.741128,1455.581446,-370.102971,8734.430116
1932.741446,1608.800546,222.061783,9548.656652
1932.741763,842.705048,-0.000000,9844.739029
1932.742081,0.000000,-222.061783,10510.924376
1932.742398,153.219100,-814.226536,10807.006753
1932.742716,306.438199,-814.226536,10288.862594
1932.743033,1072.533697,-740.205942,9178.553681
1932.743351,1762.019645,-666.185348,8438.347739
1932.743668,2374.896044,-518.144159,8142.265362
1932.743986,2451.505594,-740.205942,7994.224174
1932.744303,1838.629195,-592.164754,8290.306550
1932.744621,919.314598,-370.102971,8734.430116
1932.744938,0.000000,-814.226536,9622.677246
1932.745255,-1302.362347,-666.185348,10066.800811
1932.745573,-1225.752797,-666.185348,10584.944971
1932.745890,-995.924147,-962.267725,10510.924376
1932.746208,-459.657299,-370.102971,9474.636058
1932.746525,766.095498,-370.102971,8438.347739
1932.746843,2145.067394,-148.041188,7624.121203
1932.747160,2221.676944,-296.082377,7476.080014
1932.747478,2068.457845,-518.144159,7031.956449
1932.747795,1915.238745,-370.102971,7476.080014
1932.748113,1302.362347,-222.061783,8216.285956
1932.748430,995.924147,-296.082377,9104.533087
1932.748748,229.828649,-74.020594,9696.697840
1932.749065,536.266849,-148.041188,9696.697840
1932.749383,842.705048,-74.020594,9474.636058
1932.749700,1302.362347,-222.061783,8808.450710
1932.750017,1685.410096,444.123565,7920.203579
1932.750335,2374.896044,444.123565,7402.059420
1932.750652,2451.505594,888.247130,7328.038826
1932.750970,1915.238745,740.205942,7550.100608
1932.751287,1149.143247,370.102971,8808.450710
1932.751605,-229.828649,518.144159,9548.656652
1932.751922,-842.705048,592.164754,10362.883188
1932.752240,-1149.143247,370.102971,11029.068536
1932.752557,-1072.533697,444.123565,11177.109724
1932.752875,-229.828649,444.123565,10288.862594
1932.753192,229.828649,666.185348,9326.594869
1932.753510,1455.581446,888.247130,8882.471304
1932.753827,1762.019645,1258.350101,8216.285956
1932.754145,1991.848295,1184.329507,7846.182985
1932.754462,2221.676944,1332.370696,8956.491898
1932.754779,612.876398,1258.350101,8956.491898
1932.755097,0.000000,1110.308913,10214.842000
1932.755414,-766.095498,1184.329507,10510.924376
1932.755732,-842.705048,1184.329507,10881.027347
1932.756049,-459.657299,1110.308913,10955.047942
1932.756367,76.609550,1702.473667,10214.842000
1932.756684,536.266849,1332.370696,9622.677246
1932.757002,995.924147,1036.288319,9252.574275
1932.757319,1149.143247,1184.329507,9178.553681
1932.757637,1378.971896,1332.370696,9548.656652
1932.757954,459.657299,1406.391290,9918.759623
1932.758272,-306.438199,1924.535449,10288.862594
1932.758589,-1072.533697,1776.494261,11177.109724
1932.758907,-995.924147,1258.350101,11621.233289
1932.759224,-919.314598,1850.514855,11695.253884
1932.759541,-383.047749,1924.535449,11029.068536
1932.759859,612.876398,1998.556043,9992.780217
1932.760176,1378.971896,1554.432478,9178.553681
1932.760494,2068.457845,1406.391290,9178.553681
1932.760811,1991.848295,1480.411884,9178.553681
1932.761129,1302.362347,1480.411884,9400.615463
1932.761446,766.095498,1628.453072,9548.656652
1932.761764,0.000000,1406.391290,10288.862594
1932.762081,-766.095498,1258.350101,11177.109724
1932.762399,-689.485948,888.247130,11547.212695
1932.762716,-689.485948,740.205942,11473.192101
1932.763034,-153.219100,518.144159,11029.068536
1932.763351,153.219100,518.144159,10066.800811
1932.763669,919.314598,518.144159,9474.636058
1932.763986,995.924147,592.164754,9030.512492
1932.764303,995.924147,444.123565,8586.388927
1932.764621,689.485948,666.185348,9030.512492
1932.764938,0.000000,962.267725,9400.615463
1932.765256,-536.266849,888.247130,9622.677246
1932.765573,-1072.533697,444.123565,10214.842000
1932.765891,-842.705048,222.061783,10362.883188
1932.766208,-612.876398,-74.020594,10140.821405
1932.766526,0.000000,-222.061783,9548.656652
1932.766843,612.876398,-444.123565,8660.409521
1932.767161,1532.190996,-0.000000,7920.203579
1932.767478,1455.581446,148.041188,7772.162391
1932.767796,1455.581446,148.041188,7772.162391
1932.768113,842.705048,518.144159,8586.388927
1932.768431,0.000000,370.102971,9030.512492
1932.768748,-383.047749,222.061783,9474.636058
1932.769065,-766.095498,222.061783,9474.636058
1932.769383,-612.876398,-148.041188,9992.780217
1932.769700,229.828649,-222.061783,9104.533087
1932.770018,612.876398,-148.041188,8142.265362
1932.770335,1302.362347,-148.041188,7550.100608
1932.770653,1838.629195,-0.000000,7328.038826
1932.770970,1762.019645,-0.000000,7179.997637
1932.771288,1608.800546,-444.123565,7254.018232
1932.771605,306.438199,-1110.308913,8586.388927
1932.771923,0.000000,-962.267725,9548.656652
1932.772240,-612.876398,-888.247130,9918.759623
1932.772558,0.000000,-592.164754,10214.842000
1932.772875,0.000000,-740.205942,9548.656652
1932.773193,919.314598,-74.020594,9030.512492
1932.773510,1762.019645,-148.041188,8290.306550
1932.773827,2374.896044,-74.020594,8142.265362
1932.774145,2757.943793,-444.123565,8142.265362
1932.774462,2604.724693,-518.144159,8364.327145
1932.774780,2068.457845,-592.164754,8734.430116
1932.775097,1378.971896,-740.205942,9474.636058
1932.775415,1072.533697,-222.061783,10066.800811
1932.775732,995.924147,-444.123565,10214.842000
1932.776050,919.314598,148.041188,10362.883188
1932.776367,1455.581446,444.123565,9918.759623
1932.776685,1685.410096,-0.000000,9400.615463
1932.777002,2145.067394,-444.123565,8882.471304
1932.777320,2374.896044,-518.144159,9104.533087
1932.777637,1915.238745,-814.226536,8956.491898
1932.777955,1455.581446,-222.061783,9178.553681
1932.778272,766.095498,-148.041188,9548.656652
1932.778589,-229.828649,-0.000000,9992.780217
1932.778907,-995.924147,-370.102971,10955.047942
1932.779224,-842.705048,-148.041188,11177.109724
1932.779542,-383.047749,-0.000000,10807.006753
1932.779859,0.000000,-0.000000,10214.842000
1932.780177,1149.143247,-0.000000,9548.656652
1932.780494,1302.362347,-222.061783,9252.574275
1932.780812,1532.190996,-666.185348,9104.533087
1932.781129,1225.752797,-444.123565,9252.574275
1932.781447,919.314598,148.041188,9696.697840
1932.781764,612.876398,740.205942,9918.759623
1932.782082,-459.657299,888.247130,10510.924376
1932.782399,-383.047749,962.267725,10658.965565
1932.782717,-459.657299,814.226536,10288.862594
1932.783034,-153.219100,1036.288319,9992.780217
1932.783351,842.705048,518.144159,9696.697840
1932.783669,1762.019645,370.102971,9252.574275
1932.783986,1685.410096,592.164754,8734.430116
1932.784304,1685.410096,962.267725,8512.368333
1932.784621,1072.533697,1110.308913,8364.327145
1932.784939,536.266849,1480.411884,9030.512492
1932.785256,0.000000,1628.453072,9474.636058
1932.785574,-766.095498,1702.473667,10066.800811
1932.785891,-766.095498,1332.370696,10584.944971
1932.786209,-536.266849,1036.288319,10584.944971
1932.786526,0.000000,1036.288319,9844.739029
1932.786844,383.047749,814.226536,9400.615463
1932.787161,1302.362347,962.267725,9474.636058
1932.787479,1302.362347,1628.453072,8364.327145
1932.787796,1149.143247,2072.576638,7698.141797
1932.788113,1378.971896,1702.473667,8882.471304
1932.788431,383.047749,1628.453072,9474.636058
1932.788748,229.828649,814.226536,9474.636058
1932.789066,-306.438199,592.164754,9992.780217
1932.789383,-689.485948,-0.000000,10140.821405
1932.789701,459.657299,-0.000000,9770.718434
1932.790018,612.876398,-222.061783,9400.615463
1932.790336,919.314598,-222.061783,8882.471304
1932.790653,1991.848295,-148.041188,8808.450710
1932.790971,1685.410096,-0.000000,8438.347739
1932.791288,1608.800546,-74.020594,8660.409521
1932.791606,1149.143247,-148.041188,9030.512492
1932.791923,229.828649,-518.144159,9918.759623
1932.792241,-153.219100,-1036.288319,10658.965565
1932.792558,-612.876398,-1406.391290,10807.006753
1932.792876,0.000000,-888.247130,10955.047942
1932.793193,459.657299,-370.102971,10214.842000
1932.793511,1532.190996,-370.102971,9918.759623
1932.793828,2068.457845,-814.226536,8956.491898
1932.794146,2451.505594,-370.102971,8512.368333
1932.794463,2604.724693,-518.144159,8734.430116
1932.794781,2374.896044,-296.082377,9104.533087
1932.795098,2298.286494,-444.123565,9030.512492
1932.795416,459.657299,-814.226536,9992.780217
1932.795733,0.000000,-740.205942,10436.903782
1932.796051,459.657299,-1036.288319,10362.883188
1932.796368,689.485948,-888.247130,10140.821405
1932.796686,1072.533697,-740.205942,9992.780217
1932.797003,1608.800546,-1184.329507,9252.574275
1932.797321,2298.286494,-1036.288319,8660.409521
1932.797638,2451.505594,-1184.329507,8512.368333
1932.797956,2298.286494,-1406.391290,8586.388927
1932.798274,1838.629195,-888.247130,8512.368333
1932.798591,1225.752797,-962.267725,9548.656652
1932.798909,229.828649,-666.185348,9770.718434
1932.799226,306.438199,-518.144159,9918.759623
1932.799544,153.219100,-148.041188,9844.739029
1932.799861,842.705048,-444.123565,9622.677246
1932.800179,1225.752797,-518.144159,9104.533087
1932.800496,1532.190996,-370.102971,8586.388927
1932.800814,1915.238745,-296.082377,8142.265362
1932.801131,2145.067394,-296.082377,7846.182985
1932.801449,1915.238745,-148.041188,7624.121203
1932.801766,919.314598,148.041188,8142.265362
1932.802084,0.000000,-0.000000,9252.574275
1932.802401,-766.095498,222.061783,9622.677246
1932.802719,-842.705048,666.185348,9918.759623
1932.803036,-689.485948,518.144159,9474.636058
1932.803354,-383.047749,370.102971,9474.636058
1932.803671,0.000000,-0.000000,9178.553681
1932.803989,842.705048,-0.000000,8438.347739
1932.804306,1302.362347,74.020594,8438.347739
1932.804624,1149.143247,296.082377,8068.244768
1932.804941,842.705048,370.102971,8586.388927
1932.805259,0.000000,518.144159,9104.533087
1932.805576,-766.095498,296.082377,9992.780217
1932.805894,-766.095498,962.267725,10510.924376
1932.806211,-383.047749,888.247130,10584.944971
1932.806529,76.609550,740.205942,10214.842000
1932.806846,1072.533697,1036.288319,9622.677246
1932.807164,1838.629195,1110.308913,9104.533087
1932.807481,2528.115143,814.226536,8364.327145
1932.807799,3217.601092,1036.288319,8068.244768
1932.808116,2757.943793,1036.288319,8290.306550
1932.808434,2145.067394,888.247130,9030.512492
1932.808751,995.924147,1184.329507,9326.594869
1932.809069,383.047749,592.164754,10436.903782
1932.809386,0.000000,592.164754,10955.047942
1932.809704,76.609550,444.123565,11103.089130
1932.810021,459.657299,-0.000000,10584.944971
1932.810339,689.485948,222.061783,10436.903782
1932.810656,1455.581446,-0.000000,9474.636058
1932.810974,1991.848295,222.061783,9178.553681
1932.811291,2145.067394,518.144159,8882.471304
1932.811609,1762.019645,-0.000000,9474.636058
1932.811926,1532.190996,-0.000000,9918.759623
1932.812244,0.000000,-148.041188,10584.944971
1932.812562,0.000000,-148.041188,10881.027347
1932.812879,-229.828649,-370.102971,11177.109724
1932.813197,153.219100,-296.082377,10955.047942
1932.813514,995.924147,-370.102971,10510.924376
1932.813832,2145.067394,-74.020594,9548.656652
1932.814149,2681.334243,-148.041188,8660.409521
1932.814467,3370.820191,222.061783,8290.306550
1932.814784,3600.648841,-0.000000,8586.388927
1932.815102,2911.162892,296.082377,8882.471304
1932.815419,1762.019645,444.123565,9104.533087
1932.815737,1302.362347,222.061783,9918.759623
1932.816054,536.266849,370.102971,10066.800811
1932.816372,536.266849,518.144159,10140.821405
1932.816689,1149.143247,592.164754,9696.697840
1932.817007,1455.581446,444.123565,9104.533087
1932.817324,2145.067394,-0.000000,8660.409521
1932.817642,2604.724693,-222.061783,7698.141797
1932.817959,2451.505594,-444.123565,8068.244768
1932.818277,1608.800546,-518.144159,7994.224174
1932.818594,689.485948,-222.061783,8364.327145
1932.818912,-153.219100,-222.061783,9400.615463
1932.819229,-995.924147,-0.000000,10066.800811
1932.819547,-1378.971896,-518.144159,10362.883188
1932.819864,-995.924147,-296.082377,9696.697840
1932.820182,-459.657299,-370.102971,9770.718434
1932.820499,306.438199,-148.041188,8956.491898
1932.820817,1225.752797,-148.041188,8586.388927
1932.821134,1838.629195,-74.020594,8068.244768
1932.821452,1838.629195,296.082377,7402.059420
1932.821769,1378.971896,222.061783,7846.182985
1932.822087,536.266849,-0.000000,8438.347739
1932.822404,-153.219100,-0.000000,9474.636058
1932.822722,-766.095498,148.041188,9696.697840
1932.823039,-1072.533697,222.061783,10288.862594
1932.823357,-459.657299,370.102971,9770.718434
1932.823674,306.438199,148.041188,9622.677246
1932.823992,612.876398,148.041188,8956.491898
1932.824309,1072.533697,518.144159,8734.430116
1932.824627,1915.238745,888.247130,7920.203579
1932.824944,1762.019645,814.226536,7846.182985
1932.825262,1149.143247,1036.288319,8364.327145
1932.825579,536.266849,888.247130,9178.553681
1932.825897,-689.485948,1036.288319,9918.759623
1932.826214,-1149.143247,962.267725,10214.842000
1932.826532,-842.705048,592.164754,10807.006753
1932.826850,-766.095498,-0.000000,10436.903782
1932.827167,-229.828649,444.123565,9770.718434
1932.827485,153.219100,-0.000000,9474.636058
1932.827802,1302.362347,888.247130,9104.533087
1932.828120,1378.971896,370.102971,9030.512492
1932.828437,995.924147,1258.350101,8882.471304
1932.828755,229.828649,1332.370696,9326.594869
1932.829072,-153.219100,1332.370696,9696.697840
1932.829390,-766.095498,1036.288319,10584.944971
1932.829707,-842.705048,1036.288319,11399.171507
1932.830025,0.000000,888.247130,10732.986159
1932.830342,383.047749,592.164754,10362.883188
1932.830660,995.924147,222.061783,9844.739029
1932.830977,1762.019645,296.082377,9326.594869
1932.831295,2374.896044,296.082377,8660.409521
1932.831612,2145.067394,740.205942,8660.409521
1932.831930,2145.067394,740.205942,9104.533087
1932.832247,919.314598,962.267725,9474.636058
1932.832565,536.266849,592.164754,10732.986159
1932.832882,-536.266849,296.082377,11473.192101
1932.833200,-459.657299,444.123565,11917.315666
1932.833517,0.000000,-0.000000,11325.150913
1932.833835,76.609550,518.144159,10584.944971
1932.834152,919.314598,444.123565,9622.677246
1932.834470,1608.800546,296.082377,9030.512492
1932.834787,1915.238745,-0.000000,9104.533087
1932.835105,1455.581446,222.061783,8808.450710
1932.835422,1225.752797,296.082377,9252.574275
1932.835740,536.266849,370.102971,9844.739029
1932.836057,0.000000,-74.020594,10288.862594
1932.836375,-612.876398,444.123565,10732.986159
1932.836692,-612.876398,-0.000000,10510.924376
1932.837010,76.609550,444.123565,9696.697840
1932.837327,766.095498,296.082377,8808.450710
1932.837645,1532.190996,518.144159,8290.306550
1932.837962,1991.848295,-370.102971,7846.182985
1932.838280,1762.019645,-74.020594,7846.182985
1932.838597,1685.410096,-222.061783,7994.224174
1932.838915,919.314598,-148.041188,9030.512492
1932.839232,0.000000,-0.000000,9696.697840
1932.839550,-229.828649,-0.000000,10362.883188
1932.839867,-919.314598,370.102971,10288.862594
1932.840185,0.000000,518.144159,10066.800811
1932.840502,842.705048,888.247130,9178.553681
1932.840820,1378.971896,1406.391290,8068.244768
1932.841137,2221.676944,1110.308913,7476.080014
1932.841455,2528.115143,592.164754,7550.100608
1932.841773,2221.676944,518.144159,7476.080014
1932.842090,1838.629195,370.102971,7920.203579
1932.842408,842.705048,370.102971,8734.430116
1932.842725,229.828649,222.061783,9178.553681
1932.843043,-306.438199,370.102971,9622.677246
1932.843360,0.000000,592.164754,9992.780217
1932.843678,153.219100,296.082377,9548.656652
1932.843995,536.266849,-74.020594,9030.512492
1932.844313,1302.362347,-74.020594,8142.265362
1932.844630,1838.629195,-148.041188,7846.182985
1932.844948,1608.800546,-296.082377,8290.306550
1932.845265,1378.971896,-148.041188,8586.388927
1932.845583,612.876398,-0.000000,8956.491898
1932.845900,76.609550,444.123565,10140.821405
1932.846218,-766.095498,222.061783,10510.924376
1932.846535,-1072.533697,444.123565,10584.944971
1932.846853,-612.876398,444.123565,10881.027347
1932.847170,76.609550,370.102971,10658.965565
1932.847488,612.876398,444.123565,9252.574275
1932.847805,1302.362347,222.061783,8808.450710
1932.848123,1455.581446,296.082377,8956.491898
1932.848440,1225.752797,222.061783,9326.594869
1932.848758,919.314598,444.123565,9252.574275
1932.849075,459.657299,-0.000000,9844.739029
1932.849393,-459.657299,-0.000000,10807.006753
1932.849710,-1149.143247,-0.000000,11547.212695
1932.850028,-459.657299,-0.000000,11103.089130
1932.850345,0.000000,-0.000000,10955.047942
1932.850663,229.828649,222.061783,9992.780217
1932.850980,1072.533697,370.102971,9474.636058
1932.851298,1608.800546,74.020594,8734.430116
1932.851615,1991.848295,-0.000000,9178.553681
1932.851933,1302.362347,592.164754,9400.615463
1932.852250,842.705048,370.102971,9696.697840
1932.852568,383.047749,222.061783,10288.862594
1932.852885,-612.876398,-0.000000,11251.130318
1932.853203,-383.047749,222.061783,11547.212695
1932.853520,76.609550,222.061783,11029.068536
1932.853838,766.095498,444.123565,10214.842000
1932.854155,1685.410096,592.164754,9326.594869
1932.854473,2298.286494,-222.061783,9474.636058
1932.854790,2298.286494,222.061783,8882.471304
1932.855108,2528.115143,296.082377,8364.327145
1932.855425,2451.505594,592.164754,8882.471304
1932.855743,1608.800546,592.164754,9326.594869
1932.856061,1072.533697,296.082377,9696.697840
1932.856378,459.657299,74.020594,9844.739029
1932.856696,536.266849,-0.000000,10436.903782
1932.857013,919.314598,-222.061783,9992.780217
1932.857331,1455.581446,-222.061783,9326.594869
1932.857648,2145.067394,-222.061783,8586.388927
1932.857966,1915.238745,-370.102971,8216.285956
1932.858283,1685.410096,-222.061783,7846.182985
1932.858601,995.924147,-296.082377,8068.244768
1932.858918,229.828649,-148.041188,9104.533087
1932.859236,0.000000,-74.020594,9474.636058
1932.859553,-995.924147,370.102971,9622.677246
1932.859871,-1302.362347,-0.000000,10140.821405
1932.860188,-1225.752797,-0.000000,9918.759623
1932.860506,-842.705048,-0.000000,9474.636058
1932.860823,306.438199,148.041188,9474.636058
1932.861141,612.876398,148.041188,8290.306550
1932.861458,919.314598,592.164754,8068.244768
1932.861776,1225.752797,740.205942,8142.265362
1932.862093,1302.362347,888.247130,7846.182985
1932.862411,766.095498,592.164754,8438.347739
1932.862728,0.000000,740.205942,8882.471304
1932.863046,-689.485948,592.164754,9178.553681
1932.863363,-383.047749,592.164754,9548.656652
1932.863681,-153.219100,444.123565,9474.636058
1932.863998,0.000000,370.102971,8808.450710
1932.864316,536.266849,370.102971,8512.368333
1932.864633,383.047749,296.082377,7624.121203
1932.864951,612.876398,222.061783,8068.244768
1932.865268,459.657299,296.082377,8660.409521
1932.865586,0.000000,370.102971,8956.491898
1932.865903,-536.266849,148.041188,9622.677246
1932.866221,-1378.971896,222.061783,10362.883188
1932.866538,-1608.800546,-0.000000,10881.027347
1932.866856,-1302.362347,518.144159,10955.047942
1932.867173,-689.485948,666.185348,10955.047942
1932.867491,76.609550,740.205942,9844.739029
1932.867808,689.485948,592.164754,9178.553681
1932.868126,1225.752797,518.144159,8956.491898
1932.868443,1991.848295,592.164754,9104.533087
1932.868761,1915.238745,740.205942,9030.512492
1932.869078,1762.019645,666.185348,9252.574275
1932.869396,1149.143247,444.123565,9770.718434
1932.869713,536.266849,222.061783,10214.842000
1932.870031,995.924147,-74.020594,10436.903782
1932.870349,919.314598,-0.000000,10881.027347
1932.870666,1608.800546,296.082377,10658.965565
1932.870984,1838.629195,592.164754,9992.780217
1932.871301,2374.896044,148.041188,9696.697840
1932.871619,2834.553343,370.102971,9770.718434
1932.871936,2911.162892,370.102971,9474.636058
1932.872254,2374.896044,666.185348,9548.656652
1932.872571,2068.457845,1036.288319,10214.842000
1932.872889,1532.190996,666.185348,10658.965565
1932.873206,1149.143247,814.226536,10881.027347
1932.873524,1149.143247,740.205942,10881.027347
1932.873841,1455.581446,888.247130,10510.924376
1932.874159,1991.848295,740.205942,9400.615463
1932.874476,2681.334243,888.247130,8734.430116
1932.874794,2757.943793,-0.000000,8734.430116
1932.875111,2374.896044,-74.020594,8586.388927
1932.875429,1838.629195,-222.061783,8512.368333
1932.875746,1225.752797,-0.000000,8882.471304
1932.876064,153.219100,-0.000000,9992.780217
1932.876381,-383.047749,-444.123565,10510.924376
1932.876699,-766.095498,-666.185348,10436.903782
1932.877016,-689.485948,-1036.288319,10955.047942
1932.877334,-536.266849,-888.247130,10436.903782
1932.877651,76.609550,-666.185348,9326.594869
1932.877969,1072.533697,-814.226536,8290.306550
1932.878286,1608.800546,-370.102971,8216.285956
1932.878604,1378.971896,-814.226536,8142.265362
1932.878921,1378.971896,-666.185348,8290.306550
1932.879239,1302.362347,-370.102971,8364.327145
1932.879556,612.876398,-518.144159,9104.533087
1932.879874,153.219100,-666.185348,9696.697840
1932.880191,0.000000,-518.144159,9696.697840
1932.880509,-229.828649,-518.144159,9400.615463
1932.880826,383.047749,-444.123565,9104.533087
1932.881144,1455.581446,-148.041188,8216.285956
1932.881461,2374.896044,-148.041188,7550.100608
1932.881779,2145.067394,-296.082377,7402.059420
1932.882096,1838.629195,-962.267725,8364.327145
1932.882414,1302.362347,-666.185348,8512.368333
1932.882731,842.705048,-592.164754,8956.491898
1932.883049,229.828649,-74.020594,9030.512492
1932.883366,0.000000,-222.061783,9770.718434
1932.883684,76.609550,-0.000000,9548.656652
1932.884001,689.485948,-0.000000,8882.471304
1932.884319,1302.362347,-296.082377,8808.450710
1932.884637,1991.848295,-74.020594,8216.285956
1932.884954,2145.067394,296.082377,7476.080014
1932.885272,2298.286494,-222.061783,7698.141797
1932.885589,1532.190996,-296.082377,8142.265362
1932.885907,536.266849,-370.102971,8586.388927
1932.886224,0.000000,-296.082377,9696.697840
1932.886542,0.000000,-370.102971,9844.739029
1932.886859,-842.705048,-444.123565,10362.883188
1932.887177,-229.828649,-222.061783,10066.800811
1932.887494,-306.438199,-74.020594,9992.780217
1932.887812,689.485948,-74.020594,9326.594869
1932.888129,1608.800546,-0.000000,8660.409521
1932.888447,1762.019645,666.185348,8586.388927
1932.888764,2145.067394,740.205942,8438.347739
1932.889082,1685.410096,1184.329507,8882.471304
1932.889399,919.314598,962.267725,9400.615463
1932.889717,612.876398,518.144159,10214.842000
1932.890034,383.047749,370.102971,10732.986159
1932.890352,306.438199,296.082377,10658.965565
1932.890669,459.657299,-74.020594,10807.006753
1932.890987,612.876398,-148.041188,10214.842000
1932.891304,995.924147,-0.000000,10066.800811
1932.891622,1455.581446,518.144159,9548.656652
1932.891939,1991.848295,518.144159,9474.636058
1932.892257,1608.800546,740.205942,9474.636058
1932.892574,1072.533697,518.144159,9992.780217
1932.892891,153.219100,370.102971,10510.924376
1932.893209,0.000000,666.185348,10881.027347
1932.893526,0.000000,518.144159,11177.109724
1932.893844,0.000000,592.164754,11399.171507
1932.894161,1149.143247,444.123565,10955.047942
1932.894478,1608.800546,592.164754,10214.842000
1932.894796,1991.848295,888.247130,9326.594869
1932.895113,2221.676944,888.247130,8586.388927
1932.895431,2451.505594,962.267725,8882.471304
1932.895748,2221.676944,1036.288319,9104.533087
1932.896065,1608.800546,1258.350101,9030.512492
1932.896383,1072.533697,962.267725,9844.739029
1932.896700,383.047749,1036.288319,10214.842000
1932.897018,76.609550,1184.329507,10140.821405
1932.897335,153.219100,740.205942,9844.739029
1932.897652,612.876398,888.247130,9918.759623
1932.897970,995.924147,1036.288319,9178.553681
1932.898287,1378.971896,1110.308913,8438.347739
1932.898605,1838.629195,1110.308913,8142.265362
1932.898922,1149.143247,518.144159,8216.285956
1932.899239,612.876398,-0.000000,8808.450710
1932.899557,-459.657299,-0.000000,9252.574275
1932.899874,-1225.752797,-74.020594,9918.759623
1932.900192,-2834.553343,148.041188,9992.780217
1932.900509,-1532.190996,370.102971,10362.883188
1932.900826,-1608.800546,296.082377,9992.780217
1932.901144,-689.485948,370.102971,9326.594869
1932.901461,-229.828649,74.020594,8438.347739
1932.901779,459.657299,-148.041188,8068.244768
1932.902096,919.314598,-0.000000,7624.121203
1932.902413,1302.362347,-74.020594,8290.306550
1932.902731,995.924147,-148.041188,8512.368333
1932.903048,842.705048,-0.000000,8882.471304
1932.903366,0.000000,-0.000000,9474.636058
1932.903683,766.095498,222.061783,9918.759623
1932.904000,1225.752797,296.082377,9622.677246
1932.904318,1685.410096,296.082377,9474.636058
1932.904635,1838.629195,296.082377,8808.450710
1932.904953,2834.553343,148.041188,8216.285956
1932.905270,2834.553343,740.205942,7698.141797
1932.905587,2604.724693,592.164754,7994.224174
1932.905905,1915.238745,666.185348,8216.285956
1932.906222,612.876398,-0.000000,8808.450710
1932.906540,0.000000,-0.000000,10066.800811
1932.906857,-612.876398,-74.020594,10658.965565
1932.907174,-995.924147,-0.000000,11029.068536
1932.907492,-919.314598,-370.102971,10732.986159
1932.907809,-229.828649,-148.041188,10362.883188
1932.908126,306.438199,-0.000000,9844.739029
1932.908444,1378.971896,296.082377,9104.533087
1932.908761,1608.800546,370.102971,8586.388927
1932.909079,1455.581446,518.144159,8512.368333
1932.909396,1302.362347,370.102971,8882.471304
1932.909713,1072.533697,-0.000000,9474.636058
1932.910031,306.438199,-0.000000,9918.759623
1932.910348,0.000000,-0.000000,10584.944971
1932.910666,76.609550,-0.000000,10510.924376
1932.910983,383.047749,-222.061783,9622.677246
1932.911300,1149.143247,-592.164754,9548.656652
1932.911618,1685.410096,-740.205942,9252.574275
1932.911935,1991.848295,-444.123565,8808.450710
1932.912253,2221.676944,-148.041188,8660.409521
1932.912570,1608.800546,-148.041188,9104.533087
1932.912887,919.314598,-0.000000,9992.780217
1932.913205,0.000000,-0.000000,10584.944971
1932.913522,-612.876398,-74.020594,11251.130318
1932.913840,-612.876398,-0.000000,11325.150913
1932.914157,-153.219100,-74.020594,11769.274478
1932.914474,459.657299,518.144159,10362.883188
1932.914792,1532.190996,592.164754,9844.739029
1932.915109,1838.629195,740.205942,8734.430116
1932.915427,2451.505594,592.164754,8438.347739
1932.915744,2298.286494,518.144159,8364.327145
1932.916061,1532.190996,518.144159,8660.409521
1932.916379,919.314598,444.123565,9548.656652
1932.916696,459.657299,222.061783,9918.759623
1932.917014,0.000000,-0.000000,10436.903782
1932.917331,0.000000,370.102971,10066.800811
1932.917648,459.657299,-0.000000,9918.759623
1932.917966,689.485948,222.061783,8882.471304
1932.918283,1302.362347,222.061783,8734.430116
1932.918601,1685.410096,-0.000000,8512.368333
1932.918918,1762.019645,-0.000000,7698.141797
1932.919235,842.705048,370.102971,8068.244768
1932.919553,306.438199,148.041188,8882.471304
1932.919870,-459.657299,222.061783,9474.636058
1932.920188,-1072.533697,-0.000000,10066.800811
1932.920505,-1302.362347,518.144159,9992.780217
1932.920822,-1072.533697,666.185348,10140.821405
1932.921140,-459.657299,888.247130,9474.636058
1932.921457,306.438199,1110.308913,8660.409521
1932.921775,1225.752797,518.144159,7846.182985
1932.922092,1532.190996,370.102971,7772.162391
1932.922409,1608.800546,444.123565,7698.141797
1932.922727,842.705048,-0.000000,8216.285956
1932.923044,306.438199,-0.000000,9326.594869
1932.923362,-536.266849,-0.000000,9844.739029
1932.923679,-995.924147,222.061783,10214.842000
1932.923996,-842.705048,-0.000000,10436.903782
1932.924314,-612.876398,-0.000000,10288.862594
1932.924631,229.828649,-370.102971,9622.677246
1932.924949,1149.143247,-74.020594,9178.553681
1932.925266,1685.410096,-370.102971,8586.388927
1932.925583,2068.457845,-222.061783,8882.471304
1932.925901,1762.019645,222.061783,8586.388927
1932.926218,1455.581446,296.082377,9104.533087
1932.926536,842.705048,592.164754,9696.697840
1932.926853,76.609550,592.164754,10436.903782
1932.927170,76.609550,296.082377,10881.027347
1932.927488,383.047749,-0.000000,10584.944971
1932.927805,536.266849,-0.000000,10584.944971
1932.928122,1149.143247,-0.000000,9770.718434
1932.928440,2221.676944,222.061783,9030.512492
1932.928757,2374.896044,370.102971,8512.368333
1932.929075,2834.553343,1184.329507,8734.430116
1932.929392,2221.676944,1332.370696,8660.409521
1932.929709,1685.410096,1332.370696,9030.512492
1932.930027,689.485948,1406.391290,9770.718434
1932.930344,0.000000,1110.308913,10584.944971
1932.930662,-689.485948,962.267725,9992.780217
1932.930979,-459.657299,740.205942,10510.924376
1932.931296,0.000000,592.164754,10140.821405
1932.931614,153.219100,518.144159,9030.512492
1932.931931,995.924147,592.164754,8808.450710
1932.932249,1225.752797,740.205942,9178.553681
1932.932566,459.657299,370.102971,8956.491898
1932.932883,0.000000,148.041188,8956.491898
1932.933201,-1378.971896,518.144159,9474.636058
1932.933518,-2145.067394,518.144159,10584.944971
1932.933836,-2451.505594,518.144159,10658.965565
1932.934153,-2068.457845,370.102971,10510.924376
1932.934470,-1378.971896,296.082377,10732.986159
1932.934788,-536.266849,518.144159,9696.697840
1932.935105,306.438199,518.144159,8956.491898
1932.935423,1378.971896,296.082377,8364.327145
1932.935740,1532.190996,296.082377,8734.430116
1932.936057,1838.629195,370.102971,8586.388927
1932.936375,1685.410096,444.123565,8660.409521
1932.936692,1072.533697,370.102971,9696.697840
1932.937010,842.705048,592.164754,9918.759623
1932.937327,306.438199,518.144159,10510.924376
1932.937644,459.657299,518.144159,10584.944971
1932.937962,1225.752797,370.102971,10288.862594
1932.938279,2145.067394,296.082377,9474.636058
1932.938597,2528.115143,296.082377,8882.471304
1932.938914,2757.943793,-74.020594,8808.450710
1932.939231,2528.115143,-296.082377,8808.450710
1932.939549,1991.848295,-148.041188,8882.471304
1932.939866,1532.190996,-296.082377,9622.677246
1932.940184,383.047749,-74.020594,10214.842000
1932.940501,0.000000,-222.061783,10510.924376
1932.940818,-383.047749,-296.082377,10658.965565
1932.941136,153.219100,-148.041188,10288.862594
1932.941453,842.705048,-666.185348,9992.780217
1932.941771,1762.019645,-296.082377,8734.430116
1932.942088,2374.896044,-666.185348,8142.265362
1932.942405,2451.505594,-518.144159,8142.265362
1932.942723,2298.286494,-444.123565,8142.265362
1932.943040,1838.629195,-222.061783,8142.265362
1932.943358,995.924147,296.082377,8512.368333
1932.943675,306.438199,296.082377,9326.594869
1932.943992,-229.828649,-74.020594,9548.656652
1932.944310,-229.828649,-370.102971,10214.842000
1932.944627,229.828649,-1110.308913,9696.697840
1932.944945,842.705048,-1036.288319,9178.553681
1932.945262,1225.752797,-888.247130,8216.285956
1932.945579,1915.238745,-888.247130,7994.224174
1932.945897,1991.848295,-666.185348,8068.244768
1932.946214,1225.752797,-222.061783,7698.141797
1932.946531,919.314598,-0.000000,8512.368333
1932.946849,-153.219100,296.082377,9030.512492
1932.947166,-766.095498,-0.000000,9696.697840
1932.947484,-1608.800546,148.041188,9992.780217
1932.947801,-1072.533697,-0.000000,10066.800811
1932.948118,-536.266849,-0.000000,9696.697840
1932.948436,459.657299,-74.020594,9474.636058
1932.948753,1225.752797,-148.041188,8660.409521
1932.949071,1915.238745,-148.041188,8438.347739
1932.949388,2068.457845,-74.020594,8512.368333
1932.949705,1532.190996,-0.000000,8882.471304
1932.950023,995.924147,370.102971,9178.553681
1932.950340,229.828649,962.267725,9696.697840
1932.950658,153.219100,814.226536,10140.821405
1932.950975,76.609550,666.185348,10066.800811
1932.951292,459.657299,444.123565,9992.780217
1932.951610,1302.362347,222.061783,9474.636058
1932.951927,2068.457845,-0.000000,9252.574275
1932.952245,2374.896044,-0.000000,8660.409521
1932.952562,2298.286494,518.144159,8512.368333
1932.952879,2068.457845,666.185348,8808.450710
1932.953197,1532.190996,666.185348,9252.574275
1932.953514,689.485948,740.205942,9474.636058
1932.953832,-306.438199,962.267725,10140.821405
1932.954149,-153.219100,1036.288319,10807.006753
1932.954466,-229.828649,1110.308913,10732.986159
1932.954784,0.000000,592.164754,10510.924376
1932.955101,689.485948,148.041188,10140.821405
1932.955419,842.705048,518.144159,9622.677246
1932.955736,1685.410096,592.164754,9252.574275
1932.956053,1838.629195,296.082377,9030.512492
1932.956371,1685.410096,666.185348,9400.615463
1932.956688,1378.971896,888.247130,9992.780217
1932.957006,306.438199,1110.308913,9918.759623
1932.957323,0.000000,962.267725,10214.842000
1932.957640,-229.828649,592.164754,10732.986159
1932.957958,0.000000,592.164754,10732.986159
1932.958275,612.876398,-0.000000,10362.883188
1932.958593,919.314598,-148.041188,9474.636058
1932.958910,1915.238745,-148.041188,9474.636058
1932.959227,2298.286494,-0.000000,8660.409521
1932.959545,2221.676944,-0.000000,8512.368333
1932.959862,1915.238745,370.102971,8956.491898
1932.960180,1378.971896,222.061783,9474.636058
1932.960497,919.314598,666.185348,9844.739029
1932.960814,766.095498,592.164754,10584.944971
1932.961132,0.000000,444.123565,10658.965565
1932.961449,612.876398,-0.000000,10510.924376
1932.961767,1149.143247,-148.041188,10066.800811
1932.962084,1608.800546,-370.102971,9178.553681
1932.962401,2451.505594,-814.226536,9326.594869
1932.962719,2221.676944,-888.247130,8956.491898
1932.963036,2145.067394,-370.102971,8956.491898
1932.963354,1762.019645,-0.000000,8808.450710
1932.963671,919.314598,-0.000000,9326.594869
1932.963988,459.657299,444.123565,9474.636058
1932.964306,459.657299,296.082377,9178.553681
1932.964623,0.000000,296.082377,9400.615463
1932.964941,689.485948,-74.020594,9252.574275
1932.965258,919.314598,-370.102971,8956.491898
1932.965575,1455.581446,-740.205942,8438.347739
1932.965893,1302.362347,-222.061783,7846.182985
1932.966210,1225.752797,-370.102971,7698.141797
1932.966527,1072.533697,-148.041188,8290.306550
1932.966845,0.000000,-0.000000,8438.347739
1932.967162,-612.876398,-222.061783,9326.594869
1932.967480,-1532.190996,-592.164754,9844.739029
1932.967797,-1378.971896,-444.123565,10214.842000
1932.968114,-1302.362347,-518.144159,9992.780217
1932.968432,-306.438199,-444.123565,9844.739029
1932.968749,-229.828649,-222.061783,8882.471304
1932.969067,766.095498,-148.041188,8512.368333
1932.969384,1149.143247,-0.000000,8068.244768
1932.969701,1378.971896,-0.000000,8290.306550
1932.970019,612.876398,666.185348,8512.368333
1932.970336,766.095498,814.226536,8512.368333
1932.970654,153.219100,740.205942,8956.491898
1932.970971,-306.438199,518.144159,9770.718434
1932.971288,0.000000,-0.000000,9844.739029
1932.971606,536.266849,148.041188,9548.656652
1932.971923,766.095498,296.082377,9400.615463
1932.972241,1302.362347,148.041188,9030.512492
1932.972558,1685.410096,296.082377,8512.368333
1932.972875,1991.848295,296.082377,8512.368333
1932.973193,2221.676944,370.102971,8438.347739
1932.973510,1685.410096,814.226536,9030.512492
1932.973828,612.876398,740.205942,9548.656652
1932.974145,0.000000,370.102971,10510.924376
1932.974462,0.000000,370.102971,11029.068536
1932.974780,612.876398,222.061783,11325.150913
1932.975097,842.705048,370.102971,10955.047942
1932.975415,1455.581446,222.061783,10214.842000
1932.975732,2298.286494,740.205942,9474.636058
1932.976049,3217.601092,888.247130,9400.615463
1932.976367,3064.381992,740.205942,8882.471304
1932.976684,3064.381992,1406.391290,9104.533087
1932.977002,2221.676944,1258.350101,9696.697840
1932.977319,1608.800546,1110.308913,9844.739029
1932.977636,1302.362347,740.205942,10732.986159
1932.977954,689.485948,888.247130,10807.006753
1932.978271,919.314598,1110.308913,10584.944971
1932.978589,1378.971896,740.205942,9696.697840
1932.978906,1302.362347,370.102971,9474.636058
1932.979223,2221.676944,296.082377,9252.574275
1932.979541,1915.238745,-0.000000,9400.615463
1932.979858,1838.629195,222.061783,9030.512492
1932.980176,612.876398,-0.000000,9474.636058
1932.980493,0.000000,444.123565,10066.800811
1932.980810,-919.314598,148.041188,10658.965565
1932.981128,-1378.971896,444.123565,11029.068536
1932.981445,-1302.362347,222.061783,10807.006753
1932.981763,-612.876398,222.061783,10140.821405
1932.982080,0.000000,-0.000000,9844.739029
1932.982397,1302.362347,-74.020594,8882.471304
1932.982715,1532.190996,-0.000000,8438.347739
1932.983032,1378.971896,-0.000000,7994.224174
1932.983350,1685.410096,370.102971,8068.244768
1932.983667,919.314598,666.185348,8512.368333
1932.983984,383.047749,370.102971,9178.553681
1932.984302,-153.219100,518.144159,9548.656652
1932.984619,0.000000,296.082377,9992.780217
1932.984936,0.000000,-0.000000,9548.656652
1932.985254,459.657299,148.041188,9622.677246
1932.985571,1685.410096,-0.000000,8882.471304
1932.985889,1685.410096,370.102971,8068.244768
1932.986206,2068.457845,518.144159,7846.182985
1932.986523,1608.800546,370.102971,7624.121203
1932.986841,1532.190996,444.123565,8364.327145
1932.987158,459.657299,444.123565,8512.368333
1932.987476,-153.219100,444.123565,9548.656652
1932.987793,-995.924147,-0.000000,9918.759623
1932.988110,-919.314598,-74.020594,10436.903782
1932.988428,-689.485948,-370.102971,10214.842000
1932.988745,153.219100,-296.082377,9696.697840
1932.989063,689.485948,-370.102971,8808.450710
1932.989380,1378.971896,-222.061783,8142.265362
1932.989697,1608.800546,-0.000000,8142.265362
1932.990015,1455.581446,-0.000000,8290.306550
1932.990332,1225.752797,370.102971,8660.409521
1932.990650,383.047749,518.144159,9104.533087
1932.990967,-229.828649,444.123565,9622.677246
1932.991284,-459.657299,-0.000000,10066.800811
1932.991602,0.000000,-148.041188,10140.821405
1932.991919,612.876398,-296.082377,10066.800811
1932.992237,919.314598,-296.082377,9400.615463
1932.992554,1685.410096,-296.082377,9326.594869
1932.992871,2145.067394,-148.041188,8290.306550
1932.993189,2221.676944,-222.061783,8586.388927
1932.993506,1455.581446,148.041188,9178.553681
1932.993824,842.705048,518.144159,9474.636058
1932.994141,76.609550,592.164754,10140.821405
1932.994458,0.000000,370.102971,11029.068536
1932.994775,-459.657299,-0.000000,11103.089130
1932.995093,-229.828649,-74.020594,11399.171507
1932.995410,229.828649,-0.000000,10362.883188
1932.995727,919.314598,-222.061783,9770.718434
1932.996045,1685.410096,148.041188,9252.574275
1932.996362,2145.067394,592.164754,8956.491898
1932.996679,2068.457845,296.082377,9030.512492
1932.996996,1838.629195,666.185348,8956.491898
1932.997314,766.095498,296.082377,9252.574275
1932.997631,229.828649,444.123565,10362.883188
1932.997948,-229.828649,-0.000000,10881.027347
1932.998266,0.000000,-0.000000,10807.006753
1932.998583,306.438199,-0.000000,10584.944971
1932.998900,842.705048,148.041188,9992.780217
1932.999218,1455.581446,296.082377,8882.471304
1932.999535,1762.019645,592.164754,8216.285956
1932.999852,1685.410096,370.102971,8142.265362
1933.000169,995.924147,518.144159,8734.430116
1933.000487,383.047749,592.164754,9326.594869
1933.000804,-383.047749,296.082377,9918.759623
1933.001121,-995.924147,148.041188,10732.986159
1933.001439,-1532.190996,370.102971,11103.089130
1933.001756,-1149.143247,148.041188,10510.924376
1933.002073,0.000000,592.164754,10362.883188
1933.002391,383.047749,592.164754,9252.574275
1933.002708,1532.190996,666.185348,8216.285956
1933.003025,1838.629195,814.226536,7772.162391
1933.003342,1532.190996,666.185348,7550.100608
1933.003660,1302.362347,1036.288319,7624.121203
1933.003977,612.876398,1110.308913,8216.285956
1933.004294,-153.219100,1036.288319,9326.594869
1933.004612,-1072.533697,962.267725,9474.636058
1933.004929,-1532.190996,740.205942,9844.739029
1933.005246,-1302.362347,370.102971,9992.780217
1933.005563,0.000000,370.102971,9548.656652
1933.005881,536.266849,444.123565,8734.430116
1933.006198,919.314598,-0.000000,8438.347739
1933.006515,919.314598,-148.041188,8660.409521
1933.006833,766.095498,-0.000000,8364.327145
1933.007150,383.047749,148.041188,8734.430116
1933.007467,0.000000,518.144159,9918.759623
1933.007785,-459.657299,592.164754,10584.944971
1933.008102,-459.657299,518.144159,10510.924376
1933.008419,-153.219100,370.102971,10362.883188
1933.008736,459.657299,222.061783,10066.800811
1933.009054,1608.800546,222.061783,9252.574275
1933.009371,2451.505594,296.082377,8808.450710
1933.009688,3064.381992,-0.000000,8438.347739
1933.010006,3064.381992,-0.000000,8438.347739
1933.010323,2374.896044,-0.000000,8734.430116
1933.010640,1991.848295,222.061783,9252.574275
1933.010958,1225.752797,148.041188,9844.739029
1933.011275,459.657299,-0.000000,10584.944971
1933.011592,76.609550,222.061783,10881.027347
1933.011909,153.219100,-296.082377,10510.924376
1933.012227,689.485948,-74.020594,10436.903782
1933.012544,1455.581446,-74.020594,9770.718434
1933.012861,2145.067394,-296.082377,9252.574275
1933.013179,2374.896044,-370.102971,8586.388927
1933.013496,2068.457845,-222.061783,8734.430116
1933.013813,1378.971896,-444.123565,9474.636058
1933.014130,306.438199,-592.164754,9844.739029
1933.014448,-229.828649,-814.226536,10807.006753
1933.014765,-459.657299,-444.123565,11029.068536
1933.015082,-383.047749,-222.061783,11251.130318
1933.015400,-153.219100,-74.020594,10362.883188
1933.015717,1072.533697,-518.144159,9474.636058
1933.016034,1991.848295,-0.000000,8290.306550
1933.016352,2528.115143,296.082377,7550.100608
1933.016669,2221.676944,222.061783,7476.080014
1933.016986,2604.724693,-0.000000,7846.182985
1933.017303,1455.581446,148.041188,8882.471304
1933.017621,229.828649,296.082377,9326.594869
1933.017938,-459.657299,-74.020594,10066.800811
1933.018255,-842.705048,-0.000000,10362.883188
1933.018573,-612.876398,-0.000000,9992.780217
1933.018890,0.000000,-0.000000,9844.739029
1933.019207,842.705048,-222.061783,9474.636058
1933.019525,1608.800546,-0.000000,8586.388927
1933.019842,1915.238745,370.102971,7846.182985
1933.020159,1608.800546,370.102971,8142.265362
1933.020476,1302.362347,814.226536,9030.512492
1933.020794,383.047749,592.164754,8956.491898
1933.021111,-459.657299,1036.288319,9548.656652
1933.021428,-842.705048,592.164754,10288.862594
1933.021746,-383.047749,-0.000000,10658.965565
1933.022063,-459.657299,-74.020594,9992.780217
1933.022380,383.047749,-518.144159,9548.656652
1933.022697,1302.362347,-518.144159,9178.553681
1933.023015,1838.629195,-296.082377,8142.265362
1933.023332,2068.457845,-74.020594,7698.141797
1933.023649,1838.629195,296.082377,8364.327145
1933.023967,1072.533697,518.144159,8586.388927
1933.024284,229.828649,740.205942,9252.574275
1933.024601,-153.219100,814.226536,9844.739029
1933.024919,-229.828649,370.102971,10510.924376
1933.025236,0.000000,296.082377,10066.800811
1933.025553,229.828649,-0.000000,9770.718434
1933.025870,842.705048,222.061783,9326.594869
1933.026188,1991.848295,370.102971,8882.471304
1933.026505,2145.067394,518.144159,8364.327145
1933.026822,2221.676944,888.247130,8068.244768
1933.027140,1225.752797,592.164754,8586.388927
1933.027457,383.047749,370.102971,9696.697840
1933.027774,-459.657299,296.082377,10288.862594
1933.028092,-1149.143247,444.123565,10584.944971
1933.028409,-1455.581446,222.061783,10881.027347
1933.028726,-919.314598,296.082377,10658.965565
1933.029043,-383.047749,-0.000000,9844.739029
1933.029361,536.266849,-0.000000,9474.636058
1933.029678,1532.190996,518.144159,8808.450710
1933.029995,2068.457845,666.185348,8438.347739
1933.030313,1915.238745,370.102971,8364.327145
1933.030630,1149.143247,-222.061783,8808.450710
1933.030947,612.876398,444.123565,9400.615463
1933.031265,76.609550,1036.288319,10288.862594
1933.031582,0.000000,888.247130,10288.862594
1933.031899,383.047749,888.247130,10288.862594
1933.032216,919.314598,444.123565,10288.862594
1933.032534,1302.362347,-0.000000,9400.615463
1933.032851,1838.629195,-0.000000,8586.388927
1933.033168,2298.286494,148.041188,8512.368333
1933.033486,2145.067394,444.123565,8438.347739
1933.033803,1991.848295,814.226536,8438.347739
1933.034120,919.314598,370.102971,9252.574275
1933.034437,-229.828649,-0.000000,10584.944971
1933.034755,-1225.752797,296.082377,11029.068536
1933.035072,-1532.190996,-74.020594,11547.212695
1933.035389,-995.924147,-370.102971,11547.212695
1933.035707,0.000000,-222.061783,11029.068536
1933.036024,612.876398,444.123565,9622.677246
1933.036341,1608.800546,666.185348,8956.491898
1933.036659,2528.115143,444.123565,8068.244768
1933.036976,2451.505594,592.164754,8364.327145
1933.037293,2298.286494,962.267725,8290.306550
1933.037610,1455.581446,296.082377,9030.512492
1933.037928,766.095498,148.041188,9770.718434
1933.038245,153.219100,-444.123565,10362.883188
1933.038562,306.438199,296.082377,10214.842000
1933.038880,153.219100,222.061783,9548.656652
1933.039197,1072.533697,-0.000000,9474.636058
1933.039514,2451.505594,-148.041188,8660.409521
1933.039832,2221.676944,-370.102971,8216.285956
1933.040149,2374.896044,-740.205942,8438.347739
1933.040466,1838.629195,-592.164754,8660.409521
1933.040783,995.924147,-222.061783,8882.471304
1933.041101,383.047749,148.041188,9918.759623
1933.041418,-229.828649,296.082377,10362.883188
1933.041735,-919.314598,518.144159,10288.862594
1933.042053,-383.047749,370.102971,10436.903782
1933.042370,76.609550,222.061783,10140.821405
1933.042687,1378.971896,-0.000000,9474.636058
1933.043004,2298.286494,-370.102971,8660.409521
1933.043322,2604.724693,-222.061783,8068.244768
1933.043639,2757.943793,-0.000000,7550.100608
1933.043956,2528.115143,148.041188,8142.265362
1933.044274,1608.800546,296.082377,8734.430116
1933.044591,1072.533697,-0.000000,9104.533087
1933.044908,459.657299,-0.000000,9696.697840
1933.045226,0.000000,-740.205942,10140.821405
1933.045543,0.000000,-1036.288319,10066.800811
1933.045860,766.095498,-1258.350101,9770.718434
1933.046177,919.314598,-1036.288319,9474.636058
1933.046495,1838.629195,-962.267725,8438.347739
1933.046812,1991.848295,-222.061783,7994.224174
1933.047129,1685.410096,-148.041188,8216.285956
1933.047447,1225.752797,-296.082377,8956.491898
1933.047764,306.438199,-0.000000,9474.636058
1933.048081,-306.438199,-148.041188,10214.842000
1933.048399,-689.485948,-0.000000,10955.047942
1933.048716,-306.438199,-222.061783,10732.986159
1933.049033,153.219100,-148.041188,10510.924376
1933.049350,766.095498,-0.000000,9548.656652
1933.049668,1838.629195,592.164754,8660.409521
1933.049985,2374.896044,962.267725,7920.203579
1933.050302,2681.334243,1332.370696,7846.182985
1933.050620,2374.896044,1406.391290,7624.121203
1933.050937,1532.190996,962.267725,8142.265362
1933.051254,306.438199,814.226536,9030.512492
1933.051571,-459.657299,-0.000000,10140.821405
1933.051889,-842.705048,-148.041188,10732.986159
1933.052206,-842.705048,-666.185348,11177.109724
1933.052523,-612.876398,-444.123565,10658.965565
1933.052841,76.609550,-666.185348,10214.842000
1933.053158,536.266849,-0.000000,9474.636058
1933.053475,995.924147,296.082377,8586.388927
1933.053793,1225.752797,444.123565,8734.430116
1933.054110,842.705048,370.102971,9104.533087
1933.054427,536.266849,444.123565,9696.697840
1933.054744,-459.657299,148.041188,10436.903782
1933.055062,-612.876398,-0.000000,10881.027347
1933.055379,-153.219100,-0.000000,11177.109724
1933.055696,0.000000,-148.041188,10658.965565
1933.056014,1072.533697,-0.000000,9622.677246
1933.056331,1685.410096,148.041188,9178.553681
1933.056648,2987.772442,592.164754,8512.368333
1933.056966,3370.820191,592.164754,7994.224174
1933.057283,3294.210641,592.164754,7994.224174
1933.057600,2987.772442,666.185348,8734.430116
1933.057917,1685.410096,666.185348,9474.636058
1933.058235,919.314598,1406.391290,10288.862594
1933.058552,995.924147,1332.370696,10214.842000
1933.058869,689.485948,1850.514855,10288.862594
1933.059187,1149.143247,1554.432478,10140.821405
1933.059504,1302.362347,1480.411884,9030.512492
1933.059821,1991.848295,1406.391290,8364.327145
1933.060138,2374.896044,1332.370696,7920.203579
1933.060456,2068.457845,962.267725,7772.162391
1933.060773,1225.752797,444.123565,8882.471304
1933.061090,0.000000,888.247130,9104.533087
1933.061408,-995.924147,814.226536,9548.656652
1933.061725,-1838.629195,518.144159,10510.924376
1933.062042,-2528.115143,148.041188,10955.047942
1933.062360,-2451.505594,-0.000000,10807.006753
1933.062677,-2068.457845,-74.020594,10140.821405
1933.062994,-1149.143247,-444.123565,9622.677246
1933.063311,-306.438199,-222.061783,8586.388927
1933.063629,383.047749,-74.020594,7920.203579
1933.063946,842.705048,-148.041188,8290.306550
1933.064263,536.266849,-222.061783,8438.347739
1933.064581,-536.266849,-74.020594,9104.533087
1933.064898,-536.266849,-0.000000,9696.697840
1933.065215,-766.095498,-0.000000,10288.862594
1933.065533,-229.828649,-74.020594,10732.986159
1933.065850,0.000000,-222.061783,10362.883188
1933.066167,842.705048,296.082377,9548.656652
1933.066484,2221.676944,444.123565,8808.450710
1933.066802,2298.286494,740.205942,7920.203579
1933.067119,2757.943793,592.164754,7920.203579
1933.067436,2528.115143,962.267725,8290.306550
1933.067754,1838.629195,740.205942,8808.450710
1933.068071,612.876398,518.144159,9548.656652
1933.068388,0.000000,148.041188,10881.027347
1933.068706,-766.095498,148.041188,11325.150913
1933.069023,-383.047749,444.123565,10881.027347
1933.069340,0.000000,-0.000000,10807.006753
1933.069657,995.924147,296.082377,9844.739029
1933.069975,2068.457845,666.185348,9104.533087
1933.070292,2374.896044,888.247130,8216.285956
1933.070609,2528.115143,888.247130,7920.203579
1933.070927,2221.676944,1110.308913,7698.141797
1933.071244,1455.581446,666.185348,8512.368333
1933.071561,612.876398,888.247130,9252.574275
1933.071878,-229.828649,666.185348,10066.800811
1933.072196,0.000000,370.102971,10436.903782
1933.072513,0.000000,-0.000000,10436.903782
1933.072830,0.000000,-444.123565,9770.718434
1933.073148,766.095498,-666.185348,9252.574275
1933.073465,1149.143247,-370.102971,8512.368333
1933.073782,1149.143247,-296.082377,8290.306550
1933.074100,612.876398,-0.000000,8734.430116
1933.074417,689.485948,-222.061783,8956.491898
1933.074734,-306.438199,-0.000000,10066.800811
1933.075051,-995.924147,-0.000000,10584.944971
1933.075369,-1378.971896,518.144159,11399.171507
1933.075686,-842.705048,370.102971,11621.233289
1933.076003,0.000000,888.247130,10584.944971
1933.076321,1149.143247,444.123565,10140.821405
1933.076638,1762.019645,148.041188,9474.636058
1933.076955,2911.162892,444.123565,8734.430116
1933.077273,3447.429741,222.061783,8216.285956
1933.077590,2987.772442,-0.000000,8586.388927
1933.077907,1915.238745,518.144159,9104.533087
1933.078224,1378.971896,444.123565,9548.656652
1933.078542,459.657299,296.082377,10066.800811
1933.078859,0.000000,222.061783,10658.965565
1933.079176,0.000000,-0.000000,11251.130318
1933.079494,536.266849,-0.000000,10362.883188
1933.079811,995.924147,-444.123565,9252.574275
1933.080128,1532.190996,-444.123565,8882.471304
1933.080445,1762.019645,-518.144159,8512.368333
1933.080763,1838.629195,-0.000000,7846.182985
1933.081080,1149.143247,-0.000000,8882.471304
1933.081397,229.828649,-74.020594,9178.553681
1933.081715,-612.876398,222.061783,9770.718434
1933.082032,-1532.190996,-0.000000,10362.883188
1933.082349,-1608.800546,-0.000000,10510.924376
1933.082667,-995.924147,-296.082377,10436.903782
1933.082984,0.000000,-296.082377,9474.636058
1933.083301,612.876398,-148.041188,8512.368333
1933.083618,1762.019645,-0.000000,7920.203579
1933.083936,2145.067394,-0.000000,7772.162391
1933.084253,1532.190996,296.082377,7550.100608
1933.084570,842.705048,444.123565,7994.224174
1933.084888,306.438199,592.164754,8882.471304
1933.085205,-383.047749,370.102971,9918.759623
1933.085522,-995.924147,370.102971,10362.883188
1933.085840,-536.266849,-0.000000,10362.883188
1933.086157,0.000000,296.082377,9770.718434
1933.086474,919.314598,-74.020594,9252.574275
1933.086791,2451.505594,-0.000000,8660.409521
1933.087109,2834.553343,222.061783,7698.141797
1933.087426,2834.553343,296.082377,7772.162391
1933.087743,2374.896044,370.102971,8068.244768
1933.088061,1378.971896,222.061783,8438.347739
1933.088378,612.876398,592.164754,9474.636058
1933.088695,0.000000,444.123565,10140.821405
1933.089012,-306.438199,-0.000000,10510.924376
1933.089330,-383.047749,-592.164754,10807.006753
1933.089647,689.485948,-148.041188,10214.842000
1933.089964,1455.581446,-444.123565,9474.636058
1933.090282,2298.286494,-148.041188,8882.471304
1933.090599,2681.334243,-444.123565,8438.347739
1933.090916,2374.896044,-0.000000,8290.306550
1933.091234,1838.629195,592.164754,8808.450710
1933.091551,689.485948,740.205942,9696.697840
1933.091868,153.219100,1036.288319,10362.883188
1933.092184,-459.657299,1184.329507,10658.965565
1933.092502,-689.485948,814.226536,10732.986159
1933.092819,-229.828649,222.061783,10732.986159
1933.093136,229.828649,-74.020594,9844.739029
1933.093453,842.705048,-0.000000,9252.574275
1933.093771,1608.800546,-0.000000,8586.388927
1933.094088,1838.629195,-0.000000,8660.409521
1933.094405,919.314598,370.102971,8364.327145
1933.094722,306.438199,592.164754,9474.636058
1933.095040,-612.876398,370.102971,9918.759623
1933.095357,-1608.800546,518.144159,10732.986159
1933.095674,-1532.190996,518.144159,10955.047942
1933.095991,-1608.800546,296.082377,10955.047942
1933.096309,-383.047749,-0.000000,10732.986159
1933.096626,76.609550,-0.000000,9770.718434
1933.096943,1608.800546,148.041188,8882.471304
1933.097260,2451.505594,740.205942,8290.306550
1933.097578,2451.505594,666.185348,8364.327145
1933.097895,2068.457845,888.247130,8216.285956
1933.098212,1532.190996,592.164754,9326.594869
1933.098529,919.314598,740.205942,10214.842000
1933.098847,153.219100,814.226536,10881.027347
1933.099164,229.828649,814.226536,10732.986159
1933.099481,306.438199,518.144159,10140.821405
1933.099798,766.095498,222.061783,9474.636058
1933.100116,1608.800546,-148.041188,9178.553681
1933.100433,2221.676944,-222.061783,8586.388927
1933.100750,1838.629195,-296.082377,8438.347739
1933.101067,1685.410096,-148.041188,8882.471304
1933.101385,459.657299,-148.041188,9474.636058
1933.101702,0.000000,-74.020594,10288.862594
1933.102019,-1072.533697,-74.020594,10807.006753
1933.102336,-1302.362347,-0.000000,11029.068536
1933.102654,-919.314598,-0.000000,10881.027347
1933.102971,76.609550,-74.020594,10436.903782
1933.103288,995.924147,-370.102971,9474.636058
1933.103605,1915.238745,-0.000000,8512.368333
1933.103923,2451.505594,-148.041188,7476.080014
1933.104240,2681.334243,-0.000000,7402.059420
1933.104557,2451.505594,148.041188,7402.059420
1933.104874,1532.190996,444.123565,8364.327145
1933.105192,612.876398,592.164754,8734.430116
1933.105509,0.000000,592.164754,9474.636058
1933.105826,-383.047749,296.082377,9844.739029
1933.106143,0.000000,-0.000000,9548.656652
1933.106461,153.219100,-222.061783,9474.636058
1933.106778,919.314598,-296.082377,9030.512492
1933.107095,1532.190996,-444.123565,8512.368333
1933.107412,2068.457845,-296.082377,7920.203579
1933.107730,2068.457845,-370.102971,8438.347739
1933.108047,766.095498,148.041188,8734.430116
1933.108364,0.000000,444.123565,9474.636058
1933.108681,-383.047749,370.102971,9918.759623
1933.108999,-919.314598,296.082377,10214.842000
1933.109316,-1378.971896,-148.041188,10955.047942
1933.109633,0.000000,-592.164754,10140.821405
1933.109950,766.095498,-592.164754,9696.697840
1933.110268,2068.457845,-370.102971,9252.574275
1933.110585,2757.943793,-148.041188,8068.244768
1933.110902,2834.553343,592.164754,7402.059420
1933.111219,2604.724693,740.205942,7920.203579
1933.111537,1991.848295,666.185348,8290.306550
1933.111854,1149.143247,666.185348,9252.574275
1933.112171,612.876398,222.061783,10140.821405
1933.112488,76.609550,444.123565,10807.006753
1933.112806,612.876398,-0.000000,10510.924376
1933.113123,842.705048,-370.102971,10288.862594
1933.113440,1455.581446,-518.144159,9770.718434
1933.113757,1685.410096,-370.102971,9178.553681
1933.114075,2374.896044,222.061783,8364.327145
1933.114392,2145.067394,592.164754,8660.409521
1933.114709,1685.410096,740.205942,8956.491898
1933.115026,612.876398,592.164754,9548.656652
1933.115344,0.000000,296.082377,10362.883188
1933.115661,-995.924147,296.082377,10881.027347
1933.115978,-919.314598,-0.000000,11251.130318
1933.116295,-842.705048,-0.000000,11251.130318
1933.116613,0.000000,-74.020594,10140.821405
1933.116930,842.705048,-296.082377,9474.636058
1933.117247,1455.581446,-0.000000,9104.533087
1933.117564,1762.019645,-0.000000,8438.347739
1933.117882,1685.410096,-0.000000,8512.368333
1933.118199,1149.143247,-0.000000,8808.450710
1933.118516,306.438199,148.041188,9770.718434
1933.118834,-306.438199,370.102971,10584.944971
1933.119151,-689.485948,444.123565,10658.965565
1933.119468,0.000000,740.205942,10584.944971
1933.119785,842.705048,592.164754,9622.677246
1933.120103,1455.581446,444.123565,9326.594869
1933.120420,2145.067394,518.144159,8586.388927
1933.120737,2604.724693,740.205942,7920.203579
1933.121054,3217.601092,444.123565,7550.100608
1933.121372,2068.457845,666.185348,8512.368333
1933.121689,995.924147,518.144159,9104.533087
1933.122006,153.219100,962.267725,9474.636058
1933.122323,-229.828649,814.226536,10288.862594
1933.122641,-459.657299,666.185348,10658.965565
1933.122958,0.000000,296.082377,10288.862594
1933.123275,536.266849,370.102971,9918.759623
1933.123592,995.924147,74.020594,9178.553681
1933.123910,1991.848295,444.123565,8734.430116
1933.124227,2374.896044,-222.061783,8216.285956
1933.124544,2068.457845,370.102971,7994.224174
1933.124861,1532.190996,444.123565,8364.327145
1933.125179,842.705048,518.144159,9104.533087
1933.125496,229.828649,814.226536,9844.739029
1933.125813,0.000000,296.082377,9622.677246
1933.126130,-153.219100,74.020594,10140.821405
1933.126448,-306.438199,-370.102971,9696.697840
1933.126765,459.657299,-1110.308913,9474.636058
1933.127082,1072.533697,-1406.391290,9030.512492
1933.127399,1532.190996,-1480.411884,8512.368333
1933.127717,1608.800546,-888.247130,8290.306550
1933.128034,1225.752797,-666.185348,8808.450710
1933.128351,536.266849,-518.144159,9178.553681
1933.128668,0.000000,-74.020594,9770.718434
1933.128986,-229.828649,-148.041188,10732.986159
1933.129303,-536.266849,-0.000000,10584.944971
1933.129620,0.000000,-0.000000,10140.821405
1933.129937,689.485948,-370.102971,9992.780217
1933.130255,1762.019645,-666.185348,9326.594869
1933.130572,2528.115143,-666.185348,8512.368333
1933.130889,3294.210641,-0.000000,7846.182985
1933.131206,3140.991542,592.164754,7846.182985
1933.131524,2528.115143,1406.391290,8068.244768
1933.131841,1608.800546,1628.453072,8734.430116
1933.132158,612.876398,1258.350101,9474.636058
1933.132475,76.609550,1258.350101,10066.800811
1933.132793,-306.438199,962.267725,10214.842000
1933.133110,-459.657299,-0.000000,10436.903782
1933.133427,229.828649,-592.164754,10510.924376
1933.133744,76.609550,-370.102971,9252.574275
1933.134062,689.485948,-148.041188,9104.533087
1933.134379,842.705048,-0.000000,8734.430116
1933.134696,383.047749,222.061783,8438.347739
1933.135013,0.000000,296.082377,9178.553681
1933.135331,-995.924147,-0.000000,9918.759623
1933.135648,-1685.410096,-222.061783,10510.924376
1933.135965,-1532.190996,-74.020594,10584.944971
1933.136282,-1149.143247,222.061783,10658.965565
1933.136600,-153.219100,296.082377,9548.656652
1933.136917,689.485948,740.205942,9252.574275
1933.137234,1608.800546,592.164754,8364.327145
1933.137551,1991.848295,666.185348,8068.244768
1933.137869,2068.457845,444.123565,7772.162391
1933.138186,1991.848295,814.226536,8734.430116
1933.138503,1532.190996,666.185348,9326.594869
1933.138820,383.047749,814.226536,10066.800811
1933.139138,0.000000,666.185348,10510.924376
1933.139455,0.000000,740.205942,10881.027347
1933.139772,383.047749,518.144159,10436.903782
1933.140089,995.924147,814.226536,10214.842000
1933.140407,1762.019645,962.267725,9400.615463
1933.140724,2298.286494,1110.308913,9326.594869
1933.141041,2604.724693,1036.288319,8808.450710
1933.141358,2451.505594,1480.411884,8882.471304
1933.141676,2068.457845,1850.514855,8734.430116
1933.141993,689.485948,1480.411884,9548.656652
1933.142310,229.828649,1110.308913,9992.780217
1933.142627,-306.438199,740.205942,10658.965565
1933.142945,-459.657299,592.164754,10955.047942
1933.143262,76.609550,592.164754,10732.986159
1933.143579,612.876398,592.164754,9326.594869
1933.143896,1532.190996,-0.000000,8956.491898
1933.144214,1915.238745,-0.000000,8808.450710
1933.144531,1838.629195,-0.000000,8512.368333
1933.144848,1225.752797,444.123565,8586.388927
1933.145165,995.924147,518.144159,8956.491898
1933.145483,-229.828649,592.164754,9622.677246
1933.145800,-766.095498,296.082377,9992.780217
1933.146117,-1072.533697,-296.082377,10510.924376
1933.146434,-1149.143247,-370.102971,10584.944971
1933.146752,-536.266849,-296.082377,9992.780217
1933.147069,0.000000,-222.061783,9326.594869
1933.147386,1302.362347,-740.205942,9030.512492
1933.147703,1608.800546,-74.020594,8068.244768
1933.148021,1149.143247,370.102971,8068.244768
1933.148338,1072.533697,148.041188,8512.368333
1933.148655,229.828649,222.061783,9400.615463
1933.148973,0.000000,222.061783,10288.862594
1933.149290,-459.657299,-0.000000,10584.944971
1933.149607,-766.095498,-296.082377,10807.006753
1933.149924,-306.438199,-814.226536,11103.089130
1933.150242,689.485948,-1406.391290,10658.965565
1933.150559,2145.067394,-1036.288319,9474.636058
1933.150876,2451.505594,-0.000000,8142.265362
1933.151193,3294.210641,-0.000000,7846.182985
1933.151511,3140.991542,-0.000000,7920.203579
1933.151828,2221.676944,-0.000000,8068.244768
1933.152145,1608.800546,444.123565,8734.430116
1933.152462,919.314598,740.205942,9178.553681
1933.152780,536.266849,444.123565,9696.697840
1933.153097,612.876398,-148.041188,9844.739029
1933.153414,766.095498,-74.020594,9696.697840
1933.153731,1762.019645,-222.061783,8586.388927
1933.154049,1838.629195,-518.144159,8216.285956
1933.154366,2298.286494,-0.000000,7846.182985
1933.154683,2834.553343,222.061783,7994.224174
1933.155000,1455.581446,-0.000000,8068.244768
1933.155318,459.657299,74.020594,9400.615463
1933.155635,-459.657299,296.082377,10140.821405
1933.155952,-1072.533697,592.164754,10807.006753
1933.156269,-919.314598,814.226536,10881.027347
1933.156587,-1072.533697,296.082377,10658.965565
1933.156904,76.609550,222.061783,9918.759623
1933.157221,536.266849,222.061783,8586.388927
1933.157538,1225.752797,592.164754,8216.285956
1933.157856,1685.410096,370.102971,7846.182985
1933.158173,1532.190996,222.061783,7846.182985
1933.158490,689.485948,296.082377,8586.388927
1933.158807,-459.657299,-0.000000,9622.677246
1933.159125,-766.095498,-518.144159,10732.986159
1933.159442,-1685.410096,-148.041188,10955.047942
1933.159759,-1378.971896,-0.000000,11029.068536
1933.160076,-842.705048,-0.000000,10658.965565
1933.160394,0.000000,-0.000000,9918.759623
1933.160711,1225.752797,-74.020594,9326.594869
1933.161028,1532.190996,444.123565,8512.368333
1933.161345,2145.067394,740.205942,8290.306550
1933.161663,1915.238745,518.144159,8660.409521
1933.161980,1149.143247,740.205942,9030.512492
1933.162297,536.266849,666.185348,9918.759623
1933.162614,-459.657299,666.185348,10881.027347
1933.162932,-536.266849,222.061783,10732.986159
1933.163249,-306.438199,-0.000000,10881.027347
1933.163566,76.609550,-148.041188,11103.089130
1933.163883,689.485948,-740.205942,10510.924376
1933.164201,1838.629195,-296.082377,9474.636058
1933.164518,2145.067394,-148.041188,9178.553681
1933.164835,2068.457845,444.123565,8364.327145
1933.165152,2757.943793,1480.411884,8438.347739
1933.165470,1225.752797,1258.350101,9178.553681
1933.165787,229.828649,1406.391290,9770.718434
1933.166104,-383.047749,1554.432478,9844.739029
1933.166421,0.000000,814.226536,10362.883188
1933.166739,766.095498,296.082377,10140.821405
1933.167056,766.095498,-148.041188,9992.780217
1933.167373,1532.190996,-222.061783,9474.636058
1933.167690,2068.457845,-296.082377,8068.244768
1933.168008,2374.896044,-0.000000,7476.080014
1933.168325,1762.019645,222.061783,7994.224174
1933.168642,995.924147,444.123565,8734.430116
1933.168959,0.000000,814.226536,8956.491898
1933.169277,-919.314598,888.247130,9770.718434
1933.169594,-1072.533697,444.123565,10658.965565
1933.169911,-842.705048,-0.000000,10658.965565
1933.170228,-383.047749,-370.102971,10436.903782
1933.170546,689.485948,-666.185348,10066.800811
1933.170863,1072.533697,-666.185348,9252.574275
1933.171180,1915.238745,-222.061783,8586.388927
1933.171497,2374.896044,-0.000000,8216.285956
1933.171815,2221.676944,296.082377,8364.327145
1933.172132,1149.143247,666.185348,8808.450710
1933.172449,459.657299,1110.308913,9326.594869
1933.172766,0.000000,1036.288319,9992.780217
1933.173084,0.000000,1110.308913,10214.842000
1933.173401,0.000000,296.082377,9622.677246
1933.173718,306.438199,-0.000000,9992.780217
1933.174035,1225.752797,148.041188,9474.636058
1933.174353,2068.457845,-0.000000,7994.224174
1933.174670,2374.896044,-0.000000,8142.265362
1933.174987,1915.238745,148.041188,8512.368333
1933.175304,919.314598,518.144159,8290.306550
1933.175622,76.609550,518.144159,8956.491898
1933.175939,-536.266849,370.102971,10066.800811
1933.176256,-1608.800546,666.185348,10288.862594
1933.176573,-1685.410096,592.164754,10288.862594
1933.176891,-689.485948,-0.000000,10214.842000
1933.177208,76.609550,-74.020594,9770.718434
1933.177525,919.314598,-148.041188,8956.491898
1933.177842,1608.800546,-0.000000,8068.244768
1933.178160,1838.629195,-148.041188,8068.244768
1933.178477,1685.410096,296.082377,8068.244768
1933.178794,1072.533697,666.185348,8512.368333
1933.179111,383.047749,740.205942,9326.594869
1933.179429,0.000000,740.205942,9918.759623
1933.179746,-689.485948,-0.000000,10584.944971
1933.180063,-536.266849,-0.000000,11177.109724
1933.180381,0.000000,-444.123565,10732.986159
1933.180698,842.705048,-666.185348,9918.759623
1933.181015,1991.848295,-592.164754,9844.739029
1933.181332,2451.505594,-444.123565,9178.553681
1933.181650,2528.115143,-370.102971,8660.409521
1933.181967,2068.457845,148.041188,9326.594869
1933.182284,1838.629195,-74.020594,9622.677246
1933.182601,995.924147,592.164754,10066.800811
1933.182919,229.828649,666.185348,10732.986159
1933.183236,229.828649,-0.000000,11177.109724
1933.183553,612.876398,-814.226536,10955.047942
1933.183870,1378.971896,-592.164754,10510.924376
1933.184188,2374.896044,-666.185348,9400.615463
1933.184505,3064.381992,-444.123565,8512.368333
1933.184822,3140.991542,222.061783,7698.141797
1933.185139,3217.601092,296.082377,7846.182985
1933.185457,2528.115143,444.123565,8808.450710
1933.185774,1378.971896,666.185348,9030.512492
1933.186091,766.095498,1184.329507,9844.739029
1933.186408,0.000000,962.267725,9844.739029
1933.186726,0.000000,370.102971,10140.821405
1933.187043,153.219100,-222.061783,10288.862594
1933.187360,306.438199,-296.082377,9770.718434
1933.187677,1072.533697,-444.123565,9030.512492
1933.187995,1302.362347,-370.102971,8068.244768
1933.188312,1532.190996,-148.041188,7920.203579
1933.188629,919.314598,518.144159,7772.162391
1933.188946,153.219100,888.247130,8290.306550
1933.189264,-842.705048,666.185348,9104.533087
1933.189581,-1302.362347,666.185348,9918.759623
1933.189898,-1685.410096,666.185348,9844.739029
1933.190215,-1455.581446,222.061783,10436.903782
1933.190533,-536.266849,-518.144159,9992.780217
1933.190850,-153.219100,-962.267725,9178.553681
1933.191167,689.485948,-592.164754,8512.368333
1933.191484,1532.190996,-148.041188,8290.306550
1933.191802,1225.752797,-222.061783,7624.121203
1933.192119,919.314598,296.082377,8068.244768
1933.192436,536.266849,370.102971,9104.533087
1933.192753,-383.047749,1036.288319,9326.594869
1933.193071,-612.876398,1480.411884,9696.697840
1933.193388,-306.438199,962.267725,9918.759623
1933.193705,0.000000,444.123565,9770.718434
1933.194023,689.485948,-0.000000,9548.656652
1933.194340,1455.581446,-222.061783,9326.594869
1933.194657,2221.676944,-148.041188,8808.450710
1933.194975,2451.505594,518.144159,8364.327145
1933.195292,1762.019645,518.144159,8364.327145
1933.195610,1302.362347,888.247130,9178.553681
1933.195927,536.266849,1184.329507,9770.718434
1933.196244,76.609550,1628.453072,9844.739029
1933.196562,0.000000,1258.350101,10732.986159
1933.196879,0.000000,814.226536,10807.006753
1933.197196,612.876398,-0.000000,10510.924376
1933.197514,1149.143247,-148.041188,10214.842000
1933.197831,1762.019645,-296.082377,9326.594869
1933.198149,1991.848295,148.041188,9104.533087
1933.198466,2374.896044,444.123565,8882.471304
1933.198783,2834.553343,1110.308913,8660.409521
1933.199101,1455.581446,888.247130,9326.594869
1933.199418,306.438199,740.205942,9696.697840
1933.199735,229.828649,444.123565,10288.862594
1933.200053,153.219100,-0.000000,11177.109724
1933.200370,383.047749,-0.000000,10955.047942
1933.200688,842.705048,-592.164754,10584.944971
1933.201005,1532.190996,-444.123565,9770.718434
1933.201322,2374.896044,-370.102971,9252.574275
1933.201640,2221.676944,-74.020594,8586.388927
1933.201957,2298.286494,-296.082377,8882.471304
1933.202274,1302.362347,-0.000000,9400.615463
1933.202592,536.266849,518.144159,9770.718434
1933.202909,0.000000,370.102971,10436.903782
1933.203227,0.000000,370.102971,10881.027347
1933.203544,-689.485948,-0.000000,10881.027347
1933.203861,-459.657299,-592.164754,11029.068536
1933.204179,229.828649,-666.185348,10584.944971
1933.204496,1149.143247,-370.102971,9696.697840
1933.204813,1915.238745,-296.082377,9326.594869
1933.205131,2451.505594,370.102971,8660.409521
1933.205448,1915.238745,592.164754,8216.285956
1933.205766,1532.190996,1036.288319,8438.347739
1933.206083,1149.143247,814.226536,9030.512492
1933.206400,153.219100,740.205942,9844.739029
1933.206718,76.609550,370.102971,9844.739029
1933.207035,-153.219100,370.102971,9844.739029
1933.207353,229.828649,-222.061783,9474.636058
1933.207670,995.924147,-518.144159,8808.450710
1933.207987,689.485948,-888.247130,8142.265362
1933.208305,1225.752797,-222.061783,7698.141797
1933.208622,919.314598,-148.041188,7920.203579
1933.208939,536.266849,-222.061783,8290.306550
1933.209257,-229.828649,-0.000000,8956.491898
1933.209574,-1149.143247,-0.000000,9474.636058
1933.209892,-1532.190996,-0.000000,9992.780217
1933.210209,-1608.800546,-74.020594,10214.842000
1933.210526,-995.924147,-0.000000,10288.862594
1933.210844,0.000000,-370.102971,9474.636058
1933.211161,995.924147,-666.185348,9104.533087
1933.211478,1608.800546,-0.000000,7994.224174
1933.211796,2374.896044,444.123565,7476.080014
1933.212113,2604.724693,740.205942,7772.162391
1933.212431,2681.334243,1110.308913,7624.121203
1933.212748,1762.019645,1332.370696,8142.265362
1933.213065,1149.143247,1332.370696,8808.450710
1933.213383,842.705048,1184.329507,9474.636058
1933.213700,995.924147,666.185348,9770.718434
1933.214017,1455.581446,148.041188,9844.739029
1933.214335,1762.019645,-0.000000,9622.677246
1933.214652,1991.848295,-370.102971,8808.450710
1933.214970,2374.896044,-0.000000,8734.430116
1933.215287,2145.067394,370.102971,8438.347739
1933.215604,1532.190996,592.164754,9252.574275
1933.215922,612.876398,962.267725,9178.553681
1933.216239,-229.828649,1258.350101,9918.759623
1933.216557,-1225.752797,1184.329507,9992.780217
1933.216874,-1378.971896,666.185348,10732.986159
1933.217191,-1378.971896,-74.020594,10807.006753
1933.217509,-689.485948,-148.041188,10584.944971
1933.217826,-153.219100,-370.102971,10140.821405
1933.218143,153.219100,-592.164754,9696.697840
1933.218461,306.438199,-518.144159,9030.512492
1933.218778,536.266849,-74.020594,9104.533087
1933.219096,153.219100,296.082377,9400.615463
1933.219413,153.219100,814.226536,9844.739029
1933.219730,-612.876398,1258.350101,10288.862594
1933.220048,-612.876398,1110.308913,10658.965565
1933.220365,-76.609550,666.185348,10732.986159
1933.220682,153.219100,-0.000000,11029.068536
1933.221000,1149.143247,-0.000000,10436.903782
1933.221317,1838.629195,148.041188,9622.677246
1933.221635,2987.772442,-0.000000,9326.594869
1933.221952,2757.943793,148.041188,9030.512492
1933.222269,2451.505594,740.205942,8882.471304
1933.222587,1838.629195,1110.308913,9474.636058
1933.222904,919.314598,1110.308913,9696.697840
1933.223221,842.705048,1036.288319,10214.842000
1933.223539,306.438199,962.267725,10658.965565
1933.223856,306.438199,-0.000000,10807.006753
1933.224174,919.314598,-0.000000,10881.027347
1933.224491,1455.581446,-0.000000,9844.739029
1933.224808,2681.334243,-74.020594,9326.594869
1933.225126,3294.210641,518.144159,8438.347739
1933.225443,2911.162892,740.205942,8216.285956
1933.225761,2911.162892,814.226536,8438.347739
1933.226078,1838.629195,1110.308913,8956.491898
1933.226395,1762.019645,1258.350101,9400.615463
1933.226713,842.705048,1110.308913,9030.512492
1933.227030,536.266849,296.082377,10140.821405
1933.227347,689.485948,-444.123565,9918.759623
1933.227665,689.485948,-962.267725,9770.718434
1933.227982,1149.143247,-1258.350101,8882.471304
1933.228300,1532.190996,-666.185348,8734.430116
1933.228617,1378.971896,-444.123565,7920.203579
1933.228934,1302.362347,-370.102971,8068.244768
1933.229252,229.828649,-74.020594,8660.409521
1933.229569,-689.485948,-0.000000,9104.533087
1933.229886,-1378.971896,296.082377,9104.533087
1933.230204,-2068.457845,74.020594,9918.759623
1933.230521,-1302.362347,-962.267725,10214.842000
1933.230839,-1302.362347,-888.247130,10288.862594
1933.231156,-995.924147,-1480.411884,9770.718434
1933.231473,0.000000,-1110.308913,9104.533087
1933.231791,1072.533697,-888.247130,8808.450710
1933.232108,1455.581446,-444.123565,8364.327145
1933.232425,1378.971896,296.082377,8068.244768
1933.232743,1225.752797,370.102971,8364.327145
1933.233060,842.705048,666.185348,8512.368333
1933.233378,459.657299,740.205942,9178.553681
1933.233695,306.438199,-0.000000,9622.677246
1933.234012,153.219100,370.102971,9474.636058
1933.234330,689.485948,-0.000000,9474.636058
1933.234647,1225.752797,-222.061783,9252.574275
1933.234965,1685.410096,-518.144159,9030.512492
1933.235282,1991.848295,-222.061783,8364.327145
1933.235599,1838.629195,148.041188,7994.224174
1933.235917,919.314598,666.185348,8512.368333
1933.236234,383.047749,1036.288319,9030.512492
1933.236551,-306.438199,1184.329507,9548.656652
1933.236869,-1072.533697,1258.350101,10066.800811
1933.237186,-1072.533697,888.247130,10214.842000
1933.237504,-995.924147,592.164754,10510.924376
1933.237821,-306.438199,296.082377,10362.883188
1933.238138,459.657299,-74.020594,9844.739029
1933.238456,842.705048,-0.000000,8956.491898
1933.238773,1302.362347,370.102971,8808.450710
1933.239090,919.314598,962.267725,8808.450710
1933.239408,612.876398,1184.329507,8882.471304
1933.239725,766.095498,1406.391290,9622.677246
1933.240043,-383.047749,1332.370696,9696.697840
1933.240360,-536.266849,1110.308913,10510.924376
1933.240677,-459.657299,370.102971,10732.986159
1933.240995,0.000000,222.061783,10807.006753
1933.241312,306.438199,-0.000000,10288.862594
1933.241629,1149.143247,296.082377,9474.636058
1933.241947,1685.410096,518.144159,9474.636058
1933.242264,1915.238745,666.185348,9252.574275
1933.242582,1532.190996,888.247130,8956.491898
1933.242899,1149.143247,962.267725,9252.574275
1933.243216,919.314598,1480.411884,10140.821405
1933.243534,306.438199,1554.432478,10584.944971
1933.243851,383.047749,814.226536,10955.047942
1933.244168,995.924147,370.102971,11251.130318
1933.244486,1608.800546,-148.041188,11029.068536
1933.244803,2145.067394,-74.020594,9992.780217
1933.245121,2374.896044,-0.000000,9474.636058
1933.245438,2681.334243,444.123565,8956.491898
1933.245755,2681.334243,740.205942,8512.368333
1933.246073,2451.505594,962.267725,9178.553681
1933.246390,1378.971896,666.185348,9622.677246
1933.246708,459.657299,666.185348,9992.780217
1933.247025,0.000000,222.061783,10288.862594
1933.247342,-306.438199,-370.102971,11251.130318
1933.247660,153.219100,-1258.350101,10807.006753
1933.247977,536.266849,-1554.432478,10214.842000
1933.248294,919.314598,-1480.411884,9474.636058
1933.248612,1455.581446,-962.267725,8956.491898
1933.248929,1762.019645,-814.226536,8364.327145
1933.249247,1455.581446,-222.061783,8068.244768
1933.249564,536.266849,-444.123565,8586.388927
1933.249881,-383.047749,-740.205942,9326.594869
1933.250199,-995.924147,-666.185348,9548.656652
1933.250516,-1149.143247,-1184.329507,9844.739029
1933.250833,-689.485948,-1258.350101,10214.842000
1933.251151,-229.828649,-1258.350101,9696.697840
1933.251468,536.266849,-1184.329507,9030.512492
1933.251786,1149.143247,-888.247130,8734.430116
1933.252103,1608.800546,-740.205942,7772.162391
1933.252420,1762.019645,-0.000000,7624.121203
1933.252738,1608.800546,518.144159,7402.059420
1933.253055,995.924147,518.144159,8142.265362
1933.253372,612.876398,592.164754,8660.409521
1933.253690,306.438199,1110.308913,8734.430116
1933.254007,842.705048,740.205942,9326.594869
1933.254325,919.314598,222.061783,9326.594869
1933.254642,1532.190996,-0.000000,8438.347739
1933.254959,2604.724693,-0.000000,8068.244768
1933.255277,2681.334243,-0.000000,7846.182985
1933.255594,2528.115143,444.123565,7105.977043
1933.255912,2145.067394,962.267725,7105.977043
1933.256229,1455.581446,1258.350101,7772.162391
1933.256546,842.705048,1628.453072,8290.306550
1933.256864,76.609550,1628.453072,9252.574275
1933.257181,-383.047749,1258.350101,9474.636058
1933.257498,-612.876398,518.144159,9992.780217
1933.257816,-306.438199,-296.082377,10214.842000
1933.258133,229.828649,-592.164754,10066.800811
1933.258451,995.924147,-740.205942,8956.491898
1933.258768,1378.971896,-0.000000,8660.409521
1933.259085,1532.190996,518.144159,8364.327145
1933.259403,153.219100,888.247130,8956.491898
1933.259720,153.219100,1258.350101,9104.533087
1933.260037,-459.657299,1776.494261,9992.780217
1933.260355,-842.705048,1850.514855,10436.903782
1933.260672,-1149.143247,1332.370696,11029.068536
1933.260990,-919.314598,1036.288319,11177.109724
1933.261307,-383.047749,296.082377,10955.047942
1933.261624,383.047749,-74.020594,10658.965565
1933.261942,1225.752797,-0.000000,10066.800811
1933.262259,1455.581446,148.041188,9474.636058
1933.262576,1225.752797,666.185348,9918.759623
1933.262894,766.095498,1110.308913,10066.800811
1933.263211,76.609550,1480.411884,10732.986159
1933.263529,-459.657299,1184.329507,11177.109724
1933.263846,-842.705048,1036.288319,11695.253884
1933.264163,-459.657299,296.082377,12213.398043
1933.264481,0.000000,-0.000000,11843.295072
1933.264798,689.485948,-0.000000,11177.109724
1933.265116,1608.800546,148.041188,10807.006753
1933.265433,2374.896044,296.082377,10140.821405
1933.265750,2681.334243,518.144159,9474.636058
1933.266068,2604.724693,370.102971,9474.636058
1933.266385,2298.286494,592.164754,9770.718434
1933.266702,2145.067394,962.267725,9844.739029
1933.267020,1149.143247,740.205942,9992.780217
1933.267337,1072.533697,666.185348,10436.903782
1933.267655,1149.143247,444.123565,10510.924376
1933.267972,1762.019645,-0.000000,9992.780217
1933.268289,2528.115143,-0.000000,9030.512492
1933.268607,2528.115143,-0.000000,8586.388927
1933.268924,3064.381992,-370.102971,8068.244768
1933.269241,2451.505594,-74.020594,7920.203579
1933.269559,1532.190996,-222.061783,8216.285956
1933.269876,153.219100,-444.123565,9326.594869
1933.270194,-995.924147,370.102971,8956.491898
1933.270511,-2451.505594,666.185348,8734.430116
1933.270828,-2834.553343,-444.123565,9770.718434
1933.271146,-1915.238745,-1998.556043,10140.821405
1933.271463,-2451.505594,-2294.638420,9770.718434
1933.271780,-2145.067394,-1924.535449,9992.780217
1933.272098,-919.314598,-2442.679609,8586.388927
1933.272415,-306.438199,-2146.597232,9326.594869
1933.272733,-459.657299,-1850.514855,9622.677246
1933.273050,-919.314598,-518.144159,7920.203579
1933.273367,-153.219100,814.226536,8068.244768
1933.273685,0.000000,1332.370696,8364.327145
1933.274002,229.828649,962.267725,7994.224174
1933.274319,1072.533697,814.226536,8068.244768
1933.274637,1685.410096,-222.061783,8068.244768
1933.274954,2528.115143,-740.205942,7550.100608
1933.275272,3983.696590,-1554.432478,7328.038826
1933.275589,4443.353888,-740.205942,6735.874072
1933.275906,3830.477490,296.082377,6291.750507
1933.276224,3370.820191,148.041188,7328.038826
1933.276541,2987.772442,518.144159,7920.203579
1933.276859,1532.190996,1258.350101,8216.285956
1933.277176,536.266849,1850.514855,9252.574275
1933.277493,-229.828649,666.185348,10140.821405
1933.277811,0.000000,-518.144159,10288.862594
1933.278128,536.266849,-592.164754,10362.883188
1933.278445,919.314598,-0.000000,10658.965565
1933.278763,1762.019645,-0.000000,9548.656652
1933.279080,2451.505594,592.164754,8660.409521
1933.279398,2834.553343,1184.329507,9326.594869
1933.279715,1915.238745,1850.514855,8660.409521
1933.280032,1532.190996,1998.556043,8512.368333
1933.280350,1532.190996,1258.350101,9622.677246
1933.280667,612.876398,1036.288319,10362.883188
1933.280984,0.000000,740.205942,10436.903782
1933.281302,76.609550,-222.061783,10214.842000
1933.281619,0.000000,-370.102971,10807.006753
1933.281937,689.485948,-962.267725,10658.965565
1933.282254,1072.533697,-0.000000,9548.656652
1933.282571,766.095498,444.123565,9474.636058
1933.282889,306.438199,-222.061783,10066.800811
1933.283206,-229.828649,-74.020594,10510.924376
1933.283523,-689.485948,370.102971,11621.233289
1933.283841,-1378.971896,518.144159,12139.377449
1933.284158,-1072.533697,296.082377,12657.521608
1933.284476,-919.314598,370.102971,12213.398043
1933.284793,153.219100,296.082377,12065.356855
1933.285110,689.485948,370.102971,11325.150913
1933.285428,2298.286494,740.205942,10140.821405
1933.285745,2757.943793,1480.411884,9548.656652
1933.286063,3217.601092,1776.494261,9326.594869
1933.286380,2987.772442,1702.473667,9474.636058
1933.286697,2451.505594,1554.432478,9326.594869
1933.287015,1608.800546,1554.432478,9622.677246
1933.287332,995.924147,1702.473667,9622.677246
1933.287649,842.705048,888.247130,10140.821405
1933.287967,612.876398,-0.000000,10214.842000
1933.288284,995.924147,-296.082377,10362.883188
1933.288602,1072.533697,-592.164754,9770.718434
1933.288919,1225.752797,-518.144159,9252.574275
1933.289236,1378.971896,-148.041188,8882.471304
1933.289554,1532.190996,222.061783,8882.471304
1933.289871,689.485948,888.247130,8956.491898
1933.290188,229.828649,1406.391290,8512.368333
1933.290506,-306.438199,1850.514855,8364.327145
1933.290823,-459.657299,740.205942,8882.471304
1933.291141,-306.438199,814.226536,9178.553681
1933.291458,-536.266849,444.123565,8882.471304
1933.291775,0.000000,-222.061783,8734.430116
1933.292093,459.657299,-740.205942,8142.265362
1933.292410,919.314598,-888.247130,7920.203579
1933.292727,1072.533697,-814.226536,7476.080014
1933.293045,536.266849,-666.185348,7402.059420
1933.293362,0.000000,-148.041188,8068.244768
1933.293680,-383.047749,-74.020594,8290.306550
1933.293997,-766.095498,-74.020594,8734.430116
1933.294314,-1225.752797,-222.061783,9474.636058
1933.294632,-842.705048,-740.205942,9844.739029
1933.294949,-612.876398,-814.226536,9474.636058
1933.295267,1072.533697,-1184.329507,9030.512492
1933.295584,1225.752797,-888.247130,8290.306550
1933.295901,1915.238745,-666.185348,8142.265362
1933.296219,2757.943793,-444.123565,8364.327145
1933.296536,2298.286494,-222.061783,8068.244768
1933.296854,1915.238745,296.082377,8586.388927
1933.297171,1302.362347,592.164754,9252.574275
1933.297489,1072.533697,370.102971,9252.574275
1933.297806,842.705048,-0.000000,9844.739029
1933.298124,1302.362347,-0.000000,9770.718434
1933.298441,1072.533697,-74.020594,9548.656652
1933.298759,2068.457845,-296.082377,9474.636058
1933.299076,2221.676944,-370.102971,9178.553681
1933.299393,2374.896044,-888.247130,9326.594869
1933.299711,1608.800546,-370.102971,9474.636058
1933.300028,1072.533697,-222.061783,9474.636058
1933.300346,612.876398,-0.000000,9844.739029
1933.300663,229.828649,222.061783,10510.924376
1933.300981,76.609550,148.041188,10584.944971
1933.301298,0.000000,-0.000000,10584.944971
1933.301616,0.000000,-518.144159,10362.883188
1933.301933,766.095498,-444.123565,9992.780217
1933.302250,842.705048,-222.061783,9474.636058
1933.302568,1149.143247,-74.020594,9030.512492
1933.302885,689.485948,-74.020594,8882.471304
1933.303203,306.438199,-0.000000,9474.636058
1933.303520,-229.828649,148.041188,10140.821405
1933.303838,-842.705048,666.185348,10140.821405
1933.304155,-1302.362347,370.102971,11177.109724
1933.304473,-1532.190996,-0.000000,11621.233289
1933.304790,-1532.190996,370.102971,11695.253884
1933.305107,-306.438199,222.061783,10881.027347
1933.305425,612.876398,370.102971,10362.883188
1933.305742,1762.019645,962.267725,9474.636058
1933.306060,2451.505594,1332.370696,8808.450710
1933.306377,2374.896044,1406.391290,8882.471304
1933.306695,3294.210641,1998.556043,8660.409521
1933.307012,2451.505594,2442.679609,8364.327145
1933.307330,2451.505594,2812.782580,8734.430116
1933.307647,2145.067394,2516.700203,9030.512492
1933.307965,1991.848295,2146.597232,9252.574275
1933.308282,1838.629195,1480.411884,9178.553681
1933.308599,1991.848295,1258.350101,9252.574275
1933.308917,2374.896044,740.205942,9400.615463
1933.309234,1838.629195,444.123565,9326.594869
1933.309552,1608.800546,296.082377,9030.512492
1933.309869,1149.143247,518.144159,9252.574275
1933.310187,76.609550,1184.329507,9548.656652
1933.310504,-612.876398,1332.370696,9548.656652
1933.310822,-1072.533697,1406.391290,9844.739029
1933.311139,-1685.410096,1332.370696,10140.821405
1933.311456,-1532.190996,888.247130,9918.759623
1933.311774,-1149.143247,370.102971,9548.656652
1933.312091,-766.095498,-370.102971,9252.574275
1933.312409,0.000000,-740.205942,8512.368333
1933.312726,-153.219100,-592.164754,8364.327145
1933.313044,0.000000,-222.061783,8660.409521
1933.313361,0.000000,-148.041188,8882.471304
1933.313679,-766.095498,-0.000000,9252.574275
1933.313996,-1149.143247,222.061783,9252.574275
1933.314313,-1532.190996,370.102971,9252.574275
1933.314631,-1608.800546,296.082377,9696.697840
1933.314948,-1072.533697,-222.061783,9770.718434
1933.315266,-842.705048,-666.185348,9844.739029
1933.315583,229.828649,-666.185348,9548.656652
1933.315901,842.705048,-888.247130,9326.594869
1933.316218,1455.581446,-814.226536,9104.533087
1933.316536,2068.457845,-666.185348,9104.533087
1933.316853,1991.848295,-222.061783,9326.594869
1933.317171,1608.800546,296.082377,9178.553681
1933.317488,1378.971896,888.247130,9104.533087
1933.317805,1762.019645,1110.308913,9400.615463
1933.318123,1838.629195,888.247130,9474.636058
1933.318440,2451.505594,592.164754,9326.594869
1933.318758,2911.162892,222.061783,8956.491898
1933.319075,2834.553343,-148.041188,8512.368333
1933.319393,3064.381992,-296.082377,8438.347739
1933.319710,2911.162892,-222.061783,8586.388927
1933.320028,2298.286494,-222.061783,8882.471304
1933.320345,1685.410096,-296.082377,9400.615463
1933.320662,919.314598,-370.102971,9622.677246
1933.320980,153.219100,-222.061783,10288.862594
1933.321297,76.609550,-222.061783,10510.924376
1933.321615,0.000000,-666.185348,10881.027347
1933.321932,0.000000,-1258.350101,10510.924376
1933.322250,459.657299,-1036.288319,9992.780217
1933.322567,1378.971896,-518.144159,9400.615463
1933.322885,2068.457845,-74.020594,9178.553681
1933.323202,1915.238745,296.082377,8364.327145
1933.323519,1685.410096,518.144159,8438.347739
1933.323837,1149.143247,814.226536,8512.368333
1933.324154,995.924147,1036.288319,8882.471304
1933.324472,229.828649,518.144159,9474.636058
1933.324789,76.609550,-0.000000,10214.842000
1933.325107,306.438199,-666.185348,10288.862594
1933.325424,0.000000,-888.247130,10066.800811
1933.325742,919.314598,-888.247130,10288.862594
1933.326059,1072.533697,-370.102971,9696.697840
1933.326377,1532.190996,-74.020594,9474.636058
1933.326694,1302.362347,592.164754,9326.594869
1933.327011,842.705048,962.267725,9622.677246
1933.327329,766.095498,1184.329507,9474.636058
1933.327646,612.876398,1480.411884,9622.677246
1933.327964,995.924147,1110.308913,10288.862594
1933.328281,689.485948,518.144159,9918.759623
1933.328599,1149.143247,444.123565,9474.636058
1933.328916,1378.971896,-370.102971,9474.636058
1933.329234,1838.629195,-0.000000,8808.450710
1933.329551,1915.238745,-148.041188,8364.327145
1933.329868,1608.800546,-0.000000,8586.388927
1933.330186,995.924147,296.082377,9030.512492
1933.330503,153.219100,444.123565,8882.471304
1933.330821,-919.314598,1036.288319,9326.594869
1933.331138,-1455.581446,888.247130,9844.739029
1933.331456,-1532.190996,222.061783,10066.800811
1933.331773,-1762.019645,-222.061783,10288.862594
1933.332091,-1608.800546,-518.144159,10584.944971
1933.332408,-689.485948,-0.000000,9918.759623
1933.332726,76.609550,-0.000000,9474.636058
1933.333043,383.047749,370.102971,8660.409521
1933.333360,612.876398,444.123565,8882.471304
1933.333678,459.657299,1036.288319,8512.368333
1933.333995,383.047749,1480.411884,8438.347739
1933.334313,306.438199,1554.432478,8882.471304
1933.334630,229.828649,1480.411884,9104.533087
1933.334948,459.657299,1110.308913,9548.656652
1933.335265,306.438199,740.205942,9104.533087
1933.335583,689.485948,370.102971,9474.636058
1933.335900,842.705048,-0.000000,9326.594869
1933.336217,1378.971896,222.061783,9030.512492
1933.336535,1225.752797,-0.000000,8216.285956
1933.336852,76.609550,370.102971,7624.121203
1933.337170,-536.266849,592.164754,8660.409521
1933.337487,-459.657299,-296.082377,10362.883188
1933.337805,-1149.143247,-592.164754,10362.883188
1933.338122,-1762.019645,-814.226536,11325.150913
1933.338440,-766.095498,222.061783,10510.924376
1933.338757,-536.266849,-296.082377,11177.109724
1933.339074,995.924147,-1258.350101,11325.150913
1933.339392,1149.143247,-592.164754,9548.656652
1933.339709,1762.019645,1480.411884,8290.306550
1933.340027,3217.601092,1554.432478,8734.430116
1933.340344,2987.772442,1480.411884,8290.306550
1933.340662,2757.943793,1184.329507,9030.512492
1933.340979,2145.067394,1110.308913,9252.574275
1933.341297,1838.629195,1480.411884,9030.512492
1933.341614,1991.848295,444.123565,9992.780217
1933.341932,2451.505594,370.102971,9548.656652
1933.342249,2221.676944,296.082377,9400.615463
1933.342566,1762.019645,444.123565,8956.491898
1933.342884,2374.896044,-444.123565,9474.636058
1933.343201,2604.724693,-444.123565,8956.491898
1933.343519,1685.410096,518.144159,8956.491898
1933.343836,766.095498,1184.329507,9548.656652
1933.344154,306.438199,222.061783,10436.903782
1933.344471,0.000000,-0.000000,10807.006753
1933.344789,-306.438199,296.082377,10955.047942
1933.345106,-536.266849,1184.329507,9992.780217
1933.345423,612.876398,518.144159,9474.636058
1933.345741,1685.410096,-518.144159,9844.739029
1933.346058,1149.143247,-592.164754,9252.574275
1933.346376,1762.019645,-296.082377,8216.285956
1933.346693,2145.067394,-296.082377,8216.285956
1933.347011,1838.629195,-814.226536,9326.594869
1933.347328,1149.143247,-296.082377,9400.615463
1933.347646,76.609550,592.164754,8734.430116
1933.347963,-229.828649,962.267725,9474.636058
1933.348280,-383.047749,-296.082377,9622.677246
1933.348598,-383.047749,-740.205942,9474.636058
1933.348915,-306.438199,-1110.308913,10140.821405
1933.349233,-383.047749,-2294.638420,10214.842000
1933.349550,-383.047749,-2812.782580,9474.636058
1933.349868,612.876398,-1628.453072,10510.924376
1933.350185,153.219100,-74.020594,9770.718434
1933.350503,306.438199,-666.185348,10510.924376
1933.350820,-459.657299,-222.061783,10584.944971
1933.351138,-689.485948,1184.329507,9474.636058
1933.351455,842.705048,1702.473667,10066.800811
1933.351772,842.705048,592.164754,9992.780217
1933.352090,1532.190996,370.102971,9770.718434
1933.352407,1608.800546,-740.205942,9104.533087
1933.352725,2221.676944,-222.061783,8586.388927
1933.353042,2451.505594,-888.247130,9030.512492
1933.353360,3140.991542,-296.082377,7994.224174
1933.353677,2528.115143,222.061783,7550.100608
1933.353995,1532.190996,1110.308913,7328.038826
1933.354312,1072.533697,1110.308913,8438.347739
1933.354629,842.705048,-222.061783,9992.780217
1933.354947,536.266849,-592.164754,9548.656652
1933.355264,306.438199,148.041188,9104.533087
1933.355582,766.095498,-222.061783,9400.615463
1933.355899,995.924147,-1036.288319,9030.512492
1933.356217,1685.410096,-592.164754,8734.430116
1933.356534,1685.410096,962.267725,7994.224174
1933.356852,1225.752797,2294.638420,6587.832884
1933.357169,1225.752797,1850.514855,7550.100608
1933.357486,383.047749,1332.370696,8142.265362
1933.357804,-229.828649,1110.308913,9474.636058
1933.358121,-612.876398,1406.391290,9104.533087
1933.358439,-536.266849,444.123565,9844.739029
1933.358756,0.000000,-74.020594,10288.862594
1933.359074,153.219100,296.082377,9474.636058
1933.359391,383.047749,1258.350101,8512.368333
1933.359709,1378.971896,814.226536,8882.471304
1933.360026,1762.019645,962.267725,8438.347739
1933.360344,1149.143247,1184.329507,8512.368333
1933.360661,459.657299,1332.370696,9252.574275
1933.360978,-536.266849,814.226536,9918.759623
1933.361296,-689.485948,296.082377,10881.027347
1933.361613,-153.219100,962.267725,11029.068536
1933.361931,0.000000,1184.329507,10881.027347
1933.362248,306.438199,222.061783,9992.780217
1933.362566,995.924147,74.020594,9770.718434
1933.362883,1455.581446,-0.000000,9770.718434
1933.363201,1762.019645,444.123565,9326.594869
1933.363518,2145.067394,222.061783,9326.594869
1933.363835,1072.533697,740.205942,9918.759623
1933.364153,306.438199,740.205942,9992.780217
1933.364470,0.000000,888.247130,10510.924376
1933.364788,0.000000,888.247130,11029.068536
1933.365105,-459.657299,666.185348,10732.986159
1933.365423,0.000000,-0.000000,10732.986159
1933.365740,306.438199,-296.082377,10510.924376
