#time,accel_x,accel_y,accel_z
1632.144880,689.485948,444.123565,9474.636058
1632.145197,842.705048,296.082377,9326.594869
1632.145514,536.266849,148.041188,9252.574275
1632.145832,919.314598,-0.000000,9252.574275
1632.146149,995.924147,370.102971,9400.615463
1632.146467,612.876398,222.061783,9326.594869
1632.146784,689.485948,-0.000000,9326.594869
1632.147101,919.314598,-0.000000,9474.636058
1632.147419,766.095498,518.144159,9474.636058
1632.147736,1225.752797,-0.000000,9474.636058
1632.148054,689.485948,444.123565,9548.656652
1632.148371,919.314598,296.082377,9474.636058
1632.148688,689.485948,222.061783,9474.636058
1632.149006,689.485948,74.020594,9474.636058
1632.149323,1225.752797,-148.041188,9252.574275
1632.149640,689.485948,222.061783,9548.656652
1632.149958,919.314598,370.102971,9326.594869
1632.150275,995.924147,222.061783,9400.615463
1632.150593,612.876398,222.061783,9400.615463
1632.150910,383.047749,444.123565,9696.697840
1632.151227,612.876398,222.061783,9474.636058
1632.151545,842.705048,222.061783,9326.594869
1632.151862,766.095498,370.102971,9474.636058
1632.152179,536.266849,-0.000000,9252.574275
1632.152497,995.924147,222.061783,9548.656652
1632.152814,919.314598,-0.000000,9252.574275
1632.153132,383.047749,74.020594,9252.574275
1632.153449,766.095498,296.082377,9400.615463
1632.153766,766.095498,148.041188,9326.594869
1632.154084,536.266849,370.102971,9400.615463
1632.154401,842.705048,296.082377,9474.636058
1632.154718,689.485948,222.061783,9400.615463
1632.155036,766.095498,148.041188,9474.636058
1632.155353,1072.533697,-0.000000,9474.636058
1632.155671,995.924147,-0.000000,9400.615463
1632.155988,766.095498,148.041188,9400.615463
1632.156305,766.095498,296.082377,9622.677246
1632.156623,766.095498,222.061783,9474.636058
1632.156940,689.485948,370.102971,9548.656652
1632.157258,1149.143247,-0.000000,9326.594869
1632.157575,766.095498,148.041188,9400.615463
1632.157892,689.485948,222.061783,9474.636058
1632.158210,689.485948,148.041188,9474.636058
1632.158527,689.485948,-0.000000,9622.677246
1632.158844,995.924147,-0.000000,9326.594869
1632.159162,842.705048,222.061783,9474.636058
1632.159479,612.876398,296.082377,9326.594869
1632.159797,766.095498,148.041188,9474.636058
1632.160114,536.266849,444.123565,9400.615463
1632.160431,766.095498,-0.000000,9474.636058
1632.160749,689.485948,222.061783,9326.594869
1632.161066,766.095498,-0.000000,9400.615463
1632.161383,766.095498,222.061783,9326.594869
1632.161701,689.485948,-0.000000,9548.656652
1632.162018,766.095498,148.041188,9696.697840
1632.162336,919.314598,222.061783,9474.636058
1632.162653,766.095498,222.061783,9474.636058
1632.162970,766.095498,222.061783,9474.636058
1632.163288,766.095498,222.061783,9474.636058
1632.163605,842.705048,222.061783,9400.615463
1632.163922,919.314598,296.082377,9474.636058
1632.164240,919.314598,222.061783,9474.636058
1632.164557,689.485948,444.123565,9474.636058
1632.164875,842.705048,148.041188,9474.636058
1632.165192,459.657299,148.041188,9622.677246
1632.165509,919.314598,518.144159,9474.636058
1632.165827,842.705048,222.061783,9474.636058
1632.166144,383.047749,148.041188,9326.594869
1632.166462,383.047749,-0.000000,9178.553681
1632.166779,612.876398,-148.041188,9252.574275
1632.167096,229.828649,-518.144159,9400.615463
1632.167414,459.657299,-592.164754,9474.636058
1632.167731,383.047749,-592.164754,9474.636058
1632.168048,459.657299,-962.267725,9400.615463
1632.168366,536.266849,-740.205942,9400.615463
1632.168683,153.219100,-888.247130,9252.574275
1632.169001,229.828649,-444.123565,8734.430116
1632.169318,0.000000,-444.123565,8438.347739
1632.169635,0.000000,-814.226536,8142.265362
1632.169953,0.000000,-1110.308913,8438.347739
1632.170270,-536.266849,-1554.432478,9030.512492
1632.170587,-919.314598,-1998.556043,9400.615463
1632.170905,-612.876398,-2146.597232,9548.656652
1632.171222,-1225.752797,-2146.597232,9474.636058
1632.171540,-995.924147,-1554.432478,9400.615463
1632.171857,-1225.752797,-1406.391290,8882.471304
1632.172174,-1072.533697,-1258.350101,8734.430116
1632.172492,-842.705048,-1184.329507,8216.285956
1632.172809,-995.924147,-1480.411884,7920.203579
1632.173126,-1072.533697,-2220.617826,8956.491898
1632.173444,-1302.362347,-2368.659014,9474.636058
1632.173761,-1149.143247,-2590.720797,9844.739029
1632.174079,-1149.143247,-2960.823768,9844.739029
1632.174396,-1302.362347,-2442.679609,9918.759623
1632.174713,-1455.581446,-1554.432478,9474.636058
1632.175031,-1532.190996,-1332.370696,9104.533087
1632.175348,-1838.629195,-1480.411884,8512.368333
1632.175666,-2145.067394,-1850.514855,8882.471304
1632.175983,-2374.896044,-2516.700203,9178.553681
1632.176300,-2834.553343,-3330.926739,9918.759623
1632.176618,-3294.210641,-4219.173869,10436.903782
1632.176935,-3753.867940,-4589.276840,10881.027347
1632.177252,-4213.525239,-4663.297435,10807.006753
1632.177570,-4443.353888,-3849.070898,10807.006753
1632.177887,-4290.134789,-3627.009116,10362.883188
1632.178205,-3907.087040,-3034.844362,9992.780217
1632.178522,-3907.087040,-2812.782580,9770.718434
1632.178839,-3830.477490,-3108.864956,9474.636058
1632.179157,-4213.525239,-3478.967927,9992.780217
1632.179474,-4366.744339,-3701.029710,9918.759623
1632.179791,-4519.963438,-3627.009116,9770.718434
1632.180109,-4596.572988,-3849.070898,10140.821405
1632.180426,-4673.182538,-3775.050304,9622.677246
1632.180744,-5132.839837,-3627.009116,10584.944971
1632.181061,-4749.792088,-3923.091493,11177.109724
1632.181378,-4213.525239,-4071.132681,10732.986159
1632.181696,-3983.696590,-3478.967927,11547.212695
1632.182013,-2681.334243,-2886.803174,10510.924376
1632.182330,-2145.067394,-2590.720797,9992.780217
1632.182648,-2298.286494,-2368.659014,9474.636058
1632.182965,-1991.848295,-2294.638420,8734.430116
1632.183283,-1455.581446,-2146.597232,8882.471304
1632.183600,-842.705048,-1776.494261,9252.574275
1632.183917,-919.314598,-2812.782580,9400.615463
1632.184235,-689.485948,-3552.988522,10066.800811
1632.184552,-306.438199,-3256.906145,9474.636058
1632.184870,76.609550,-3256.906145,9474.636058
1632.185187,459.657299,-3034.844362,9548.656652
1632.185504,1072.533697,-2812.782580,9252.574275
1632.185822,1455.581446,-2146.597232,8734.430116
1632.186139,1455.581446,-1776.494261,8734.430116
1632.186456,1608.800546,-2072.576638,9104.533087
1632.186774,1072.533697,-2516.700203,9104.533087
1632.187091,1149.143247,-2368.659014,8956.491898
1632.187409,459.657299,-2664.741391,8882.471304
1632.187726,153.219100,-2590.720797,9252.574275
1632.188043,153.219100,-2738.761985,8512.368333
1632.188361,229.828649,-2072.576638,8290.306550
1632.188678,-383.047749,-2072.576638,8660.409521
1632.188995,153.219100,-2442.679609,9104.533087
1632.189313,-459.657299,-1406.391290,8882.471304
1632.189630,0.000000,-1776.494261,9400.615463
1632.189948,-459.657299,-1554.432478,9474.636058
1632.190265,-1149.143247,-1036.288319,9400.615463
1632.190582,-689.485948,-518.144159,9918.759623
1632.190900,-919.314598,-0.000000,9030.512492
1632.191217,-1149.143247,370.102971,8808.450710
1632.191534,-536.266849,370.102971,9178.553681
1632.191852,-919.314598,814.226536,8290.306550
1632.192169,-612.876398,370.102971,8364.327145
1632.192487,-1149.143247,-444.123565,8808.450710
1632.192804,-1072.533697,-814.226536,9696.697840
1632.193121,-1378.971896,-1258.350101,10510.924376
1632.193439,-1532.190996,-444.123565,11177.109724
1632.193756,-1072.533697,-0.000000,10955.047942
1632.194074,-1685.410096,518.144159,10214.842000
1632.194391,-1608.800546,1406.391290,9696.697840
1632.194708,-1915.238745,1776.494261,9030.512492
1632.195026,-2068.457845,1480.411884,7772.162391
1632.195343,-2298.286494,1480.411884,7698.141797
1632.195660,-3217.601092,-0.000000,7920.203579
1632.195978,-3907.087040,-1184.329507,9548.656652
1632.196295,-4596.572988,-2368.659014,10955.047942
1632.196613,-5286.058936,-2960.823768,11695.253884
1632.196930,-4903.011187,-2960.823768,12065.356855
1632.197247,-5056.230287,-2368.659014,12657.521608
1632.197565,-4903.011187,-2072.576638,12583.501014
1632.197882,-4060.306139,-1332.370696,12139.377449
1632.198199,-3370.820191,-0.000000,10807.006753
1632.198517,-2681.334243,666.185348,9770.718434
1632.198834,-1762.019645,444.123565,9770.718434
1632.199152,-1072.533697,-296.082377,9548.656652
1632.199469,-1072.533697,-1036.288319,9844.739029
1632.199786,-1149.143247,-1406.391290,10288.862594
1632.200104,-766.095498,-2220.617826,10362.883188
1632.200421,-536.266849,-2146.597232,9992.780217
1632.200738,-689.485948,-2368.659014,9918.759623
1632.201056,-536.266849,-2368.659014,9104.533087
1632.201373,-766.095498,-3034.844362,8660.409521
1632.201691,-995.924147,-3775.050304,9622.677246
1632.202008,-1225.752797,-4441.235652,11029.068536
1632.202325,-1838.629195,-4737.318029,10807.006753
1632.202643,-2451.505594,-5255.462188,11769.274478
1632.202960,-3370.820191,-5033.400406,12583.501014
1632.203278,-2221.676944,-4737.318029,12731.542202
1632.203595,-919.314598,-3404.947333,11325.150913
1632.203912,306.438199,-2886.803174,10510.924376
1632.204230,1225.752797,-2368.659014,9696.697840
1632.204547,2987.772442,-2590.720797,8364.327145
1632.204864,3600.648841,-2960.823768,7550.100608
1632.205182,3983.696590,-3775.050304,7550.100608
1632.205499,3447.429741,-4071.132681,7402.059420
1632.205817,3140.991542,-3701.029710,6513.812290
1632.206134,1685.410096,-3182.885551,6439.791695
1632.206451,459.657299,-4071.132681,7402.059420
1632.206769,-919.314598,-4885.359217,8734.430116
1632.207086,-1455.581446,-4515.256246,8882.471304
1632.207403,-2681.334243,-4663.297435,8660.409521
1632.207721,-3294.210641,-5699.585753,10066.800811
1632.208038,-3294.210641,-5847.626942,10436.903782
1632.208355,-3217.601092,-4293.194464,9400.615463
1632.208673,-2374.896044,-3849.070898,9178.553681
1632.208990,-2145.067394,-3923.091493,9400.615463
1632.209307,-1302.362347,-3256.906145,9030.512492
1632.209625,-612.876398,-1924.535449,7179.997637
1632.209942,-766.095498,-1628.453072,6957.935855
1632.210259,-842.705048,-1776.494261,6291.750507
1632.210577,-1455.581446,-1702.473667,5625.565159
1632.210894,-1149.143247,-1480.411884,5773.606348
1632.211211,-1608.800546,-3182.885551,6809.894666
1632.211529,-2681.334243,-3997.112087,7994.224174
1632.211846,-2528.115143,-4293.194464,9770.718434
1632.212163,-2298.286494,-3478.967927,10658.965565
1632.212481,-2374.896044,-3552.988522,11029.068536
1632.212798,-1149.143247,-2960.823768,12139.377449
1632.213115,0.000000,-518.144159,11399.171507
1632.213432,1455.581446,1184.329507,9104.533087
1632.213750,2604.724693,2368.659014,7698.141797
1632.214067,3447.429741,3330.926739,6439.791695
1632.214384,4826.401637,3552.988522,3849.070898
1632.214702,4673.182538,2368.659014,4071.132681
1632.215019,4136.915689,592.164754,6439.791695
1632.215336,3524.039291,-370.102971,8142.265362
1632.215654,1762.019645,-444.123565,6957.935855
1632.215971,383.047749,-1628.453072,11399.171507
1632.216288,153.219100,-814.226536,13323.706956
1632.216606,995.924147,1184.329507,12509.480420
1632.216923,1608.800546,1924.535449,13249.686362
1632.217240,1991.848295,4515.256246,13989.892304
1632.217558,3294.210641,5625.565159,11991.336260
1632.217875,4290.134789,6735.874072,8956.491898
1632.218192,4979.620737,6513.812290,8586.388927
1632.218510,3140.991542,5329.482782,5699.585753
1632.218827,3753.867940,4663.297435,5255.462188
1632.219144,3217.601092,2738.761985,5329.482782
1632.219462,2298.286494,1184.329507,7994.224174
1632.219779,842.705048,-962.267725,11103.089130
1632.220096,-1378.971896,-1628.453072,11325.150913
1632.220413,-2068.457845,-1702.473667,14359.995275
1632.220731,-2681.334243,-296.082377,15544.324782
1632.221048,-2528.115143,888.247130,15470.304188
1632.221365,-1991.848295,4219.173869,14878.139434
1632.221683,-2068.457845,6587.832884,12805.562797
1632.222000,-536.266849,7179.997637,12435.459826
1632.222317,0.000000,7105.977043,9844.739029
1632.222635,459.657299,6957.935855,8512.368333
1632.222952,0.000000,4737.318029,7698.141797
1632.223269,-153.219100,1406.391290,8142.265362
1632.223587,0.000000,-592.164754,9474.636058
1632.223904,-229.828649,-2146.597232,9178.553681
1632.224221,-459.657299,-4219.173869,11029.068536
1632.224539,-919.314598,-3775.050304,13471.748144
1632.224856,-842.705048,-2294.638420,13397.727550
1632.225173,-919.314598,-370.102971,13397.727550
1632.225491,-1532.190996,2368.659014,14359.995275
1632.225808,-1991.848295,4145.153275,12879.583391
1632.226125,-1762.019645,5181.441594,11103.089130
1632.226442,-842.705048,4885.359217,11325.150913
1632.226760,76.609550,5033.400406,9252.574275
1632.227077,1225.752797,3701.029710,7402.059420
1632.227394,2221.676944,814.226536,6661.853478
1632.227712,2604.724693,-1998.556043,6735.874072
1632.228029,1838.629195,-4589.276840,6735.874072
1632.228346,612.876398,-7105.977043,8142.265362
1632.228664,459.657299,-7994.224174,12509.480420
1632.228981,536.266849,-4737.318029,8882.471304
1632.229298,1225.752797,-2664.741391,10881.027347
1632.229616,306.438199,-1776.494261,12805.562797
1632.229933,-766.095498,518.144159,10584.944971
1632.230250,459.657299,2590.720797,8438.347739
1632.230568,536.266849,3997.112087,7846.182985
1632.230885,1991.848295,3404.947333,7772.162391
1632.231202,2604.724693,1480.411884,5255.462188
1632.231520,3140.991542,-888.247130,4219.173869
1632.231837,3983.696590,-4441.235652,5403.503377
1632.232154,3447.429741,-7105.977043,6291.750507
1632.232472,2068.457845,-9474.636058,7179.997637
1632.232789,995.924147,-9326.594869,9696.697840
1632.233106,842.705048,-7550.100608,9326.594869
1632.233423,842.705048,-4441.235652,9400.615463
1632.233741,1685.410096,-2516.700203,11251.130318
1632.234058,1762.019645,592.164754,9992.780217
1632.234375,2068.457845,3701.029710,6883.915261
1632.234693,2451.505594,4737.318029,6365.771101
1632.235010,2604.724693,3627.009116,7772.162391
1632.235327,2834.553343,1776.494261,7179.997637
1632.235645,2451.505594,-0.000000,5847.626942
1632.235962,3294.210641,-1850.514855,6439.791695
1632.236279,2757.943793,-4071.132681,6291.750507
1632.236597,2451.505594,-6143.709319,7994.224174
1632.236914,1915.238745,-6217.729913,8660.409521
1632.237231,1455.581446,-4737.318029,8216.285956
1632.237549,536.266849,-3256.906145,8660.409521
1632.237866,919.314598,-888.247130,10807.006753
1632.238183,1149.143247,1110.308913,10510.924376
1632.238501,842.705048,4589.276840,9030.512492
1632.238818,842.705048,6809.894666,8734.430116
1632.239135,919.314598,7254.018232,8882.471304
1632.239453,153.219100,6439.791695,7105.977043
1632.239770,-536.266849,4145.153275,8364.327145
1632.240087,-1072.533697,1480.411884,9326.594869
1632.240404,-689.485948,-74.020594,9252.574275
1632.240722,-306.438199,-2368.659014,9696.697840
1632.241039,-689.485948,-2886.803174,10881.027347
1632.241356,-689.485948,-2738.761985,11399.171507
1632.241674,-536.266849,-1628.453072,10955.047942
1632.241991,-383.047749,740.205942,11177.109724
1632.242308,0.000000,3923.091493,10140.821405
1632.242626,-229.828649,6439.791695,9474.636058
1632.242943,-766.095498,8808.450710,8364.327145
1632.243260,-766.095498,9400.615463,9104.533087
1632.243578,-1685.410096,7698.141797,9104.533087
1632.243895,-2221.676944,4737.318029,9696.697840
1632.244212,-2068.457845,3330.926739,10584.944971
1632.244530,-1762.019645,1110.308913,11029.068536
1632.244847,-1225.752797,-1924.535449,12879.583391
1632.245164,-306.438199,-3108.864956,14434.015869
1632.245482,-153.219100,-1998.556043,14285.974681
1632.245799,612.876398,-0.000000,13471.748144
1632.246116,1762.019645,2738.761985,12731.542202
1632.246433,3217.601092,6143.709319,11177.109724
1632.246751,3524.039291,7920.203579,10362.883188
1632.247068,3217.601092,9622.677246,9400.615463
1632.247385,3064.381992,9770.718434,7846.182985
1632.247703,2451.505594,7476.080014,7846.182985
1632.248020,1838.629195,3997.112087,8068.244768
1632.248337,2145.067394,962.267725,9030.512492
1632.248655,1762.019645,-962.267725,9400.615463
1632.248972,1455.581446,-3923.091493,10584.944971
1632.249289,1149.143247,-5181.441594,12731.542202
1632.249607,1072.533697,-4737.318029,14063.912898
1632.249924,1149.143247,-2368.659014,12879.583391
1632.250241,1072.533697,592.164754,13471.748144
1632.250559,1991.848295,3108.864956,13101.645173
1632.250876,2451.505594,5477.523971,10732.986159
1632.251193,3447.429741,7179.997637,9104.533087
1632.251511,2987.772442,8364.327145,7254.018232
1632.251828,3600.648841,6439.791695,6439.791695
1632.252145,3447.429741,3627.009116,4441.235652
1632.252463,3370.820191,-666.185348,5551.544565
1632.252780,2451.505594,-3627.009116,6809.894666
1632.253097,1378.971896,-6809.894666,7994.224174
1632.253414,995.924147,-7846.182985,10066.800811
1632.253732,153.219100,-7254.018232,11177.109724
1632.254049,0.000000,-5699.585753,11769.274478
1632.254366,-842.705048,-1628.453072,10658.965565
1632.254684,0.000000,1036.288319,10436.903782
1632.255001,919.314598,2738.761985,9030.512492
1632.255318,1838.629195,3923.091493,7920.203579
1632.255636,2451.505594,4737.318029,6365.771101
1632.255953,3064.381992,3627.009116,5403.503377
1632.256270,3217.601092,814.226536,5403.503377
1632.256588,2298.286494,-1998.556043,5921.647536
1632.256905,1838.629195,-3923.091493,6661.853478
1632.257222,919.314598,-5921.647536,7105.977043
1632.257540,766.095498,-6291.750507,8734.430116
1632.257857,-229.828649,-5995.668130,9178.553681
1632.258174,76.609550,-3997.112087,9992.780217
1632.258492,459.657299,-2294.638420,9622.677246
1632.258809,-229.828649,-888.247130,10066.800811
1632.259126,0.000000,1036.288319,9252.574275
1632.259443,153.219100,3404.947333,8438.347739
1632.259761,459.657299,4663.297435,7179.997637
1632.260078,919.314598,4515.256246,7179.997637
1632.260395,1149.143247,3627.009116,6883.915261
1632.260713,689.485948,1480.411884,7402.059420
1632.261030,306.438199,-666.185348,7476.080014
1632.261347,-229.828649,-4145.153275,8364.327145
1632.261665,0.000000,-6217.729913,10214.842000
1632.261982,-689.485948,-6069.688724,10584.944971
1632.262299,0.000000,-4885.359217,10658.965565
1632.262617,383.047749,-2812.782580,11029.068536
1632.262934,995.924147,-0.000000,10807.006753
1632.263251,1225.752797,2738.761985,9326.594869
1632.263569,689.485948,4737.318029,9104.533087
1632.263886,0.000000,6587.832884,8734.430116
1632.264203,459.657299,6661.853478,8586.388927
1632.264521,-306.438199,5255.462188,7550.100608
1632.264838,-536.266849,2368.659014,8882.471304
1632.265155,-383.047749,-0.000000,9622.677246
1632.265473,-306.438199,-2664.741391,10955.047942
1632.265790,229.828649,-5181.441594,12879.583391
1632.266107,153.219100,-4071.132681,12805.562797
1632.266424,536.266849,-3997.112087,12879.583391
1632.266742,1378.971896,-2146.597232,12879.583391
1632.267059,1225.752797,888.247130,11991.336260
1632.267376,1838.629195,4145.153275,9918.759623
1632.267694,1915.238745,6587.832884,9326.594869
1632.268011,1685.410096,8586.388927,7624.121203
1632.268328,1762.019645,8216.285956,7254.018232
1632.268646,1455.581446,6143.709319,7328.038826
1632.268963,459.657299,3330.926739,8068.244768
1632.269280,306.438199,666.185348,9104.533087
1632.269598,-306.438199,-2368.659014,9918.759623
1632.269915,229.828649,-4589.276840,11843.295072
1632.270232,0.000000,-4663.297435,12879.583391
1632.270550,0.000000,-3923.091493,13545.768739
1632.270867,306.438199,-1628.453072,13249.686362
1632.271184,306.438199,1480.411884,12657.521608
1632.271502,536.266849,4145.153275,10955.047942
1632.271819,612.876398,5773.606348,9992.780217
1632.272136,76.609550,7328.038826,8142.265362
1632.272454,766.095498,6883.915261,7328.038826
1632.272771,1225.752797,5329.482782,5995.668130
1632.273088,1149.143247,2220.617826,6439.791695
1632.273405,1915.238745,-814.226536,7476.080014
1632.273723,689.485948,-3627.009116,7624.121203
1632.274040,459.657299,-6587.832884,9844.739029
1632.274357,0.000000,-6291.750507,10955.047942
1632.274675,-153.219100,-5255.462188,11547.212695
1632.274992,-153.219100,-3404.947333,11621.233289
1632.275309,76.609550,-962.267725,11399.171507
1632.275627,76.609550,1702.473667,10807.006753
1632.275944,459.657299,3478.967927,9770.718434
1632.276261,1378.971896,4959.379811,8364.327145
1632.276579,1608.800546,4441.235652,7328.038826
1632.276896,2757.943793,2590.720797,6883.915261
1632.277213,1991.848295,-0.000000,6587.832884
1632.277531,2604.724693,-2442.679609,7328.038826
1632.277848,2068.457845,-4737.318029,7402.059420
1632.278165,1455.581446,-6513.812290,8956.491898
1632.278483,1608.800546,-6587.832884,9844.739029
1632.278800,459.657299,-5181.441594,9844.739029
1632.279117,306.438199,-3108.864956,10510.924376
1632.279434,383.047749,-666.185348,10955.047942
1632.279752,1072.533697,1406.391290,9844.739029
1632.280069,1991.848295,3256.906145,8734.430116
1632.280386,1838.629195,3552.988522,8808.450710
1632.280704,2145.067394,2886.803174,8142.265362
1632.281021,2374.896044,1628.453072,7550.100608
1632.281338,1991.848295,148.041188,6661.853478
1632.281656,1608.800546,-2294.638420,7994.224174
1632.281973,76.609550,-3775.050304,7846.182985
1632.282290,0.000000,-5921.647536,8808.450710
1632.282608,153.219100,-5699.585753,9696.697840
1632.282925,-536.266849,-5329.482782,10214.842000
1632.283242,229.828649,-3923.091493,10436.903782
1632.283560,459.657299,-1702.473667,10140.821405
1632.283877,919.314598,962.267725,9696.697840
1632.284194,1302.362347,2812.782580,9770.718434
1632.284512,1532.190996,4737.318029,8586.388927
1632.284829,1532.190996,5551.544565,7624.121203
1632.285146,919.314598,4367.215058,7846.182985
1632.285464,766.095498,1924.535449,8734.430116
1632.285781,306.438199,-666.185348,8660.409521
1632.286098,-153.219100,-2738.761985,8882.471304
1632.286415,-536.266849,-5107.421000,9548.656652
1632.286733,-153.219100,-5699.585753,10436.903782
1632.287050,-153.219100,-4959.379811,10510.924376
1632.287367,-153.219100,-3478.967927,9622.677246
1632.287685,153.219100,-888.247130,10584.944971
1632.288002,153.219100,1184.329507,10362.883188
1632.288319,536.266849,3478.967927,9844.739029
1632.288637,76.609550,5477.523971,9622.677246
1632.288954,0.000000,6587.832884,9770.718434
1632.289271,-766.095498,5699.585753,9252.574275
1632.289589,-1225.752797,3701.029710,9400.615463
1632.289906,-919.314598,1924.535449,10214.842000
1632.290223,-766.095498,-814.226536,10066.800811
1632.290541,-842.705048,-3627.009116,10510.924376
1632.290858,-459.657299,-5181.441594,11547.212695
1632.291175,-153.219100,-4959.379811,11177.109724
1632.291493,76.609550,-3701.029710,10732.986159
1632.291810,229.828649,-1702.473667,10732.986159
1632.292127,536.266849,-0.000000,10584.944971
1632.292445,0.000000,2960.823768,8734.430116
1632.292762,0.000000,5033.400406,9326.594869
1632.293079,-383.047749,5773.606348,8660.409521
1632.293396,153.219100,5329.482782,9030.512492
1632.293714,-689.485948,3627.009116,8068.244768
1632.294031,-766.095498,666.185348,8956.491898
1632.294348,-153.219100,-1628.453072,9548.656652
1632.294666,-612.876398,-3701.029710,9844.739029
1632.294983,383.047749,-5403.503377,11769.274478
1632.295300,0.000000,-5181.441594,11547.212695
1632.295618,459.657299,-4219.173869,11991.336260
1632.295935,1225.752797,-1258.350101,10732.986159
1632.296252,1225.752797,1110.308913,10436.903782
1632.296570,1532.190996,3182.885551,8512.368333
1632.296887,1455.581446,4441.235652,7550.100608
1632.297204,1838.629195,4589.276840,7179.997637
1632.297522,2451.505594,3108.864956,7772.162391
1632.297839,2451.505594,1480.411884,7624.121203
1632.298156,2681.334243,-1036.288319,7772.162391
1632.298474,2451.505594,-2146.597232,8512.368333
1632.298791,1149.143247,-3404.947333,7846.182985
1632.299108,2145.067394,-4441.235652,9770.718434
1632.299425,1302.362347,-3775.050304,9622.677246
1632.299743,1838.629195,-2960.823768,10436.903782
1632.300060,1455.581446,-1036.288319,9622.677246
1632.300377,1685.410096,370.102971,9770.718434
1632.300695,2145.067394,1110.308913,9400.615463
1632.301012,1838.629195,1850.514855,8438.347739
1632.301329,1378.971896,2812.782580,7846.182985
1632.301647,995.924147,2442.679609,7402.059420
1632.301964,1225.752797,1924.535449,7402.059420
1632.302281,1302.362347,370.102971,7920.203579
1632.302599,1225.752797,-1702.473667,8660.409521
1632.302916,0.000000,-3478.967927,8734.430116
1632.303233,-536.266849,-4071.132681,9474.636058
1632.303551,-1149.143247,-3182.885551,9622.677246
1632.303868,-536.266849,-2294.638420,10066.800811
1632.304185,-459.657299,-1036.288319,10214.842000
1632.304503,-689.485948,888.247130,9992.780217
1632.304820,153.219100,1776.494261,9770.718434
1632.305137,153.219100,2960.823768,8956.491898
1632.305455,766.095498,3923.091493,8660.409521
1632.305772,459.657299,3404.947333,7846.182985
1632.306089,76.609550,1850.514855,8216.285956
1632.306406,-306.438199,-0.000000,8882.471304
1632.306724,0.000000,-1554.432478,9030.512492
1632.307041,-383.047749,-3108.864956,9548.656652
1632.307358,-229.828649,-4145.153275,10658.965565
1632.307676,0.000000,-3182.885551,10955.047942
1632.307993,0.000000,-1702.473667,10510.924376
1632.308310,1225.752797,-74.020594,11473.192101
1632.308628,1378.971896,1924.535449,10881.027347
1632.308945,2145.067394,3627.009116,10066.800811
1632.309262,2528.115143,5329.482782,9474.636058
1632.309580,2681.334243,5773.606348,9992.780217
1632.309897,2374.896044,5847.626942,8882.471304
1632.310214,2681.334243,4293.194464,8142.265362
1632.310532,1915.238745,2590.720797,8808.450710
1632.310849,1838.629195,-0.000000,10140.821405
1632.311166,766.095498,-2738.761985,9104.533087
1632.311484,536.266849,-3775.050304,9918.759623
1632.311801,1072.533697,-3997.112087,12583.501014
1632.312118,536.266849,-2294.638420,10955.047942
1632.312435,1072.533697,-814.226536,10658.965565
1632.312753,1072.533697,1406.391290,10955.047942
1632.313070,1225.752797,2738.761985,11325.150913
1632.313387,1532.190996,5181.441594,9622.677246
1632.313705,1532.190996,6143.709319,8956.491898
1632.314022,2221.676944,6957.935855,8882.471304
1632.314339,1072.533697,5329.482782,7402.059420
1632.314657,1072.533697,3404.947333,8068.244768
1632.314974,689.485948,-148.041188,9548.656652
1632.315291,-306.438199,-2738.761985,9696.697840
1632.315609,0.000000,-4663.297435,10955.047942
1632.315926,-995.924147,-4293.194464,11473.192101
1632.316243,-536.266849,-3034.844362,9696.697840
1632.316561,-689.485948,-2442.679609,11251.130318
1632.316878,-1072.533697,-666.185348,11251.130318
1632.317195,153.219100,740.205942,11029.068536
1632.317512,229.828649,3627.009116,8882.471304
1632.317830,1608.800546,4219.173869,9770.718434
1632.318147,1915.238745,5699.585753,7698.141797
1632.318464,2834.553343,3997.112087,7402.059420
1632.318782,2068.457845,2960.823768,6291.750507
1632.319099,2681.334243,-370.102971,7920.203579
1632.319416,1608.800546,-1554.432478,7402.059420
1632.319734,2374.896044,-3404.947333,9030.512492
1632.320051,2145.067394,-2886.803174,9030.512492
1632.320368,1685.410096,-3182.885551,8956.491898
1632.320686,1225.752797,-2738.761985,9992.780217
1632.321003,306.438199,-1702.473667,10066.800811
1632.321320,612.876398,-370.102971,10955.047942
1632.321638,612.876398,1776.494261,9474.636058
1632.321955,306.438199,3182.885551,9030.512492
1632.322272,383.047749,4589.276840,8068.244768
1632.322589,306.438199,3108.864956,7179.997637
1632.322907,459.657299,2516.700203,6587.832884
1632.323224,995.924147,-0.000000,7994.224174
1632.323541,459.657299,-1776.494261,7994.224174
1632.323859,536.266849,-3256.906145,8586.388927
1632.324176,0.000000,-3701.029710,9548.656652
1632.324493,0.000000,-3923.091493,10288.862594
1632.324811,0.000000,-2220.617826,9474.636058
1632.325128,-229.828649,-888.247130,9696.697840
1632.325445,-306.438199,1036.288319,9548.656652
1632.325763,-459.657299,2812.782580,8290.306550
1632.326080,-842.705048,3923.091493,8142.265362
1632.326397,-919.314598,2812.782580,8882.471304
1632.326715,-1149.143247,1628.453072,8290.306550
1632.327032,-1455.581446,-0.000000,8660.409521
1632.327349,-1455.581446,-1184.329507,9992.780217
1632.327666,-919.314598,-1850.514855,9252.574275
1632.327984,153.219100,-2590.720797,9770.718434
1632.328301,1225.752797,-2812.782580,10732.986159
1632.328618,1302.362347,-2516.700203,10510.924376
1632.328936,1302.362347,-1036.288319,9844.739029
1632.329253,2451.505594,888.247130,10881.027347
1632.329570,2987.772442,2368.659014,10584.944971
1632.329888,3140.991542,4589.276840,9178.553681
1632.330205,2987.772442,5477.523971,8882.471304
1632.330522,2451.505594,5699.585753,7994.224174
1632.330840,2911.162892,4515.256246,8364.327145
1632.331157,2145.067394,2664.741391,7994.224174
1632.331474,1991.848295,-222.061783,9474.636058
1632.331792,766.095498,-1628.453072,9918.759623
1632.332109,689.485948,-3256.906145,10658.965565
1632.332426,612.876398,-2590.720797,11991.336260
1632.332743,995.924147,-2294.638420,12213.398043
1632.333061,995.924147,-518.144159,11843.295072
1632.333378,995.924147,1406.391290,11695.253884
1632.333695,2221.676944,2960.823768,12361.439231
1632.334013,2681.334243,5181.441594,10881.027347
1632.334330,3524.039291,5625.565159,9918.759623
1632.334647,2834.553343,6661.853478,8068.244768
1632.334965,3370.820191,5181.441594,7920.203579
1632.335282,2374.896044,4071.132681,6661.853478
1632.335599,2374.896044,888.247130,7698.141797
1632.335917,919.314598,-814.226536,9030.512492
1632.336234,0.000000,-3552.988522,9104.533087
1632.336551,-383.047749,-5033.400406,10955.047942
1632.336869,-1532.190996,-4885.359217,11695.253884
1632.337186,-1762.019645,-4145.153275,12879.583391
1632.337503,-1378.971896,-1628.453072,11917.315666
1632.337820,-689.485948,1110.308913,11769.274478
1632.338138,306.438199,3997.112087,10140.821405
1632.338455,1072.533697,4737.318029,9770.718434
1632.338772,1608.800546,6291.750507,9252.574275
1632.339090,2145.067394,5477.523971,8364.327145
1632.339407,2298.286494,4811.338623,7105.977043
1632.339724,2451.505594,1998.556043,7254.018232
1632.340042,1838.629195,-148.041188,7772.162391
1632.340359,1302.362347,-2442.679609,7550.100608
1632.340676,1149.143247,-4737.318029,9696.697840
1632.340994,612.876398,-5107.421000,9918.759623
1632.341311,689.485948,-3849.070898,10510.924376
1632.341628,766.095498,-2368.659014,9844.739029
1632.341946,1072.533697,-444.123565,10658.965565
1632.342263,766.095498,1554.432478,9770.718434
1632.342580,1072.533697,3997.112087,8438.347739
1632.342898,766.095498,5329.482782,7846.182985
1632.343215,1608.800546,5107.421000,7846.182985
1632.343532,1608.800546,4219.173869,6957.935855
1632.343849,1532.190996,2368.659014,7031.956449
1632.344167,1455.581446,-222.061783,7550.100608
1632.344484,919.314598,-2368.659014,7402.059420
1632.344801,612.876398,-4737.318029,9400.615463
1632.345119,0.000000,-5403.503377,9030.512492
1632.345436,-842.705048,-4293.194464,10066.800811
1632.345753,-995.924147,-2516.700203,9992.780217
1632.346071,-1072.533697,-1184.329507,10807.006753
1632.346388,-995.924147,296.082377,9918.759623
1632.346705,-1532.190996,2294.638420,9252.574275
1632.347023,-1762.019645,2960.823768,8586.388927
1632.347340,-1149.143247,3034.844362,8734.430116
1632.347657,-306.438199,2294.638420,8586.388927
1632.347975,0.000000,518.144159,8512.368333
1632.348292,459.657299,-1184.329507,8734.430116
1632.348609,919.314598,-2886.803174,8586.388927
1632.348926,1608.800546,-4145.153275,9622.677246
1632.349244,2298.286494,-3849.070898,9252.574275
1632.349561,2068.457845,-2664.741391,8734.430116
1632.349878,2528.115143,-888.247130,9326.594869
1632.350196,2145.067394,148.041188,9474.636058
1632.350513,1532.190996,1258.350101,9030.512492
1632.350830,536.266849,2072.576638,8882.471304
1632.351148,-459.657299,2590.720797,9770.718434
1632.351465,-459.657299,3108.864956,9252.574275
1632.351782,-383.047749,2368.659014,9622.677246
1632.352100,-383.047749,296.082377,10510.924376
1632.352417,-383.047749,-962.267725,10436.903782
1632.352734,-842.705048,-2220.617826,9474.636058
1632.353052,-153.219100,-3701.029710,11399.171507
1632.353369,0.000000,-3775.050304,11843.295072
1632.353686,919.314598,-3182.885551,11769.274478
1632.354003,995.924147,-1628.453072,11695.253884
1632.354321,1225.752797,370.102971,11843.295072
1632.354638,2221.676944,2294.638420,10955.047942
1632.354955,2528.115143,4145.153275,9178.553681
1632.355273,2757.943793,4737.318029,8364.327145
1632.355590,2681.334243,4367.215058,7476.080014
1632.355907,2145.067394,2442.679609,7254.018232
1632.356225,1225.752797,592.164754,7105.977043
1632.356542,766.095498,-1332.370696,8586.388927
1632.356859,306.438199,-3627.009116,8956.491898
1632.357177,-1225.752797,-5403.503377,10510.924376
1632.357494,-1532.190996,-5625.565159,12731.542202
1632.357811,-995.924147,-4367.215058,12509.480420
1632.358129,-229.828649,-2368.659014,12139.377449
1632.358446,536.266849,-148.041188,12435.459826
1632.358763,1225.752797,1110.308913,11399.171507
1632.359080,2374.896044,3330.926739,9178.553681
1632.359398,2604.724693,4737.318029,8808.450710
1632.359715,3140.991542,5255.462188,8364.327145
1632.360032,2987.772442,4737.318029,7254.018232
1632.360350,3064.381992,3701.029710,6143.709319
1632.360667,2911.162892,444.123565,7328.038826
1632.360984,1608.800546,-2220.617826,8216.285956
1632.361302,1685.410096,-4663.297435,8956.491898
1632.361619,1225.752797,-5033.400406,9474.636058
1632.361936,842.705048,-4071.132681,9326.594869
1632.362254,842.705048,-3478.967927,9548.656652
1632.362571,1072.533697,-1036.288319,9770.718434
1632.362888,1455.581446,740.205942,9770.718434
1632.363206,995.924147,2886.803174,9178.553681
1632.363523,689.485948,5033.400406,8216.285956
1632.363840,1149.143247,5699.585753,7994.224174
1632.364157,842.705048,4885.359217,7476.080014
1632.364475,383.047749,3701.029710,7105.977043
1632.364792,-383.047749,740.205942,8364.327145
1632.365109,0.000000,-1258.350101,8808.450710
1632.365427,-229.828649,-3034.844362,8438.347739
1632.365744,0.000000,-3775.050304,9844.739029
1632.366061,-306.438199,-3923.091493,9474.636058
1632.366379,-919.314598,-3182.885551,10288.862594
1632.366696,-1225.752797,-1554.432478,10510.924376
1632.367013,-842.705048,666.185348,10436.903782
1632.367331,-995.924147,2368.659014,9104.533087
1632.367648,-306.438199,4441.235652,8808.450710
1632.367965,-766.095498,4959.379811,8364.327145
1632.368283,0.000000,4589.276840,7772.162391
1632.368600,-153.219100,3108.864956,7254.018232
1632.368917,-612.876398,962.267725,8364.327145
1632.369235,-306.438199,-1110.308913,9252.574275
1632.369552,-383.047749,-3182.885551,9474.636058
1632.369869,-306.438199,-4959.379811,11843.295072
1632.370186,-995.924147,-4515.256246,11769.274478
1632.370504,-1455.581446,-3849.070898,11621.233289
1632.370821,-1072.533697,-1998.556043,11843.295072
1632.371138,-1302.362347,370.102971,11621.233289
1632.371456,-306.438199,2220.617826,10658.965565
1632.371773,-383.047749,4367.215058,9400.615463
1632.372090,306.438199,4663.297435,9548.656652
1632.372408,842.705048,4293.194464,9326.594869
1632.372725,919.314598,3034.844362,8290.306550
1632.373042,1685.410096,1406.391290,9030.512492
1632.373360,1225.752797,-518.144159,8808.450710
1632.373677,1838.629195,-3552.988522,10066.800811
1632.373994,1378.971896,-4219.173869,10658.965565
1632.374312,1225.752797,-4071.132681,11251.130318
1632.374629,1225.752797,-3034.844362,10807.006753
1632.374946,1072.533697,-1924.535449,11103.089130
1632.375263,689.485948,148.041188,10881.027347
1632.375581,766.095498,1480.411884,10658.965565
1632.375898,842.705048,3108.864956,9696.697840
1632.376215,1302.362347,3923.091493,9474.636058
1632.376533,1225.752797,3552.988522,8586.388927
1632.376850,1762.019645,2146.597232,8512.368333
1632.377167,1685.410096,-0.000000,8660.409521
1632.377485,1225.752797,-1776.494261,9696.697840
1632.377802,1302.362347,-4367.215058,9696.697840
1632.378119,1149.143247,-4663.297435,9992.780217
1632.378437,1225.752797,-4441.235652,10658.965565
1632.378754,1378.971896,-3182.885551,9844.739029
1632.379071,2145.067394,-1702.473667,9844.739029
1632.379389,2221.676944,-0.000000,9474.636058
1632.379706,2068.457845,1480.411884,8882.471304
1632.380023,1838.629195,2738.761985,8364.327145
1632.380340,2221.676944,3182.885551,8290.306550
1632.380658,1762.019645,2812.782580,7550.100608
1632.380975,1225.752797,1332.370696,7476.080014
1632.381292,689.485948,-0.000000,7920.203579
1632.381610,536.266849,-1554.432478,8512.368333
1632.381927,766.095498,-2664.741391,8512.368333
1632.382244,383.047749,-4367.215058,9844.739029
1632.382562,612.876398,-3775.050304,10288.862594
1632.382879,612.876398,-2590.720797,9252.574275
1632.383196,1532.190996,-888.247130,9400.615463
1632.383514,1915.238745,1332.370696,9474.636058
1632.383831,2298.286494,2664.741391,8216.285956
1632.384148,2221.676944,3997.112087,6809.894666
1632.384466,1532.190996,5107.421000,7105.977043
1632.384783,1532.190996,4737.318029,7254.018232
1632.385100,689.485948,2960.823768,6513.812290
1632.385417,842.705048,518.144159,7624.121203
1632.385735,-919.314598,-1702.473667,8216.285956
1632.386052,-1608.800546,-3478.967927,8734.430116
1632.386369,-1762.019645,-4071.132681,9474.636058
1632.386687,-1608.800546,-4145.153275,11325.150913
1632.387004,-1991.848295,-2886.803174,11177.109724
1632.387321,-536.266849,-962.267725,11473.192101
1632.387639,-612.876398,592.164754,11103.089130
1632.387956,0.000000,2368.659014,10288.862594
1632.388273,536.266849,4293.194464,9474.636058
1632.388591,383.047749,5033.400406,8956.491898
1632.388908,1838.629195,5551.544565,8142.265362
1632.389225,1378.971896,4515.256246,7179.997637
1632.389543,1455.581446,1998.556043,7994.224174
1632.389860,1302.362347,-0.000000,8586.388927
1632.390177,1072.533697,-2738.761985,8882.471304
1632.390494,229.828649,-3923.091493,10362.883188
1632.390812,-153.219100,-3997.112087,11695.253884
1632.391129,-459.657299,-3330.926739,11843.295072
1632.391446,-306.438199,-1924.535449,11917.315666
1632.391764,459.657299,-296.082377,13471.748144
1632.392081,383.047749,1850.514855,12213.398043
1632.392398,995.924147,4071.132681,11547.212695
1632.392716,1302.362347,5699.585753,10066.800811
1632.393033,2451.505594,5625.565159,9474.636058
1632.393350,2451.505594,5625.565159,8734.430116
1632.393668,2757.943793,4367.215058,7846.182985
1632.393985,2987.772442,2738.761985,8142.265362
1632.394302,2681.334243,222.061783,8068.244768
1632.394620,2987.772442,-2960.823768,9622.677246
1632.394937,1685.410096,-3330.926739,11103.089130
1632.395254,689.485948,-3478.967927,11029.068536
1632.395571,0.000000,-3034.844362,11177.109724
1632.395889,-383.047749,-1554.432478,12213.398043
1632.396206,76.609550,740.205942,11917.315666
1632.396523,0.000000,3034.844362,10140.821405
1632.396841,229.828649,4441.235652,9918.759623
1632.397158,-229.828649,4515.256246,9770.718434
1632.397475,383.047749,4293.194464,8660.409521
1632.397793,383.047749,3108.864956,7920.203579
1632.398110,536.266849,740.205942,8660.409521
1632.398427,689.485948,-1184.329507,8882.471304
1632.398745,842.705048,-3478.967927,8882.471304
1632.399062,1225.752797,-4293.194464,9770.718434
1632.399379,842.705048,-3775.050304,10510.924376
1632.399697,1378.971896,-2886.803174,9474.636058
1632.400014,1072.533697,-1110.308913,9178.553681
1632.400331,612.876398,814.226536,8956.491898
1632.400649,383.047749,2368.659014,7994.224174
1632.400966,383.047749,3330.926739,7920.203579
1632.401283,153.219100,4071.132681,7920.203579
1632.401600,0.000000,3552.988522,8068.244768
1632.401918,-153.219100,2368.659014,7254.018232
1632.402235,229.828649,-0.000000,8364.327145
1632.402552,766.095498,-2220.617826,8808.450710
1632.402870,612.876398,-3775.050304,8808.450710
1632.403187,1072.533697,-4589.276840,9400.615463
1632.403504,766.095498,-4293.194464,9474.636058
1632.403822,459.657299,-2960.823768,9918.759623
1632.404139,1072.533697,-296.082377,9474.636058
1632.404456,919.314598,1036.288319,9104.533087
1632.404774,919.314598,3108.864956,8142.265362
1632.405091,612.876398,3478.967927,8364.327145
1632.405408,842.705048,4441.235652,7772.162391
1632.405726,1072.533697,3478.967927,7328.038826
1632.406043,229.828649,1702.473667,7772.162391
1632.406360,459.657299,-814.226536,8660.409521
1632.406677,612.876398,-2220.617826,8438.347739
1632.406995,76.609550,-4145.153275,9104.533087
1632.407312,689.485948,-4959.379811,10881.027347
1632.407629,76.609550,-3775.050304,10362.883188
1632.407947,459.657299,-2294.638420,10214.842000
1632.408264,612.876398,-518.144159,10436.903782
1632.408581,689.485948,740.205942,10881.027347
1632.408899,1149.143247,1776.494261,9178.553681
1632.409216,919.314598,3923.091493,8660.409521
1632.409533,1149.143247,4737.318029,8142.265362
1632.409851,1762.019645,4737.318029,7772.162391
1632.410168,1685.410096,3256.906145,7698.141797
1632.410485,1378.971896,740.205942,9030.512492
1632.410803,459.657299,-740.205942,9326.594869
1632.411120,0.000000,-3330.926739,9918.759623
1632.411437,0.000000,-3849.070898,10881.027347
1632.411754,153.219100,-3330.926739,11547.212695
1632.412072,536.266849,-1776.494261,11029.068536
1632.412389,536.266849,-0.000000,10510.924376
1632.412706,2681.334243,1628.453072,11399.171507
1632.413024,2451.505594,3182.885551,9696.697840
1632.413341,2987.772442,5255.462188,8734.430116
1632.413658,2451.505594,5699.585753,8216.285956
1632.413975,2451.505594,5033.400406,8512.368333
1632.414293,1915.238745,3923.091493,8216.285956
1632.414610,1762.019645,2294.638420,8586.388927
1632.414927,995.924147,-0.000000,8956.491898
1632.415245,306.438199,-2294.638420,9992.780217
1632.415562,76.609550,-3478.967927,11103.089130
1632.415879,-229.828649,-2960.823768,11029.068536
1632.416196,76.609550,-2442.679609,12139.377449
1632.416514,0.000000,-1184.329507,11991.336260
1632.416831,766.095498,1184.329507,12065.356855
1632.417148,995.924147,3108.864956,10881.027347
1632.417466,1685.410096,4293.194464,10140.821405
1632.417783,1685.410096,5699.585753,9622.677246
1632.418100,1915.238745,5181.441594,8956.491898
1632.418418,1685.410096,4367.215058,7550.100608
1632.418735,1608.800546,2516.700203,8586.388927
1632.419052,1378.971896,-0.000000,8882.471304
1632.419369,383.047749,-2368.659014,8364.327145
1632.419687,459.657299,-3775.050304,9474.636058
1632.420004,0.000000,-4367.215058,10362.883188
1632.420321,-306.438199,-4145.153275,10955.047942
1632.420639,-766.095498,-2368.659014,11029.068536
1632.420956,-229.828649,-888.247130,11843.295072
1632.421273,0.000000,1480.411884,10436.903782
1632.421590,612.876398,3552.988522,9844.739029
1632.421908,536.266849,5107.421000,9844.739029
1632.422225,459.657299,5033.400406,8734.430116
1632.422542,1225.752797,3775.050304,7624.121203
1632.422860,1072.533697,1998.556043,8068.244768
1632.423177,1072.533697,-444.123565,8438.347739
1632.423494,1072.533697,-2368.659014,7105.977043
1632.423811,1608.800546,-4367.215058,8734.430116
1632.424129,995.924147,-4367.215058,9696.697840
1632.424446,689.485948,-3330.926739,9400.615463
1632.424763,612.876398,-1702.473667,8956.491898
1632.425081,689.485948,-444.123565,9622.677246
1632.425398,153.219100,222.061783,9622.677246
1632.425715,-153.219100,2072.576638,8808.450710
1632.426033,-306.438199,2886.803174,8734.430116
1632.426350,-229.828649,3404.947333,8142.265362
1632.426667,306.438199,2442.679609,8512.368333
1632.426984,306.438199,1406.391290,8142.265362
1632.427302,1072.533697,-592.164754,8586.388927
1632.427619,1072.533697,-2294.638420,8586.388927
1632.427936,1225.752797,-4219.173869,9622.677246
1632.428254,919.314598,-4589.276840,9992.780217
1632.428571,1149.143247,-3552.988522,9400.615463
1632.428888,1608.800546,-2368.659014,9548.656652
1632.429205,1455.581446,-814.226536,9474.636058
1632.429523,1302.362347,518.144159,8882.471304
1632.429840,1378.971896,2368.659014,7994.224174
1632.430157,995.924147,2812.782580,7994.224174
1632.430475,306.438199,3256.906145,7698.141797
1632.430792,306.438199,1776.494261,8290.306550
1632.431109,-383.047749,370.102971,8660.409521
1632.431426,-153.219100,-1702.473667,10140.821405
1632.431744,-383.047749,-3478.967927,10658.965565
1632.432061,-689.485948,-4219.173869,11029.068536
1632.432378,229.828649,-3627.009116,11769.274478
1632.432696,689.485948,-2960.823768,10436.903782
1632.433013,1762.019645,-1480.411884,10955.047942
1632.433330,2068.457845,148.041188,9696.697840
1632.433648,2451.505594,1998.556043,8882.471304
1632.433965,2681.334243,3701.029710,8142.265362
1632.434282,2604.724693,5181.441594,7105.977043
1632.434599,2451.505594,4737.318029,7179.997637
1632.434917,1915.238745,4663.297435,6735.874072
1632.435234,842.705048,2368.659014,7476.080014
1632.435551,0.000000,222.061783,8660.409521
1632.435869,-459.657299,-2220.617826,9696.697840
1632.436186,-1685.410096,-4071.132681,11399.171507
1632.436503,-2068.457845,-4367.215058,13101.645173
1632.436820,-1685.410096,-3923.091493,13101.645173
1632.437138,-1685.410096,-1998.556043,12657.521608
1632.437455,-842.705048,296.082377,12805.562797
1632.437772,766.095498,2886.803174,10584.944971
1632.438090,1378.971896,3849.070898,9474.636058
1632.438407,1532.190996,4663.297435,8808.450710
1632.438724,2068.457845,5181.441594,7920.203579
1632.439041,1838.629195,5107.421000,6439.791695
1632.439359,1762.019645,3256.906145,6735.874072
1632.439676,1532.190996,444.123565,7624.121203
1632.439993,229.828649,-2146.597232,8068.244768
1632.440311,306.438199,-4737.318029,9696.697840
1632.440628,-919.314598,-5551.544565,11399.171507
1632.440945,-689.485948,-5107.421000,12509.480420
1632.441263,-306.438199,-3701.029710,12509.480420
1632.441580,-612.876398,-1480.411884,12953.603985
1632.441897,-689.485948,592.164754,12213.398043
1632.442214,153.219100,2812.782580,10807.006753
1632.442532,536.266849,5255.462188,9474.636058
1632.442849,1532.190996,5625.565159,8956.491898
1632.443166,2911.162892,4737.318029,8290.306550
1632.443484,2681.334243,3108.864956,6883.915261
1632.443801,3064.381992,592.164754,7698.141797
1632.444118,2911.162892,-1480.411884,7550.100608
1632.444435,2911.162892,-3478.967927,8068.244768
1632.444753,2451.505594,-4367.215058,8882.471304
1632.445070,1991.848295,-3923.091493,9992.780217
1632.445387,1225.752797,-2590.720797,10066.800811
1632.445705,1378.971896,-962.267725,10288.862594
1632.446022,1072.533697,1036.288319,10436.903782
1632.446339,536.266849,3034.844362,9622.677246
1632.446656,612.876398,4441.235652,8586.388927
1632.446974,689.485948,4589.276840,8364.327145
1632.447291,689.485948,3478.967927,8216.285956
1632.447608,766.095498,1332.370696,8142.265362
1632.447926,689.485948,-444.123565,7772.162391
1632.448243,919.314598,-2516.700203,8808.450710
1632.448560,536.266849,-4441.235652,9326.594869
1632.448878,459.657299,-5403.503377,9918.759623
1632.449195,459.657299,-4293.194464,9548.656652
1632.449512,459.657299,-3182.885551,9326.594869
1632.449829,306.438199,-1702.473667,9252.574275
1632.450147,229.828649,-222.061783,9030.512492
1632.450464,0.000000,1332.370696,8290.306550
1632.450781,0.000000,2590.720797,8142.265362
1632.451099,-689.485948,3034.844362,8216.285956
1632.451416,-383.047749,2812.782580,8364.327145
1632.451733,-995.924147,2146.597232,7624.121203
1632.452050,-919.314598,-0.000000,8808.450710
1632.452368,-612.876398,-2368.659014,9622.677246
1632.452685,-842.705048,-3923.091493,9696.697840
1632.453002,-383.047749,-5477.523971,11251.130318
1632.453320,-689.485948,-4959.379811,11399.171507
1632.453637,459.657299,-4145.153275,11473.192101
1632.453954,995.924147,-1480.411884,10584.944971
1632.454272,1302.362347,1036.288319,9992.780217
1632.454589,1991.848295,3108.864956,9030.512492
1632.454906,1762.019645,4811.338623,8068.244768
1632.455223,1455.581446,5773.606348,7994.224174
1632.455541,1915.238745,5773.606348,7624.121203
1632.455858,1608.800546,3849.070898,7031.956449
1632.456175,919.314598,814.226536,8512.368333
1632.456493,842.705048,-2220.617826,10066.800811
1632.456810,0.000000,-3552.988522,10214.842000
1632.457127,459.657299,-4441.235652,11177.109724
1632.457444,383.047749,-4293.194464,11917.315666
1632.457762,536.266849,-2590.720797,11473.192101
1632.458079,842.705048,-592.164754,11695.253884
1632.458396,612.876398,1110.308913,11547.212695
1632.458714,689.485948,3108.864956,10066.800811
1632.459031,1302.362347,4811.338623,9696.697840
1632.459348,995.924147,5255.462188,8586.388927
1632.459665,1302.362347,5403.503377,8290.306550
1632.459983,1072.533697,3849.070898,6957.935855
1632.460300,306.438199,1702.473667,7772.162391
1632.460617,306.438199,-814.226536,9252.574275
1632.460935,0.000000,-2368.659014,9030.512492
1632.461252,0.000000,-4737.318029,10658.965565
1632.461569,-766.095498,-5181.441594,11695.253884
1632.461887,-612.876398,-4515.256246,12657.521608
1632.462204,-689.485948,-2220.617826,11769.274478
1632.462521,0.000000,-74.020594,12065.356855
1632.462838,229.828649,2146.597232,10658.965565
1632.463156,612.876398,4515.256246,9770.718434
1632.463473,306.438199,5773.606348,8068.244768
1632.463790,1455.581446,5329.482782,8142.265362
1632.464108,1608.800546,3923.091493,6957.935855
1632.464425,1149.143247,1702.473667,7105.977043
1632.464742,1685.410096,-666.185348,7550.100608
1632.465059,1225.752797,-3404.947333,8512.368333
1632.465377,919.314598,-5403.503377,10140.821405
1632.465694,612.876398,-5107.421000,10732.986159
1632.466011,842.705048,-3849.070898,10955.047942
1632.466329,1532.190996,-1480.411884,10955.047942
1632.466646,1685.410096,-0.000000,11399.171507
1632.466963,1991.848295,2886.803174,9844.739029
1632.467280,2451.505594,5181.441594,8364.327145
1632.467598,2528.115143,6143.709319,7624.121203
1632.467915,2681.334243,5699.585753,6957.935855
1632.468232,2911.162892,4515.256246,5847.626942
1632.468550,2298.286494,2368.659014,5477.523971
1632.468867,1685.410096,-814.226536,7476.080014
1632.469184,766.095498,-3256.906145,7994.224174
1632.469502,0.000000,-5329.482782,9474.636058
1632.469819,-766.095498,-5921.647536,10658.965565
1632.470136,-842.705048,-4959.379811,11621.233289
1632.470453,-842.705048,-2886.803174,11103.089130
1632.470771,-383.047749,-592.164754,11473.192101
1632.471088,-153.219100,1998.556043,10214.842000
1632.471405,-229.828649,4293.194464,9474.636058
1632.471723,153.219100,6365.771101,8512.368333
1632.472040,612.876398,7031.956449,7550.100608
1632.472357,689.485948,5625.565159,7105.977043
1632.472674,536.266849,3330.926739,7179.997637
1632.472992,689.485948,-666.185348,9326.594869
1632.473309,0.000000,-3478.967927,8808.450710
1632.473626,76.609550,-5551.544565,10510.924376
1632.473944,536.266849,-5625.565159,10881.027347
1632.474261,229.828649,-4663.297435,10881.027347
1632.474578,766.095498,-3034.844362,10140.821405
1632.474895,689.485948,-592.164754,9696.697840
1632.475213,766.095498,2220.617826,9548.656652
1632.475530,919.314598,4737.318029,8882.471304
1632.475847,919.314598,5699.585753,9104.533087
1632.476165,995.924147,6069.688724,8882.471304
1632.476482,842.705048,5181.441594,9104.533087
1632.476799,306.438199,3330.926739,8660.409521
1632.477117,1072.533697,148.041188,9844.739029
1632.477434,1378.971896,-2294.638420,9844.739029
1632.477751,1302.362347,-3849.070898,10214.842000
1632.478068,1455.581446,-5033.400406,11251.130318
1632.478386,1532.190996,-4367.215058,11473.192101
1632.478703,1608.800546,-2442.679609,10658.965565
1632.479020,1225.752797,-296.082377,10584.944971
1632.479338,1378.971896,1480.411884,10140.821405
1632.479655,1225.752797,3849.070898,8586.388927
1632.479972,1455.581446,5033.400406,8734.430116
1632.480289,536.266849,5477.523971,8438.347739
1632.480607,383.047749,4441.235652,8808.450710
1632.480924,229.828649,2738.761985,8808.450710
1632.481241,153.219100,-0.000000,9474.636058
1632.481559,0.000000,-1924.535449,10066.800811
1632.481876,-306.438199,-3849.070898,10807.006753
1632.482193,612.876398,-4885.359217,11769.274478
1632.482510,536.266849,-4811.338623,12361.439231
1632.482828,1225.752797,-3404.947333,11547.212695
1632.483145,995.924147,-962.267725,10066.800811
1632.483462,1532.190996,740.205942,10066.800811
1632.483780,1838.629195,3182.885551,8216.285956
1632.484097,2528.115143,4885.359217,7328.038826
1632.484414,2221.676944,5551.544565,6809.894666
1632.484732,2451.505594,4145.153275,7254.018232
1632.485049,2145.067394,2590.720797,6809.894666
1632.485366,1532.190996,-0.000000,7476.080014
1632.485683,995.924147,-2442.679609,9474.636058
1632.486001,-229.828649,-3627.009116,9474.636058
1632.486318,76.609550,-4737.318029,10955.047942
1632.486635,0.000000,-4219.173869,10881.027347
1632.486953,0.000000,-2812.782580,11695.253884
1632.487270,306.438199,-1036.288319,10955.047942
1632.487587,459.657299,1258.350101,9844.739029
1632.487904,1608.800546,2664.741391,9178.553681
1632.488222,1455.581446,4737.318029,7920.203579
1632.488539,1685.410096,5329.482782,6883.915261
1632.488856,1532.190996,5107.421000,5847.626942
1632.489174,1455.581446,2812.782580,5995.668130
1632.489491,919.314598,222.061783,6587.832884
1632.489808,229.828649,-2072.576638,7698.141797
1632.490125,0.000000,-3552.988522,8660.409521
1632.490443,-383.047749,-4441.235652,10066.800811
1632.490760,-842.705048,-3849.070898,10510.924376
1632.491077,-766.095498,-2664.741391,11177.109724
1632.491395,-383.047749,-1036.288319,11177.109724
1632.491712,-229.828649,814.226536,11177.109724
1632.492029,0.000000,3034.844362,9696.697840
1632.492347,0.000000,4145.153275,9474.636058
1632.492664,0.000000,4811.338623,8734.430116
1632.492981,-229.828649,4293.194464,8660.409521
1632.493298,-153.219100,2812.782580,7920.203579
1632.493616,76.609550,666.185348,8586.388927
1632.493933,0.000000,-1850.514855,9178.553681
1632.494250,0.000000,-3775.050304,9474.636058
1632.494568,383.047749,-4885.359217,10955.047942
1632.494885,536.266849,-4441.235652,10140.821405
1632.495202,995.924147,-3108.864956,10288.862594
1632.495519,995.924147,-962.267725,9918.759623
1632.495837,1378.971896,1110.308913,10436.903782
1632.496154,1915.238745,3478.967927,9474.636058
1632.496471,1762.019645,5181.441594,9178.553681
1632.496789,612.876398,6217.729913,8734.430116
1632.497106,1991.848295,5551.544565,9474.636058
1632.497423,1225.752797,4737.318029,8216.285956
1632.497741,995.924147,1628.453072,8808.450710
1632.498058,612.876398,-1036.288319,9770.718434
1632.498375,383.047749,-3552.988522,10362.883188
1632.498692,842.705048,-5033.400406,11843.295072
1632.499010,919.314598,-4441.235652,11843.295072
1632.499327,1532.190996,-3478.967927,11843.295072
1632.499644,1455.581446,-444.123565,10732.986159
1632.499962,2528.115143,1036.288319,10584.944971
1632.500279,3217.601092,3330.926739,8734.430116
1632.500596,3370.820191,5033.400406,7920.203579
1632.500913,3064.381992,5921.647536,7698.141797
1632.501231,2528.115143,5773.606348,7105.977043
1632.501548,2681.334243,4219.173869,7402.059420
1632.501865,1685.410096,1480.411884,7476.080014
1632.502183,1072.533697,-1924.535449,9252.574275
1632.502500,229.828649,-3849.070898,9992.780217
1632.502817,0.000000,-6217.729913,11325.150913
1632.503134,-766.095498,-6661.853478,12953.603985
1632.503452,-1225.752797,-5699.585753,13175.665768
1632.503769,-919.314598,-3182.885551,12731.542202
1632.504086,-689.485948,-814.226536,11029.068536
1632.504404,153.219100,1554.432478,10436.903782
1632.504721,383.047749,3849.070898,9252.574275
1632.505038,612.876398,5551.544565,7550.100608
1632.505356,1149.143247,5551.544565,7105.977043
1632.505673,1685.410096,3849.070898,6957.935855
1632.505990,1302.362347,1998.556043,7402.059420
1632.506307,1225.752797,-888.247130,8882.471304
1632.506625,766.095498,-2960.823768,9474.636058
1632.506942,612.876398,-4737.318029,9696.697840
1632.507259,766.095498,-4367.215058,10288.862594
1632.507577,995.924147,-3034.844362,10510.924376
1632.507894,842.705048,-1628.453072,10214.842000
1632.508211,536.266849,-666.185348,9992.780217
1632.508528,612.876398,1998.556043,8956.491898
1632.508846,536.266849,3923.091493,7994.224174
1632.509163,306.438199,5773.606348,7624.121203
1632.509480,995.924147,4885.359217,7179.997637
1632.509797,536.266849,4071.132681,6661.853478
1632.510115,842.705048,1184.329507,7698.141797
1632.510432,919.314598,-1036.288319,8586.388927
1632.510749,1302.362347,-2590.720797,8956.491898
1632.511066,1072.533697,-4145.153275,10140.821405
1632.511383,536.266849,-4145.153275,9992.780217
1632.511701,1225.752797,-3627.009116,10658.965565
1632.512018,612.876398,-1628.453072,9622.677246
1632.512335,459.657299,-0.000000,10066.800811
1632.512652,842.705048,2664.741391,8364.327145
1632.512970,919.314598,3923.091493,7624.121203
1632.513287,766.095498,4441.235652,7624.121203
1632.513604,383.047749,3256.906145,7698.141797
1632.513921,76.609550,2664.741391,7772.162391
1632.514238,-766.095498,-0.000000,8364.327145
1632.514556,-612.876398,-2442.679609,9474.636058
1632.514873,-1378.971896,-4071.132681,10214.842000
1632.515190,-919.314598,-5033.400406,11621.233289
1632.515507,-1149.143247,-4441.235652,11695.253884
1632.515825,0.000000,-2738.761985,12287.418637
1632.516142,306.438199,-444.123565,11621.233289
1632.516459,842.705048,1850.514855,10881.027347
1632.516776,1455.581446,3627.009116,9696.697840
1632.517093,1685.410096,5107.421000,8438.347739
1632.517411,1991.848295,5551.544565,8068.244768
1632.517728,2221.676944,5329.482782,8216.285956
1632.518045,1685.410096,4219.173869,7402.059420
1632.518362,995.924147,1258.350101,7550.100608
1632.518680,919.314598,-888.247130,9252.574275
1632.518997,995.924147,-3108.864956,9770.718434
1632.519314,-153.219100,-4737.318029,9992.780217
1632.519631,-766.095498,-5255.462188,11547.212695
1632.519948,-306.438199,-5107.421000,13545.768739
1632.520266,-459.657299,-1702.473667,11103.089130
1632.520583,383.047749,-592.164754,12213.398043
1632.520900,76.609550,1924.535449,10807.006753
1632.521217,1378.971896,3997.112087,10362.883188
1632.521535,1225.752797,6291.750507,7994.224174
1632.521852,2451.505594,5699.585753,8808.450710
1632.522169,1915.238745,5107.421000,7402.059420
1632.522486,2298.286494,2812.782580,7550.100608
1632.522803,2451.505594,444.123565,8290.306550
1632.523121,1455.581446,-3034.844362,8660.409521
1632.523438,689.485948,-5625.565159,10436.903782
1632.523755,153.219100,-5847.626942,11251.130318
1632.524072,459.657299,-5181.441594,11547.212695
1632.524390,229.828649,-3034.844362,10807.006753
1632.524707,0.000000,-1036.288319,11177.109724
1632.525024,153.219100,814.226536,10881.027347
1632.525341,306.438199,2516.700203,9696.697840
1632.525658,612.876398,4293.194464,9770.718434
1632.525976,76.609550,4885.359217,8734.430116
1632.526293,1072.533697,4737.318029,9030.512492
1632.526610,1302.362347,3552.988522,7550.100608
1632.526927,1455.581446,370.102971,7994.224174
1632.527245,1149.143247,-1776.494261,8290.306550
1632.527562,612.876398,-4071.132681,9104.533087
1632.527879,919.314598,-4885.359217,9178.553681
1632.528196,1762.019645,-4737.318029,9622.677246
1632.528513,1608.800546,-3478.967927,9696.697840
1632.528831,842.705048,-2146.597232,9622.677246
1632.529148,689.485948,-370.102971,9548.656652
1632.529465,689.485948,1850.514855,9252.574275
1632.529782,995.924147,3849.070898,8142.265362
1632.530099,766.095498,5033.400406,8068.244768
1632.530417,229.828649,4663.297435,7550.100608
1632.530734,842.705048,3256.906145,7328.038826
1632.531051,459.657299,1036.288319,7624.121203
1632.531368,995.924147,-1480.411884,9104.533087
1632.531686,76.609550,-3256.906145,8660.409521
1632.532003,306.438199,-4367.215058,9844.739029
1632.532320,536.266849,-4367.215058,9548.656652
1632.532637,536.266849,-3478.967927,10288.862594
1632.532954,383.047749,-1258.350101,9622.677246
1632.533272,766.095498,222.061783,9770.718434
1632.533589,383.047749,2812.782580,8660.409521
1632.533906,995.924147,3997.112087,8512.368333
1632.534223,153.219100,4441.235652,7624.121203
1632.534541,153.219100,3701.029710,8142.265362
1632.534858,-383.047749,2738.761985,8216.285956
1632.535175,0.000000,444.123565,8586.388927
1632.535492,-153.219100,-2294.638420,9770.718434
1632.535809,-229.828649,-3849.070898,10362.883188
1632.536127,-153.219100,-4441.235652,11029.068536
1632.536444,459.657299,-4145.153275,11251.130318
1632.536761,842.705048,-3256.906145,11399.171507
1632.537078,1072.533697,-740.205942,10288.862594
1632.537396,1072.533697,740.205942,9992.780217
1632.537713,1532.190996,3182.885551,9104.533087
1632.538030,1532.190996,4293.194464,8364.327145
1632.538347,1378.971896,5329.482782,8068.244768
1632.538664,1378.971896,4959.379811,8364.327145
1632.538982,842.705048,3849.070898,8068.244768
1632.539299,919.314598,1110.308913,8956.491898
1632.539616,229.828649,-1406.391290,10362.883188
1632.539933,-306.438199,-3404.947333,10140.821405
1632.540251,-306.438199,-3997.112087,11547.212695
1632.540568,-229.828649,-3404.947333,11695.253884
1632.540885,229.828649,-2442.679609,11843.295072
1632.541202,0.000000,-666.185348,11325.150913
1632.541519,383.047749,1036.288319,11103.089130
1632.541837,1455.581446,3552.988522,9918.759623
1632.542154,1915.238745,5107.421000,8734.430116
1632.542471,2145.067394,5477.523971,7846.182985
1632.542788,1991.848295,5403.503377,7698.141797
1632.543106,1225.752797,3923.091493,7328.038826
1632.543423,1455.581446,1628.453072,7476.080014
1632.543740,919.314598,-962.267725,8882.471304
1632.544057,0.000000,-2812.782580,9844.739029
1632.544374,-689.485948,-4737.318029,10658.965565
1632.544692,-229.828649,-4663.297435,11399.171507
1632.545009,0.000000,-3775.050304,12361.439231
1632.545326,0.000000,-2072.576638,11325.150913
1632.545643,76.609550,-74.020594,11251.130318
1632.545961,536.266849,2368.659014,9918.759623
1632.546278,1225.752797,4145.153275,8882.471304
1632.546595,1532.190996,5329.482782,8808.450710
1632.546912,1685.410096,5403.503377,7920.203579
1632.547229,2145.067394,4589.276840,7179.997637
1632.547547,2221.676944,2368.659014,6957.935855
1632.547864,1915.238745,-1258.350101,8956.491898
1632.548181,1149.143247,-3182.885551,8882.471304
1632.548498,612.876398,-4219.173869,9770.718434
1632.548816,612.876398,-5181.441594,10066.800811
1632.549133,689.485948,-4145.153275,11177.109724
1632.549450,459.657299,-2368.659014,10066.800811
1632.549767,459.657299,-296.082377,10140.821405
1632.550084,1072.533697,1850.514855,9548.656652
1632.550402,1608.800546,3775.050304,8290.306550
1632.550719,1302.362347,4737.318029,8290.306550
1632.551036,919.314598,5329.482782,7772.162391
1632.551353,1378.971896,4589.276840,7772.162391
1632.551670,1762.019645,2294.638420,7402.059420
1632.551988,1608.800546,-74.020594,8882.471304
1632.552305,766.095498,-2294.638420,8438.347739
1632.552622,995.924147,-3997.112087,8956.491898
1632.552939,1072.533697,-4737.318029,9696.697840
1632.553257,689.485948,-4885.359217,10510.924376
1632.553574,459.657299,-2738.761985,10140.821405
1632.553891,536.266849,-592.164754,9326.594869
1632.554208,536.266849,1110.308913,8882.471304
1632.554525,1378.971896,2368.659014,8586.388927
1632.554843,919.314598,4071.132681,8586.388927
1632.555160,459.657299,4737.318029,7550.100608
1632.555477,536.266849,3478.967927,8142.265362
1632.555794,76.609550,1258.350101,8586.388927
1632.556112,76.609550,-1184.329507,9844.739029
1632.556429,0.000000,-2516.700203,10066.800811
1632.556746,-536.266849,-3849.070898,10066.800811
1632.557063,-153.219100,-4959.379811,11991.336260
1632.557380,153.219100,-3775.050304,11621.233289
1632.557698,306.438199,-1924.535449,10658.965565
1632.558015,459.657299,222.061783,10362.883188
1632.558332,1302.362347,1628.453072,9770.718434
1632.558649,1685.410096,2960.823768,8808.450710
1632.558967,1455.581446,4219.173869,8068.244768
1632.559284,1532.190996,4589.276840,8808.450710
1632.559601,995.924147,4071.132681,8068.244768
1632.559918,612.876398,2812.782580,8142.265362
1632.560235,689.485948,962.267725,9030.512492
1632.560553,229.828649,-666.185348,9474.636058
1632.560870,306.438199,-3034.844362,10362.883188
1632.561187,536.266849,-3701.029710,11621.233289
1632.561504,383.047749,-3330.926739,11843.295072
1632.561822,229.828649,-1850.514855,11695.253884
1632.562139,306.438199,-148.041188,11399.171507
1632.562456,1149.143247,1628.453072,10955.047942
1632.562773,1072.533697,3404.947333,9474.636058
1632.563090,766.095498,5329.482782,8216.285956
1632.563408,1225.752797,6217.729913,7402.059420
1632.563725,1608.800546,5477.523971,7328.038826
1632.564042,1302.362347,2812.782580,7254.018232
1632.564359,612.876398,296.082377,8142.265362
1632.564677,76.609550,-2146.597232,9030.512492
1632.564994,153.219100,-3923.091493,9326.594869
1632.565311,-306.438199,-4737.318029,11029.068536
1632.565628,0.000000,-3849.070898,11769.274478
1632.565945,76.609550,-1554.432478,11103.089130
1632.566263,612.876398,-370.102971,11177.109724
1632.566580,842.705048,1258.350101,11547.212695
1632.566897,995.924147,3404.947333,9400.615463
1632.567214,1838.629195,5033.400406,8364.327145
1632.567532,1991.848295,6291.750507,7772.162391
1632.567849,2528.115143,5625.565159,7550.100608
1632.568166,2068.457845,3182.885551,6735.874072
1632.568483,1838.629195,444.123565,8216.285956
1632.568800,1378.971896,-1776.494261,9252.574275
1632.569118,995.924147,-3478.967927,9400.615463
1632.569435,842.705048,-4737.318029,10510.924376
1632.569752,306.438199,-4441.235652,11325.150913
1632.570069,306.438199,-3701.029710,11917.315666
1632.570386,536.266849,-1332.370696,11029.068536
1632.570704,919.314598,222.061783,11399.171507
1632.571021,1608.800546,2516.700203,9844.739029
1632.571338,1149.143247,4737.318029,8660.409521
1632.571655,1072.533697,4959.379811,7920.203579
1632.571973,1685.410096,5255.462188,7624.121203
1632.572290,1532.190996,3775.050304,6809.894666
1632.572607,1608.800546,888.247130,6809.894666
1632.572924,995.924147,-1036.288319,8586.388927
1632.573241,689.485948,-3256.906145,8882.471304
1632.573559,842.705048,-5033.400406,10732.986159
1632.573876,0.000000,-5403.503377,11843.295072
1632.574193,-383.047749,-4737.318029,11621.233289
1632.574510,-306.438199,-1850.514855,10955.047942
1632.574828,0.000000,-74.020594,11177.109724
1632.575145,459.657299,2368.659014,9918.759623
1632.575462,842.705048,4071.132681,8586.388927
1632.575779,689.485948,5551.544565,7328.038826
1632.576096,919.314598,4811.338623,7328.038826
1632.576414,459.657299,3627.009116,7105.977043
1632.576731,76.609550,1258.350101,7698.141797
1632.577048,306.438199,-1184.329507,8290.306550
1632.577365,-383.047749,-3108.864956,9474.636058
1632.577683,383.047749,-5107.421000,10584.944971
1632.578000,0.000000,-5699.585753,11473.192101
1632.578317,306.438199,-4219.173869,11621.233289
1632.578634,459.657299,-1998.556043,10436.903782
1632.578951,306.438199,-296.082377,10362.883188
1632.579269,76.609550,2516.700203,8660.409521
1632.579586,689.485948,3997.112087,8364.327145
1632.579903,76.609550,5255.462188,7402.059420
1632.580220,459.657299,5107.421000,8660.409521
1632.580538,229.828649,3849.070898,7920.203579
1632.580855,153.219100,1998.556043,8142.265362
1632.581172,612.876398,-1776.494261,9992.780217
1632.581489,0.000000,-4589.276840,10658.965565
1632.581806,-995.924147,-5107.421000,10807.006753
1632.582124,0.000000,-4663.297435,9844.739029
1632.582441,1302.362347,-3182.885551,10807.006753
1632.582758,1455.581446,-1998.556043,10214.842000
1632.583075,1685.410096,-222.061783,10584.944971
1632.583393,383.047749,2590.720797,9104.533087
1632.583710,612.876398,4441.235652,8660.409521
1632.584027,1072.533697,3997.112087,9326.594869
1632.584344,766.095498,4515.256246,9326.594869
1632.584661,1149.143247,4071.132681,8882.471304
1632.584979,689.485948,2664.741391,7402.059420
1632.585296,1302.362347,-1628.453072,10066.800811
1632.585613,1149.143247,-3701.029710,9770.718434
1632.585930,1149.143247,-4293.194464,9696.697840
1632.586248,842.705048,-3923.091493,9770.718434
1632.586565,1762.019645,-3923.091493,10881.027347
1632.586882,1685.410096,-3034.844362,11103.089130
1632.587199,1149.143247,-740.205942,11029.068536
1632.587516,1532.190996,2442.679609,9696.697840
1632.587834,1991.848295,3701.029710,7994.224174
1632.588151,2451.505594,4515.256246,8586.388927
1632.588468,2298.286494,5033.400406,7624.121203
1632.588785,2451.505594,4367.215058,7031.956449
1632.589103,2298.286494,2294.638420,7476.080014
1632.589420,2298.286494,-1184.329507,9548.656652
1632.589737,995.924147,-2442.679609,9252.574275
1632.590054,1072.533697,-3701.029710,9548.656652
1632.590371,689.485948,-4219.173869,10732.986159
1632.590689,306.438199,-3997.112087,10510.924376
1632.591006,689.485948,-2368.659014,9918.759623
1632.591323,459.657299,444.123565,9548.656652
1632.591640,1149.143247,1554.432478,9844.739029
1632.591957,995.924147,2516.700203,8364.327145
1632.592275,1455.581446,3701.029710,8586.388927
1632.592592,229.828649,5033.400406,7772.162391
1632.592909,459.657299,4145.153275,7846.182985
1632.593226,-536.266849,2664.741391,7254.018232
1632.593544,-689.485948,814.226536,9104.533087
1632.593861,0.000000,-1184.329507,9696.697840
1632.594178,-1378.971896,-2664.741391,9252.574275
1632.594495,-1072.533697,-4811.338623,11843.295072
1632.594812,-1072.533697,-4515.256246,11769.274478
1632.595130,-689.485948,-2664.741391,10214.842000
1632.595447,0.000000,-1184.329507,9844.739029
1632.595764,612.876398,222.061783,10362.883188
1632.596081,76.609550,2442.679609,8512.368333
1632.596399,689.485948,4663.297435,7846.182985
1632.596716,842.705048,5181.441594,7846.182985
1632.597033,612.876398,4811.338623,7254.018232
1632.597350,383.047749,2886.803174,7698.141797
1632.597667,-306.438199,740.205942,8438.347739
1632.597985,-459.657299,-1998.556043,9252.574275
1632.598302,-689.485948,-4219.173869,10584.944971
1632.598619,-306.438199,-5107.421000,12213.398043
1632.598936,0.000000,-4367.215058,11917.315666
1632.599254,229.828649,-3034.844362,12065.356855
1632.599571,459.657299,-1036.288319,11547.212695
1632.599888,1608.800546,1258.350101,11177.109724
1632.600205,1762.019645,3404.947333,9400.615463
1632.600522,2068.457845,5403.503377,7994.224174
1632.600840,1838.629195,5329.482782,7476.080014
1632.601157,1762.019645,4441.235652,7846.182985
1632.601474,1455.581446,2960.823768,7031.956449
1632.601791,1455.581446,518.144159,8142.265362
1632.602109,1225.752797,-1702.473667,8956.491898
1632.602426,842.705048,-3404.947333,9400.615463
1632.602743,1072.533697,-4737.318029,10510.924376
1632.603060,612.876398,-4515.256246,11177.109724
1632.603377,536.266849,-3849.070898,11695.253884
1632.603695,612.876398,-1406.391290,11473.192101
1632.604012,689.485948,370.102971,11325.150913
1632.604329,689.485948,2220.617826,10066.800811
1632.604646,612.876398,4071.132681,8290.306550
1632.604964,689.485948,4663.297435,8364.327145
1632.605281,995.924147,4441.235652,7920.203579
1632.605598,1762.019645,2590.720797,7994.224174
1632.605915,1455.581446,592.164754,7846.182985
1632.606232,1149.143247,-1702.473667,9030.512492
1632.606550,536.266849,-3775.050304,9474.636058
1632.606867,689.485948,-5181.441594,10436.903782
1632.607184,1072.533697,-5107.421000,11325.150913
1632.607501,919.314598,-3701.029710,11103.089130
1632.607819,766.095498,-1628.453072,10732.986159
1632.608136,1378.971896,444.123565,10881.027347
1632.608453,1378.971896,2368.659014,8882.471304
1632.608770,1378.971896,3478.967927,8438.347739
1632.609087,1225.752797,4219.173869,8068.244768
1632.609405,1608.800546,3775.050304,7179.997637
1632.609722,1685.410096,1850.514855,8290.306550
1632.610039,1762.019645,-0.000000,9030.512492
1632.610356,1532.190996,-1924.535449,8660.409521
1632.610673,995.924147,-2442.679609,9030.512492
1632.610991,842.705048,-3552.988522,10362.883188
1632.611308,842.705048,-2516.700203,10066.800811
1632.611625,1838.629195,-1406.391290,9844.739029
1632.611942,1378.971896,-74.020594,9844.739029
1632.612259,1608.800546,518.144159,9844.739029
1632.612576,1685.410096,2516.700203,8660.409521
1632.612894,1455.581446,3627.009116,7402.059420
1632.613211,1378.971896,5033.400406,7698.141797
1632.613528,689.485948,5477.523971,6957.935855
1632.613845,536.266849,4293.194464,6735.874072
1632.614162,0.000000,1776.494261,8290.306550
1632.614479,-1149.143247,-666.185348,9400.615463
1632.614797,-1532.190996,-2590.720797,9770.718434
1632.615114,-1532.190996,-4663.297435,11991.336260
1632.615431,-1762.019645,-4737.318029,11991.336260
1632.615748,-1302.362347,-3997.112087,11843.295072
1632.616065,-1149.143247,-2072.576638,10584.944971
1632.616383,0.000000,-0.000000,10288.862594
1632.616700,995.924147,2368.659014,9030.512492
1632.617017,1378.971896,4737.318029,7402.059420
1632.617334,1149.143247,5773.606348,7328.038826
1632.617651,536.266849,6069.688724,7031.956449
1632.617968,766.095498,4219.173869,7402.059420
1632.618286,229.828649,2146.597232,8364.327145
1632.618603,-153.219100,-592.164754,10214.842000
1632.618920,-689.485948,-2516.700203,10881.027347
1632.619237,0.000000,-3701.029710,11177.109724
1632.619554,153.219100,-5107.421000,13323.706956
1632.619871,306.438199,-3923.091493,12509.480420
1632.620189,842.705048,-1998.556043,11251.130318
1632.620506,689.485948,-0.000000,10732.986159
1632.620823,1225.752797,2072.576638,10140.821405
1632.621140,1608.800546,3849.070898,9178.553681
1632.621457,1455.581446,5625.565159,8438.347739
1632.621774,1838.629195,5699.585753,8438.347739
1632.622092,1991.848295,4737.318029,7846.182985
1632.622409,2068.457845,2590.720797,7476.080014
1632.622726,2681.334243,370.102971,8660.409521
1632.623043,2145.067394,-1924.535449,9030.512492
1632.623360,1991.848295,-4145.153275,9770.718434
1632.623677,1838.629195,-4663.297435,11177.109724
1632.623995,229.828649,-3701.029710,11621.233289
1632.624312,153.219100,-2072.576638,11177.109724
1632.624629,459.657299,-370.102971,11251.130318
1632.624946,-153.219100,1406.391290,10732.986159
1632.625263,0.000000,3478.967927,9400.615463
1632.625580,-229.828649,5033.400406,7772.162391
1632.625898,459.657299,4441.235652,8068.244768
1632.626215,919.314598,2664.741391,7698.141797
1632.626532,1072.533697,1184.329507,7254.018232
1632.626849,689.485948,-962.267725,8142.265362
1632.627166,689.485948,-3034.844362,9178.553681
1632.627483,536.266849,-4219.173869,9622.677246
1632.627801,919.314598,-4441.235652,11103.089130
1632.628118,306.438199,-3552.988522,11769.274478
1632.628435,766.095498,-1628.453072,10807.006753
1632.628752,995.924147,-370.102971,11177.109724
1632.629069,1072.533697,1998.556043,9992.780217
1632.629387,1532.190996,3849.070898,8586.388927
1632.629704,1991.848295,4589.276840,7328.038826
1632.630021,2604.724693,4219.173869,7254.018232
1632.630338,2604.724693,3478.967927,6809.894666
1632.630655,2068.457845,2368.659014,6365.771101
1632.630972,2145.067394,222.061783,6957.935855
1632.631290,1149.143247,-1850.514855,7846.182985
1632.631607,1149.143247,-4811.338623,9474.636058
1632.631924,0.000000,-5181.441594,11177.109724
1632.632241,-612.876398,-4293.194464,11399.171507
1632.632558,-229.828649,-2664.741391,11843.295072
1632.632875,0.000000,-1110.308913,11399.171507
1632.633193,919.314598,1480.411884,10510.924376
1632.633510,919.314598,3478.967927,8438.347739
1632.633827,383.047749,5107.421000,7550.100608
1632.634144,919.314598,5329.482782,7179.997637
1632.634461,919.314598,5107.421000,7328.038826
1632.634778,229.828649,3404.947333,6809.894666
1632.635096,229.828649,1258.350101,8142.265362
1632.635413,-153.219100,-1998.556043,9178.553681
1632.635730,-536.266849,-4515.256246,9844.739029
1632.636047,-612.876398,-5551.544565,11251.130318
1632.636364,-612.876398,-4737.318029,11029.068536
1632.636681,-459.657299,-3108.864956,10510.924376
1632.636999,0.000000,-1776.494261,10732.986159
1632.637316,612.876398,296.082377,11547.212695
1632.637633,153.219100,2516.700203,8882.471304
1632.637950,306.438199,4811.338623,9104.533087
1632.638267,0.000000,5921.647536,8808.450710
1632.638584,612.876398,5699.585753,8808.450710
1632.638902,995.924147,4441.235652,8290.306550
1632.639219,1838.629195,1184.329507,9326.594869
1632.639536,1225.752797,-888.247130,9918.759623
1632.639853,2145.067394,-3330.926739,10436.903782
1632.640170,1915.238745,-4663.297435,10807.006753
1632.640487,2221.676944,-4293.194464,11251.130318
1632.640805,2451.505594,-3404.947333,10955.047942
1632.641122,1991.848295,-1110.308913,9770.718434
1632.641439,3217.601092,740.205942,10955.047942
1632.641756,2221.676944,3330.926739,8068.244768
1632.642073,2604.724693,4885.359217,8364.327145
1632.642390,1915.238745,5625.565159,7846.182985
1632.642708,1149.143247,5403.503377,7772.162391
1632.643025,995.924147,3701.029710,8216.285956
1632.643342,0.000000,1332.370696,8734.430116
1632.643659,689.485948,-1554.432478,10066.800811
1632.643976,229.828649,-2516.700203,9992.780217
1632.644294,0.000000,-4145.153275,11399.171507
1632.644611,-459.657299,-3849.070898,11843.295072
1632.644928,-229.828649,-2812.782580,11843.295072
1632.645245,612.876398,-814.226536,11473.192101
1632.645562,229.828649,444.123565,10732.986159
1632.645879,383.047749,2590.720797,9474.636058
1632.646197,459.657299,4663.297435,6957.935855
1632.646514,536.266849,5551.544565,6217.729913
1632.646831,842.705048,5403.503377,6217.729913
1632.647148,766.095498,3182.885551,6661.853478
1632.647465,0.000000,1628.453072,7179.997637
1632.647782,-1072.533697,-1184.329507,9178.553681
1632.648100,-1455.581446,-2664.741391,9326.594869
1632.648417,-1149.143247,-4663.297435,11843.295072
1632.648734,-1838.629195,-5477.523971,12805.562797
1632.649051,-2221.676944,-4663.297435,12731.542202
1632.649368,-1915.238745,-1628.453072,10955.047942
1632.649685,-612.876398,-444.123565,11177.109724
1632.650003,-76.609550,1406.391290,10066.800811
1632.650320,612.876398,2812.782580,9104.533087
1632.650637,842.705048,4663.297435,7772.162391
1632.650954,1302.362347,4885.359217,7179.997637
1632.651271,2911.162892,3108.864956,7550.100608
1632.651588,2374.896044,1628.453072,7550.100608
1632.651906,3064.381992,-444.123565,8364.327145
1632.652223,2451.505594,-1776.494261,7994.224174
1632.652540,2528.115143,-3552.988522,9178.553681
1632.652857,2374.896044,-4589.276840,10066.800811
1632.653174,2145.067394,-2960.823768,9770.718434
1632.653491,1378.971896,-2442.679609,9548.656652
1632.653809,766.095498,-888.247130,10214.842000
1632.654126,612.876398,-592.164754,11029.068536
1632.654443,229.828649,2072.576638,9474.636058
1632.654760,229.828649,3034.844362,9918.759623
1632.655077,-153.219100,3330.926739,9326.594869
1632.655394,76.609550,2516.700203,9326.594869
1632.655712,306.438199,1702.473667,8512.368333
1632.656029,1455.581446,-592.164754,9696.697840
1632.656346,1532.190996,-2146.597232,8956.491898
1632.656663,2451.505594,-3923.091493,10066.800811
1632.656980,2374.896044,-4367.215058,9918.759623
1632.657298,3140.991542,-3923.091493,10362.883188
1632.657615,3447.429741,-2368.659014,9844.739029
1632.657932,3140.991542,-444.123565,9178.553681
1632.658249,3294.210641,1258.350101,8882.471304
1632.658566,1532.190996,3330.926739,7920.203579
1632.658883,1991.848295,3552.988522,7846.182985
1632.659201,689.485948,3182.885551,7920.203579
1632.659518,76.609550,1406.391290,8586.388927
1632.659835,-153.219100,296.082377,9252.574275
1632.660152,-1072.533697,-2516.700203,10436.903782
1632.660469,-995.924147,-4885.359217,11547.212695
1632.660786,-1532.190996,-5181.441594,11103.089130
1632.661104,-153.219100,-4663.297435,12657.521608
1632.661421,306.438199,-2886.803174,10955.047942
1632.661738,1455.581446,-592.164754,9918.759623
1632.662055,2298.286494,1554.432478,9400.615463
1632.662372,2528.115143,3923.091493,8142.265362
1632.662689,3064.381992,5995.668130,6883.915261
1632.663007,2834.553343,6735.874072,5699.585753
1632.663324,2374.896044,6439.791695,7402.059420
1632.663641,1838.629195,4515.256246,7031.956449
1632.663958,689.485948,2516.700203,7105.977043
1632.664275,0.000000,370.102971,9030.512492
1632.664592,-842.705048,-1702.473667,9770.718434
1632.664910,-1685.410096,-3108.864956,9548.656652
1632.665227,-1838.629195,-4515.256246,11547.212695
1632.665544,-2374.896044,-4145.153275,12361.439231
1632.665861,-2298.286494,-2812.782580,11917.315666
1632.666178,-1762.019645,-666.185348,10807.006753
1632.666495,-1225.752797,1406.391290,10732.986159
1632.666813,-153.219100,4367.215058,9178.553681
1632.667130,612.876398,6069.688724,7994.224174
1632.667447,1302.362347,5995.668130,7179.997637
1632.667764,1072.533697,5329.482782,7105.977043
1632.668081,1378.971896,3701.029710,7254.018232
1632.668398,1455.581446,1702.473667,8142.265362
1632.668716,919.314598,-1110.308913,9326.594869
1632.669033,383.047749,-3627.009116,10288.862594
1632.669350,-153.219100,-4441.235652,11695.253884
1632.669667,-612.876398,-4737.318029,12583.501014
1632.669984,-383.047749,-2886.803174,12361.439231
1632.670302,0.000000,-1702.473667,12213.398043
1632.670619,306.438199,-148.041188,11399.171507
1632.670936,612.876398,1628.453072,10214.842000
1632.671253,1302.362347,3404.947333,8586.388927
1632.671570,2145.067394,3997.112087,8364.327145
1632.671887,2681.334243,3997.112087,7772.162391
1632.672205,2757.943793,3404.947333,7031.956449
1632.672522,2298.286494,1554.432478,8142.265362
1632.672839,2451.505594,-962.267725,9400.615463
1632.673156,1455.581446,-3108.864956,9992.780217
1632.673473,1302.362347,-3849.070898,11473.192101
1632.673790,1149.143247,-3552.988522,11251.130318
1632.674108,919.314598,-2590.720797,11251.130318
1632.674425,995.924147,-1480.411884,11399.171507
1632.674742,1532.190996,-148.041188,11103.089130
1632.675059,1838.629195,1258.350101,9474.636058
1632.675376,1685.410096,3404.947333,8216.285956
1632.675693,2145.067394,3627.009116,8068.244768
1632.676011,1915.238745,3552.988522,7105.977043
1632.676328,2298.286494,2368.659014,6513.812290
1632.676645,2298.286494,-74.020594,7698.141797
1632.676962,1915.238745,-1924.535449,9252.574275
1632.677279,2298.286494,-3627.009116,9474.636058
1632.677596,2298.286494,-4219.173869,9474.636058
1632.677914,1915.238745,-3552.988522,9622.677246
1632.678231,2374.896044,-3182.885551,10584.944971
1632.678548,1685.410096,-1184.329507,9030.512492
1632.678865,1225.752797,592.164754,9400.615463
1632.679182,0.000000,1924.535449,8216.285956
1632.679499,229.828649,3478.967927,8216.285956
1632.679817,-842.705048,3256.906145,8142.265362
1632.680134,-1532.190996,2368.659014,7994.224174
1632.680451,-2221.676944,1110.308913,7772.162391
1632.680768,-2528.115143,-444.123565,8734.430116
1632.681085,-1991.848295,-2960.823768,10436.903782
1632.681402,-2298.286494,-5107.421000,10362.883188
1632.681720,-1762.019645,-4811.338623,11251.130318
1632.682037,-1532.190996,-4219.173869,11621.233289
1632.682354,-306.438199,-2590.720797,10807.006753
1632.682671,-383.047749,-0.000000,9548.656652
1632.682988,0.000000,2368.659014,9474.636058
1632.683305,612.876398,4663.297435,7328.038826
1632.683623,536.266849,5181.441594,7031.956449
1632.683940,229.828649,5107.421000,7254.018232
1632.684257,-229.828649,4811.338623,7328.038826
1632.684574,-766.095498,3034.844362,7624.121203
1632.684891,-1378.971896,444.123565,8808.450710
1632.685209,-1608.800546,-2368.659014,9548.656652
1632.685526,-1838.629195,-4515.256246,10510.924376
1632.685843,-1455.581446,-4589.276840,11547.212695
1632.686160,-1532.190996,-4367.215058,11547.212695
1632.686477,-612.876398,-3034.844362,11177.109724
1632.686794,-306.438199,-666.185348,10881.027347
1632.687112,229.828649,2146.597232,10140.821405
1632.687429,1072.533697,3923.091493,9252.574275
1632.687746,1149.143247,5699.585753,7846.182985
1632.688063,1838.629195,5921.647536,8290.306550
1632.688380,1455.581446,5995.668130,7772.162391
1632.688697,2145.067394,4515.256246,8068.244768
1632.689015,1532.190996,1554.432478,9104.533087
1632.689332,1225.752797,-962.267725,10140.821405
1632.689649,612.876398,-3256.906145,10362.883188
1632.689966,153.219100,-4515.256246,10955.047942
1632.690283,536.266849,-4959.379811,12509.480420
1632.690600,306.438199,-4441.235652,12657.521608
1632.690918,383.047749,-2220.617826,11991.336260
1632.691235,919.314598,-518.144159,12435.459826
1632.691552,1302.362347,2220.617826,10288.862594
1632.691869,2528.115143,4811.338623,9178.553681
1632.692186,3294.210641,5995.668130,8512.368333
1632.692503,3983.696590,6069.688724,7550.100608
1632.692821,4213.525239,4811.338623,7772.162391
1632.693138,3983.696590,2368.659014,7550.100608
1632.693455,4136.915689,-0.000000,9030.512492
1632.693772,2911.162892,-2442.679609,9178.553681
1632.694089,2221.676944,-3997.112087,10436.903782
1632.694406,2528.115143,-4441.235652,11621.233289
1632.694724,1762.019645,-3404.947333,11029.068536
1632.695041,2298.286494,-1850.514855,10732.986159
1632.695358,1838.629195,-0.000000,10288.862594
1632.695675,2298.286494,1924.535449,8956.491898
1632.695992,2451.505594,3775.050304,8068.244768
1632.696309,2757.943793,4737.318029,7105.977043
1632.696627,2451.505594,5107.421000,7031.956449
1632.696944,2681.334243,4811.338623,6069.688724
1632.697261,2068.457845,3256.906145,6291.750507
1632.697578,1915.238745,518.144159,7920.203579
1632.697895,459.657299,-1628.453072,8142.265362
1632.698213,0.000000,-4071.132681,9252.574275
1632.698530,-306.438199,-4737.318029,10436.903782
1632.698847,-1378.971896,-4737.318029,10732.986159
1632.699164,-1455.581446,-3256.906145,10288.862594
1632.699481,-1915.238745,-1110.308913,10066.800811
1632.699798,-1762.019645,814.226536,9474.636058
1632.700116,-1302.362347,2960.823768,7994.224174
1632.700433,-1378.971896,3478.967927,7846.182985
1632.700750,-1455.581446,3997.112087,8438.347739
1632.701067,-1072.533697,3404.947333,7624.121203
1632.701384,-842.705048,2368.659014,7920.203579
1632.701701,-459.657299,296.082377,8808.450710
1632.702019,-536.266849,-1554.432478,9844.739029
1632.702336,-229.828649,-2664.741391,9548.656652
1632.702653,229.828649,-3404.947333,10140.821405
1632.702970,306.438199,-3330.926739,11251.130318
1632.703287,0.000000,-1702.473667,10584.944971
1632.703604,229.828649,-148.041188,10510.924376
1632.703922,-459.657299,1628.453072,10362.883188
1632.704239,-306.438199,2442.679609,9770.718434
1632.704556,-1072.533697,2960.823768,9252.574275
1632.704873,-919.314598,3330.926739,9474.636058
1632.705190,-1149.143247,2368.659014,9104.533087
1632.705507,-842.705048,-0.000000,9474.636058
1632.705825,-229.828649,-962.267725,10732.986159
1632.706142,0.000000,-2294.638420,10436.903782
1632.706459,689.485948,-3552.988522,10881.027347
1632.706776,1532.190996,-3627.009116,11695.253884
1632.707093,2987.772442,-2960.823768,12213.398043
1632.707410,3677.258390,-814.226536,10362.883188
1632.707728,3983.696590,1332.370696,10288.862594
1632.708045,4290.134789,2886.803174,9622.677246
1632.708362,4596.572988,4219.173869,8512.368333
1632.708679,4290.134789,4663.297435,7772.162391
1632.708996,3140.991542,4959.379811,7328.038826
1632.709313,2911.162892,3997.112087,7624.121203
1632.709631,1762.019645,1406.391290,8216.285956
1632.709948,229.828649,-1406.391290,10066.800811
1632.710265,229.828649,-3404.947333,11473.192101
1632.710582,-842.705048,-5403.503377,11917.315666
1632.710899,-1225.752797,-6365.771101,12953.603985
1632.711216,-766.095498,-5181.441594,13397.727550
1632.711534,0.000000,-2590.720797,12213.398043
1632.711851,995.924147,-148.041188,11695.253884
1632.712169,1838.629195,2442.679609,10140.821405
1632.712486,2604.724693,4219.173869,7920.203579
1632.712803,3524.039291,5847.626942,7179.997637
1632.713121,3447.429741,5699.585753,6587.832884
1632.713438,3600.648841,4885.359217,6143.709319
1632.713755,2681.334243,3182.885551,6291.750507
1632.714073,2374.896044,1110.308913,7698.141797
1632.714390,1149.143247,-1184.329507,7772.162391
1632.714707,76.609550,-3775.050304,8808.450710
1632.715025,-229.828649,-4589.276840,10584.944971
1632.715342,-1072.533697,-4663.297435,10881.027347
1632.715659,-919.314598,-3478.967927,10732.986159
1632.715976,-1225.752797,-2516.700203,10732.986159
1632.716294,-1532.190996,-444.123565,10584.944971
1632.716611,-459.657299,2664.741391,8956.491898
1632.716928,-459.657299,5181.441594,7105.977043
1632.717246,536.266849,6883.915261,7105.977043
1632.717563,1915.238745,6957.935855,6587.832884
1632.717880,995.924147,5921.647536,4885.359217
1632.718198,1838.629195,2960.823768,6735.874072
1632.718515,536.266849,-370.102971,7920.203579
1632.718832,306.438199,-2960.823768,8956.491898
1632.719150,0.000000,-4441.235652,9622.677246
1632.719467,-383.047749,-4589.276840,10658.965565
1632.719784,-1072.533697,-3775.050304,10658.965565
1632.720101,-1072.533697,-2146.597232,10436.903782
1632.720419,-1532.190996,-74.020594,10362.883188
1632.720736,-1302.362347,1332.370696,9400.615463
1632.721053,-1378.971896,2886.803174,8586.388927
1632.721371,-1225.752797,3849.070898,7772.162391
1632.721688,-459.657299,4737.318029,7920.203579
1632.722005,76.609550,3552.988522,8142.265362
1632.722323,536.266849,1850.514855,8882.471304
1632.722640,1149.143247,-296.082377,9400.615463
1632.722957,1532.190996,-2442.679609,10658.965565
1632.723275,1072.533697,-3627.009116,10732.986159
1632.723592,1762.019645,-3923.091493,12139.377449
1632.723909,2068.457845,-3034.844362,11547.212695
1632.724226,1915.238745,-1406.391290,11547.212695
1632.724544,1838.629195,-74.020594,11103.089130
1632.724861,1378.971896,2294.638420,9474.636058
1632.725178,1532.190996,3627.009116,8290.306550
1632.725496,1072.533697,4737.318029,8068.244768
1632.725813,1225.752797,3997.112087,8290.306550
1632.726130,459.657299,2664.741391,8734.430116
1632.726448,0.000000,666.185348,9474.636058
1632.726765,1225.752797,-888.247130,11177.109724
1632.727082,612.876398,-2516.700203,10066.800811
1632.727400,919.314598,-3627.009116,11769.274478
1632.727717,1302.362347,-4293.194464,13101.645173
1632.728034,612.876398,-2738.761985,11695.253884
1632.728351,1762.019645,-740.205942,10807.006753
1632.728669,1991.848295,740.205942,11251.130318
1632.728986,1608.800546,2368.659014,9474.636058
1632.729303,2374.896044,3404.947333,9030.512492
1632.729621,1685.410096,4219.173869,7846.182985
1632.729938,1915.238745,2812.782580,8364.327145
1632.730255,842.705048,3108.864956,7031.956449
1632.730573,842.705048,814.226536,7624.121203
1632.730890,689.485948,-1776.494261,9178.553681
1632.731207,-153.219100,-4071.132681,9696.697840
1632.731525,-383.047749,-5107.421000,10807.006753
1632.731842,229.828649,-5847.626942,12509.480420
1632.732159,766.095498,-3923.091493,11769.274478
1632.732476,1149.143247,-2812.782580,10955.047942
1632.732794,689.485948,-1184.329507,10214.842000
1632.733111,1072.533697,1406.391290,9844.739029
1632.733428,1915.238745,3404.947333,7994.224174
1632.733746,2374.896044,4811.338623,7476.080014
1632.734063,2451.505594,4885.359217,7105.977043
1632.734380,2374.896044,4071.132681,7105.977043
1632.734698,1838.629195,2664.741391,6809.894666
1632.735015,1608.800546,-1110.308913,8216.285956
1632.735332,0.000000,-3849.070898,9326.594869
1632.735649,76.609550,-5551.544565,10436.903782
1632.735967,-1072.533697,-5921.647536,11473.192101
1632.736284,-229.828649,-4515.256246,11473.192101
1632.736601,383.047749,-3034.844362,11029.068536
1632.736919,76.609550,-592.164754,10066.800811
1632.737236,919.314598,1036.288319,9178.553681
1632.737553,842.705048,3330.926739,6587.832884
1632.737871,1149.143247,4811.338623,6439.791695
1632.738188,1072.533697,5181.441594,6365.771101
1632.738505,536.266849,4737.318029,6587.832884
1632.738823,153.219100,3034.844362,6661.853478
1632.739140,383.047749,296.082377,8808.450710
1632.739457,-306.438199,-2442.679609,9474.636058
1632.739774,-536.266849,-4589.276840,10288.862594
1632.740092,-459.657299,-5551.544565,11695.253884
1632.740409,0.000000,-4959.379811,11325.150913
1632.740726,-383.047749,-3404.947333,11251.130318
1632.741044,0.000000,-444.123565,10288.862594
1632.741361,995.924147,1850.514855,8586.388927
1632.741678,1455.581446,4367.215058,7105.977043
1632.741996,1302.362347,5329.482782,7105.977043
1632.742313,1608.800546,6217.729913,6291.750507
1632.742630,1685.410096,5699.585753,6069.688724
1632.742948,1532.190996,3478.967927,7254.018232
1632.743265,1455.581446,370.102971,9474.636058
1632.743582,842.705048,-1406.391290,10436.903782
1632.743899,612.876398,-3701.029710,11029.068536
1632.744217,842.705048,-4441.235652,12583.501014
1632.744534,1072.533697,-4219.173869,12657.521608
1632.744851,1225.752797,-2590.720797,11843.295072
1632.745169,1378.971896,-148.041188,11695.253884
1632.745486,1302.362347,1850.514855,11029.068536
1632.745803,995.924147,3849.070898,9178.553681
1632.746121,919.314598,5921.647536,7476.080014
1632.746438,1838.629195,6439.791695,7994.224174
1632.746755,1762.019645,6143.709319,6809.894666
1632.747073,1915.238745,4071.132681,7402.059420
1632.747390,1072.533697,1258.350101,8734.430116
1632.747707,459.657299,-1110.308913,10658.965565
1632.748024,-229.828649,-3256.906145,11103.089130
1632.748342,-306.438199,-3923.091493,12509.480420
1632.748659,-842.705048,-3775.050304,13323.706956
1632.748976,-1072.533697,-2442.679609,12731.542202
1632.749294,-1378.971896,-740.205942,11991.336260
1632.749611,-919.314598,888.247130,11547.212695
1632.749928,-919.314598,2368.659014,10066.800811
1632.750246,-689.485948,3997.112087,9030.512492
1632.750563,-612.876398,4663.297435,7624.121203
1632.750880,-306.438199,5181.441594,7179.997637
1632.751198,0.000000,3108.864956,7772.162391
1632.751515,-306.438199,1110.308913,8882.471304
1632.751832,383.047749,-1406.391290,10362.883188
1632.752149,229.828649,-3256.906145,10436.903782
1632.752467,153.219100,-4071.132681,11325.150913
1632.752784,689.485948,-4071.132681,12509.480420
1632.753101,689.485948,-2812.782580,11251.130318
1632.753419,1225.752797,-1110.308913,10510.924376
1632.753736,1225.752797,222.061783,9992.780217
1632.754053,1072.533697,2664.741391,8364.327145
1632.754371,1838.629195,4071.132681,8068.244768
1632.754688,1302.362347,4589.276840,7994.224174
1632.755005,1532.190996,3627.009116,8216.285956
1632.755323,1225.752797,2368.659014,8216.285956
1632.755640,842.705048,-592.164754,9474.636058
1632.755957,1149.143247,-1998.556043,9844.739029
1632.756274,1455.581446,-3256.906145,10214.842000
1632.756592,1915.238745,-4737.318029,10658.965565
1632.756909,2604.724693,-4515.256246,10955.047942
1632.757226,2834.553343,-3849.070898,9844.739029
1632.757544,3677.258390,-1036.288319,9030.512492
1632.757861,3830.477490,222.061783,8734.430116
1632.758178,3370.820191,2146.597232,7624.121203
1632.758496,2911.162892,3108.864956,6513.812290
1632.758813,2911.162892,4589.276840,6217.729913
1632.759130,1608.800546,4145.153275,5625.565159
1632.759448,1685.410096,2368.659014,6587.832884
1632.759765,536.266849,-0.000000,7254.018232
1632.760082,536.266849,-2960.823768,9178.553681
1632.760399,-919.314598,-5033.400406,9548.656652
1632.760717,-1072.533697,-7105.977043,11769.274478
1632.761034,-766.095498,-7105.977043,12657.521608
1632.761351,-842.705048,-5033.400406,11399.171507
1632.761669,153.219100,-2664.741391,10214.842000
1632.761986,229.828649,222.061783,9252.574275
1632.762303,1532.190996,3182.885551,7550.100608
1632.762621,1762.019645,4367.215058,6587.832884
1632.762938,2145.067394,4959.379811,5995.668130
1632.763255,2145.067394,5255.462188,5477.523971
1632.763573,995.924147,3701.029710,4959.379811
1632.763890,1149.143247,740.205942,7698.141797
1632.764207,383.047749,-1924.535449,9548.656652
1632.764524,-153.219100,-4071.132681,10214.842000
1632.764842,-612.876398,-5625.565159,11547.212695
1632.765159,-1072.533697,-5773.606348,12731.542202
1632.765476,-1685.410096,-4145.153275,12361.439231
1632.765794,-919.314598,-2072.576638,11621.233289
1632.766111,-689.485948,222.061783,10807.006753
1632.766428,-612.876398,1628.453072,10066.800811
1632.766746,-306.438199,4293.194464,7846.182985
1632.767063,306.438199,5847.626942,7550.100608
1632.767380,1225.752797,6513.812290,7031.956449
1632.767698,1838.629195,5847.626942,6883.915261
1632.768015,1455.581446,3849.070898,7476.080014
1632.768332,459.657299,962.267725,8438.347739
1632.768649,0.000000,-1036.288319,9400.615463
1632.768967,-459.657299,-2812.782580,10732.986159
1632.769284,0.000000,-4145.153275,13101.645173
1632.769601,-1149.143247,-3552.988522,12435.459826
1632.769919,-1685.410096,-1924.535449,12065.356855
1632.770236,-1455.581446,-444.123565,12953.603985
1632.770553,-1225.752797,1406.391290,11399.171507
1632.770871,-842.705048,3627.009116,9178.553681
1632.771188,-1149.143247,5477.523971,8808.450710
1632.771505,0.000000,6143.709319,8882.471304
1632.771823,612.876398,5921.647536,7105.977043
1632.772140,1302.362347,3997.112087,8216.285956
1632.772457,1149.143247,1036.288319,9770.718434
1632.772774,1991.848295,-1628.453072,11029.068536
1632.773092,1685.410096,-3182.885551,10510.924376
1632.773409,2834.553343,-4145.153275,13249.686362
1632.773726,2834.553343,-3108.864956,12731.542202
1632.774044,2757.943793,-592.164754,10955.047942
1632.774361,3294.210641,814.226536,10436.903782
1632.774678,2987.772442,2590.720797,9474.636058
1632.774996,2834.553343,3997.112087,7698.141797
1632.775313,2681.334243,4811.338623,7698.141797
1632.775630,1838.629195,4293.194464,8142.265362
1632.775948,1838.629195,3775.050304,7550.100608
1632.776265,1225.752797,1702.473667,8142.265362
1632.776582,689.485948,-740.205942,9844.739029
1632.776899,1608.800546,-2738.761985,10955.047942
1632.777217,1149.143247,-3997.112087,10732.986159
1632.777534,1685.410096,-5033.400406,12805.562797
1632.777851,1685.410096,-4219.173869,11917.315666
1632.778169,2068.457845,-2072.576638,10807.006753
1632.778486,1915.238745,518.144159,9770.718434
1632.778803,2374.896044,1850.514855,9696.697840
1632.779121,2068.457845,4071.132681,7031.956449
1632.779438,1685.410096,6143.709319,5995.668130
1632.779755,1532.190996,5847.626942,6217.729913
1632.780072,1302.362347,4071.132681,6217.729913
1632.780390,153.219100,1332.370696,6809.894666
1632.780707,-766.095498,-1850.514855,8882.471304
1632.781024,-1608.800546,-4441.235652,9696.697840
1632.781342,-1762.019645,-6513.812290,10584.944971
1632.781659,-1762.019645,-6439.791695,11473.192101
1632.781976,-1685.410096,-5403.503377,11547.212695
1632.782294,-1378.971896,-3330.926739,10807.006753
1632.782611,-995.924147,-1036.288319,10140.821405
1632.782928,-612.876398,1554.432478,9326.594869
1632.783246,-153.219100,3478.967927,7031.956449
1632.783563,0.000000,4737.318029,6143.709319
1632.783880,153.219100,4737.318029,6365.771101
1632.784197,0.000000,3775.050304,5847.626942
1632.784515,229.828649,1554.432478,7105.977043
1632.784832,76.609550,-888.247130,9104.533087
1632.785149,-153.219100,-3330.926739,9844.739029
1632.785467,-383.047749,-5107.421000,10362.883188
1632.785784,-229.828649,-6069.688724,11843.295072
1632.786101,-153.219100,-5255.462188,11843.295072
1632.786419,-229.828649,-3478.967927,9918.759623
1632.786736,459.657299,-1258.350101,10140.821405
1632.787053,1072.533697,666.185348,9178.553681
1632.787371,1915.238745,3034.844362,7920.203579
1632.787688,2298.286494,4959.379811,7031.956449
1632.788005,2221.676944,5551.544565,7179.997637
1632.788322,2528.115143,5033.400406,7179.997637
1632.788640,1915.238745,3478.967927,7698.141797
1632.788957,1762.019645,1184.329507,9474.636058
1632.789274,919.314598,-1036.288319,10807.006753
1632.789592,383.047749,-2812.782580,11473.192101
1632.789909,536.266849,-4885.359217,13175.665768
1632.790226,919.314598,-4663.297435,13323.706956
1632.790544,536.266849,-2960.823768,12065.356855
1632.790861,1149.143247,-1110.308913,11843.295072
1632.791178,1455.581446,1184.329507,10732.986159
1632.791496,1915.238745,3182.885551,8956.491898
1632.791813,2451.505594,5477.523971,7179.997637
1632.792130,2757.943793,6217.729913,7402.059420
1632.792447,2528.115143,4959.379811,6587.832884
1632.792765,1991.848295,3404.947333,6809.894666
1632.793082,1838.629195,1110.308913,8956.491898
1632.793399,536.266849,-1406.391290,9622.677246
1632.793717,0.000000,-3256.906145,10436.903782
1632.794034,-612.876398,-5107.421000,12287.418637
1632.794351,-383.047749,-5033.400406,14137.933492
1632.794669,-919.314598,-3552.988522,11991.336260
1632.794986,-383.047749,-1998.556043,12213.398043
1632.795303,0.000000,444.123565,11695.253884
1632.795621,383.047749,2590.720797,9992.780217
1632.795938,383.047749,4515.256246,8068.244768
1632.796255,1685.410096,5699.585753,7772.162391
1632.796572,1915.238745,6587.832884,6735.874072
1632.796890,1685.410096,5255.462188,5847.626942
1632.797207,2145.067394,2516.700203,7476.080014
1632.797524,1991.848295,-0.000000,8586.388927
1632.797842,1915.238745,-1998.556043,9030.512492
1632.798159,1455.581446,-3034.844362,9770.718434
1632.798476,1378.971896,-3775.050304,11177.109724
1632.798794,1149.143247,-2812.782580,10584.944971
1632.799111,1302.362347,-888.247130,10140.821405
1632.799428,536.266849,222.061783,12139.377449
1632.799746,0.000000,1554.432478,9474.636058
1632.800063,0.000000,3775.050304,8142.265362
1632.800380,76.609550,4885.359217,7920.203579
1632.800697,0.000000,4737.318029,7550.100608
1632.801015,536.266849,3701.029710,6587.832884
1632.801332,766.095498,1924.535449,7698.141797
1632.801649,919.314598,-444.123565,8808.450710
1632.801967,1225.752797,-2146.597232,8734.430116
1632.802284,1608.800546,-4145.153275,10214.842000
1632.802601,1608.800546,-4589.276840,11547.212695
1632.802919,1302.362347,-3701.029710,10807.006753
1632.803236,1149.143247,-1924.535449,9548.656652
1632.803553,1225.752797,-296.082377,10214.842000
1632.803871,1225.752797,1406.391290,8882.471304
1632.804188,153.219100,2812.782580,7550.100608
1632.804505,-306.438199,3997.112087,7179.997637
1632.804822,-536.266849,3552.988522,7846.182985
1632.805140,0.000000,2960.823768,7254.018232
1632.805457,-1225.752797,666.185348,8364.327145
1632.805774,-536.266849,-1998.556043,10658.965565
1632.806092,-1455.581446,-3849.070898,10807.006753
1632.806409,-842.705048,-5181.441594,12065.356855
1632.806726,-383.047749,-4959.379811,12953.603985
1632.807044,153.219100,-3256.906145,12509.480420
1632.807361,1378.971896,-0.000000,10955.047942
1632.807678,1915.238745,1406.391290,10214.842000
1632.807996,2298.286494,3330.926739,8734.430116
1632.808313,2757.943793,4737.318029,6439.791695
1632.808630,2451.505594,5477.523971,6069.688724
1632.808947,2068.457845,5033.400406,6587.832884
1632.809265,1072.533697,3552.988522,6587.832884
1632.809582,-153.219100,1110.308913,8068.244768
1632.809899,-919.314598,-1554.432478,10362.883188
1632.810217,-1608.800546,-3330.926739,11399.171507
1632.810534,-1608.800546,-5107.421000,12361.439231
1632.810851,-1225.752797,-6291.750507,14211.954086
1632.811169,-1302.362347,-6069.688724,13619.789333
1632.811486,-766.095498,-3627.009116,12953.603985
1632.811803,153.219100,-740.205942,11843.295072
1632.812121,1685.410096,1776.494261,9918.759623
1632.812438,2068.457845,4663.297435,7328.038826
1632.812755,2451.505594,6587.832884,5551.544565
1632.813072,3217.601092,7105.977043,5477.523971
1632.813390,3064.381992,5551.544565,5181.441594
1632.813707,2757.943793,2960.823768,6439.791695
1632.814024,1225.752797,-0.000000,8142.265362
1632.814342,842.705048,-3775.050304,10955.047942
1632.814659,-459.657299,-5995.668130,11917.315666
1632.814976,-76.609550,-7254.018232,14211.954086
1632.815294,-383.047749,-5995.668130,14137.933492
1632.815611,-306.438199,-3627.009116,13101.645173
1632.815928,842.705048,-1036.288319,12509.480420
1632.816246,1455.581446,1406.391290,10732.986159
1632.816563,2374.896044,3997.112087,7920.203579
1632.816880,2528.115143,6661.853478,5995.668130
1632.817198,3677.258390,7105.977043,5773.606348
1632.817515,3600.648841,6069.688724,4959.379811
1632.817832,3370.820191,3552.988522,6143.709319
1632.818150,2757.943793,1110.308913,7105.977043
1632.818467,2681.334243,-1924.535449,9178.553681
1632.818784,995.924147,-4145.153275,10214.842000
1632.819101,1991.848295,-6291.750507,12065.356855
1632.819419,919.314598,-5551.544565,12065.356855
1632.819736,383.047749,-3627.009116,11103.089130
1632.820053,459.657299,-1480.411884,11251.130318
1632.820371,536.266849,-0.000000,10658.965565
1632.820688,-153.219100,2664.741391,8216.285956
1632.821005,0.000000,4885.359217,7105.977043
1632.821323,76.609550,6217.729913,6661.853478
1632.821640,842.705048,5773.606348,5773.606348
1632.821957,612.876398,2960.823768,5625.565159
1632.822275,459.657299,1332.370696,7624.121203
1632.822592,153.219100,-1998.556043,8216.285956
1632.822909,153.219100,-4145.153275,8808.450710
1632.823227,153.219100,-5181.441594,10807.006753
1632.823544,-612.876398,-4589.276840,11769.274478
1632.823861,-995.924147,-2516.700203,10584.944971
1632.824179,-1532.190996,-962.267725,11103.089130
1632.824496,-1532.190996,1184.329507,10807.006753
1632.824813,-1915.238745,3701.029710,8956.491898
1632.825131,-1838.629195,4367.215058,7624.121203
1632.825448,-1915.238745,4885.359217,7550.100608
1632.825765,-1302.362347,4145.153275,7476.080014
1632.826082,-1455.581446,2072.576638,7624.121203
1632.826400,-306.438199,-0.000000,9770.718434
1632.826717,-919.314598,-2220.617826,9770.718434
1632.827034,-153.219100,-4145.153275,10584.944971
1632.827352,383.047749,-4663.297435,12065.356855
1632.827669,1225.752797,-4811.338623,13027.624579
1632.827986,1149.143247,-2960.823768,11325.150913
1632.828304,2221.676944,-888.247130,10362.883188
1632.828621,2681.334243,1258.350101,9844.739029
1632.828938,2604.724693,3330.926739,8142.265362
1632.829256,2451.505594,4737.318029,6957.935855
1632.829573,1991.848295,4737.318029,7179.997637
1632.829890,2221.676944,4663.297435,7994.224174
1632.830208,995.924147,3108.864956,7772.162391
1632.830525,689.485948,518.144159,9474.636058
1632.830842,-306.438199,-1924.535449,11547.212695
1632.831160,-919.314598,-4589.276840,11769.274478
1632.831477,-459.657299,-4959.379811,13027.624579
1632.831794,0.000000,-5033.400406,13693.809927
1632.832112,1225.752797,-3404.947333,12509.480420
1632.832429,2221.676944,-1258.350101,11399.171507
1632.832746,2221.676944,1184.329507,10436.903782
1632.833063,3294.210641,3182.885551,8586.388927
1632.833381,3370.820191,5847.626942,6513.812290
1632.833698,3370.820191,6809.894666,6291.750507
1632.834015,2757.943793,6217.729913,6217.729913
1632.834333,1838.629195,4885.359217,6217.729913
1632.834650,995.924147,1924.535449,7994.224174
1632.834967,459.657299,-1036.288319,9622.677246
1632.835285,-536.266849,-4071.132681,11103.089130
1632.835602,-842.705048,-6217.729913,11399.171507
1632.835919,-1225.752797,-6587.832884,13545.768739
1632.836237,-1455.581446,-5477.523971,12731.542202
1632.836554,-383.047749,-3108.864956,11843.295072
1632.836871,536.266849,-592.164754,11251.130318
1632.837189,1302.362347,1480.411884,9178.553681
1632.837506,1762.019645,4293.194464,7179.997637
1632.837823,2068.457845,5847.626942,5921.647536
1632.838141,2374.896044,6513.812290,4811.338623
1632.838458,2604.724693,5847.626942,4663.297435
1632.838775,2374.896044,3478.967927,6143.709319
1632.839093,1915.238745,296.082377,7624.121203
1632.839410,689.485948,-2590.720797,9252.574275
1632.839727,76.609550,-4959.379811,11029.068536
1632.840044,229.828649,-5699.585753,13323.706956
1632.840362,-306.438199,-5033.400406,12509.480420
1632.840679,-229.828649,-3108.864956,12287.418637
1632.840996,153.219100,-1258.350101,11917.315666
1632.841314,0.000000,740.205942,9696.697840
1632.841631,1072.533697,3478.967927,7698.141797
1632.841948,842.705048,5995.668130,6143.709319
1632.842266,1608.800546,6291.750507,5773.606348
1632.842583,1455.581446,5847.626942,4589.276840
1632.842900,1302.362347,3256.906145,5921.647536
1632.843218,1378.971896,592.164754,8364.327145
1632.843535,612.876398,-2220.617826,9178.553681
1632.843852,153.219100,-4589.276840,10881.027347
1632.844170,-383.047749,-5551.544565,13471.748144
1632.844487,-766.095498,-5477.523971,13841.851115
1632.844804,-153.219100,-3849.070898,13027.624579
1632.845122,-612.876398,-1332.370696,12139.377449
1632.845439,-229.828649,592.164754,10510.924376
1632.845756,-306.438199,3108.864956,8216.285956
1632.846074,-612.876398,5551.544565,6809.894666
1632.846391,689.485948,5107.421000,6661.853478
1632.846708,76.609550,4737.318029,5699.585753
1632.847025,229.828649,2590.720797,6809.894666
1632.847343,612.876398,148.041188,8068.244768
1632.847660,153.219100,-2442.679609,9474.636058
1632.847977,229.828649,-4959.379811,11177.109724
1632.848295,383.047749,-6069.688724,13915.871710
1632.848612,536.266849,-4811.338623,13841.851115
1632.848929,1225.752797,-2368.659014,12139.377449
1632.849247,1378.971896,444.123565,11991.336260
1632.849564,1685.410096,3108.864956,9918.759623
1632.849881,2374.896044,5329.482782,8364.327145
1632.850199,1915.238745,6513.812290,6587.832884
1632.850516,2145.067394,6217.729913,6439.791695
1632.850833,1532.190996,5551.544565,6439.791695
1632.851151,1072.533697,3256.906145,6587.832884
1632.851468,766.095498,-148.041188,8660.409521
1632.851785,0.000000,-2738.761985,10066.800811
1632.852103,153.219100,-4737.318029,11029.068536
1632.852420,689.485948,-5181.441594,12139.377449
1632.852737,1302.362347,-4515.256246,12657.521608
1632.853055,1762.019645,-2516.700203,11917.315666
1632.853372,1838.629195,-296.082377,11399.171507
1632.853689,1991.848295,1998.556043,10214.842000
1632.854006,2145.067394,4737.318029,7624.121203
1632.854324,2374.896044,6883.915261,6365.771101
1632.854641,1991.848295,7402.059420,5847.626942
1632.854958,1685.410096,5847.626942,6291.750507
1632.855276,766.095498,3256.906145,6587.832884
1632.855593,0.000000,-666.185348,8882.471304
1632.855910,-766.095498,-4071.132681,10658.965565
1632.856228,-1378.971896,-5847.626942,11769.274478
1632.856545,-1225.752797,-6883.915261,13545.768739
1632.856862,-1302.362347,-5995.668130,12953.603985
1632.857180,-689.485948,-4071.132681,12435.459826
1632.857497,0.000000,-814.226536,10881.027347
1632.857814,995.924147,1776.494261,9844.739029
1632.858132,2451.505594,4737.318029,7476.080014
1632.858449,1915.238745,6439.791695,6217.729913
1632.858766,1991.848295,7031.956449,5847.626942
1632.859084,1991.848295,6439.791695,5625.565159
1632.859401,1532.190996,3849.070898,6587.832884
1632.859718,1072.533697,666.185348,7846.182985
1632.860036,689.485948,-2294.638420,10510.924376
1632.860353,-383.047749,-4811.338623,11399.171507
1632.860670,0.000000,-6513.812290,13693.809927
1632.860987,-306.438199,-6143.709319,13841.851115
1632.861305,153.219100,-4071.132681,12287.418637
1632.861622,306.438199,-1850.514855,11177.109724
1632.861939,1072.533697,740.205942,10214.842000
1632.862257,1608.800546,3701.029710,7698.141797
1632.862574,1762.019645,6069.688724,5403.503377
1632.862891,2221.676944,6143.709319,5551.544565
1632.863209,1915.238745,5329.482782,5403.503377
1632.863526,1225.752797,4219.173869,6069.688724
1632.863843,1149.143247,1406.391290,7698.141797
1632.864161,153.219100,-2072.576638,10955.047942
1632.864478,-306.438199,-4737.318029,11399.171507
1632.864795,76.609550,-6735.874072,13767.830521
1632.865113,-459.657299,-6069.688724,14063.912898
1632.865430,-153.219100,-4885.359217,13545.768739
1632.865747,76.609550,-2590.720797,11621.233289
1632.866065,689.485948,-222.061783,10955.047942
1632.866382,995.924147,2294.638420,8142.265362
1632.866699,1149.143247,4885.359217,5847.626942
1632.867017,1991.848295,5699.585753,5625.565159
1632.867334,2145.067394,5625.565159,5181.441594
1632.867651,1608.800546,3775.050304,5625.565159
1632.867968,1532.190996,1554.432478,7031.956449
1632.868286,919.314598,-1406.391290,9844.739029
1632.868603,1302.362347,-3404.947333,11251.130318
1632.868920,689.485948,-5033.400406,12953.603985
1632.869238,536.266849,-4737.318029,14804.118840
1632.869555,612.876398,-3701.029710,12953.603985
1632.869872,919.314598,-1554.432478,11843.295072
1632.870190,1225.752797,888.247130,11325.150913
1632.870507,1608.800546,2590.720797,9104.533087
1632.870824,1532.190996,5329.482782,5477.523971
1632.871142,2145.067394,5921.647536,5181.441594
1632.871459,2145.067394,6069.688724,4811.338623
1632.871776,1762.019645,4515.256246,4737.318029
1632.872094,1532.190996,2072.576638,5773.606348
1632.872411,689.485948,-518.144159,7846.182985
1632.872728,76.609550,-3552.988522,9696.697840
1632.873046,-383.047749,-5329.482782,11325.150913
1632.873363,-536.266849,-6143.709319,14137.933492
1632.873680,-1378.971896,-4441.235652,13027.624579
1632.873998,-995.924147,-2516.700203,13027.624579
1632.874315,-995.924147,444.123565,12287.418637
1632.874632,0.000000,2368.659014,11103.089130
1632.874949,-612.876398,5255.462188,7476.080014
1632.875267,0.000000,7254.018232,6809.894666
1632.875584,383.047749,7254.018232,6661.853478
1632.875901,0.000000,5921.647536,5255.462188
1632.876219,689.485948,2664.741391,6957.935855
1632.876536,0.000000,-1036.288319,8660.409521
1632.876853,0.000000,-4737.318029,10362.883188
1632.877171,-153.219100,-6143.709319,10732.986159
1632.877488,0.000000,-6661.853478,13471.748144
1632.877805,306.438199,-5181.441594,13101.645173
1632.878123,536.266849,-2590.720797,11103.089130
1632.878440,153.219100,-296.082377,11769.274478
1632.878757,536.266849,2516.700203,9992.780217
1632.879075,306.438199,5551.544565,8068.244768
1632.879392,919.314598,7402.059420,6513.812290
1632.879709,1149.143247,6365.771101,7328.038826
1632.880027,1072.533697,4811.338623,7105.977043
1632.880344,995.924147,2294.638420,7772.162391
1632.880661,842.705048,-1110.308913,9844.739029
1632.880979,612.876398,-4219.173869,10584.944971
1632.881296,1302.362347,-6587.832884,12583.501014
1632.881613,995.924147,-6809.894666,12805.562797
1632.881930,1685.410096,-6143.709319,13249.686362
1632.882248,2221.676944,-3256.906145,11325.150913
1632.882565,2987.772442,-0.000000,10881.027347
1632.882882,3140.991542,2368.659014,8734.430116
1632.883200,3907.087040,5477.523971,6661.853478
1632.883517,3677.258390,7402.059420,5329.482782
1632.883834,3600.648841,6735.874072,5329.482782
1632.884152,2298.286494,4959.379811,5551.544565
1632.884469,1378.971896,2072.576638,7105.977043
1632.884786,995.924147,-888.247130,9252.574275
1632.885104,-153.219100,-3775.050304,10807.006753
1632.885421,-536.266849,-6661.853478,12731.542202
1632.885738,-612.876398,-7402.059420,14582.057057
1632.886056,-842.705048,-6291.750507,14063.912898
1632.886373,-153.219100,-3923.091493,12731.542202
1632.886690,536.266849,-1036.288319,11399.171507
1632.887008,1838.629195,1702.473667,9548.656652
1632.887325,2911.162892,4663.297435,6735.874072
1632.887642,3064.381992,7105.977043,4071.132681
1632.887960,3370.820191,7254.018232,4145.153275
1632.888277,3294.210641,6069.688724,3775.050304
1632.888594,1532.190996,3627.009116,4589.276840
1632.888911,536.266849,370.102971,7402.059420
1632.889229,-536.266849,-3108.864956,10362.883188
1632.889546,-2068.457845,-5847.626942,11177.109724
1632.889863,-1838.629195,-7624.121203,14508.036463
1632.890181,-1991.848295,-6957.935855,14211.954086
1632.890498,-1762.019645,-4959.379811,12435.459826
1632.890815,-995.924147,-2220.617826,11399.171507
1632.891133,-612.876398,592.164754,9844.739029
1632.891450,383.047749,3034.844362,7328.038826
1632.891767,995.924147,5921.647536,5329.482782
1632.892085,1762.019645,6291.750507,5699.585753
1632.892402,1455.581446,6883.915261,4737.318029
1632.892719,1685.410096,5551.544565,4885.359217
1632.893037,1225.752797,3108.864956,6513.812290
1632.893354,766.095498,-740.205942,9252.574275
1632.893671,0.000000,-2886.803174,10066.800811
1632.893989,-383.047749,-4885.359217,12361.439231
1632.894306,-612.876398,-5255.462188,13545.768739
1632.894623,0.000000,-4367.215058,13027.624579
1632.894941,-536.266849,-2146.597232,11991.336260
1632.895258,-153.219100,-148.041188,12583.501014
1632.895575,-459.657299,1702.473667,10510.924376
1632.895892,-995.924147,4367.215058,7994.224174
1632.896210,0.000000,5699.585753,7624.121203
1632.896527,459.657299,6217.729913,7254.018232
1632.896844,842.705048,4515.256246,6217.729913
1632.897162,1532.190996,2294.638420,8142.265362
1632.897479,1455.581446,-888.247130,9548.656652
1632.897796,1455.581446,-3478.967927,9844.739029
1632.898114,2145.067394,-4589.276840,12139.377449
1632.898431,2221.676944,-5329.482782,13989.892304
1632.898748,1685.410096,-3849.070898,12879.583391
1632.899066,1915.238745,-1924.535449,13175.665768
1632.899383,1991.848295,222.061783,12657.521608
1632.899700,2298.286494,2368.659014,10140.821405
1632.900018,2528.115143,4737.318029,7846.182985
1632.900335,2528.115143,5699.585753,7254.018232
1632.900652,3217.601092,4811.338623,7476.080014
1632.900970,3217.601092,3627.009116,6513.812290
1632.901287,3447.429741,814.226536,8364.327145
1632.901604,3983.696590,-1184.329507,10066.800811
1632.901922,4060.306139,-3108.864956,10214.842000
1632.902239,4519.963438,-3478.967927,11473.192101
1632.902556,5745.716235,-3108.864956,13027.624579
1632.902873,5669.106685,-1184.329507,11029.068536
1632.903191,6205.373534,1184.329507,9548.656652
1632.903508,6511.811733,3627.009116,9104.533087
1632.903825,5975.544884,5329.482782,7105.977043
1632.904143,6588.421283,7031.956449,5033.400406
1632.904460,5056.230287,7772.162391,4589.276840
1632.904777,4213.525239,7031.956449,5403.503377
1632.905095,3217.601092,5181.441594,5255.462188
1632.905412,1685.410096,2516.700203,7179.997637
1632.905729,1302.362347,-814.226536,10510.924376
1632.906047,689.485948,-3330.926739,12065.356855
1632.906364,76.609550,-3997.112087,12731.542202
1632.906681,1685.410096,-3997.112087,13693.809927
1632.906999,1991.848295,-518.144159,12065.356855
1632.907316,3140.991542,1924.535449,9770.718434
1632.907633,3830.477490,5033.400406,7254.018232
1632.907951,4136.915689,7772.162391,4737.318029
1632.908268,4596.572988,9104.533087,3404.947333
1632.908585,3677.258390,9622.677246,3034.844362
1632.908903,3294.210641,7550.100608,5329.482782
1632.909220,1991.848295,5477.523971,5921.647536
1632.909537,689.485948,3256.906145,8734.430116
1632.909854,76.609550,1480.411884,9992.780217
1632.910172,-919.314598,-370.102971,10955.047942
1632.910489,-1608.800546,-1702.473667,12435.459826
1632.910806,-689.485948,-2072.576638,14285.974681
1632.911124,-1302.362347,-74.020594,13175.665768
1632.911441,-153.219100,1406.391290,12361.439231
1632.911758,-459.657299,3849.070898,11473.192101
1632.912076,842.705048,6365.771101,10066.800811
1632.912393,1991.848295,8364.327145,7105.977043
1632.912710,2528.115143,9474.636058,5255.462188
1632.913027,3064.381992,8290.306550,5699.585753
1632.913345,3447.429741,7105.977043,6217.729913
1632.913662,4213.525239,4367.215058,7772.162391
1632.913979,4443.353888,1332.370696,11325.150913
1632.914297,3370.820191,-1406.391290,13249.686362
1632.914614,3830.477490,-1924.535449,14063.912898
1632.914931,3524.039291,-222.061783,12879.583391
1632.915248,3677.258390,1924.535449,11769.274478
1632.915566,3064.381992,3701.029710,10288.862594
1632.915883,2681.334243,5847.626942,8882.471304
1632.916200,2145.067394,6957.935855,6957.935855
1632.916517,1762.019645,6143.709319,7254.018232
1632.916835,612.876398,4441.235652,9696.697840
1632.917152,919.314598,1702.473667,12509.480420
1632.917469,919.314598,1258.350101,11843.295072
1632.917786,919.314598,-296.082377,14211.954086
1632.918104,1991.848295,-1036.288319,16062.468941
1632.918421,3064.381992,-0.000000,14063.912898
1632.918738,4443.353888,1480.411884,10732.986159
1632.919056,4903.011187,2294.638420,9474.636058
1632.919373,5745.716235,2738.761985,8290.306550
1632.919690,6281.983084,2738.761985,6809.894666
1632.920007,6818.249932,1924.535449,7476.080014
1632.920325,5592.497135,814.226536,8364.327145
1632.920642,5439.278036,370.102971,9400.615463
1632.920959,5515.887586,1332.370696,9474.636058
1632.921276,5362.668486,1850.514855,9770.718434
1632.921594,4903.011187,1998.556043,9030.512492
1632.921911,4366.744339,2294.638420,7846.182985
1632.922228,4136.915689,2146.597232,7105.977043
1632.922545,3753.867940,962.267725,7402.059420
1632.922863,2757.943793,-444.123565,8438.347739
1632.923180,2145.067394,-2590.720797,9548.656652
1632.923497,1455.581446,-2368.659014,10066.800811
1632.923815,612.876398,-1480.411884,10584.944971
1632.924132,995.924147,148.041188,10510.924376
1632.924449,1838.629195,2220.617826,9178.553681
1632.924766,1762.019645,3849.070898,7105.977043
1632.925084,2145.067394,4737.318029,5995.668130
1632.925401,2221.676944,4441.235652,5847.626942
1632.925718,2221.676944,3108.864956,5551.544565
1632.926035,2374.896044,1850.514855,6143.709319
1632.926353,1302.362347,370.102971,7550.100608
1632.926670,1532.190996,-296.082377,8438.347739
1632.926987,1072.533697,-1036.288319,8882.471304
1632.927304,919.314598,-296.082377,9030.512492
1632.927622,766.095498,444.123565,8438.347739
1632.927939,612.876398,1850.514855,7624.121203
1632.928256,229.828649,2590.720797,7624.121203
1632.928574,0.000000,3404.947333,7105.977043
1632.928891,306.438199,3478.967927,7179.997637
1632.929208,153.219100,2516.700203,8956.491898
1632.929525,229.828649,1998.556043,9622.677246
1632.929843,536.266849,2146.597232,10510.924376
1632.930160,536.266849,2516.700203,10436.903782
1632.930477,995.924147,2886.803174,10658.965565
1632.930794,2298.286494,3404.947333,9696.697840
1632.931112,2757.943793,4145.153275,7846.182985
1632.931429,3447.429741,3775.050304,7550.100608
1632.931746,4136.915689,3034.844362,7994.224174
1632.932063,4596.572988,2664.741391,8512.368333
1632.932381,5439.278036,2294.638420,9474.636058
1632.932698,4903.011187,2368.659014,10955.047942
1632.933015,5209.449386,3182.885551,11325.150913
1632.933333,4519.963438,4663.297435,10140.821405
1632.933650,4826.401637,5625.565159,9104.533087
