#time,accel_x,accel_y,accel_z
1155.464772,536.266849,-0.000000,9178.553681
1155.465091,0.000000,222.061783,9326.594869
1155.465410,612.876398,518.144159,9252.574275
1155.465730,536.266849,518.144159,9178.553681
1155.466049,459.657299,-0.000000,9178.553681
1155.466368,612.876398,222.061783,9326.594869
1155.466687,306.438199,518.144159,9178.553681
1155.467006,383.047749,370.102971,9326.594869
1155.467325,459.657299,296.082377,9400.615463
1155.467644,689.485948,592.164754,9548.656652
1155.467963,383.047749,592.164754,9474.636058
1155.468282,689.485948,592.164754,9178.553681
1155.468602,459.657299,444.123565,9252.574275
1155.468921,459.657299,370.102971,9326.594869
1155.469240,306.438199,296.082377,9400.615463
1155.469559,459.657299,296.082377,9400.615463
1155.469878,306.438199,518.144159,9252.574275
1155.470197,383.047749,370.102971,9252.574275
1155.470516,842.705048,148.041188,9326.594869
1155.470835,306.438199,148.041188,9178.553681
1155.471155,306.438199,518.144159,9474.636058
1155.471474,229.828649,222.061783,9252.574275
1155.471793,306.438199,444.123565,9400.615463
1155.472112,383.047749,222.061783,9104.533087
1155.472431,536.266849,222.061783,9252.574275
1155.472750,536.266849,296.082377,9326.594869
1155.473069,459.657299,148.041188,9178.553681
1155.473388,0.000000,-0.000000,9326.594869
1155.473707,383.047749,296.082377,9178.553681
1155.474027,536.266849,296.082377,9252.574275
1155.474346,459.657299,444.123565,9326.594869
1155.474665,459.657299,222.061783,9252.574275
1155.474984,842.705048,148.041188,9400.615463
1155.475303,459.657299,148.041188,9104.533087
1155.475622,536.266849,518.144159,9178.553681
1155.475941,383.047749,296.082377,9104.533087
1155.476260,459.657299,444.123565,9252.574275
1155.476579,153.219100,740.205942,9400.615463
1155.476899,459.657299,370.102971,9252.574275
1155.477218,459.657299,518.144159,9178.553681
1155.477537,383.047749,518.144159,9178.553681
1155.477856,153.219100,444.123565,9326.594869
1155.478175,459.657299,370.102971,9400.615463
1155.478494,536.266849,444.123565,9252.574275
1155.478813,229.828649,222.061783,9400.615463
1155.479132,383.047749,444.123565,9400.615463
1155.479452,229.828649,444.123565,9326.594869
1155.479771,459.657299,370.102971,9474.636058
1155.480090,383.047749,222.061783,9252.574275
1155.480409,459.657299,222.061783,9252.574275
1155.480728,459.657299,370.102971,9326.594869
1155.481047,383.047749,-0.000000,9474.636058
1155.481366,153.219100,-0.000000,9400.615463
1155.481685,459.657299,370.102971,9252.574275
1155.482004,306.438199,222.061783,9474.636058
1155.482324,153.219100,-0.000000,9252.574275
1155.482643,383.047749,370.102971,9252.574275
1155.482962,612.876398,222.061783,9178.553681
1155.483281,459.657299,222.061783,9178.553681
1155.483600,459.657299,296.082377,9178.553681
1155.483919,612.876398,444.123565,9326.594869
1155.484238,383.047749,370.102971,9178.553681
1155.484557,0.000000,370.102971,9400.615463
1155.484876,306.438199,296.082377,9104.533087
1155.485196,306.438199,518.144159,9400.615463
1155.485515,536.266849,296.082377,9252.574275
1155.485834,689.485948,222.061783,9400.615463
1155.486153,689.485948,222.061783,9030.512492
1155.486472,229.828649,222.061783,9252.574275
1155.486791,306.438199,592.164754,9326.594869
1155.487110,536.266849,370.102971,9474.636058
1155.487429,0.000000,518.144159,9474.636058
1155.487749,536.266849,518.144159,9178.553681
1155.488068,383.047749,444.123565,9326.594869
1155.488387,306.438199,296.082377,9178.553681
1155.488706,612.876398,222.061783,9178.553681
1155.489025,919.314598,-0.000000,9474.636058
1155.489344,459.657299,370.102971,9252.574275
1155.489663,383.047749,296.082377,9326.594869
1155.489982,383.047749,370.102971,9178.553681
1155.490301,766.095498,222.061783,9400.615463
1155.490621,842.705048,222.061783,9252.574275
1155.490940,306.438199,222.061783,9326.594869
1155.491259,689.485948,370.102971,9326.594869
1155.491578,153.219100,370.102971,9252.574275
1155.491897,383.047749,222.061783,9326.594869
1155.492216,612.876398,370.102971,9474.636058
1155.492535,383.047749,444.123565,9326.594869
1155.492854,383.047749,444.123565,9400.615463
1155.493173,306.438199,296.082377,9326.594869
1155.493493,536.266849,222.061783,9178.553681
1155.493812,689.485948,370.102971,9178.553681
1155.494131,383.047749,444.123565,9326.594869
1155.494450,383.047749,592.164754,9326.594869
1155.494769,612.876398,296.082377,9178.553681
1155.495088,76.609550,518.144159,9474.636058
1155.495407,229.828649,370.102971,8956.491898
1155.495726,459.657299,222.061783,9178.553681
1155.496046,383.047749,296.082377,9252.574275
1155.496365,383.047749,370.102971,9178.553681
1155.496684,459.657299,296.082377,9178.553681
1155.497003,766.095498,666.185348,9252.574275
1155.497322,383.047749,370.102971,9252.574275
1155.497641,306.438199,296.082377,9252.574275
1155.497960,153.219100,-0.000000,8956.491898
1155.498279,229.828649,-148.041188,9030.512492
1155.498598,0.000000,-222.061783,8956.491898
1155.498918,-306.438199,-148.041188,9104.533087
1155.499237,-306.438199,-222.061783,9178.553681
1155.499556,-383.047749,-296.082377,9178.553681
1155.499875,-459.657299,-444.123565,9178.553681
1155.500194,-995.924147,-592.164754,9104.533087
1155.500513,-1149.143247,-666.185348,8808.450710
1155.500832,-1149.143247,-814.226536,8586.388927
1155.501151,-1455.581446,-814.226536,8512.368333
1155.501470,-1838.629195,-1110.308913,8734.430116
1155.501790,-1762.019645,-1332.370696,9104.533087
1155.502109,-1532.190996,-1332.370696,9030.512492
1155.502428,-1532.190996,-1110.308913,8882.471304
1155.502747,-1225.752797,-1036.288319,8586.388927
1155.503066,-1072.533697,-592.164754,8142.265362
1155.503385,-1608.800546,-1184.329507,7624.121203
1155.503704,-1302.362347,-1036.288319,7328.038826
1155.504023,-1685.410096,-1406.391290,7624.121203
1155.504343,-1762.019645,-1924.535449,7550.100608
1155.504662,-1991.848295,-2072.576638,7994.224174
1155.504981,-1915.238745,-2146.597232,8586.388927
1155.505300,-1915.238745,-2442.679609,8808.450710
1155.505619,-1915.238745,-2664.741391,9326.594869
1155.505938,-2068.457845,-1998.556043,8586.388927
1155.506257,-2068.457845,-2072.576638,8586.388927
1155.506576,-1991.848295,-1702.473667,8216.285956
1155.506895,-2451.505594,-2368.659014,8142.265362
1155.507215,-2374.896044,-2886.803174,8438.347739
1155.507534,-3064.381992,-3701.029710,8882.471304
1155.507853,-3140.991542,-4441.235652,9696.697840
1155.508172,-3447.429741,-4515.256246,10510.924376
1155.508491,-3830.477490,-4663.297435,11103.089130
1155.508810,-3600.648841,-4293.194464,11325.150913
1155.509129,-3753.867940,-3775.050304,11029.068536
1155.509448,-3447.429741,-3256.906145,10955.047942
1155.509767,-3370.820191,-2368.659014,11177.109724
1155.510087,-2757.943793,-2664.741391,10732.986159
1155.510406,-2604.724693,-2738.761985,10732.986159
1155.510725,-2604.724693,-3182.885551,10510.924376
1155.511044,-2757.943793,-3775.050304,10732.986159
1155.511363,-3064.381992,-4145.153275,10584.944971
1155.511682,-3064.381992,-4441.235652,10436.903782
1155.512001,-3524.039291,-4219.173869,10584.944971
1155.512320,-3753.867940,-4071.132681,10881.027347
1155.512640,-3830.477490,-3849.070898,11473.192101
1155.512959,-4060.306139,-3404.947333,11621.233289
1155.513278,-4749.792088,-3330.926739,11473.192101
1155.513597,-4749.792088,-2960.823768,11473.192101
1155.513916,-5132.839837,-3034.844362,10955.047942
1155.514235,-5056.230287,-2886.803174,10881.027347
1155.514554,-4443.353888,-3256.906145,10955.047942
1155.514873,-3983.696590,-3256.906145,11399.171507
1155.515192,-2987.772442,-2886.803174,11547.212695
1155.515512,-1762.019645,-2220.617826,11473.192101
1155.515831,-459.657299,-814.226536,10214.842000
1155.516150,383.047749,814.226536,8364.327145
1155.516469,1149.143247,2146.597232,6957.935855
1155.516788,1915.238745,2442.679609,5181.441594
1155.517107,1915.238745,2220.617826,4293.194464
1155.517426,1685.410096,666.185348,4737.318029
1155.517745,1149.143247,-1110.308913,6439.791695
1155.518064,76.609550,-2220.617826,7920.203579
1155.518384,-306.438199,-2664.741391,9178.553681
1155.518703,-536.266849,-2590.720797,9918.759623
1155.519022,-842.705048,-2146.597232,10140.821405
1155.519341,-459.657299,-74.020594,9400.615463
1155.519660,0.000000,1480.411884,8660.409521
1155.519979,306.438199,2294.638420,8142.265362
1155.520298,842.705048,2294.638420,7550.100608
1155.520617,1149.143247,2294.638420,6513.812290
1155.520937,689.485948,962.267725,6069.688724
1155.521256,383.047749,-222.061783,5847.626942
1155.521575,0.000000,-962.267725,6217.729913
1155.521894,-995.924147,-2072.576638,7254.018232
1155.522213,-1991.848295,-2738.761985,9252.574275
1155.522532,-1915.238745,-2886.803174,10807.006753
1155.522851,-2374.896044,-2368.659014,11399.171507
1155.523170,-2374.896044,-1258.350101,11769.274478
1155.523489,-2451.505594,-74.020594,10584.944971
1155.523809,-2374.896044,222.061783,10362.883188
1155.524128,-2528.115143,-666.185348,10288.862594
1155.524447,-2451.505594,-1258.350101,9474.636058
1155.524766,-3140.991542,-1480.411884,8290.306550
1155.525085,-2681.334243,-2886.803174,8512.368333
1155.525404,-2911.162892,-2960.823768,8808.450710
1155.525723,-2987.772442,-4293.194464,9474.636058
1155.526042,-3140.991542,-4737.318029,10881.027347
1155.526361,-3140.991542,-3627.009116,10732.986159
1155.526681,-2834.553343,-2516.700203,11251.130318
1155.527000,-3064.381992,-1184.329507,10584.944971
1155.527319,-3447.429741,-1480.411884,10436.903782
1155.527638,-3907.087040,-2146.597232,10214.842000
1155.527957,-4290.134789,-2812.782580,9622.677246
1155.528276,-4519.963438,-3478.967927,9548.656652
1155.528595,-4136.915689,-4293.194464,10066.800811
1155.528914,-3983.696590,-5773.606348,11843.295072
1155.529234,-3064.381992,-5551.544565,12731.542202
1155.529553,-2528.115143,-4885.359217,12731.542202
1155.529872,-1302.362347,-3404.947333,12065.356855
1155.530191,306.438199,-1628.453072,10807.006753
1155.530510,1378.971896,-0.000000,9178.553681
1155.530829,2451.505594,1628.453072,7328.038826
1155.531148,3064.381992,1776.494261,6069.688724
1155.531467,2604.724693,296.082377,5551.544565
1155.531786,2145.067394,-1924.535449,7328.038826
1155.532106,919.314598,-3627.009116,8438.347739
1155.532425,229.828649,-5107.421000,9770.718434
1155.532744,-612.876398,-5403.503377,10214.842000
1155.533063,-1762.019645,-5033.400406,11843.295072
1155.533382,-2068.457845,-3404.947333,11547.212695
1155.533701,-2374.896044,-1776.494261,9844.739029
1155.534020,-2298.286494,-592.164754,9030.512492
1155.534339,-2528.115143,-592.164754,8438.347739
1155.534658,-2604.724693,-1184.329507,8290.306550
1155.534978,-2528.115143,-1998.556043,7698.141797
1155.535297,-3064.381992,-2590.720797,8586.388927
1155.535616,-2834.553343,-3627.009116,9622.677246
1155.535935,-2451.505594,-2442.679609,9696.697840
1155.536254,-1149.143247,-740.205942,9326.594869
1155.536573,-383.047749,-0.000000,8956.491898
1155.536892,0.000000,962.267725,8734.430116
1155.537211,229.828649,1406.391290,7550.100608
1155.537529,76.609550,1480.411884,6735.874072
1155.537848,-766.095498,518.144159,5995.668130
1155.538167,-1915.238745,-1258.350101,6069.688724
1155.538486,-2834.553343,-3256.906145,5921.647536
1155.538804,-4749.792088,-4441.235652,6883.915261
1155.539123,-5439.278036,-5773.606348,9696.697840
1155.539442,-5669.106685,-5699.585753,10362.883188
1155.539760,-5745.716235,-4737.318029,12213.398043
1155.540079,-4749.792088,-4071.132681,12879.583391
1155.540398,-4826.401637,-2738.761985,13619.789333
1155.540717,-2911.162892,-1480.411884,12435.459826
1155.541035,-1378.971896,1332.370696,10066.800811
1155.541354,0.000000,1776.494261,8808.450710
1155.541673,459.657299,1184.329507,7402.059420
1155.541992,995.924147,740.205942,5995.668130
1155.542310,919.314598,-740.205942,5699.585753
1155.542629,0.000000,-2072.576638,5773.606348
1155.542948,-1225.752797,-3701.029710,6143.709319
1155.543266,-2451.505594,-4959.379811,8438.347739
1155.543585,-4136.915689,-6809.894666,9696.697840
1155.543904,-5209.449386,-8216.285956,12139.377449
1155.544223,-5898.935335,-7328.038826,14878.139434
1155.544541,-5898.935335,-6291.750507,16136.489536
1155.544860,-5056.230287,-4737.318029,15618.345376
1155.545179,-3907.087040,-2960.823768,15174.221811
1155.545498,-1685.410096,-518.144159,14211.954086
1155.545816,153.219100,1480.411884,10436.903782
1155.546135,2451.505594,3256.906145,6069.688724
1155.546454,3830.477490,3849.070898,5033.400406
1155.546772,5056.230287,2960.823768,2294.638420
1155.547091,4366.744339,1332.370696,518.144159
1155.547410,3217.601092,-1332.370696,2220.617826
1155.547729,459.657299,-4071.132681,5181.441594
1155.548047,-2068.457845,-6513.812290,7624.121203
1155.548366,-4136.915689,-6957.935855,11103.089130
1155.548685,-6588.421283,-6439.791695,14063.912898
1155.549004,-7584.345430,-4811.338623,16062.468941
1155.549322,-7660.954980,-2960.823768,17542.880825
1155.549641,-6128.763984,-962.267725,17246.798449
1155.549960,-4136.915689,2368.659014,14211.954086
1155.550278,-1455.581446,4959.379811,11695.253884
1155.550597,919.314598,5551.544565,6883.915261
1155.550916,3217.601092,4219.173869,3256.906145
1155.551235,4519.963438,3108.864956,1332.370696
1155.551553,5286.058936,-296.082377,0.000000
1155.551872,4519.963438,-3034.844362,-666.185348
1155.552191,2757.943793,-5107.421000,1924.535449
1155.552509,229.828649,-5921.647536,4959.379811
1155.552828,-3294.210641,-6957.935855,7846.182985
1155.553147,-6128.763984,-6291.750507,12805.562797
1155.553466,-8273.831378,-4959.379811,17024.736666
1155.553784,-9499.584175,-2516.700203,19171.333898
1155.554103,-8580.269578,-2442.679609,19393.395680
1155.554422,-6894.859482,1554.432478,19985.560434
1155.554741,-4443.353888,-1480.411884,17542.880825
1155.555059,-1838.629195,296.082377,14137.933492
1155.555378,2451.505594,1110.308913,9474.636058
1155.555697,4366.744339,518.144159,3997.112087
1155.556015,7201.297681,148.041188,-592.164754
1155.556334,7584.345430,-0.000000,-2442.679609
1155.556653,6894.859482,-1036.288319,-2960.823768
1155.556972,4290.134789,-2738.761985,-296.082377
1155.557290,-229.828649,-2590.720797,3256.906145
1155.557609,-3677.258390,-4367.215058,9548.656652
1155.557928,-7201.297681,-5329.482782,15322.262999
1155.558247,-9652.803275,-5995.668130,20873.807564
1155.558565,-11797.870669,-6809.894666,23834.631332
1155.558884,-10495.508323,-6069.688724,23390.507767
1155.559203,-8886.707777,-2368.659014,19837.519246
1155.559521,-5439.278036,-1480.411884,16432.571912
1155.559840,-2221.676944,518.144159,10066.800811
1155.560159,1302.362347,2516.700203,4145.153275
1155.560478,4290.134789,2516.700203,-148.041188
1155.560796,5439.278036,2516.700203,-3108.864956
1155.561115,5669.106685,814.226536,-2146.597232
1155.561434,4519.963438,-0.000000,-1036.288319
1155.561753,2145.067394,-2368.659014,3034.844362
1155.562071,306.438199,-3330.926739,9252.574275
1155.562390,-1991.848295,-4663.297435,14211.954086
1155.562709,-3447.429741,-5403.503377,16580.613101
1155.563027,-5132.839837,-3478.967927,18653.189738
1155.563346,-4136.915689,-1776.494261,19911.539840
1155.563665,-2068.457845,1184.329507,17468.860231
1155.563984,536.266849,1850.514855,14137.933492
1155.564302,4366.744339,4367.215058,9696.697840
1155.564621,5745.716235,6291.750507,4145.153275
1155.564940,8886.707777,4663.297435,148.041188
1155.565259,9576.193725,3997.112087,-2294.638420
1155.565577,10418.898773,2516.700203,-1628.453072
1155.565896,9346.365076,296.082377,-1480.411884
1155.566215,6741.640382,-888.247130,1258.350101
1155.566533,3447.429741,-2664.741391,6217.729913
1155.566852,1838.629195,-2146.597232,11991.336260
1155.567171,-383.047749,-0.000000,15840.407159
1155.567490,-1302.362347,1480.411884,17468.860231
1155.567808,-2298.286494,3701.029710,17987.004391
1155.568127,-1225.752797,6661.853478,15692.365970
1155.568446,995.924147,6587.832884,13471.748144
1155.568765,2298.286494,6143.709319,7772.162391
1155.569083,3294.210641,5329.482782,3849.070898
1155.569402,4060.306139,2886.803174,-444.123565
1155.569721,4136.915689,518.144159,-1184.329507
1155.570039,3907.087040,-1924.535449,0.000000
1155.570358,2221.676944,-3404.947333,1998.556043
1155.570677,-536.266849,-3182.885551,5403.503377
1155.570996,-3447.429741,-2220.617826,9844.739029
1155.571314,-5439.278036,-666.185348,16062.468941
1155.571633,-6588.421283,1850.514855,18283.086767
1155.571952,-7354.516781,3775.050304,20429.683999
1155.572271,-7124.688131,3923.091493,20651.745782
1155.572589,-6511.811733,7105.977043,18431.127956
1155.572908,-3983.696590,5329.482782,15766.386565
1155.573227,-1455.581446,3330.926739,11621.233289
1155.573545,842.705048,1258.350101,5995.668130
1155.573864,2451.505594,222.061783,1628.453072
1155.574183,2451.505594,-1924.535449,222.061783
1155.574502,2068.457845,-3849.070898,1406.391290
1155.574820,1378.971896,-3627.009116,4219.173869
1155.575139,0.000000,-3182.885551,6069.688724
1155.575458,-1532.190996,-3404.947333,12583.501014
1155.575777,-3677.258390,-2442.679609,17394.839637
1155.576095,-3983.696590,-2442.679609,20799.786970
1155.576414,-5592.497135,-740.205942,20281.642811
1155.576733,-3294.210641,4293.194464,20725.766376
1155.577051,-1838.629195,1776.494261,18135.045579
1155.577370,1838.629195,4959.379811,13175.665768
1155.577689,4136.915689,4589.276840,6069.688724
1155.578008,6511.811733,5255.462188,1258.350101
1155.578326,7737.564530,888.247130,-2072.576638
1155.578645,6435.202183,-2368.659014,-2294.638420
1155.578964,5362.668486,-4737.318029,592.164754
1155.579283,3447.429741,-5699.585753,3182.885551
1155.579601,1532.190996,-4737.318029,7105.977043
1155.579920,-153.219100,-4959.379811,12509.480420
1155.580239,-1991.848295,-5255.462188,17764.942608
1155.580557,-2834.553343,-1924.535449,19689.478057
1155.580876,-2681.334243,-1184.329507,20355.663405
1155.581195,-1608.800546,4293.194464,17246.798449
1155.581514,995.924147,5921.647536,14063.912898
1155.581832,4443.353888,5181.441594,9918.759623
1155.582151,6358.592633,5403.503377,4589.276840
1155.582470,9806.022374,6587.832884,-1184.329507
1155.582789,10265.679673,2664.741391,-6439.791695
1155.583107,9193.145976,296.082377,-7328.038826
1155.583426,6511.811733,-2738.761985,-4293.194464
1155.583745,3524.039291,-5477.523971,-1036.288319
1155.584063,-383.047749,-6661.853478,3182.885551
1155.584382,-4519.963438,-6809.894666,11029.068536
1155.584701,-6665.030833,-5921.647536,18431.127956
1155.585020,-8656.879127,-2590.720797,21317.931130
1155.585338,-7048.078582,-444.123565,24500.816680
1155.585657,-6511.811733,4515.256246,23760.610738
1155.585976,-2911.162892,10732.986159,16136.489536
1155.586294,459.657299,9104.533087,8734.430116
1155.586613,4213.525239,11695.253884,3701.029710
1155.586932,7048.078582,5551.544565,-3256.906145
1155.587251,6894.859482,5477.523971,-9770.718434
1155.587569,7584.345430,-444.123565,-8808.450710
1155.587888,4136.915689,-4737.318029,-4737.318029
1155.588207,2145.067394,-7624.121203,222.061783
1155.588526,-2604.724693,-6809.894666,3701.029710
1155.588844,-6281.983084,-7624.121203,12731.542202
1155.589163,-10112.460574,-6809.894666,22058.137072
1155.589482,-10189.070123,-444.123565,25981.228564
1155.589800,-9806.022374,2812.782580,26055.249158
1155.590119,-7277.907231,7476.080014,26129.269753
1155.590438,-4290.134789,7846.182985,23686.590144
1155.590757,383.047749,7254.018232,13841.851115
1155.591075,4443.353888,7772.162391,7846.182985
1155.591394,9039.926876,8290.306550,-370.102971
1155.591713,11261.603821,6513.812290,-7105.977043
1155.592032,11797.870669,4219.173869,-7179.997637
1155.592350,9959.241474,-1776.494261,-5181.441594
1155.592669,5286.058936,-1702.473667,-1332.370696
1155.592988,995.924147,-3997.112087,3108.864956
1155.593306,-3064.381992,-5033.400406,11917.315666
1155.593625,-5515.887586,-4959.379811,22058.137072
1155.593944,-8427.050478,-5033.400406,30570.505405
1155.594263,-8963.317327,-4441.235652,29534.217086
1155.594581,-9346.365076,-0.000000,32272.979071
1155.594900,-3064.381992,8734.430116,27387.619854
1155.595219,995.924147,7846.182985,18505.148550
1155.595538,7890.783629,11843.295072,7772.162391
1155.595856,10878.556072,14878.139434,-1406.391290
1155.596175,13789.718964,12139.377449,-7179.997637
1155.596494,13636.499864,4515.256246,-10288.862594
1155.596812,12410.747068,222.061783,-5255.462188
1155.597131,8273.831378,-7328.038826,-1480.411884
1155.597450,3294.210641,-6513.812290,1924.535449
1155.597769,76.609550,-8512.368333,8882.471304
1155.598087,-5975.544884,-9252.574275,16284.530724
1155.598406,-7048.078582,-9326.594869,26943.496289
1155.598725,-9269.755526,-2146.597232,28275.866984
1155.599044,-8733.488677,2960.823768,27757.722825
1155.599362,-6971.469032,11473.192101,21539.992912
1155.599681,-1455.581446,8660.409521,23094.425390
1155.600000,3983.696590,11917.315666,10066.800811
1155.600318,8350.440928,8808.450710,222.061783
1155.600637,11108.384721,7105.977043,-4515.256246
1155.600956,11184.994271,1110.308913,-10584.944971
1155.601275,12257.527968,-0.000000,-11029.068536
1155.601593,8350.440928,-4737.318029,-7920.203579
1155.601912,842.705048,-9696.697840,-1998.556043
1155.602231,-4060.306139,-8216.285956,3330.926739
1155.602550,-7354.516781,-10510.924376,13989.892304
1155.602868,-11338.213370,-7402.059420,22872.363608
1155.603187,-11414.822920,-3330.926739,28942.052332
1155.603506,-12180.918418,2368.659014,26869.475695
1155.603824,-11797.870669,10140.821405,22872.363608
1155.604143,-6741.640382,6883.915261,21169.889941
1155.604462,-383.047749,10362.883188,10807.006753
1155.604781,5132.839837,3997.112087,1184.329507
1155.605099,9193.145976,3182.885551,-7105.977043
1155.605418,8273.831378,1776.494261,-11695.253884
1155.605737,10801.946522,-3775.050304,-6809.894666
1155.606056,7890.783629,-6069.688724,-6587.832884
1155.606374,2757.943793,-8438.347739,-3849.070898
1155.606693,-1302.362347,-6291.750507,2886.803174
1155.607012,-3677.258390,-7476.080014,13545.768739
1155.607330,-8656.879127,-5255.462188,20281.642811
1155.607649,-10878.556072,-4441.235652,26869.475695
1155.607968,-10342.289223,1998.556043,29164.114115
1155.608287,-8503.660028,6587.832884,25981.228564
1155.608605,-6128.763984,4589.276840,21910.095883
1155.608924,766.095498,1628.453072,12953.603985
1155.609243,7124.688131,9252.574275,3330.926739
1155.609562,10878.556072,5847.626942,-6069.688724
1155.609880,12487.356617,1184.329507,-6439.791695
1155.610199,12257.527968,-2368.659014,-8364.327145
1155.610518,9652.803275,-4145.153275,-5625.565159
1155.610836,8503.660028,-5403.503377,-1110.308913
1155.611155,3294.210641,-5403.503377,2368.659014
1155.611474,-229.828649,-6661.853478,12509.480420
1155.611793,-4366.744339,-9622.677246,22946.384202
1155.612111,-5286.058936,-3330.926739,29090.093521
1155.612430,-7660.954980,-74.020594,29386.175897
1155.612749,-5822.325785,10288.862594,27905.764013
1155.613068,-2834.553343,10881.027347,23834.631332
1155.613386,3907.087040,13693.809927,11325.150913
1155.613705,8273.831378,12583.501014,4663.297435
1155.614024,11414.822920,9474.636058,-4737.318029
1155.614342,12410.747068,3478.967927,-11029.068536
1155.614661,10725.336972,-444.123565,-8882.471304
1155.614980,8350.440928,-8068.244768,-4737.318029
1155.615299,4596.572988,-8512.368333,-296.082377
1155.615617,919.314598,-8660.409521,3330.926739
1155.615936,-4903.011187,-8142.265362,10807.006753
1155.616255,-6205.373534,-7254.018232,23686.590144
1155.616574,-9959.241474,-666.185348,27239.578666
1155.616892,-9729.412825,5699.585753,29016.072926
1155.617211,-11414.822920,10140.821405,27387.619854
1155.617530,-4903.011187,13027.624579,25981.228564
1155.617848,-2298.286494,18653.189738,11621.233289
1155.618167,3140.991542,9696.697840,3330.926739
1155.618486,6205.373534,9104.533087,-3849.070898
1155.618805,7967.393179,2368.659014,-12065.356855
1155.619123,7354.516781,-3923.091493,-11325.150913
1155.619442,3983.696590,-7031.956449,-4737.318029
1155.619761,1149.143247,-9696.697840,2072.576638
1155.620080,-2987.772442,-10436.903782,0.000000
1155.620398,-8273.831378,-8808.450710,9252.574275
1155.620717,-9729.412825,-9918.759623,25833.187376
1155.621036,-13559.890315,-3627.009116,28423.908173
1155.621354,-13176.842566,1628.453072,30570.505405
1155.621673,-12180.918418,9104.533087,29830.299463
1155.621992,-6588.421283,13323.706956,24722.878463
1155.622311,-1532.190996,13989.892304,13619.789333
1155.622629,7277.907231,12361.439231,8142.265362
1155.622948,10418.898773,10066.800811,-4145.153275
1155.623267,14479.204912,3108.864956,-10362.883188
1155.623585,13023.623466,-1184.329507,-13619.789333
1155.623904,11108.384721,-9844.739029,-6883.915261
1155.624223,3524.039291,-14137.933492,-3775.050304
1155.624542,1685.410096,-12731.542202,3404.947333
1155.624860,-2068.457845,-9770.718434,10807.006753
1155.625179,-5515.887586,-10362.883188,20947.828159
1155.625498,-8656.879127,-7994.224174,28571.949361
1155.625817,-10495.508323,-2442.679609,30792.567187
1155.626135,-10035.851024,2516.700203,32124.937883
1155.626454,-3447.429741,5033.400406,27091.537477
1155.626773,1455.581446,17987.004391,17616.901420
1155.627091,8350.440928,9992.780217,8512.368333
1155.627410,14632.424012,7105.977043,-2442.679609
1155.627729,16777.491406,9252.574275,-13619.789333
1155.628048,18462.901502,1554.432478,-15470.304188
1155.628366,15475.129060,-4737.318029,-13989.892304
1155.628685,8197.221829,-9992.780217,-7846.182985
1155.629004,2681.334243,-9992.780217,-3552.988522
1155.629323,-3140.991542,-11843.295072,2146.597232
1155.629641,-7584.345430,-16802.674883,19171.333898
1155.629960,-11797.870669,-15544.324782,25685.146187
1155.630279,-16011.395908,-9918.759623,30052.361245
1155.630597,-15092.081311,-2368.659014,30940.608376
1155.630916,-11338.213370,10584.944971,31828.855506
1155.631235,-4673.182538,9622.677246,26203.290347
1155.631554,2451.505594,14878.139434,7476.080014
1155.631872,7048.078582,19245.354492,-370.102971
1155.632191,13023.623466,8142.265362,-8068.244768
1155.632510,14402.595362,9622.677246,-17024.736666
1155.632829,15475.129060,-1110.308913,-15026.180623
1155.633147,9116.536426,-6957.935855,-7105.977043
1155.633466,766.095498,-12287.418637,-5551.544565
1155.633785,-3217.601092,-9918.759623,-222.061783
1155.634103,-8886.707777,-17320.819043,13767.830521
1155.634422,-11797.870669,-8364.327145,20207.622217
1155.634741,-12947.013916,-8512.368333,28053.805202
1155.635060,-15168.690860,3034.844362,31828.855506
1155.635378,-13406.671215,10066.800811,30866.587781
1155.635697,-7814.174080,10436.903782,27683.702231
1155.636016,-3600.648841,11621.233289,20577.725188
1155.636334,5745.716235,18579.169144,4737.318029
1155.636653,11568.042020,14508.036463,-4515.256246
1155.636972,14555.814462,9104.533087,-12805.562797
1155.637290,14172.766713,1332.370696,-15396.283594
1155.637609,13100.233016,-5551.544565,-9252.574275
1155.637928,5286.058936,-10955.047942,-6365.771101
1155.638246,1225.752797,-10732.986159,1480.411884
1155.638565,-2911.162892,-9030.512492,10658.965565
1155.638884,-10112.460574,-14211.954086,21317.931130
1155.639202,-10342.289223,-5699.585753,31902.876100
1155.639521,-12717.185267,-1110.308913,34567.617491
1155.639840,-11338.213370,5107.421000,35011.741057
1155.640158,-8580.269578,18875.251521,25241.022622
1155.640477,-842.705048,11547.212695,21984.116477
1155.640796,4136.915689,13101.645173,10436.903782
1155.641114,11951.089769,14359.995275,-1036.288319
1155.641433,14172.766713,2738.761985,-8808.450710
1155.641752,15934.786358,5699.585753,-14952.160028
1155.642070,16088.005458,-7105.977043,-6217.729913
1155.642389,10035.851024,-11621.233289,-4071.132681
1155.642708,4749.792088,-9844.739029,-2368.659014
1155.643026,1991.848295,-7624.121203,9326.594869
1155.643345,-2911.162892,-15692.365970,17024.736666
1155.643664,-9346.365076,-10436.903782,29534.217086
1155.643982,-9806.022374,-5107.421000,34197.514520
1155.644301,-12180.918418,5033.400406,29756.278868
1155.644620,-8810.098227,12065.356855,27387.619854
1155.644938,-3217.601092,11991.336260,23908.651927
1155.645257,4060.306139,18653.189738,14359.995275
1155.645576,10265.679673,8734.430116,0.000000
1155.645894,14249.376263,10288.862594,-11325.150913
1155.646213,13713.109414,-0.000000,-12879.583391
1155.646532,12104.308868,-5329.482782,-9474.636058
1155.646850,8120.612279,-11621.233289,-7105.977043
1155.647169,2451.505594,-11473.192101,-5773.606348
1155.647487,-2604.724693,-13101.645173,3182.885551
1155.647806,-7124.688131,-11325.150913,12213.398043
1155.648125,-10955.165621,-13471.748144,26425.352129
1155.648443,-16088.005458,-6439.791695,28571.949361
1155.648762,-16777.491406,1924.535449,29904.320057
1155.649081,-14555.814462,10584.944971,26943.496289
1155.649399,-9729.412825,11769.274478,26943.496289
1155.649718,-229.828649,21688.034101,15766.386565
1155.650037,3600.648841,8882.471304,1406.391290
1155.650355,9882.631924,11177.109724,-9252.574275
1155.650674,12104.308868,6809.894666,-15544.324782
1155.650993,12947.013916,-3775.050304,-13545.768739
1155.651311,8733.488677,-10362.883188,-12139.377449
1155.651630,3830.477490,-10510.924376,-6143.709319
1155.651949,-1225.752797,-9844.739029,-2072.576638
1155.652267,-3140.991542,-10436.903782,7254.018232
1155.652586,-9193.145976,-12953.603985,21317.931130
1155.652905,-12563.966167,-11473.192101,31458.752535
1155.653223,-14249.376263,-1036.288319,32495.040854
1155.653542,-13789.718964,5477.523971,27683.702231
1155.653861,-4519.963438,11843.295072,29090.093521
1155.654179,3677.258390,17320.819043,17320.819043
1155.654498,7584.345430,10362.883188,4737.318029
1155.654817,14555.814462,14508.036463,-2738.761985
1155.655135,15781.567259,5995.668130,-14508.036463
1155.655454,16930.710506,3849.070898,-15914.427753
1155.655773,13789.718964,-11325.150913,-6513.812290
1155.656091,7814.174080,-14285.974681,-4293.194464
1155.656410,3753.867940,-10288.862594,-3552.988522
1155.656729,-1455.581446,-9474.636058,4959.379811
1155.657047,-5286.058936,-15174.221811,19541.436869
1155.657366,-8120.612279,-8068.244768,29978.340651
1155.657685,-11491.432470,-1036.288319,35529.885216
1155.658003,-12640.575717,4145.153275,31976.896694
1155.658322,-10112.460574,12287.418637,29238.134709
1155.658641,-1149.143247,12361.439231,26869.475695
1155.658959,5132.839837,16284.530724,11769.274478
1155.659278,12104.308868,17246.798449,-518.144159
1155.659597,15475.129060,12583.501014,-9252.574275
1155.659915,16547.662757,3182.885551,-12953.603985
1155.660234,15245.300410,-6809.894666,-7031.956449
1155.660553,10495.508323,-8660.409521,-4071.132681
1155.660871,4443.353888,-9400.615463,-740.205942
1155.661190,689.485948,-4737.318029,0.000000
1155.661509,-5439.278036,-7476.080014,10881.027347
1155.661827,-7660.954980,-11917.315666,31828.855506
1155.662146,-14709.033562,-11399.171507,33309.267390
1155.662465,-18462.901502,-1924.535449,33161.226202
1155.662783,-15245.300410,8364.327145,30348.443622
1155.663102,-7124.688131,13841.851115,31162.670158
1155.663421,-1991.848295,15544.324782,19023.292709
1155.663739,5669.106685,16580.613101,7402.059420
1155.664058,9806.022374,15396.283594,-3552.988522
1155.664377,13176.842566,8882.471304,-12287.418637
1155.664695,15015.471761,3034.844362,-12953.603985
1155.665014,12334.137518,-8068.244768,-7031.956449
1155.665332,5669.106685,-11547.212695,-3627.009116
1155.665651,-459.657299,-9622.677246,-3404.947333
1155.665970,-3830.477490,-10362.883188,2294.638420
1155.666288,-8580.269578,-13545.768739,21317.931130
1155.666607,-11031.775171,-10584.944971,28127.825796
1155.666926,-16547.662757,-2294.638420,29756.278868
1155.667244,-17390.367805,4219.173869,27461.640448
1155.667563,-12104.308868,6883.915261,31088.649564
1155.667882,-3753.867940,11991.336260,26499.372724
1155.668200,2528.115143,13101.645173,13989.892304
1155.668519,10265.679673,13323.706956,1036.288319
1155.668838,13253.452115,12139.377449,-11547.212695
1155.669156,15475.129060,5699.585753,-12509.480420
1155.669475,17007.320056,-4589.276840,-10732.986159
1155.669794,12717.185267,-8512.368333,-8290.306550
1155.670112,6818.249932,-8216.285956,-8808.450710
1155.670431,2528.115143,-4811.338623,-5107.421000
1155.670750,-1762.019645,-11917.315666,9844.739029
1155.671068,-7507.735880,-15026.180623,21391.951724
1155.671387,-11491.432470,-11473.192101,30570.505405
1155.671706,-16164.615008,-3701.029710,31902.876100
1155.672024,-11721.261119,2886.803174,31014.628970
1155.672343,-7431.126331,7994.224174,26351.331535
1155.672662,4673.182538,10658.965565,17320.819043
1155.672980,6894.859482,18653.189738,1850.514855
1155.673299,11644.651570,11103.089130,-6587.832884
1155.673618,14019.547613,5551.544565,-12879.583391
1155.673936,17926.634653,4219.173869,-9918.759623
1155.674255,17466.977354,-5773.606348,-10066.800811
1155.674574,9882.631924,-8734.430116,-9844.739029
1155.674892,4826.401637,-8216.285956,-6069.688724
1155.675211,306.438199,-14063.912898,6513.812290
1155.675530,-6281.983084,-13323.706956,15026.180623
1155.675848,-10801.946522,-12213.398043,26795.455100
1155.676167,-13023.623466,-4145.153275,28497.928767
1155.676486,-15398.519510,4145.153275,26425.352129
1155.676804,-12027.699319,6513.812290,30052.361245
1155.677123,-8273.831378,9474.636058,23612.569550
1155.677442,-383.047749,10066.800811,13915.871710
1155.677760,7201.297681,15840.407159,-370.102971
1155.678079,11261.603821,13545.768739,-9104.533087
1155.678398,13330.061665,4885.359217,-9474.636058
1155.678716,14785.643111,-1110.308913,-7920.203579
1155.679035,10495.508323,-2516.700203,-11917.315666
1155.679354,2834.553343,-7179.997637,-9400.615463
1155.679672,-1378.971896,-10140.821405,0.000000
1155.679991,-5669.106685,-12213.398043,12139.377449
1155.680310,-9422.974625,-10584.944971,23538.548956
1155.680628,-15321.909960,-6069.688724,30496.484810
1155.680947,-16854.100956,-1036.288319,32569.061448
1155.681266,-17466.977354,7254.018232,29460.196492
1155.681584,-10418.898773,11843.295072,27757.722825
1155.681903,-4366.744339,14730.098246,20799.786970
1155.682222,2911.162892,17838.963202,6735.874072
1155.682540,7431.126331,14656.077652,-518.144159
1155.682859,11721.261119,9326.594869,-6513.812290
1155.683178,14172.766713,-296.082377,-9474.636058
1155.683496,15092.081311,-4367.215058,-7994.224174
1155.683815,8427.050478,-8290.306550,-9104.533087
1155.684133,4519.963438,-6587.832884,-6069.688724
1155.684452,0.000000,-8660.409521,2738.761985
1155.684771,-1838.629195,-10214.842000,18653.189738
1155.685089,-5132.839837,-9548.656652,28719.990550
1155.685408,-12180.918418,-1036.288319,29460.196492
1155.685727,-13330.061665,370.102971,30348.443622
1155.686045,-10418.898773,9548.656652,32272.979071
1155.686364,-4903.011187,7476.080014,29978.340651
1155.686683,5515.887586,12065.356855,15692.365970
1155.687001,10878.556072,17542.880825,-666.185348
1155.687320,15781.567259,16210.510130,-5773.606348
1155.687639,16700.881856,6661.853478,-15322.262999
1155.687957,19612.044749,-3182.885551,-9400.615463
1155.688276,14785.643111,-7105.977043,-8660.409521
1155.688595,9576.193725,-10362.883188,-7179.997637
1155.688913,3983.696590,-9918.759623,-5477.523971
1155.689232,-2757.943793,-12139.377449,10807.006753
1155.689551,-5132.839837,-14285.974681,24204.734303
1155.689869,-11338.213370,-9252.574275,31162.670158
1155.690188,-13713.109414,-2960.823768,31828.855506
1155.690507,-14938.862211,6735.874072,30126.381839
1155.690825,-9346.365076,11843.295072,24352.775492
1155.691144,-2374.896044,16136.489536,16062.468941
1155.691463,1762.019645,17394.839637,12139.377449
1155.691781,8197.221829,8142.265362,814.226536
1155.692100,11414.822920,9178.553681,-11103.089130
1155.692419,15398.519510,666.185348,-9992.780217
1155.692737,12717.185267,-4441.235652,-9030.512492
1155.693056,7584.345430,-10436.903782,-10510.924376
1155.693375,2757.943793,-10214.842000,-9770.718434
1155.693693,-2528.115143,-14508.036463,-1924.535449
1155.694012,-6281.983084,-16062.468941,16136.489536
1155.694331,-9269.755526,-12435.459826,26277.310941
1155.694649,-15858.176809,-5773.606348,27165.558071
1155.694968,-19382.216099,1406.391290,28571.949361
1155.695287,-18156.463303,8438.347739,26129.269753
1155.695605,-8963.317327,6661.853478,25537.104999
1155.695924,153.219100,14211.954086,14952.160028
1155.696243,5439.278036,16950.716072,3256.906145
1155.696561,9806.022374,13471.748144,-5773.606348
1155.696880,13713.109414,7402.059420,-10955.047942
1155.697199,14862.252661,-2738.761985,-7698.141797
1155.697517,12257.527968,-6735.874072,-10955.047942
1155.697836,5362.668486,-12065.356855,-9696.697840
1155.698155,1608.800546,-10140.821405,-3997.112087
1155.698473,-2298.286494,-13841.851115,2738.761985
1155.698792,-5592.497135,-9992.780217,19023.292709
1155.699111,-10112.460574,-11991.336260,29386.175897
1155.699429,-16547.662757,-4441.235652,34789.679274
1155.699748,-18845.949251,518.144159,32791.123231
1155.700067,-12180.918418,6291.750507,35233.802839
1155.700385,-689.485948,14952.160028,21910.095883
1155.700704,5745.716235,16950.716072,11325.150913
1155.701023,12257.527968,16062.468941,2368.659014
1155.701341,16088.005458,7105.977043,-7846.182985
1155.701660,19612.044749,6587.832884,-11843.295072
1155.701979,19305.606550,-6809.894666,-7698.141797
1155.702297,13406.671215,-7698.141797,-7920.203579
1155.702616,8503.660028,-7846.182985,-11029.068536
1155.702934,4826.401637,-7476.080014,-4293.194464
1155.703253,-1225.752797,-13101.645173,8364.327145
1155.703572,-6588.421283,-13619.789333,24056.693115
1155.703890,-12257.527968,-11399.171507,31384.731941
1155.704209,-17773.415554,-6217.729913,32791.123231
1155.704528,-18156.463303,3330.926739,36418.132346
1155.704846,-12334.137518,7698.141797,35455.864622
1155.705165,-1302.362347,7179.997637,17912.983796
1155.705484,5745.716235,22280.198854,7550.100608
1155.705802,12257.527968,17838.963202,2294.638420
1155.706121,14785.643111,12213.398043,-13915.871710
1155.706440,19995.092498,7698.141797,-13101.645173
1155.706758,16854.100956,-3108.864956,-8512.368333
1155.707077,8350.440928,-5625.565159,-10807.006753
1155.707396,3217.601092,-8364.327145,-11103.089130
1155.707714,1455.581446,-11843.295072,4589.276840
1155.708033,-7354.516781,-16802.674883,17172.777854
1155.708352,-11184.994271,-14211.954086,23760.610738
1155.708670,-17007.320056,-7846.182985,28349.887579
1155.708989,-19535.435199,2368.659014,31532.773129
1155.709308,-18233.072852,4367.215058,33161.226202
1155.709626,-10112.460574,9918.759623,28127.825796
1155.709945,-1608.800546,14063.912898,17912.983796
1155.710264,7354.516781,19763.498651,6439.791695
1155.710582,8273.831378,12953.603985,-5847.626942
1155.710901,13559.890315,9918.759623,-12361.439231
1155.711220,15551.738609,1110.308913,-13027.624579
1155.711538,11031.775171,-3552.988522,-11103.089130
1155.711857,7354.516781,-11769.274478,-11177.109724
1155.712176,2757.943793,-10510.924376,-5699.585753
1155.712494,-842.705048,-9918.759623,2368.659014
1155.712813,-5286.058936,-12879.583391,18949.272115
1155.713132,-12104.308868,-13619.789333,28942.052332
1155.713450,-16777.491406,-7105.977043,31532.773129
1155.713769,-14785.643111,1332.370696,35085.761651
1155.714088,-14172.766713,7476.080014,31088.649564
1155.714406,-2451.505594,8364.327145,27535.661042
1155.714725,3983.696590,14211.954086,11917.315666
1155.715044,11261.603821,20651.745782,-666.185348
1155.715362,14402.595362,16728.654289,-9178.553681
1155.715681,17083.929605,4589.276840,-10955.047942
1155.716000,19152.387450,-2442.679609,-9548.656652
1155.716318,16011.395908,-6143.709319,-6661.853478
1155.716637,9499.584175,-8142.265362,-10214.842000
1155.716956,5669.106685,-12213.398043,-2738.761985
1155.717274,0.000000,-14878.139434,10066.800811
1155.717593,-6511.811733,-17320.819043,24130.713709
1155.717912,-12257.527968,-13767.830521,32495.040854
1155.718230,-16317.834107,-3108.864956,33753.390955
1155.718549,-15092.081311,2516.700203,31828.855506
1155.718868,-8963.317327,11029.068536,28571.949361
1155.719186,1685.410096,16580.613101,24648.857869
1155.719505,5286.058936,18579.169144,9992.780217
1155.719824,9652.803275,12731.542202,-2516.700203
1155.720142,14325.985813,9622.677246,-9844.739029
1155.720461,17160.539155,2368.659014,-11325.150913
1155.720780,17390.367805,-5477.523971,-10955.047942
1155.721098,10112.460574,-10881.027347,-9030.512492
1155.721417,5822.325785,-11029.068536,-6439.791695
1155.721735,-536.266849,-14508.036463,-1628.453072
1155.722054,-6128.763984,-12361.439231,14359.995275
1155.722373,-11414.822920,-10955.047942,28571.949361
1155.722691,-14555.814462,-6069.688724,30200.402434
1155.723010,-20531.359346,3849.070898,30126.381839
1155.723329,-16317.834107,9696.697840,31384.731941
1155.723647,-11874.480219,13101.645173,28497.928767
1155.723966,-3140.991542,15470.304188,12509.480420
1155.724285,2298.286494,18431.127956,5477.523971
1155.724603,7354.516781,14508.036463,-4959.379811
1155.724922,11031.775171,7105.977043,-10288.862594
1155.725241,15551.738609,3997.112087,-11843.295072
1155.725559,14862.252661,-7031.956449,-5995.668130
1155.725878,8197.221829,-10584.944971,-8290.306550
1155.726197,2068.457845,-10881.027347,-7031.956449
1155.726515,-536.266849,-11103.089130,4219.173869
1155.726834,-4136.915689,-15618.345376,21021.848753
1155.727153,-10955.165621,-8734.430116,22946.384202
1155.727471,-13253.452115,-1184.329507,30644.525999
1155.727790,-15475.129060,5625.565159,31162.670158
1155.728109,-12410.747068,11621.233289,26351.331535
1155.728427,-3064.381992,11843.295072,23242.466579
1155.728746,2451.505594,14730.098246,17172.777854
1155.729065,10495.508323,19837.519246,-2738.761985
1155.729383,10725.336972,8142.265362,-9030.512492
1155.729702,14709.033562,4071.132681,-8660.409521
1155.730021,16930.710506,-5847.626942,-2960.823768
1155.730339,12334.137518,-7476.080014,-6217.729913
1155.730658,6971.469032,-10362.883188,-7624.121203
1155.730977,2987.772442,-10066.800811,74.020594
1155.731295,-612.876398,-9992.780217,6661.853478
1155.731614,-5515.887586,-14656.077652,25241.022622
1155.731933,-12487.356617,-11991.336260,30940.608376
1155.732251,-15934.786358,-2812.782580,32643.082042
1155.732570,-16241.224558,7105.977043,28571.949361
1155.732889,-11261.603821,13397.727550,24204.734303
1155.733207,612.876398,12731.542202,26647.413912
1155.733526,6435.202183,18949.272115,7476.080014
1155.733845,11261.603821,13101.645173,-1776.494261
1155.734163,13789.718964,8438.347739,-9770.718434
1155.734482,18309.682402,1702.473667,-9770.718434
1155.734801,16777.491406,-7328.038826,-8142.265362
1155.735119,11338.213370,-10214.842000,-8364.327145
1155.735438,5669.106685,-7105.977043,-4441.235652
1155.735757,0.000000,-9844.739029,-3330.926739
1155.736075,-4060.306139,-13619.789333,13693.809927
1155.736394,-9269.755526,-10658.965565,26055.249158
1155.736713,-15168.690860,-3330.926739,29016.072926
1155.737031,-18309.682402,-2072.576638,29830.299463
1155.737350,-20454.749797,8216.285956,29682.258274
1155.737669,-6588.421283,4367.215058,28645.969955
1155.737987,-2145.067394,15544.324782,12731.542202
1155.738306,4136.915689,14137.933492,4885.359217
1155.738625,8120.612279,10140.821405,-2590.720797
1155.738944,12487.356617,7476.080014,-11177.109724
1155.739263,15015.471761,-1702.473667,-9918.759623
1155.739581,13942.938064,-4737.318029,-7846.182985
1155.739900,7507.735880,-8364.327145,-9252.574275
1155.740219,2604.724693,-7846.182985,-10066.800811
1155.740538,-2145.067394,-7550.100608,1554.432478
1155.740856,-5898.935335,-13989.892304,18949.272115
1155.741175,-12334.137518,-12879.583391,25167.002028
1155.741494,-15704.957709,-5921.647536,28794.011144
1155.741813,-20684.578446,2146.597232,27017.516883
1155.742131,-13253.452115,5107.421000,34049.473332
1155.742450,-5745.716235,9992.780217,28275.866984
1155.742769,3753.867940,12287.418637,13619.789333
1155.743088,7660.954980,18061.024985,6291.750507
1155.743407,11797.870669,14508.036463,-3701.029710
1155.743725,15628.348159,7476.080014,-9622.677246
1155.744044,19995.092498,2738.761985,-13027.624579
1155.744363,16854.100956,-2294.638420,-10955.047942
1155.744682,10418.898773,-4293.194464,-11177.109724
1155.745000,4290.134789,-7105.977043,-9030.512492
1155.745319,76.609550,-12879.583391,4293.194464
1155.745638,-3830.477490,-19615.457463,23020.404796
1155.745957,-12870.404366,-15840.407159,32865.143825
1155.746276,-15398.519510,-9178.553681,33457.308578
1155.746594,-20454.749797,-370.102971,35603.905810
1155.746913,-9882.631924,9474.636058,36122.049970
1155.747232,-2145.067394,13101.645173,23242.466579
1155.747551,5745.716235,19393.395680,7994.224174
1155.747869,8886.707777,17320.819043,888.247130
1155.748188,12563.966167,14359.995275,-8216.285956
1155.748507,18233.072852,8808.450710,-13915.871710
1155.748826,16930.710506,-3256.906145,-6365.771101
1155.749144,14479.204912,-7254.018232,-5847.626942
1155.749463,6052.154434,-11769.274478,-8068.244768
1155.749782,3064.381992,-7698.141797,-5921.647536
1155.750101,-2757.943793,-12953.603985,6735.874072
1155.750420,-7814.174080,-17764.942608,25018.960840
1155.750738,-13483.280765,-13027.624579,30274.423028
1155.751057,-17696.806004,-296.082377,33235.246796
1155.751376,-18386.291952,2368.659014,32198.958477
1155.751695,-14172.766713,10214.842000,30940.608376
1155.752013,-4903.011187,12361.439231,24204.734303
1155.752332,3370.820191,12657.521608,12657.521608
1155.752651,6358.592633,24796.899057,-5181.441594
1155.752970,12257.527968,11399.171507,-8734.430116
1155.753289,14938.862211,5921.647536,-12509.480420
1155.753607,16624.272307,-0.000000,-8512.368333
1155.753926,11414.822920,-6439.791695,-11843.295072
1155.754245,2987.772442,-7772.162391,-10881.027347
1155.754564,919.314598,-10732.986159,370.102971
1155.754882,-5132.839837,-11103.089130,11991.336260
1155.755201,-9576.193725,-16284.530724,25833.187376
1155.755520,-15704.957709,-10066.800811,34345.555709
1155.755839,-15168.690860,-962.267725,28423.908173
1155.756157,-17160.539155,3182.885551,26055.249158
1155.756476,-10878.556072,6439.791695,28423.908173
1155.756795,-1532.190996,14359.995275,16358.551318
1155.757114,4673.182538,15914.427753,6809.894666
1155.757433,7967.393179,15692.365970,-2590.720797
1155.757751,13559.890315,10732.986159,-8660.409521
1155.758070,17543.586904,5921.647536,-12287.418637
1155.758389,17160.539155,-1628.453072,-8734.430116
1155.758708,11951.089769,-9844.739029,-11103.089130
1155.759026,6435.202183,-7476.080014,-7105.977043
1155.759345,3370.820191,-8882.471304,-518.144159
1155.759664,-1915.238745,-12879.583391,12435.459826
1155.759983,-6435.202183,-18801.230927,29608.237680
1155.760302,-13176.842566,-6587.832884,30274.423028
1155.760620,-12410.747068,-74.020594,29978.340651
1155.760939,-13406.671215,8290.306550,27017.516883
1155.761258,-6971.469032,10658.965565,26055.249158
1155.761577,842.705048,12583.501014,20281.642811
1155.761895,7737.564530,21021.848753,4589.276840
1155.762214,12257.527968,18209.066173,-5329.482782
1155.762533,15092.081311,10362.883188,-14730.098246
1155.762852,16547.662757,1036.288319,-11029.068536
1155.763170,15704.957709,-7031.956449,-5699.585753
1155.763489,9422.974625,-11251.130318,-5995.668130
1155.763808,4443.353888,-11399.171507,-1110.308913
1155.764127,306.438199,-11695.253884,5551.544565
1155.764446,-4060.306139,-13841.851115,20355.663405
1155.764764,-9729.412825,-11177.109724,33087.205607
1155.765083,-13176.842566,-296.082377,33753.390955
1155.765402,-14938.862211,7920.203579,27017.516883
1155.765721,-12870.404366,13841.851115,23686.590144
1155.766039,-6128.763984,13397.727550,26351.331535
1155.766358,766.095498,15322.262999,11695.253884
1155.766677,3294.210641,12287.418637,1776.494261
1155.766996,8503.660028,8068.244768,-3552.988522
1155.767315,11031.775171,3775.050304,-10732.986159
1155.767633,14402.595362,-2960.823768,-8068.244768
1155.767952,10265.679673,-8586.388927,-3478.967927
1155.768271,5515.887586,-11473.192101,-4589.276840
1155.768590,1915.238745,-7476.080014,-2368.659014
1155.768908,-2374.896044,-9104.533087,9326.594869
1155.769227,-8580.269578,-11621.233289,21836.075289
1155.769546,-11414.822920,-9918.759623,29312.155303
1155.769865,-17696.806004,-1332.370696,30792.567187
1155.770183,-16624.272307,3182.885551,28053.805202
1155.770502,-12640.575717,11029.068536,23094.425390
1155.770821,-5132.839837,9992.780217,20799.786970
1155.771140,2681.334243,12361.439231,13397.727550
1155.771459,5669.106685,16136.489536,0.000000
1155.771777,10342.289223,9400.615463,-7402.059420
1155.772096,14172.766713,3701.029710,-10584.944971
1155.772415,14785.643111,-4737.318029,-6439.791695
1155.772734,11414.822920,-9992.780217,-3256.906145
1155.773052,7737.564530,-9548.656652,-6439.791695
1155.773371,3524.039291,-7994.224174,-2590.720797
1155.773690,-842.705048,-9548.656652,10881.027347
1155.774009,-3753.867940,-14285.974681,26425.352129
1155.774328,-10801.946522,-6809.894666,25759.166782
1155.774646,-12717.185267,814.226536,29386.175897
1155.774965,-12640.575717,8660.409521,25315.043216
1155.775284,-6741.640382,13175.665768,21169.889941
1155.775603,1072.533697,13545.768739,18209.066173
1155.775921,6818.249932,13989.892304,9474.636058
1155.776240,11491.432470,9696.697840,-592.164754
1155.776559,14555.814462,3552.988522,-10436.903782
1155.776878,16624.272307,-222.061783,-10807.006753
1155.777197,16471.053207,-6439.791695,-6439.791695
1155.777515,11491.432470,-11695.253884,-8586.388927
1155.777834,6358.592633,-9474.636058,-7550.100608
1155.778153,919.314598,-7846.182985,3034.844362
1155.778472,-3983.696590,-11473.192101,14952.160028
1155.778790,-10955.165621,-10732.986159,24648.857869
1155.779109,-14709.033562,-5995.668130,31902.876100
1155.779428,-16777.491406,2220.617826,32495.040854
1155.779747,-14096.157163,9474.636058,26573.393318
1155.780065,-7277.907231,9696.697840,19837.519246
1155.780384,-2681.334243,14952.160028,12953.603985
1155.780703,5056.230287,10362.883188,8290.306550
1155.781022,8886.707777,11621.233289,-2664.741391
1155.781341,13789.718964,5625.565159,-11103.089130
1155.781659,14172.766713,2960.823768,-9178.553681
1155.781978,11031.775171,-5329.482782,-8364.327145
1155.782297,8810.098227,-8142.265362,-2664.741391
1155.782616,1915.238745,-8216.285956,-5329.482782
1155.782934,-1762.019645,-6661.853478,3108.864956
1155.783253,-5898.935335,-11621.233289,18061.024985
1155.783572,-12334.137518,-8216.285956,26943.496289
1155.783891,-15168.690860,-5403.503377,34123.493926
1155.784210,-19382.216099,3552.988522,28201.846390
1155.784528,-12027.699319,6661.853478,30348.443622
1155.784847,-6128.763984,10066.800811,19097.313304
1155.785166,919.314598,16506.592507,14211.954086
1155.785485,4213.525239,11399.171507,5107.421000
1155.785803,10495.508323,12731.542202,-2072.576638
1155.786122,13253.452115,4885.359217,-8660.409521
1155.786441,14479.204912,888.247130,-7772.162391
1155.786760,11874.480219,-5921.647536,-5477.523971
1155.787078,7660.954980,-7105.977043,-4367.215058
1155.787397,4673.182538,-8438.347739,-4293.194464
1155.787716,-1302.362347,-6957.935855,7105.977043
1155.788035,-5132.839837,-9844.739029,20577.725188
1155.788354,-11414.822920,-9696.697840,28349.887579
1155.788672,-14096.157163,-5255.462188,32717.102636
1155.788991,-16088.005458,2590.720797,29904.320057
1155.789310,-9959.241474,6883.915261,28794.011144
1155.789629,-4136.915689,10807.006753,24648.857869
1155.789947,4519.963438,9992.780217,12657.521608
1155.790266,9729.412825,15692.365970,2516.700203
1155.790585,14249.376263,9474.636058,-6735.874072
1155.790904,16471.053207,5477.523971,-13397.727550
1155.791223,17543.586904,-2072.576638,-8512.368333
1155.791541,13483.280765,-5773.606348,-6661.853478
1155.791860,8733.488677,-8512.368333,-4663.297435
1155.792179,2834.553343,-5847.626942,-4367.215058
1155.792498,-919.314598,-8290.306550,8068.244768
1155.792816,-5669.106685,-14211.954086,25315.043216
1155.793135,-11108.384721,-12805.562797,31310.711347
1155.793454,-16164.615008,-5921.647536,32272.979071
1155.793773,-15628.348159,3404.947333,28868.031738
1155.794091,-12027.699319,8956.491898,24648.857869
1155.794410,-1762.019645,10214.842000,22798.343014
1155.794729,3753.867940,12879.583391,12953.603985
1155.795048,7048.078582,10288.862594,74.020594
1155.795367,11108.384721,10955.047942,-10066.800811
1155.795685,14402.595362,6143.709319,-12879.583391
1155.796004,13789.718964,-2442.679609,-11695.253884
1155.796323,10189.070123,-7179.997637,-9104.533087
1155.796642,4596.572988,-9178.553681,-4959.379811
1155.796960,-689.485948,-8438.347739,-1110.308913
1155.797279,-4060.306139,-11103.089130,10732.986159
1155.797598,-8120.612279,-11843.295072,23464.528361
1155.797917,-13789.718964,-9770.718434,28794.011144
1155.798236,-16624.272307,-3478.967927,29608.237680
1155.798554,-18079.853753,4293.194464,27387.619854
1155.798873,-13253.452115,6957.935855,26055.249158
1155.799192,-4060.306139,4219.173869,19541.436869
1155.799511,4060.306139,16062.468941,6809.894666
1155.799829,7354.516781,13397.727550,0.000000
1155.800148,11261.603821,10955.047942,-5921.647536
1155.800467,14785.643111,4293.194464,-9178.553681
1155.800786,13713.109414,-962.267725,-9030.512492
1155.801104,11031.775171,-6069.688724,-6883.915261
1155.801423,6741.640382,-5255.462188,-5403.503377
1155.801742,3294.210641,-8068.244768,1480.411884
1155.802061,-919.314598,-8734.430116,10436.903782
1155.802380,-4596.572988,-15026.180623,25241.022622
1155.802698,-11721.261119,-6957.935855,28423.908173
1155.803017,-14632.424012,-0.000000,30718.546593
1155.803336,-14325.985813,5477.523971,26573.393318
1155.803655,-7737.564530,9030.512492,23020.404796
1155.803973,-1608.800546,7031.956449,19837.519246
1155.804292,5745.716235,14656.077652,7031.956449
1155.804611,7584.345430,10658.965565,-2442.679609
1155.804930,12257.527968,6069.688724,-9030.512492
1155.805249,14938.862211,370.102971,-8142.265362
1155.805567,13483.280765,-3997.112087,-5033.400406
1155.805886,11491.432470,-8882.471304,-3849.070898
1155.806205,6665.030833,-7179.997637,-2294.638420
1155.806524,3140.991542,-6587.832884,4219.173869
1155.806842,-1608.800546,-8290.306550,15840.407159
1155.807161,-4826.401637,-5699.585753,25907.207970
1155.807480,-10572.117872,-4885.359217,26499.372724
1155.807799,-14402.595362,2886.803174,27609.681637
1155.808117,-13023.623466,7105.977043,21391.951724
1155.808436,-9039.926876,9252.574275,18505.148550
1155.808755,-612.876398,8512.368333,14137.933492
1155.809074,4060.306139,9770.718434,7031.956449
1155.809393,8427.050478,7328.038826,-1036.288319
1155.809711,9499.584175,4737.318029,-6217.729913
1155.810030,12027.699319,-222.061783,-7179.997637
1155.810349,10495.508323,-2886.803174,-5477.523971
1155.810668,7507.735880,-9696.697840,-1480.411884
1155.810986,3983.696590,-7105.977043,814.226536
1155.811305,-153.219100,-5551.544565,6735.874072
1155.811624,-3907.087040,-6365.771101,16802.674883
1155.811943,-9193.145976,-6143.709319,23686.590144
1155.812262,-11031.775171,-1850.514855,25537.104999
1155.812580,-14632.424012,4885.359217,24130.713709
1155.812899,-11261.603821,7476.080014,19319.375086
1155.813218,-8197.221829,9474.636058,15026.180623
1155.813537,0.000000,8364.327145,13767.830521
1155.813855,1838.629195,6291.750507,7105.977043
1155.814174,6358.592633,3256.906145,1406.391290
1155.814493,9039.926876,1480.411884,-4959.379811
1155.814812,10572.117872,-2960.823768,-5329.482782
1155.815130,10035.851024,-7031.956449,-4959.379811
1155.815449,6741.640382,-7698.141797,-888.247130
1155.815768,3447.429741,-5477.523971,2960.823768
1155.816087,-306.438199,-5773.606348,6587.832884
1155.816406,-4060.306139,-2442.679609,15248.242405
1155.816724,-7354.516781,-1480.411884,23686.590144
1155.817043,-9039.926876,222.061783,27313.599260
1155.817362,-11568.042020,5477.523971,23390.507767
1155.817681,-7890.783629,5995.668130,19023.292709
1155.817999,-2834.553343,8438.347739,16210.510130
1155.818318,4213.525239,7105.977043,10140.821405
1155.818637,8120.612279,4367.215058,4589.276840
1155.818956,10572.117872,3997.112087,-3330.926739
1155.819275,12563.966167,4219.173869,-6365.771101
1155.819593,13100.233016,-2294.638420,-7254.018232
1155.819912,10878.556072,-4959.379811,-3108.864956
1155.820231,8273.831378,-9178.553681,2516.700203
1155.820550,2374.896044,-6735.874072,5033.400406
1155.820868,-1149.143247,-6365.771101,14359.995275
1155.821187,-5592.497135,-5477.523971,21465.972318
1155.821506,-8350.440928,-2738.761985,28201.846390
1155.821825,-9652.803275,1554.432478,25833.187376
1155.822143,-8963.317327,8882.471304,19245.354492
1155.822462,-4213.525239,6217.729913,15988.448347
1155.822781,-842.705048,12287.418637,9548.656652
1155.823100,4290.134789,6735.874072,7994.224174
1155.823419,5515.887586,5255.462188,3330.926739
1155.823737,7814.174080,-1480.411884,-1702.473667
1155.824056,8350.440928,-222.061783,-3256.906145
1155.824375,9039.926876,-4811.338623,-2516.700203
1155.824694,6665.030833,-5551.544565,-444.123565
1155.825012,3294.210641,-5625.565159,1258.350101
1155.825331,-2374.896044,-5921.647536,7476.080014
1155.825650,-6358.592633,-5107.421000,15544.324782
1155.825969,-9499.584175,-3775.050304,21614.013506
1155.826288,-11721.261119,-1702.473667,26055.249158
1155.826606,-12487.356617,1332.370696,26573.393318
1155.826925,-10342.289223,5329.482782,21317.931130
1155.827244,-6971.469032,7920.203579,15618.345376
1155.827563,153.219100,6661.853478,11399.171507
1155.827881,3600.648841,9474.636058,3256.906145
1155.828200,7277.907231,3775.050304,740.205942
1155.828519,7277.907231,1332.370696,-3923.091493
1155.828838,9346.365076,-1924.535449,-3701.029710
1155.829157,10418.898773,-5625.565159,-1554.432478
1155.829475,8503.660028,-5921.647536,-962.267725
1155.829794,5362.668486,-7254.018232,2294.638420
1155.830113,-459.657299,-3997.112087,7550.100608
1155.830432,-4519.963438,-3330.926739,17468.860231
1155.830750,-6818.249932,-3775.050304,22354.219448
1155.831069,-10112.460574,-2368.659014,25537.104999
1155.831388,-9806.022374,2886.803174,26277.310941
1155.831707,-6511.811733,7772.162391,20725.766376
1155.832025,-2221.676944,7550.100608,14730.098246
1155.832344,3524.039291,8734.430116,9104.533087
1155.832663,9193.145976,5921.647536,4811.338623
1155.832982,10878.556072,4959.379811,-2368.659014
1155.833301,13330.061665,2368.659014,-3404.947333
1155.833619,11951.089769,222.061783,-6513.812290
1155.833938,10342.289223,-2812.782580,-4367.215058
1155.834257,7277.907231,-5255.462188,-1406.391290
1155.834576,919.314598,-5107.421000,2886.803174
1155.834894,-2987.772442,-9474.636058,11621.233289
1155.835213,-9576.193725,-8290.306550,19097.313304
1155.835532,-12027.699319,-6883.915261,26351.331535
1155.835851,-12793.794817,-2664.741391,29830.299463
1155.836170,-11108.384721,4885.359217,25315.043216
1155.836488,-7354.516781,4515.256246,17690.922014
1155.836807,-1991.848295,9622.677246,11177.109724
1155.837126,4060.306139,9770.718434,6735.874072
1155.837445,8886.707777,8142.265362,518.144159
1155.837764,10418.898773,3849.070898,-6291.750507
1155.838082,11184.994271,1702.473667,-4663.297435
1155.838401,10265.679673,-962.267725,-5625.565159
1155.838720,8350.440928,-3404.947333,-3404.947333
1155.839039,4596.572988,-3627.009116,0.000000
1155.839358,1302.362347,-4515.256246,6883.915261
1155.839677,-2451.505594,-4885.359217,12879.583391
1155.839995,-8427.050478,-4441.235652,19319.375086
1155.840314,-9652.803275,-5551.544565,27239.578666
1155.840633,-12793.794817,-1998.556043,26055.249158
1155.840952,-11261.603821,3330.926739,24574.837274
1155.841271,-5669.106685,3997.112087,19393.395680
1155.841589,-1608.800546,7476.080014,10510.924376
1155.841908,4596.572988,6809.894666,5773.606348
1155.842227,8656.879127,7550.100608,-370.102971
1155.842546,10955.165621,4367.215058,-5551.544565
1155.842865,11951.089769,1480.411884,-5033.400406
1155.843183,9806.022374,-1480.411884,-5329.482782
1155.843502,7814.174080,-5995.668130,-1702.473667
1155.843821,4979.620737,-7328.038826,3108.864956
1155.844140,459.657299,-5477.523971,6957.935855
1155.844459,-3830.477490,-5625.565159,15396.283594
1155.844778,-9499.584175,-4441.235652,19319.375086
1155.845096,-11108.384721,-3034.844362,26943.496289
1155.845415,-12793.794817,1258.350101,25463.084405
1155.845734,-12257.527968,4367.215058,21095.869347
1155.846053,-6588.421283,4441.235652,17542.880825
1155.846372,-2298.286494,11473.192101,10807.006753
1155.846690,5056.230287,4737.318029,6513.812290
1155.847009,8810.098227,3627.009116,-222.061783
1155.847328,11951.089769,2072.576638,-1776.494261
1155.847647,11568.042020,-962.267725,-3182.885551
1155.847966,11874.480219,-1998.556043,-4145.153275
1155.848285,9652.803275,-1110.308913,-814.226536
1155.848603,6435.202183,-2368.659014,2072.576638
1155.848922,1762.019645,-1332.370696,8438.347739
1155.849241,-2987.772442,-2146.597232,16876.695478
1155.849560,-6511.811733,-1998.556043,20799.786970
1155.849879,-9116.536426,-370.102971,24204.734303
1155.850197,-10878.556072,2146.597232,24574.837274
1155.850516,-7201.297681,2738.761985,21762.054695
1155.850835,-4443.353888,4811.338623,13915.871710
1155.851154,1302.362347,4885.359217,10214.842000
1155.851473,4136.915689,1628.453072,5773.606348
1155.851792,7967.393179,3701.029710,-1554.432478
1155.852110,9499.584175,962.267725,-962.267725
1155.852429,8810.098227,-740.205942,-2146.597232
1155.852748,7584.345430,-3552.988522,-666.185348
1155.853067,4979.620737,-1628.453072,1628.453072
1155.853386,3140.991542,-4293.194464,7846.182985
1155.853704,-612.876398,-1628.453072,11621.233289
1155.854023,-5132.839837,-1258.350101,15026.180623
1155.854342,-6818.249932,-2368.659014,20059.581028
1155.854661,-10648.727422,-0.000000,20725.766376
1155.854980,-9729.412825,2146.597232,20873.807564
1155.855299,-7277.907231,1258.350101,16432.571912
1155.855617,-4366.744339,4885.359217,12731.542202
1155.855936,459.657299,5107.421000,8882.471304
1155.856255,1532.190996,1702.473667,2664.741391
1155.856574,4979.620737,-962.267725,1776.494261
1155.856893,6971.469032,-814.226536,666.185348
1155.857211,7354.516781,-2812.782580,962.267725
1155.857530,6358.592633,-2664.741391,1554.432478
1155.857849,4979.620737,-740.205942,2886.803174
1155.858168,2757.943793,-2220.617826,6291.750507
1155.858487,-229.828649,-2220.617826,13397.727550
1155.858806,-3753.867940,148.041188,14952.160028
1155.859124,-6358.592633,2590.720797,16654.633695
1155.859443,-7737.564530,4663.297435,17246.798449
1155.859762,-6435.202183,5255.462188,16432.571912
1155.860081,-4136.915689,6291.750507,13397.727550
1155.860400,-1072.533697,4737.318029,7550.100608
1155.860718,2374.896044,4293.194464,2960.823768
1155.861037,4366.744339,-74.020594,1850.514855
1155.861356,6358.592633,-5921.647536,2664.741391
1155.861675,5822.325785,-7772.162391,5107.421000
1155.861994,6205.373534,-6661.853478,7105.977043
1155.862313,4979.620737,-4811.338623,5995.668130
1155.862631,4903.011187,-3627.009116,8808.450710
1155.862950,2145.067394,-370.102971,11547.212695
1155.863269,766.095498,2886.803174,12805.562797
1155.863588,-1532.190996,6365.771101,11547.212695
1155.863907,-2757.943793,8956.491898,11103.089130
1155.864225,-2374.896044,6291.750507,12287.418637
1155.864544,-1838.629195,4219.173869,11695.253884
1155.864863,-842.705048,-0.000000,10288.862594
1155.865182,536.266849,-2516.700203,6735.874072
1155.865501,2681.334243,-3923.091493,4441.235652
1155.865820,3677.258390,-3997.112087,3552.988522
1155.866138,4060.306139,-4441.235652,6069.688724
1155.866457,3370.820191,-3997.112087,8142.265362
1155.866776,1455.581446,-3330.926739,8216.285956
1155.867095,689.485948,-888.247130,11547.212695
1155.867414,0.000000,518.144159,13619.789333
1155.867732,-383.047749,3997.112087,14730.098246
1155.868051,-612.876398,5477.523971,14730.098246
1155.868370,-919.314598,6957.935855,12953.603985
1155.868689,-842.705048,7772.162391,10066.800811
1155.869008,612.876398,6809.894666,7328.038826
1155.869327,2145.067394,5033.400406,4811.338623
1155.869645,2911.162892,2516.700203,2664.741391
1155.869964,2681.334243,222.061783,888.247130
1155.870283,1455.581446,-3478.967927,2072.576638
1155.870602,306.438199,-6809.894666,5181.441594
1155.870921,-1608.800546,-7920.203579,9400.615463
1155.871239,-3294.210641,-8512.368333,14285.974681
1155.871558,-4673.182538,-6143.709319,16210.510130
1155.871877,-5132.839837,-3552.988522,18505.148550
1155.872196,-5439.278036,-74.020594,19541.436869
1155.872515,-4519.963438,2812.782580,18209.066173
1155.872834,-2834.553343,6513.812290,15248.242405
1155.873152,-612.876398,10214.842000,10066.800811
1155.873471,2911.162892,11547.212695,6587.832884
1155.873790,5362.668486,10214.842000,2294.638420
1155.874109,6818.249932,6661.853478,-1480.411884
1155.874428,7048.078582,2072.576638,-2590.720797
1155.874746,6818.249932,-1998.556043,-1406.391290
1155.875065,4903.011187,-5477.523971,740.205942
1155.875384,2374.896044,-7254.018232,3552.988522
1155.875703,-1608.800546,-8586.388927,8290.306550
1155.876022,-4290.134789,-10066.800811,15544.324782
1155.876340,-7737.564530,-8808.450710,21243.910535
1155.876659,-8120.612279,-5255.462188,24352.775492
1155.876978,-7967.393179,-740.205942,24944.940245
1155.877297,-5209.449386,5921.647536,22946.384202
1155.877616,-1225.752797,9252.574275,18727.210333
1155.877935,2451.505594,12435.459826,11399.171507
1155.878253,6894.859482,12731.542202,3701.029710
1155.878572,10725.336972,10362.883188,-4441.235652
1155.878891,12563.966167,6661.853478,-8290.306550
1155.879210,12410.747068,370.102971,-7846.182985
1155.879529,10112.460574,-6217.729913,-3775.050304
1155.879847,5592.497135,-10362.883188,0.000000
1155.880166,1991.848295,-12139.377449,4663.297435
1155.880485,-4749.792088,-12361.439231,11769.274478
1155.880804,-7814.174080,-11769.274478,21836.075289
1155.881123,-11951.089769,-9326.594869,25537.104999
1155.881442,-12257.527968,-4071.132681,27979.784608
1155.881760,-10878.556072,1776.494261,28645.969955
1155.882079,-6665.030833,7402.059420,23612.569550
1155.882398,-2911.162892,8956.491898,14359.995275
1155.882717,3064.381992,12435.459826,8586.388927
1155.883036,7354.516781,11843.295072,-592.164754
1155.883354,10955.165621,11029.068536,-9474.636058
1155.883673,13406.671215,4441.235652,-11399.171507
1155.883992,12257.527968,-2442.679609,-6957.935855
1155.884311,9346.365076,-5773.606348,-4293.194464
1155.884630,4903.011187,-5773.606348,-2960.823768
1155.884949,842.705048,-8660.409521,4071.132681
1155.885267,-3140.991542,-10362.883188,14804.118840
1155.885586,-9269.755526,-11843.295072,24130.713709
1155.885905,-12717.185267,-8586.388927,26795.455100
1155.886224,-13406.671215,-2072.576638,28868.031738
1155.886543,-11491.432470,5033.400406,25907.207970
1155.886861,-7124.688131,7105.977043,22798.343014
1155.887180,-2451.505594,14211.954086,13545.768739
1155.887499,2145.067394,15914.427753,6735.874072
1155.887818,7277.907231,12287.418637,-2812.782580
1155.888137,12027.699319,9104.533087,-7031.956449
1155.888456,13023.623466,5403.503377,-12065.356855
1155.888774,12793.794817,-4959.379811,-7402.059420
1155.889093,9652.803275,-9474.636058,-1332.370696
1155.889412,5898.935335,-11325.150913,592.164754
1155.889731,766.095498,-12139.377449,8068.244768
1155.890050,-4213.525239,-11695.253884,17246.798449
1155.890368,-8350.440928,-9696.697840,27239.578666
1155.890687,-11951.089769,-5403.503377,28201.846390
1155.891006,-14172.766713,1628.453072,27757.722825
1155.891325,-10572.117872,7846.182985,28423.908173
1155.891644,-4903.011187,14137.933492,19837.519246
1155.891963,1378.971896,15470.304188,13693.809927
1155.892281,6511.811733,13545.768739,5403.503377
1155.892600,11644.651570,13989.892304,-4663.297435
1155.892919,12870.404366,6661.853478,-11103.089130
1155.893238,12947.013916,-888.247130,-9474.636058
1155.893557,11031.775171,-9474.636058,-3552.988522
1155.893875,7354.516781,-10584.944971,-1184.329507
1155.894194,3140.991542,-10140.821405,3552.988522
1155.894513,-1455.581446,-11325.150913,13471.748144
1155.894832,-5132.839837,-11769.274478,24648.857869
1155.895151,-9422.974625,-7402.059420,30422.464216
1155.895470,-13023.623466,-1776.494261,31310.711347
1155.895788,-12410.747068,7105.977043,26795.455100
1155.896107,-6128.763984,15840.407159,22502.260637
1155.896426,-1149.143247,20503.704593,11621.233289
1155.896745,5056.230287,11103.089130,5107.421000
1155.897064,8733.488677,18875.251521,-6143.709319
1155.897382,12717.185267,9400.615463,-12213.398043
1155.897701,12410.747068,-1258.350101,-13027.624579
1155.898020,11721.261119,-11399.171507,-2812.782580
1155.898339,8044.002729,-17764.942608,2072.576638
1155.898658,1302.362347,-13471.748144,-444.123565
1155.898977,-2451.505594,-16580.613101,11177.109724
1155.899295,-3217.601092,-12065.356855,23242.466579
1155.899614,-7737.564530,-5403.503377,24722.878463
1155.899933,-10112.460574,444.123565,29756.278868
1155.900252,-11797.870669,9770.718434,23612.569550
1155.900571,-10189.070123,12583.501014,24722.878463
1155.900889,-6128.763984,12509.480420,15618.345376
1155.901208,-1455.581446,15026.180623,9992.780217
1155.901527,3140.991542,10732.986159,1628.453072
1155.901846,8044.002729,10362.883188,-9770.718434
1155.902165,10955.165621,5921.647536,-11399.171507
1155.902484,11031.775171,-9104.533087,-8216.285956
1155.902802,7737.564530,-11843.295072,-3923.091493
1155.903121,3524.039291,-14434.015869,74.020594
1155.903440,-1532.190996,-13397.727550,5477.523971
1155.903759,-5132.839837,-11843.295072,15692.365970
1155.904078,-7814.174080,-12805.562797,26203.290347
1155.904396,-11721.261119,-6365.771101,31088.649564
1155.904715,-13406.671215,2442.679609,29756.278868
1155.905034,-13176.842566,10436.903782,21910.095883
1155.905353,-6205.373534,17394.839637,16062.468941
1155.905672,76.609550,20651.745782,8290.306550
1155.905991,5209.449386,13471.748144,5181.441594
1155.906309,8886.707777,13693.809927,-3478.967927
1155.906628,14249.376263,8734.430116,-11843.295072
1155.906947,16777.491406,-1702.473667,-12065.356855
1155.907266,14709.033562,-11399.171507,-5921.647536
1155.907585,11261.603821,-13471.748144,-1332.370696
1155.907903,6052.154434,-14359.995275,-222.061783
1155.908222,995.924147,-13101.645173,8364.327145
1155.908541,-3217.601092,-15988.448347,20799.786970
1155.908860,-11797.870669,-11843.295072,25685.146187
1155.909179,-11644.651570,-4737.318029,34419.576303
1155.909498,-13253.452115,6957.935855,25833.187376
1155.909816,-10035.851024,18949.272115,20133.601622
1155.910135,-153.219100,18505.148550,16654.633695
1155.910454,5132.839837,21095.869347,9474.636058
1155.910773,10955.165621,18653.189738,2886.803174
1155.911092,13636.499864,12213.398043,-10732.986159
1155.911410,15015.471761,4219.173869,-14730.098246
1155.911729,15551.738609,-4589.276840,-9474.636058
1155.912048,11184.994271,-15396.283594,-2960.823768
1155.912367,6052.154434,-16136.489536,0.000000
1155.912686,919.314598,-14730.098246,1850.514855
1155.913004,-5056.230287,-13175.665768,13841.851115
1155.913323,-8733.488677,-14211.954086,27535.661042
1155.913642,-14709.033562,-6661.853478,33309.267390
1155.913961,-16394.443657,-444.123565,35159.782245
1155.914280,-16854.100956,13323.706956,26721.434506
1155.914599,-10189.070123,15988.448347,22132.157666
1155.914917,-3830.477490,21095.869347,15840.407159
1155.915236,2298.286494,16580.613101,7254.018232
1155.915555,10035.851024,18209.066173,-4885.359217
1155.915874,13789.718964,11843.295072,-13471.748144
1155.916193,15475.129060,1924.535449,-14211.954086
1155.916511,15551.738609,-6957.935855,-9622.677246
1155.916830,8350.440928,-14137.933492,-3182.885551
1155.917149,3447.429741,-14211.954086,-3478.967927
1155.917468,-2604.724693,-13249.686362,1480.411884
1155.917787,-7814.174080,-12583.501014,18579.169144
1155.918106,-11797.870669,-14285.974681,34197.514520
1155.918424,-16700.881856,-10362.883188,37010.297100
1155.918743,-18999.168350,-1036.288319,32346.999665
1155.919062,-18616.120601,11029.068536,27609.681637
1155.919381,-9269.755526,14211.954086,22132.157666
1155.919700,-1149.143247,19541.436869,16580.613101
1155.920018,4979.620737,20059.581028,5107.421000
1155.920337,13176.842566,18505.148550,-6513.812290
1155.920656,16547.662757,10807.006753,-17616.901420
1155.920975,21067.626195,1480.411884,-12065.356855
1155.921294,16777.491406,-11843.295072,-5255.462188
1155.921613,10035.851024,-15618.345376,-4145.153275
1155.921931,5132.839837,-13323.706956,-3775.050304
1155.922250,306.438199,-17912.983796,6217.729913
1155.922569,-3983.696590,-19393.395680,25611.125593
1155.922888,-10035.851024,-17024.736666,32495.040854
1155.923207,-15934.786358,-5403.503377,31384.731941
1155.923525,-13866.328514,7105.977043,29534.217086
1155.923844,-10801.946522,14878.139434,24130.713709
1155.924163,-842.705048,13915.871710,25018.960840
1155.924482,7507.735880,17987.004391,14211.954086
1155.924801,8656.879127,22206.178260,-3404.947333
1155.925120,16317.834107,13841.851115,-12287.418637
1155.925438,18233.072852,8956.491898,-16210.510130
1155.925757,18616.120601,-3034.844362,-12953.603985
1155.926076,13253.452115,-9474.636058,-10066.800811
1155.926395,5975.544884,-11399.171507,-6513.812290
1155.926714,536.266849,-10584.944971,0.000000
1155.927032,-5362.668486,-19763.498651,13175.665768
1155.927351,-8810.098227,-19911.539840,27831.743419
1155.927670,-16088.005458,-18949.272115,37158.338288
1155.927989,-18156.463303,-7105.977043,37306.379477
1155.928308,-18233.072852,4145.153275,29534.217086
1155.928627,-10342.289223,14434.015869,27831.743419
1155.928945,-2451.505594,16654.633695,17838.963202
1155.929264,3524.039291,19763.498651,5773.606348
1155.929583,10265.679673,21317.931130,-7994.224174
1155.929902,15398.519510,21910.095883,-18727.210333
1155.930221,17083.929605,5625.565159,-20207.622217
1155.930539,13789.718964,-5107.421000,-13619.789333
1155.930858,9116.536426,-13175.665768,-6735.874072
1155.931177,1378.971896,-15840.407159,-3701.029710
1155.931496,-1838.629195,-22946.384202,3849.070898
1155.931815,-8044.002729,-16580.613101,19541.436869
1155.932134,-8044.002729,-23316.487173,37972.564825
1155.932452,-14709.033562,-9696.697840,34789.679274
1155.932771,-13636.499864,1036.288319,30792.567187
1155.933090,-16777.491406,7402.059420,25907.207970
1155.933409,-8886.707777,10436.903782,27683.702231
1155.933728,-2757.943793,25167.002028,18505.148550
1155.934046,6281.983084,28053.805202,-1554.432478
1155.934365,10955.165621,27387.619854,-9400.615463
1155.934684,14862.252661,20799.786970,-18357.107362
1155.935003,17160.539155,2368.659014,-14434.015869
1155.935322,15551.738609,-8142.265362,-10510.924376
1155.935641,9193.145976,-15322.262999,-5699.585753
1155.935959,1838.629195,-16136.489536,-444.123565
1155.936278,-919.314598,-20725.766376,11695.253884
1155.936597,-7201.297681,-23908.651927,30792.567187
1155.936916,-8120.612279,-24574.837274,41969.676911
1155.937235,-12410.747068,-8882.471304,34937.720462
1155.937553,-12180.918418,5625.565159,24574.837274
1155.937872,-12717.185267,15470.304188,23464.528361
1155.938191,-2834.553343,17987.004391,24426.796086
1155.938500,2834.553343,24944.940245,13471.748144
1155.938818,8963.317327,26129.269753,0.000000
1155.939137,12257.527968,21614.013506,-14952.160028
1155.939456,17237.148705,14582.057057,-22206.178260
1155.939775,17237.148705,-4811.338623,-14952.160028
1155.940094,13789.718964,-15692.365970,-1184.329507
1155.940412,6358.592633,-18801.230927,-148.041188
1155.940731,2145.067394,-18727.210333,2146.597232
1155.941050,-2681.334243,-20725.766376,15914.427753
1155.941369,-5669.106685,-21984.116477,33161.226202
1155.941688,-9652.803275,-16580.613101,38786.791361
1155.942006,-11951.089769,148.041188,29090.093521
1155.942325,-11797.870669,11769.274478,23242.466579
1155.942644,-8656.879127,23094.425390,16136.489536
1155.942963,-1455.581446,18949.272115,20133.601622
1155.943281,4826.401637,20281.642811,7476.080014
1155.943600,9729.412825,21243.910535,-8808.450710
1155.943919,13559.890315,21984.116477,-19837.519246
1155.944238,13559.890315,7624.121203,-21984.116477
1155.944557,12257.527968,-7920.203579,-6143.709319
1155.944875,7048.078582,-18505.148550,-1184.329507
1155.945194,383.047749,-18135.045579,-4441.235652
1155.945513,-5439.278036,-20799.786970,5921.647536
1155.945832,-9193.145976,-21836.075289,19171.333898
1155.946151,-10878.556072,-23390.507767,38046.585419
1155.946469,-14172.766713,-13693.809927,39749.059085
1155.946788,-16164.615008,2072.576638,30422.464216
1155.947107,-13100.233016,14285.974681,20355.663405
1155.947426,-10265.679673,20429.683999,17912.983796
1155.947745,-2221.676944,20281.642811,9770.718434
1155.948063,6205.373534,27831.743419,-1702.473667
1155.948382,13713.109414,24870.919651,-12509.480420
1155.948701,15858.176809,18505.148550,-20577.725188
1155.949020,13330.061665,1406.391290,-18579.169144
1155.949339,11951.089769,-12509.480420,-4071.132681
1155.949657,6818.249932,-16876.695478,-814.226536
1155.949976,459.657299,-19097.313304,-3404.947333
1155.950295,-3370.820191,-19541.436869,6513.812290
1155.950614,-7354.516781,-17394.839637,24426.796086
1155.950933,-8656.879127,-24722.878463,40859.367998
1155.951251,-16777.491406,-10807.006753,38194.626607
1155.951570,-14249.376263,3478.967927,33161.226202
1155.951889,-11797.870669,17912.983796,21317.931130
1155.952208,-2911.162892,23538.548956,21021.848753
1155.952526,1608.800546,20577.725188,16876.695478
1155.952845,10112.460574,27091.537477,3775.050304
1155.953164,18079.853753,26721.434506,-11769.274478
1155.953483,19918.482948,15766.386565,-21688.034101
1155.953802,19612.044749,-2664.741391,-14804.118840
1155.954120,14325.985813,-16432.571912,-4367.215058
1155.954439,8963.317327,-19541.436869,0.000000
1155.954758,1302.362347,-18949.272115,-962.267725
1155.955077,-4596.572988,-20873.807564,11843.295072
1155.955396,-7354.516781,-21984.116477,29534.217086
1155.955714,-11184.994271,-19837.519246,41081.429781
1155.956033,-17390.367805,-8586.388927,37380.400071
1155.956352,-18003.244203,6809.894666,31976.896694
1155.956671,-13253.452115,16950.716072,22576.281231
1155.956990,-4596.572988,25759.166782,16284.530724
1155.957308,842.705048,21021.848753,8512.368333
1155.957627,6281.983084,22650.301825,-740.205942
1155.957946,12410.747068,24944.940245,-11917.315666
1155.958265,15628.348159,12287.418637,-22502.260637
1155.958584,18079.853753,-0.000000,-13397.727550
1155.958902,13789.718964,-9326.594869,-4515.256246
1155.959221,3677.258390,-14656.077652,-9326.594869
1155.959540,153.219100,-16284.530724,1850.514855
1155.959859,-6818.249932,-23982.672521,11029.068536
1155.960178,-10265.679673,-22058.137072,25611.125593
1155.960496,-13100.233016,-15766.386565,37232.358883
1155.960815,-18233.072852,-5995.668130,33975.452738
1155.961134,-16624.272307,7920.203579,29682.258274
1155.961453,-16088.005458,14063.912898,26573.393318
1155.961772,-4673.182538,21465.972318,23538.548956
1155.962090,919.314598,25092.981434,4737.318029
1155.962409,10572.117872,27831.743419,-6291.750507
1155.962728,14709.033562,22132.157666,-16284.530724
1155.963047,16700.881856,10955.047942,-20651.745782
1155.963365,18233.072852,-6217.729913,-10288.862594
1155.963684,14555.814462,-13693.809927,-814.226536
1155.964003,3753.867940,-15840.407159,-6735.874072
1155.964322,1608.800546,-17764.942608,2960.823768
1155.964641,-3983.696590,-22206.178260,15988.448347
1155.964959,-6741.640382,-23760.610738,29238.134709
1155.965278,-10189.070123,-16876.695478,34123.493926
1155.965597,-16088.005458,-1406.391290,31236.690752
1155.965916,-14402.595362,5477.523971,29090.093521
1155.966235,-10572.117872,18579.169144,23538.548956
1155.966553,1838.629195,19023.292709,24426.796086
1155.966872,5132.839837,25241.022622,6809.894666
1155.967191,12793.794817,24574.837274,-8882.471304
1155.967510,16854.100956,19393.395680,-21243.910535
1155.967829,20684.578446,10881.027347,-18357.107362
1155.968147,17160.539155,-10140.821405,-8808.450710
1155.968466,10648.727422,-10066.800811,-5773.606348
1155.968785,2604.724693,-15100.201217,-7402.059420
1155.969104,-1225.752797,-16136.489536,6587.832884
1155.969423,-5822.325785,-23908.651927,23464.528361
1155.969741,-11491.432470,-24500.816680,35529.885216
1155.970060,-12257.527968,-14508.036463,38786.791361
1155.970379,-17926.634653,-1702.473667,31680.814318
1155.970698,-11951.089769,10584.944971,25833.187376
1155.971017,-9806.022374,18875.251521,25981.228564
1155.971335,2374.896044,19985.560434,25018.960840
1155.971654,5515.887586,25685.146187,222.061783
1155.971973,14938.862211,28571.949361,-7920.203579
1155.972292,15934.786358,18727.210333,-19245.354492
1155.972611,18539.511052,2294.638420,-20207.622217
1155.972929,14555.814462,-10362.883188,-6513.812290
1155.973248,6665.030833,-18653.189738,-3552.988522
1155.973567,-689.485948,-16358.551318,-4811.338623
1155.973886,-2681.334243,-23982.672521,10362.883188
1155.974204,-9269.755526,-26055.249158,22872.363608
1155.974523,-7737.564530,-19985.560434,38416.688390
1155.974842,-15168.690860,-6809.894666,32643.082042
1155.975161,-13023.623466,2294.638420,33235.246796
1155.975480,-15475.129060,11473.192101,26721.434506
1155.975798,-5898.935335,18505.148550,20873.807564
1155.976117,-2681.334243,18727.210333,13915.871710
1155.976436,5898.935335,27905.764013,-3256.906145
1155.976755,11951.089769,26055.249158,-17320.819043
1155.977074,14325.985813,13101.645173,-23612.569550
1155.977392,14862.252661,-592.164754,-13989.892304
1155.977711,12257.527968,-14285.974681,-1036.288319
1155.978030,3524.039291,-14285.974681,-3923.091493
1155.978349,-919.314598,-17098.757260,-1258.350101
1155.978668,-5209.449386,-21539.992912,14211.954086
1155.978986,-7814.174080,-24796.899057,32050.917289
1155.979305,-9346.365076,-19467.416275,42191.738694
1155.979624,-14325.985813,-2886.803174,32421.020260
1155.979943,-12257.527968,7920.203579,26425.352129
1155.980262,-11031.775171,19245.354492,19689.478057
1155.980580,-1685.410096,19985.560434,17394.839637
1155.980899,3830.477490,23094.425390,8882.471304
1155.981218,10725.336972,27313.599260,-6587.832884
1155.981537,15168.690860,21984.116477,-18061.024985
1155.981856,19075.777900,12731.542202,-20799.786970
1155.982174,17696.806004,-4441.235652,-10214.842000
1155.982493,11721.261119,-14211.954086,-1924.535449
1155.982812,3983.696590,-17098.757260,-4367.215058
1155.983131,1225.752797,-20133.601622,6143.709319
1155.983450,-6128.763984,-23538.548956,17172.777854
1155.983768,-5898.935335,-21910.095883,35899.988187
1155.984087,-10342.289223,-14063.912898,39675.038491
1155.984406,-11874.480219,-0.000000,32939.164419
1155.984725,-10648.727422,11769.274478,25315.043216
1155.985043,-5669.106685,21021.848753,21910.095883
1155.985362,0.000000,24278.754898,14730.098246
1155.985681,4519.963438,21910.095883,2812.782580
1155.986000,11491.432470,25018.960840,-8512.368333
1155.986319,16394.443657,20133.601622,-20355.663405
1155.986637,18309.682402,6809.894666,-16728.654289
1155.986956,15934.786358,-11399.171507,-8512.368333
1155.987275,7354.516781,-19985.560434,-962.267725
1155.987594,1685.410096,-19911.539840,-5477.523971
1155.987913,-3907.087040,-20503.704593,11251.130318
1155.988231,-8656.879127,-22946.384202,22798.343014
1155.988550,-10265.679673,-21688.034101,40341.223839
1155.988869,-14249.376263,-10881.027347,40785.347404
1155.989188,-14709.033562,4663.297435,29978.340651
1155.989507,-12410.747068,15988.448347,23686.590144
1155.989825,-5286.058936,15766.386565,22280.198854
1155.990144,1762.019645,22280.198854,12953.603985
1155.990463,4903.011187,26795.455100,-222.061783
1155.990782,12334.137518,24796.899057,-9252.574275
1155.991101,14862.252661,16506.592507,-18357.107362
1155.991419,18079.853753,2886.803174,-17320.819043
1155.991738,13942.938064,-13101.645173,-6661.853478
1155.992057,3753.867940,-21095.869347,-2886.803174
1155.992376,-2221.676944,-17320.819043,-296.082377
1155.992695,-6128.763984,-22428.240043,6587.832884
1155.993013,-9039.926876,-22132.157666,27017.516883
1155.993332,-13483.280765,-19837.519246,40637.306216
1155.993651,-17160.539155,-11917.315666,40489.265027
1155.993970,-18539.511052,1554.432478,29386.175897
1155.994289,-15934.786358,16136.489536,24722.878463
1155.994607,-7967.393179,20651.745782,18875.251521
1155.994926,612.876398,22428.240043,10436.903782
1155.995245,7354.516781,34641.638086,-2664.741391
1155.995564,15781.567259,25315.043216,-10436.903782
1155.995882,14938.862211,11917.315666,-19467.416275
1155.996201,20837.797546,-2220.617826,-13545.768739
1155.996520,18999.168350,-12731.542202,-4367.215058
1155.996839,7814.174080,-19467.416275,-4663.297435
1155.997158,1838.629195,-19911.539840,518.144159
1155.997476,-3600.648841,-23020.404796,11843.295072
1155.997795,-7890.783629,-23316.487173,26351.331535
1155.998114,-10418.898773,-16876.695478,37898.544230
1155.998433,-17696.806004,-6217.729913,36270.091158
1155.998752,-14709.033562,2442.679609,33753.390955
1155.999070,-13253.452115,19319.375086,20059.581028
1155.999389,-2681.334243,18357.107362,22280.198854
1155.999708,1455.581446,21317.931130,14211.954086
1156.000027,6894.859482,23464.528361,-3256.906145
1156.000346,15092.081311,18431.127956,-10510.924376
1156.000664,19382.216099,13101.645173,-18505.148550
1156.000983,20684.578446,-4071.132681,-7920.203579
1156.001302,16547.662757,-15026.180623,-5107.421000
1156.001621,9116.536426,-15100.201217,-4885.359217
1156.001940,3907.087040,-14952.160028,-962.267725
1156.002258,-4826.401637,-16654.633695,9992.780217
1156.002577,-6128.763984,-19023.292709,30496.484810
1156.002896,-9576.193725,-15914.427753,39082.873738
1156.003215,-14249.376263,-4663.297435,31236.690752
1156.003534,-15475.129060,3330.926739,24426.796086
1156.003852,-10572.117872,14285.974681,23538.548956
1156.004171,-3217.601092,16136.489536,19689.478057
1156.004490,4903.011187,23538.548956,6735.874072
1156.004809,9806.022374,23538.548956,-4515.256246
1156.005127,14555.814462,18209.066173,-16802.674883
1156.005446,17083.929605,14434.015869,-21021.848753
1156.005765,18922.558801,-2590.720797,-9622.677246
1156.006084,12257.527968,-11251.130318,-5329.482782
1156.006403,3677.258390,-12435.459826,-10214.842000
1156.006721,-2911.162892,-15914.427753,592.164754
1156.007040,-10572.117872,-22650.301825,18209.066173
1156.007359,-9576.193725,-24648.857869,36640.194129
1156.007678,-15551.738609,-16432.571912,37084.317694
1156.007997,-15781.567259,-1184.329507,36714.214723
1156.008315,-17007.320056,4737.318029,30570.505405
1156.008634,-14019.547613,14878.139434,28571.949361
1156.008953,-3907.087040,13027.624579,19171.333898
1156.009272,1302.362347,32421.020260,0.000000
1156.009591,9039.926876,28719.990550,-6809.894666
1156.009909,12717.185267,19615.457463,-17320.819043
1156.010228,15015.471761,7550.100608,-19023.292709
1156.010547,15858.176809,-8660.409521,-4663.297435
1156.010866,8580.269578,-17468.860231,-4811.338623
1156.011185,2834.553343,-17024.736666,-3923.091493
1156.011503,-2528.115143,-21095.869347,7179.997637
1156.011822,-6665.030833,-23686.590144,22872.363608
1156.012141,-7277.907231,-24944.940245,40267.203245
1156.012460,-13330.061665,-10214.842000,39675.038491
1156.012779,-13176.842566,4219.173869,33161.226202
1156.013097,-12180.918418,13915.871710,20355.663405
1156.013416,-5439.278036,17394.839637,27091.537477
1156.013735,3830.477490,22428.240043,18579.169144
1156.014054,5745.716235,23316.487173,-1702.473667
1156.014373,13713.109414,21762.054695,-6217.729913
1156.014691,17696.806004,15026.180623,-22132.157666
1156.015010,19918.482948,-0.000000,-19171.333898
1156.015329,17543.586904,-12953.603985,-4589.276840
1156.015648,9806.022374,-17246.798449,-1332.370696
1156.015966,4673.182538,-14656.077652,-7624.121203
1156.016285,306.438199,-19615.457463,9104.533087
1156.016604,-5669.106685,-20725.766376,26277.310941
1156.016923,-5822.325785,-17690.922014,40267.203245
1156.017242,-12180.918418,-8586.388927,33383.287984
1156.017560,-13023.623466,3330.926739,27609.681637
1156.017879,-11031.775171,9326.594869,27609.681637
1156.018198,-6205.373534,17764.942608,19393.395680
1156.018517,459.657299,18801.230927,11843.295072
1156.018836,3524.039291,26795.455100,-1628.453072
1156.019154,11031.775171,22132.157666,-13545.768739
1156.019473,15245.300410,16506.592507,-19171.333898
1156.019792,15628.348159,-1850.514855,-15544.324782
1156.020111,9806.022374,-12879.583391,-4145.153275
1156.020430,4596.572988,-15396.283594,-5329.482782
1156.020748,-1378.971896,-14952.160028,-4293.194464
1156.021067,-7507.735880,-22872.363608,9474.636058
1156.021386,-11797.870669,-27461.640448,32198.958477
1156.021705,-12717.185267,-18949.272115,42413.800477
1156.022024,-13713.109414,-4811.338623,34419.576303
1156.022342,-16088.005458,8808.450710,25389.063811
1156.022661,-10725.336972,15618.345376,24130.713709
1156.022980,-3524.039291,24722.878463,16432.571912
1156.023299,1532.190996,24944.940245,4367.215058
1156.023618,5286.058936,26351.331535,-4663.297435
1156.023936,9729.412825,26721.434506,-17246.798449
1156.024255,16854.100956,10436.903782,-19615.457463
1156.024574,14019.547613,-5033.400406,-15396.283594
1156.024893,11184.994271,-16876.695478,0.000000
1156.025212,2451.505594,-23168.445985,-2442.679609
1156.025530,1378.971896,-18875.251521,6217.729913
1156.025849,-2604.724693,-21021.848753,21614.013506
1156.026168,-1685.410096,-22280.198854,43450.088795
1156.026487,-4673.182538,-5773.606348,41747.615129
1156.026805,-842.705048,12287.418637,28201.846390
1156.027124,-612.876398,21095.869347,17838.963202
1156.027443,3370.820191,27387.619854,11029.068536
1156.027762,9652.803275,26055.249158,7550.100608
1156.028081,12104.308868,29016.072926,-8808.450710
1156.028399,16164.615008,23686.590144,-15100.201217
1156.028718,17007.320056,14582.057057,-23464.528361
1156.029037,16164.615008,-3256.906145,-16950.716072
1156.029356,11951.089769,-19023.292709,-3108.864956
1156.029675,6511.811733,-23760.610738,6883.915261
1156.029993,995.924147,-21910.095883,8364.327145
1156.030312,-2374.896044,-18209.066173,19393.395680
1156.030631,-1762.019645,-11621.233289,40193.182651
1156.030950,-3830.477490,-7254.018232,43598.129984
1156.031269,-2374.896044,7772.162391,35159.782245
1156.031587,153.219100,25167.002028,20725.766376
1156.031906,-1838.629195,29386.175897,7550.100608
1156.032225,3907.087040,28423.908173,7105.977043
1156.032544,5669.106685,30200.402434,-4811.338623
1156.032863,8503.660028,22354.219448,-10214.842000
1156.033181,7660.954980,14730.098246,-19689.478057
1156.033500,4519.963438,-0.000000,-15618.345376
1156.033819,4903.011187,-13545.768739,2516.700203
1156.034138,-1378.971896,-27905.764013,9548.656652
1156.034457,-5362.668486,-29682.258274,15766.386565
1156.034775,-3064.381992,-22502.260637,28423.908173
1156.035094,-3294.210641,-11103.089130,32495.040854
1156.035413,-4366.744339,-5995.668130,37010.297100
1156.035732,-5669.106685,6883.915261,36714.214723
1156.036051,-1762.019645,18579.169144,20873.807564
1156.036369,-2068.457845,38564.729578,3849.070898
1156.036688,4749.792088,33531.329173,74.020594
1156.037007,3907.087040,28275.866984,-9770.718434
1156.037326,6052.154434,23464.528361,-17172.777854
1156.037645,8350.440928,4737.318029,-11843.295072
1156.037963,8120.612279,-7031.956449,-5699.585753
1156.038282,1991.848295,-19245.354492,-4071.132681
1156.038601,-2451.505594,-31310.711347,10807.006753
1156.038920,-2911.162892,-33827.411549,23982.672521
1156.039239,-1149.143247,-24500.816680,35825.967593
1156.039558,306.438199,-14804.118840,35307.823433
1156.039877,-842.705048,-444.123565,33161.226202
1156.040196,0.000000,10584.944971,29238.134709
1156.040514,0.000000,25537.104999,20133.601622
1156.040833,2681.334243,36566.173535,3404.947333
1156.041152,4060.306139,33161.226202,-8586.388927
1156.041471,5592.497135,27313.599260,-13027.624579
1156.041790,6281.983084,16210.510130,-17394.839637
1156.042109,7277.907231,-2368.659014,-11769.274478
1156.042428,6971.469032,-16802.674883,-222.061783
1156.042746,3983.696590,-22872.363608,5033.400406
1156.043065,306.438199,-32050.917289,11473.192101
1156.043384,-919.314598,-32124.937883,24426.796086
1156.043703,2834.553343,-22724.322419,32198.958477
1156.044022,2681.334243,-4145.153275,29904.320057
1156.044341,1225.752797,6365.771101,23686.590144
1156.044660,4213.525239,15248.242405,22650.301825
1156.044978,919.314598,23242.466579,12805.562797
1156.045297,3064.381992,29386.175897,-2812.782580
1156.045616,6511.811733,30866.587781,-5773.606348
1156.045935,5592.497135,19171.333898,-16802.674883
1156.046254,6741.640382,3034.844362,-15248.242405
1156.046573,7967.393179,-6661.853478,-2442.679609
1156.046892,7814.174080,-14508.036463,5403.503377
1156.047211,4979.620737,-20947.828159,8290.306550
1156.047529,3830.477490,-23612.569550,23094.425390
1156.047848,3830.477490,-17690.922014,25907.207970
1156.048167,5592.497135,-3182.885551,19985.560434
1156.048486,3907.087040,7031.956449,17838.963202
1156.048805,2451.505594,14952.160028,12361.439231
1156.049124,2145.067394,17024.736666,12287.418637
1156.049443,-2298.286494,21317.931130,-5403.503377
1156.049761,0.000000,17616.901420,-2368.659014
1156.050080,-2298.286494,13545.768739,518.144159
1156.050399,1072.533697,370.102971,-1110.308913
1156.050718,153.219100,-5773.606348,3552.988522
1156.051037,2604.724693,-7105.977043,12287.418637
1156.051356,4596.572988,-6365.771101,14656.077652
1156.051675,3753.867940,-4071.132681,14582.057057
1156.051993,5592.497135,-2590.720797,16284.530724
1156.052312,5975.544884,2738.761985,14804.118840
1156.052631,4673.182538,8660.409521,4219.173869
1156.052950,1302.362347,8142.265362,6291.750507
1156.053269,-2911.162892,-0.000000,12805.562797
1156.053588,-4596.572988,4145.153275,10955.047942
1156.053907,-4596.572988,7179.997637,8216.285956
1156.054225,-3677.258390,6513.812290,11547.212695
1156.054544,-2451.505594,3552.988522,12361.439231
1156.054863,995.924147,6365.771101,9474.636058
1156.055182,2145.067394,7105.977043,7624.121203
1156.055501,5592.497135,7328.038826,12361.439231
1156.055820,5822.325785,4589.276840,10955.047942
1156.056139,6128.763984,-1036.288319,12139.377449
1156.056458,5669.106685,-6143.709319,13767.830521
1156.056776,4903.011187,-5181.441594,11991.336260
1156.057095,4290.134789,-1480.411884,8882.471304
1156.057414,3370.820191,2442.679609,8364.327145
1156.057733,2068.457845,6365.771101,8290.306550
1156.058052,153.219100,9770.718434,8808.450710
1156.058371,0.000000,10066.800811,11695.253884
1156.058690,-536.266849,9622.677246,11843.295072
1156.059008,536.266849,7698.141797,11695.253884
1156.059327,1991.848295,2812.782580,10881.027347
1156.059646,4060.306139,-592.164754,13175.665768
1156.059965,6358.592633,-3108.864956,15100.201217
1156.060284,6741.640382,-4071.132681,12583.501014
1156.060603,7277.907231,-4219.173869,8956.491898
1156.060922,8350.440928,-740.205942,8882.471304
1156.061240,8197.221829,5181.441594,2590.720797
1156.061559,7431.126331,10066.800811,962.267725
1156.061878,4903.011187,11399.171507,2960.823768
1156.062197,2145.067394,9400.615463,5551.544565
1156.062516,-1608.800546,5625.565159,8512.368333
1156.062835,-1838.629195,1332.370696,13397.727550
1156.063154,-2757.943793,-666.185348,13989.892304
1156.063473,-1991.848295,-1998.556043,12287.418637
1156.063791,-1991.848295,-3701.029710,13101.645173
1156.064110,689.485948,-2516.700203,13471.748144
1156.064429,2298.286494,888.247130,11991.336260
1156.064748,4290.134789,2738.761985,9178.553681
1156.065067,5592.497135,5181.441594,6883.915261
1156.065386,7124.688131,6217.729913,3108.864956
1156.065705,7660.954980,6957.935855,1184.329507
1156.066023,6818.249932,5033.400406,1184.329507
1156.066342,5209.449386,2664.741391,1924.535449
1156.066661,2528.115143,1406.391290,4367.215058
1156.066980,-612.876398,-0.000000,6143.709319
1156.067299,-2451.505594,-1406.391290,9696.697840
1156.067618,-4443.353888,-2294.638420,12361.439231
1156.067937,-4136.915689,-2368.659014,13249.686362
1156.068255,-4060.306139,-1258.350101,15618.345376
1156.068574,-2298.286494,1184.329507,16728.654289
1156.068893,229.828649,2886.803174,14952.160028
1156.069212,3447.429741,3849.070898,12361.439231
1156.069531,6588.421283,3404.947333,8512.368333
1156.069850,9422.974625,3330.926739,5773.606348
1156.070169,10878.556072,2664.741391,2442.679609
1156.070488,11414.822920,3034.844362,74.020594
1156.070806,11031.775171,3478.967927,-148.041188
1156.071125,8580.269578,4811.338623,888.247130
1156.071444,5745.716235,3552.988522,4367.215058
1156.071763,1915.238745,2294.638420,7179.997637
1156.072082,-1455.581446,1628.453072,11177.109724
1156.072401,-3447.429741,296.082377,14582.057057
1156.072720,-4749.792088,-666.185348,16802.674883
1156.073038,-4443.353888,-1258.350101,20059.581028
1156.073357,-3830.477490,-1850.514855,19837.519246
1156.073676,-1685.410096,-518.144159,17542.880825
1156.073995,1225.752797,1332.370696,13323.706956
1156.074314,3983.696590,3108.864956,9696.697840
1156.074633,5822.325785,4959.379811,5403.503377
1156.074952,8197.221829,7476.080014,2368.659014
1156.075270,9193.145976,8808.450710,370.102971
1156.075589,8810.098227,8512.368333,814.226536
1156.075908,7124.688131,6069.688724,3330.926739
1156.076227,4979.620737,4293.194464,5551.544565
1156.076546,2451.505594,2812.782580,8290.306550
1156.076865,0.000000,1036.288319,12435.459826
1156.077184,-2221.676944,-148.041188,14730.098246
1156.077503,-3370.820191,-148.041188,17320.819043
1156.077821,-3907.087040,740.205942,17246.798449
1156.078140,-4060.306139,1850.514855,16654.633695
1156.078459,-1532.190996,2886.803174,15396.283594
1156.078778,919.314598,4663.297435,11621.233289
1156.079097,2987.772442,6069.688724,7624.121203
1156.079416,4060.306139,7550.100608,3256.906145
1156.079735,7124.688131,6291.750507,3627.009116
1156.080053,8810.098227,4145.153275,3404.947333
1156.080372,7584.345430,4367.215058,3034.844362
1156.080691,7124.688131,2886.803174,5699.585753
1156.081010,4979.620737,5255.462188,7179.997637
1156.081329,3830.477490,3701.029710,8808.450710
1156.081648,1455.581446,1332.370696,10584.944971
1156.081967,-919.314598,1332.370696,13249.686362
1156.082285,-1991.848295,888.247130,13989.892304
1156.082604,-2068.457845,1702.473667,13101.645173
1156.082923,-1838.629195,-666.185348,13545.768739
1156.083242,-1455.581446,-1924.535449,12879.583391
1156.083561,-1149.143247,-296.082377,8216.285956
1156.083880,-612.876398,740.205942,7105.977043
1156.084199,2068.457845,-0.000000,8216.285956
1156.084517,3140.991542,2220.617826,6661.853478
1156.084836,6128.763984,888.247130,7402.059420
1156.085155,4903.011187,2886.803174,6735.874072
1156.085474,4366.744339,3627.009116,8808.450710
1156.085793,4366.744339,2442.679609,8364.327145
1156.086112,2834.553343,2590.720797,9104.533087
1156.086431,2374.896044,-962.267725,9918.759623
1156.086750,1455.581446,962.267725,9474.636058
1156.087068,1455.581446,814.226536,10288.862594
1156.087387,1685.410096,-1480.411884,11103.089130
1156.087706,383.047749,-2664.741391,11251.130318
1156.088025,-383.047749,-2368.659014,10288.862594
1156.088344,-919.314598,740.205942,8882.471304
1156.088663,153.219100,1406.391290,8586.388927
1156.088982,1225.752797,1258.350101,8216.285956
1156.089300,2145.067394,1184.329507,8142.265362
1156.089619,2604.724693,2590.720797,6143.709319
1156.089938,2451.505594,3108.864956,6439.791695
1156.090257,1915.238745,1110.308913,8216.285956
1156.090576,1149.143247,-0.000000,9474.636058
1156.090895,306.438199,-0.000000,9770.718434
1156.091214,459.657299,1110.308913,10584.944971
1156.091532,1608.800546,1628.453072,11325.150913
1156.091851,2451.505594,1702.473667,11917.315666
1156.092170,3064.381992,2146.597232,10881.027347
1156.092489,3677.258390,3552.988522,9770.718434
1156.092808,4060.306139,3256.906145,9918.759623
1156.093127,4060.306139,2812.782580,9770.718434
1156.093446,5515.887586,2960.823768,8808.450710
1156.093765,6894.859482,3478.967927,7698.141797
1156.094083,7277.907231,4589.276840,7105.977043
1156.094402,7507.735880,4293.194464,7328.038826
1156.094721,7354.516781,3627.009116,7550.100608
1156.095040,6205.373534,2960.823768,8660.409521
1156.095359,4749.792088,1850.514855,9622.677246
1156.095678,3064.381992,1480.411884,10658.965565
1156.095997,2451.505594,1628.453072,11103.089130
1156.096315,1378.971896,1184.329507,11103.089130
1156.096634,153.219100,296.082377,12065.356855
1156.096953,-536.266849,666.185348,12139.377449
1156.097272,-1302.362347,1480.411884,11843.295072
1156.097591,-1838.629195,2368.659014,11843.295072
1156.097910,-2068.457845,3404.947333,11399.171507
1156.098229,-1838.629195,4885.359217,10955.047942
1156.098547,-1072.533697,6291.750507,9326.594869
1156.098866,0.000000,6439.791695,8586.388927
1156.099185,1072.533697,5625.565159,8142.265362
1156.099504,2374.896044,4219.173869,7698.141797
1156.099823,2604.724693,2738.761985,7994.224174
1156.100142,3294.210641,1850.514855,9104.533087
1156.100461,3524.039291,1184.329507,9474.636058
1156.100780,4213.525239,1776.494261,9178.553681
1156.101098,4749.792088,3034.844362,8734.430116
1156.101417,4903.011187,5033.400406,7920.203579
1156.101736,5362.668486,7105.977043,6735.874072
1156.102055,5515.887586,7624.121203,5551.544565
1156.102374,5362.668486,8068.244768,4885.359217
1156.102693,5898.935335,7105.977043,4959.379811
1156.103012,5975.544884,5255.462188,5255.462188
1156.103330,6435.202183,2812.782580,6365.771101
1156.103649,7124.688131,888.247130,7846.182985
1156.103968,7354.516781,740.205942,8586.388927
1156.104287,7890.783629,2072.576638,8512.368333
1156.104606,8427.050478,3923.091493,7994.224174
1156.104925,8044.002729,5921.647536,7031.956449
1156.105244,7584.345430,6587.832884,6217.729913
1156.105562,6665.030833,6587.832884,6291.750507
1156.105881,5286.058936,5551.544565,6735.874072
1156.106200,3983.696590,4293.194464,7476.080014
1156.106519,2911.162892,3330.926739,8364.327145
1156.106838,2221.676944,2516.700203,8660.409521
1156.107157,1532.190996,2146.597232,8882.471304
1156.107476,1608.800546,1480.411884,9252.574275
1156.107795,1685.410096,518.144159,10288.862594
1156.108113,1072.533697,666.185348,10214.842000
1156.108432,1302.362347,740.205942,10881.027347
1156.108751,1072.533697,962.267725,11399.171507
1156.109070,995.924147,1184.329507,11399.171507
1156.109389,689.485948,666.185348,10288.862594
1156.109708,306.438199,-0.000000,10658.965565
1156.110027,0.000000,-592.164754,11029.068536
1156.110345,-612.876398,-518.144159,11029.068536
1156.110664,-1072.533697,148.041188,10955.047942
1156.110983,-1378.971896,1480.411884,11029.068536
1156.111302,-1838.629195,2220.617826,10288.862594
1156.111621,-1608.800546,1924.535449,9992.780217
1156.111940,-1608.800546,888.247130,10362.883188
1156.112259,-1532.190996,-370.102971,10658.965565
1156.112577,-842.705048,-1258.350101,11473.192101
1156.112896,-766.095498,-2664.741391,12065.356855
1156.113215,-689.485948,-3923.091493,12805.562797
1156.113534,0.000000,-3997.112087,13693.809927
1156.113853,766.095498,-2220.617826,12731.542202
1156.114172,1455.581446,-0.000000,11621.233289
1156.114491,2451.505594,3034.844362,9474.636058
1156.114809,3217.601092,6661.853478,7179.997637
1156.115128,4136.915689,7698.141797,5625.565159
1156.115447,4290.134789,7254.018232,4589.276840
1156.115766,3677.258390,5181.441594,6069.688724
1156.116085,3524.039291,2442.679609,6439.791695
1156.116404,4213.525239,296.082377,7920.203579
1156.116723,3830.477490,-2220.617826,10288.862594
1156.117042,4443.353888,-2220.617826,11991.336260
1156.117360,4596.572988,-1628.453072,13175.665768
1156.117679,4903.011187,814.226536,11991.336260
1156.117998,5515.887586,3404.947333,10955.047942
1156.118317,5362.668486,6735.874072,7920.203579
1156.118636,5592.497135,8808.450710,4885.359217
1156.118955,4903.011187,9030.512492,3182.885551
1156.119274,4596.572988,7624.121203,2368.659014
1156.119592,4213.525239,4737.318029,3256.906145
1156.119911,2987.772442,1998.556043,4441.235652
1156.120230,2451.505594,-666.185348,7994.224174
1156.120549,2451.505594,-1776.494261,10436.903782
1156.120868,2221.676944,-666.185348,11325.150913
1156.121187,1838.629195,962.267725,11621.233289
1156.121506,1915.238745,3701.029710,11029.068536
1156.121824,1915.238745,5255.462188,9548.656652
1156.122143,1608.800546,6143.709319,7920.203579
1156.122462,1225.752797,5773.606348,6957.935855
1156.122781,1072.533697,4293.194464,7105.977043
1156.123100,919.314598,3256.906145,7105.977043
1156.123419,842.705048,1258.350101,8512.368333
1156.123738,383.047749,444.123565,9474.636058
1156.124057,919.314598,1702.473667,10288.862594
1156.124375,2298.286494,3849.070898,10436.903782
1156.124694,3907.087040,6439.791695,9400.615463
1156.125013,4366.744339,6513.812290,9770.718434
1156.125332,5286.058936,6217.729913,10214.842000
1156.125651,5209.449386,6661.853478,9400.615463
1156.125970,5132.839837,4959.379811,8142.265362
1156.126289,3370.820191,2220.617826,8512.368333
1156.126607,2451.505594,-0.000000,9252.574275
1156.126926,1225.752797,-1924.535449,8882.471304
1156.127245,459.657299,-1702.473667,10140.821405
1156.127564,383.047749,-1776.494261,13175.665768
1156.127883,-306.438199,-518.144159,13841.851115
1156.128202,-536.266849,2516.700203,12657.521608
1156.128521,766.095498,3404.947333,13989.892304
1156.128839,1762.019645,5181.441594,12509.480420
1156.129158,3600.648841,4589.276840,12065.356855
1156.129477,4213.525239,2812.782580,10510.924376
1156.129796,5592.497135,3182.885551,8438.347739
1156.130115,6128.763984,1998.556043,7698.141797
1156.130434,6128.763984,2294.638420,7031.956449
1156.130753,6128.763984,1776.494261,6365.771101
1156.131072,4673.182538,2368.659014,4737.318029
1156.131390,3064.381992,1998.556043,5773.606348
1156.131709,1838.629195,-296.082377,8882.471304
1156.132028,-383.047749,296.082377,10510.924376
1156.132347,-1762.019645,814.226536,12879.583391
1156.132666,-2221.676944,-148.041188,14137.933492
1156.132985,-2451.505594,148.041188,14656.077652
1156.133304,-842.705048,1110.308913,14285.974681
1156.133622,0.000000,3108.864956,11029.068536
1156.133941,2681.334243,4071.132681,9104.533087
1156.134260,4290.134789,5551.544565,5995.668130
1156.134579,5056.230287,7624.121203,3997.112087
1156.134898,6818.249932,8512.368333,1554.432478
1156.135217,6971.469032,7772.162391,814.226536
1156.135536,6971.469032,5699.585753,814.226536
1156.135854,4903.011187,1480.411884,3182.885551
1156.136173,2757.943793,-1332.370696,7105.977043
1156.136492,1762.019645,-3552.988522,11621.233289
1156.136811,-919.314598,-3923.091493,14804.118840
1156.137130,-1685.410096,-3182.885551,18135.045579
1156.137449,-2528.115143,-888.247130,18505.148550
1156.137768,-1762.019645,3256.906145,14804.118840
1156.138086,689.485948,5995.668130,13101.645173
1156.138405,3370.820191,8438.347739,10436.903782
1156.138724,6435.202183,10658.965565,4885.359217
1156.139043,8503.660028,10807.006753,888.247130
1156.139362,9499.584175,7624.121203,370.102971
1156.139681,9959.241474,3034.844362,-370.102971
1156.139999,8656.879127,-518.144159,148.041188
1156.140318,7048.078582,-3182.885551,4219.173869
1156.140637,4903.011187,-4367.215058,8364.327145
1156.140956,1762.019645,-3775.050304,11991.336260
1156.141275,76.609550,-2220.617826,17838.963202
1156.141593,-1991.848295,148.041188,19911.539840
1156.141912,-3140.991542,2442.679609,18579.169144
1156.142231,-3064.381992,5255.462188,17394.839637
1156.142550,-1532.190996,7550.100608,15174.221811
1156.142869,995.924147,7328.038826,11399.171507
1156.143187,2681.334243,8364.327145,7476.080014
1156.143506,5898.935335,6587.832884,4663.297435
1156.143825,7584.345430,5773.606348,888.247130
1156.144144,9806.022374,3997.112087,-370.102971
1156.144463,8733.488677,1406.391290,-888.247130
1156.144781,6741.640382,-888.247130,1110.308913
1156.145100,4060.306139,-2294.638420,5477.523971
1156.145419,766.095498,-1776.494261,10881.027347
1156.145738,-2451.505594,-2294.638420,15988.448347
1156.146057,-5592.497135,-1998.556043,19911.539840
1156.146375,-6358.592633,-814.226536,21391.951724
1156.146694,-7201.297681,3256.906145,19319.375086
1156.147013,-4749.792088,2664.741391,18431.127956
1156.147332,-2987.772442,4885.359217,15396.283594
1156.147651,1149.143247,7550.100608,11917.315666
1156.147969,4519.963438,7550.100608,6883.915261
1156.148288,8120.612279,9696.697840,888.247130
1156.148607,10495.508323,7476.080014,-2368.659014
1156.148926,11874.480219,4293.194464,-4663.297435
1156.149245,11261.603821,1850.514855,-2886.803174
1156.149563,9269.755526,-1702.473667,148.041188
1156.149882,6205.373534,-3627.009116,7254.018232
1156.150201,1838.629195,-4663.297435,14285.974681
1156.150520,-2298.286494,-2590.720797,16802.674883
1156.150839,-5745.716235,-962.267725,20207.622217
1156.151157,-6818.249932,740.205942,20133.601622
1156.151476,-6818.249932,3034.844362,18209.066173
1156.151795,-5745.716235,6291.750507,14434.015869
1156.152114,-3140.991542,7179.997637,12139.377449
1156.152433,-1302.362347,6513.812290,9474.636058
1156.152751,1608.800546,4737.318029,5625.565159
1156.153070,4366.744339,3627.009116,888.247130
1156.153389,6741.640382,1110.308913,-2294.638420
1156.153708,6665.030833,-740.205942,-3034.844362
1156.154027,6818.249932,-2294.638420,-148.041188
1156.154345,5515.887586,-3330.926739,3552.988522
1156.154664,2451.505594,-2442.679609,8512.368333
1156.154983,-1762.019645,-4145.153275,14730.098246
1156.155302,-5975.544884,-2960.823768,18579.169144
1156.155621,-7354.516781,-2516.700203,19911.539840
1156.155939,-8350.440928,-2516.700203,20799.786970
1156.156258,-8044.002729,2146.597232,18135.045579
1156.156577,-5745.716235,2220.617826,14582.057057
1156.156896,-2604.724693,4811.338623,10436.903782
1156.157215,1225.752797,6439.791695,4885.359217
1156.157533,3983.696590,2886.803174,1036.288319
1156.157852,5362.668486,-74.020594,-2220.617826
1156.158171,6435.202183,-2812.782580,-2072.576638
1156.158490,5592.497135,-6365.771101,-814.226536
1156.158809,4136.915689,-7402.059420,4737.318029
1156.159127,2068.457845,-8882.471304,11769.274478
1156.159446,-1149.143247,-7994.224174,15174.221811
1156.159765,-4826.401637,-5033.400406,20355.663405
1156.160084,-4979.620737,-1924.535449,20577.725188
1156.160403,-6511.811733,2220.617826,18875.251521
1156.160721,-5669.106685,5403.503377,15692.365970
1156.161040,-4060.306139,5699.585753,13323.706956
1156.161359,153.219100,9104.533087,9696.697840
1156.161678,3294.210641,7698.141797,3627.009116
1156.161997,6435.202183,4811.338623,-2220.617826
1156.162315,8044.002729,1480.411884,-4515.256246
1156.162634,8810.098227,-3552.988522,-2738.761985
1156.162953,6052.154434,-8956.491898,-444.123565
1156.163272,4213.525239,-11843.295072,6217.729913
1156.163591,1762.019645,-9844.739029,10881.027347
1156.163909,-1225.752797,-6735.874072,14952.160028
1156.164228,-3370.820191,-2590.720797,18949.272115
1156.164547,-4979.620737,-0.000000,20577.725188
1156.164866,-5286.058936,3627.009116,20947.828159
1156.165185,-4596.572988,7402.059420,16062.468941
1156.165503,-3753.867940,8290.306550,14137.933492
1156.165822,-536.266849,10658.965565,10510.924376
1156.166141,1685.410096,9770.718434,3478.967927
1156.166460,6511.811733,5995.668130,-2072.576638
1156.166779,6665.030833,3627.009116,-4589.276840
1156.167097,9576.193725,-1702.473667,-3256.906145
1156.167416,8273.831378,-6587.832884,-2294.638420
1156.167735,6818.249932,-7402.059420,2442.679609
1156.168054,3677.258390,-8882.471304,9178.553681
1156.168372,306.438199,-6587.832884,14434.015869
1156.168691,-3830.477490,-4811.338623,20059.581028
1156.169010,-5822.325785,-740.205942,21984.116477
1156.169329,-8350.440928,2072.576638,21169.889941
1156.169648,-7277.907231,7105.977043,19689.478057
1156.169966,-5822.325785,9326.594869,14952.160028
1156.170285,-3983.696590,11843.295072,11843.295072
1156.170604,919.314598,11103.089130,7254.018232
1156.170923,4290.134789,11177.109724,0.000000
1156.171242,7814.174080,7328.038826,-4441.235652
1156.171560,9576.193725,3108.864956,-5329.482782
1156.171879,10112.460574,-1702.473667,-3552.988522
1156.172198,8503.660028,-7105.977043,0.000000
1156.172517,4673.182538,-9844.739029,6291.750507
1156.172836,612.876398,-9918.759623,13027.624579
1156.173154,-4290.134789,-8956.491898,18875.251521
1156.173473,-7814.174080,-4737.318029,23168.445985
1156.173792,-9729.412825,-1480.411884,25981.228564
1156.174111,-10035.851024,2220.617826,24722.878463
1156.174430,-6971.469032,9400.615463,19171.333898
1156.174748,-4213.525239,10732.986159,15396.283594
1156.175067,-995.924147,15544.324782,9400.615463
1156.175386,6052.154434,12361.439231,4663.297435
1156.175705,9193.145976,13915.871710,-4959.379811
1156.176024,12563.966167,7698.141797,-8290.306550
1156.176342,12104.308868,-3330.926739,-8290.306550
1156.176661,10189.070123,-9844.739029,-2886.803174
1156.176980,7201.297681,-17987.004391,5995.668130
1156.177299,1685.410096,-18653.189738,12065.356855
1156.177618,-3294.210641,-13249.686362,18727.210333
1156.177936,-5515.887586,-9622.677246,25463.084405
1156.178255,-9576.193725,-2072.576638,25907.207970
1156.178574,-9806.022374,2738.761985,26795.455100
1156.178893,-9422.974625,9622.677246,20947.828159
1156.179212,-6052.154434,11251.130318,17024.736666
1156.179530,-2834.553343,14063.912898,12953.603985
1156.179849,1378.971896,12953.603985,7476.080014
1156.180168,6281.983084,10584.944971,0.000000
1156.180487,8963.317327,4219.173869,-9622.677246
1156.180806,9039.926876,-2886.803174,-11695.253884
1156.181124,8810.098227,-12657.521608,-5403.503377
1156.181443,6435.202183,-17987.004391,370.102971
1156.181762,2374.896044,-17394.839637,5329.482782
1156.182081,-2451.505594,-14359.995275,14656.077652
1156.182400,-5975.544884,-10140.821405,23242.466579
1156.182718,-9806.022374,-6661.853478,26943.496289
1156.183037,-10418.898773,-740.205942,26129.269753
1156.183356,-9806.022374,6587.832884,22058.137072
1156.183675,-7277.907231,10955.047942,18949.272115
1156.183994,-4213.525239,16136.489536,12879.583391
1156.184312,-995.924147,16136.489536,5699.585753
1156.184631,5745.716235,14137.933492,0.000000
1156.184950,8503.660028,11695.253884,-12731.542202
1156.185269,10878.556072,2960.823768,-16136.489536
1156.185588,9882.631924,-7994.224174,-12065.356855
1156.185906,9652.803275,-15470.304188,-3478.967927
1156.186225,5209.449386,-19615.457463,1110.308913
1156.186544,0.000000,-19541.436869,10362.883188
1156.186863,-6128.763984,-16284.530724,21614.013506
1156.187182,-10495.508323,-11103.089130,29682.258274
1156.187500,-12793.794817,-3108.864956,29164.114115
1156.187819,-12257.527968,5181.441594,23834.631332
1156.188138,-8886.707777,10658.965565,19837.519246
1156.188457,-4213.525239,15766.386565,13989.892304
1156.188776,1149.143247,18505.148550,15692.365970
1156.189094,4979.620737,17542.880825,4293.194464
1156.189413,7890.783629,18801.230927,-10362.883188
1156.189732,15092.081311,11029.068536,-13545.768739
1156.190051,14632.424012,-2220.617826,-15026.180623
1156.190370,13330.061665,-13619.789333,-9548.656652
1156.190688,6741.640382,-18949.272115,-2738.761985
1156.191007,2604.724693,-20429.683999,7105.977043
1156.191326,-2451.505594,-17912.983796,16728.654289
1156.191645,-6894.859482,-16136.489536,28868.031738
1156.191964,-12257.527968,-8364.327145,36714.214723
1156.192282,-12257.527968,-74.020594,32421.020260
1156.192601,-10878.556072,11843.295072,21910.095883
1156.192920,-5362.668486,16284.530724,20207.622217
1156.193239,612.876398,22576.281231,20577.725188
1156.193558,2834.553343,19467.416275,10732.986159
1156.193876,6971.469032,23168.445985,-666.185348
1156.194195,12180.918418,19393.395680,-10658.965565
1156.194514,13713.109414,4737.318029,-17690.922014
1156.194833,13942.938064,-10807.006753,-16062.468941
1156.195152,8733.488677,-22428.240043,-1036.288319
1156.195470,3524.039291,-23316.487173,4663.297435
1156.195789,-1302.362347,-18579.169144,7550.100608
1156.196108,-6281.983084,-13915.871710,21465.972318
1156.196427,-11338.213370,-12953.603985,37084.317694
1156.196745,-13559.890315,-4885.359217,39749.059085
1156.197064,-15245.300410,6069.688724,27165.558071
1156.197383,-10725.336972,16950.716072,21614.013506
1156.197702,-3217.601092,16062.468941,22206.178260
1156.198021,229.828649,22798.343014,15618.345376
1156.198339,4903.011187,23316.487173,5403.503377
1156.198658,7124.688131,23908.651927,-7550.100608
1156.198977,15092.081311,14508.036463,-17764.942608
1156.199296,12793.794817,2738.761985,-20429.683999
1156.199615,15245.300410,-12731.542202,-10584.944971
1156.199933,8120.612279,-21243.910535,-3849.070898
1156.200252,3217.601092,-17024.736666,1998.556043
1156.200571,-306.438199,-19837.519246,15544.324782
1156.200890,-5056.230287,-16580.613101,26869.475695
1156.201209,-11184.994271,-11547.212695,37898.544230
1156.201527,-13330.061665,-2590.720797,34419.576303
1156.201846,-13483.280765,7328.038826,24352.775492
1156.202165,-10189.070123,14804.118840,20503.704593
1156.202484,-3370.820191,15248.242405,18357.107362
1156.202803,1685.410096,19763.498651,12287.418637
1156.203121,7277.907231,23686.590144,-740.205942
1156.203440,8886.707777,21317.931130,-20725.766376
1156.203759,12027.699319,7846.182985,-21243.910535
1156.204078,13330.061665,-12065.356855,-14804.118840
1156.204397,9193.145976,-24722.878463,-3478.967927
1156.204715,536.266849,-27831.743419,814.226536
1156.205034,-4443.353888,-27387.619854,10362.883188
1156.205353,-6281.983084,-24056.693115,23464.528361
1156.205672,-9269.755526,-18357.107362,37898.544230
1156.205991,-13330.061665,-9326.594869,34789.679274
1156.206309,-12793.794817,1998.556043,28127.825796
1156.206628,-8120.612279,11547.212695,21762.054695
1156.206947,-5286.058936,18135.045579,20799.786970
1156.207266,-306.438199,17838.963202,17024.736666
1156.207585,5975.544884,24796.899057,2072.576638
1156.207903,10801.946522,25907.207970,-9030.512492
1156.208222,14785.643111,15988.448347,-21317.931130
1156.208541,14479.204912,-0.000000,-21095.869347
1156.208860,15781.567259,-16802.674883,-11621.233289
1156.209179,8197.221829,-29978.340651,-5477.523971
1156.209497,842.705048,-23908.651927,3256.906145
1156.209816,689.485948,-24352.775492,17394.839637
1156.210135,-6588.421283,-19319.375086,26203.290347
1156.210454,-11721.261119,-14137.933492,38268.647201
1156.210773,-11261.603821,-1702.473667,36566.173535
1156.211091,-8350.440928,11547.212695,19023.292709
1156.211410,-5515.887586,19097.313304,16284.530724
1156.211729,76.609550,12731.542202,23464.528361
1156.212048,3370.820191,22206.178260,15692.365970
1156.212367,6818.249932,30348.443622,-6957.935855
1156.212685,11721.261119,24500.816680,-18357.107362
1156.213004,12410.747068,11325.150913,-20355.663405
1156.213323,11644.651570,-5107.421000,-15840.407159
1156.213642,8886.707777,-22502.260637,-6069.688724
1156.213961,2451.505594,-21317.931130,1998.556043
1156.214279,-1532.190996,-23908.651927,9918.759623
1156.214598,-7660.954980,-20429.683999,20429.683999
1156.214917,-9959.241474,-20947.828159,36492.152941
1156.215236,-12257.527968,-9992.780217,40267.203245
1156.215555,-11644.651570,4071.132681,25315.043216
1156.215873,-12104.308868,12731.542202,16432.571912
1156.216192,-5439.278036,16580.613101,25685.146187
1156.216511,-1991.848295,20873.807564,18579.169144
1156.216830,1838.629195,25241.022622,5551.544565
1156.217149,8044.002729,28719.990550,-6661.853478
1156.217467,14249.376263,28719.990550,-16284.530724
1156.217786,12334.137518,10140.821405,-26499.372724
1156.218105,14938.862211,-7846.182985,-14137.933492
1156.218424,10725.336972,-23760.610738,0.000000
1156.218743,1149.143247,-23686.590144,3182.885551
1156.219061,-5286.058936,-28497.928767,13545.768739
1156.219380,-7124.688131,-25389.063811,32346.999665
1156.219699,-10878.556072,-18209.066173,40415.244433
1156.220018,-12104.308868,-2368.659014,37232.358883
1156.220337,-10725.336972,11769.274478,23686.590144
1156.220655,-8197.221829,19097.313304,18801.230927
1156.220974,-2374.896044,20355.663405,21021.848753
1156.221293,2068.457845,16506.592507,23538.548956
1156.221612,4519.963438,38564.729578,5033.400406
1156.221931,9269.755526,26129.269753,-18135.045579
1156.222249,14785.643111,18949.272115,-18431.127956
1156.222568,17543.586904,4071.132681,-18653.189738
1156.222887,16088.005458,-17098.757260,-12361.439231
1156.223206,7354.516781,-27535.661042,-1776.494261
1156.223525,2374.896044,-20133.601622,5699.585753
1156.223843,-2987.772442,-28942.052332,15248.242405
1156.224162,-6358.592633,-20503.704593,29682.258274
1156.224481,-9346.365076,-16876.695478,44782.459491
1156.224800,-12487.356617,1406.391290,24870.919651
1156.225119,-10878.556072,10881.027347,17542.880825
1156.225437,-7354.516781,13471.748144,19837.519246
1156.225756,-229.828649,19837.519246,27905.764013
1156.226075,-1149.143247,19911.539840,13841.851115
1156.226394,7048.078582,28571.949361,-1998.556043
1156.226712,12717.185267,23834.631332,-15914.427753
1156.227031,15398.519510,12879.583391,-23686.590144
1156.227350,11261.603821,-3552.988522,-20873.807564
1156.227669,11644.651570,-22724.322419,-2368.659014
1156.227988,3983.696590,-25981.228564,1036.288319
1156.228306,-1762.019645,-25167.002028,5551.544565
1156.228625,-7967.393179,-26795.455100,21021.848753
1156.228944,-9116.536426,-23242.466579,37898.544230
1156.229263,-9806.022374,-12731.542202,36640.194129
1156.229582,-13023.623466,5995.668130,21539.992912
