#time,accel_x,accel_y,accel_z
1929.468111,1608.800546,1776.494261,13249.686362
1929.468429,612.876398,1480.411884,13693.809927
1929.468746,229.828649,1776.494261,14434.015869
1929.469063,-536.266849,2146.597232,14359.995275
1929.469380,-842.705048,2368.659014,14656.077652
1929.469697,-1532.190996,2516.700203,14359.995275
1929.470015,-766.095498,2516.700203,13619.789333
1929.470332,-306.438199,2368.659014,12583.501014
1929.470649,383.047749,1850.514855,11843.295072
1929.470966,919.314598,888.247130,11695.253884
1929.471283,842.705048,518.144159,11029.068536
1929.471601,919.314598,444.123565,10658.965565
1929.471918,306.438199,296.082377,10584.944971
1929.472235,-306.438199,518.144159,10658.965565
1929.472552,-306.438199,-0.000000,10584.944971
1929.472869,-1608.800546,-74.020594,10436.903782
1929.473187,-2068.457845,-518.144159,10214.842000
1929.473504,-1762.019645,-592.164754,9622.677246
1929.473821,-1455.581446,-1036.288319,8956.491898
1929.474138,-1072.533697,-1332.370696,8734.430116
1929.474455,-995.924147,-1776.494261,8142.265362
1929.474773,-842.705048,-1924.535449,8290.306550
1929.475090,-612.876398,-1628.453072,7994.224174
1929.475407,-919.314598,-1036.288319,7846.182985
1929.475724,-766.095498,-148.041188,7254.018232
1929.476041,-842.705048,-0.000000,6957.935855
1929.476358,-536.266849,296.082377,6439.791695
1929.476676,0.000000,296.082377,6069.688724
1929.476993,766.095498,666.185348,5773.606348
1929.477310,306.438199,-74.020594,5255.462188
1929.477627,842.705048,-296.082377,5403.503377
1929.477944,1072.533697,-888.247130,5625.565159
1929.478262,689.485948,-1036.288319,5551.544565
1929.478579,459.657299,-1554.432478,5921.647536
1929.478896,-459.657299,-1924.535449,6661.853478
1929.479213,-1149.143247,-1850.514855,6735.874072
1929.479530,-1532.190996,-2146.597232,7105.977043
1929.479848,-1915.238745,-2368.659014,7846.182985
1929.480165,-2451.505594,-2664.741391,8438.347739
1929.480482,-2604.724693,-2516.700203,9030.512492
1929.480799,-2528.115143,-1998.556043,8956.491898
1929.481116,-2757.943793,-1702.473667,8660.409521
1929.481434,-2145.067394,-740.205942,8882.471304
1929.481751,-1915.238745,296.082377,7846.182985
1929.482068,-1685.410096,888.247130,7698.141797
1929.482385,-1838.629195,1184.329507,7698.141797
1929.482702,-2221.676944,1702.473667,7698.141797
1929.483020,-2451.505594,1554.432478,8068.244768
1929.483337,-3140.991542,1554.432478,8586.388927
1929.483654,-3753.867940,1480.411884,9400.615463
1929.483971,-4213.525239,1998.556043,9622.677246
1929.484288,-4366.744339,2442.679609,9992.780217
1929.484606,-4213.525239,2886.803174,9992.780217
1929.484923,-3600.648841,3775.050304,10066.800811
1929.485240,-2681.334243,4885.359217,9696.697840
1929.485557,-2221.676944,5699.585753,9104.533087
1929.485874,-1685.410096,6069.688724,8808.450710
1929.486192,-1225.752797,6661.853478,8734.430116
1929.486509,-842.705048,7179.997637,8512.368333
1929.486826,-842.705048,7328.038826,8512.368333
1929.487143,-842.705048,7550.100608,9104.533087
1929.487460,-383.047749,7476.080014,9252.574275
1929.487778,0.000000,7624.121203,9326.594869
1929.488095,76.609550,7179.997637,9770.718434
1929.488412,919.314598,7105.977043,9548.656652
1929.488729,842.705048,6735.874072,9548.656652
1929.489046,1225.752797,7031.956449,9548.656652
1929.489364,919.314598,6957.935855,9104.533087
1929.489681,459.657299,6883.915261,8512.368333
1929.489998,0.000000,7105.977043,8512.368333
1929.490315,-1608.800546,6735.874072,8734.430116
1929.490632,-3294.210641,6735.874072,9992.780217
1929.490949,-5515.887586,5255.462188,10732.986159
1929.491267,-7354.516781,4515.256246,11917.315666
1929.491584,-8197.221829,3627.009116,12805.562797
1929.491901,-8350.440928,3330.926739,13249.686362
1929.492218,-8810.098227,3404.947333,13693.809927
1929.492535,-8273.831378,3997.112087,13545.768739
1929.492853,-8044.002729,4737.318029,12953.603985
1929.493170,-7660.954980,5403.503377,12361.439231
1929.493487,-7354.516781,5847.626942,11917.315666
1929.493804,-7201.297681,5255.462188,12435.459826
1929.494121,-6358.592633,5477.523971,12287.418637
1929.494439,-6052.154434,5329.482782,11843.295072
1929.494756,-4826.401637,5921.647536,11547.212695
1929.495073,-3753.867940,5773.606348,11251.130318
1929.495390,-2145.067394,5033.400406,10881.027347
1929.495707,-766.095498,4293.194464,11103.089130
1929.496025,383.047749,3923.091493,10066.800811
1929.496342,1149.143247,4293.194464,9326.594869
1929.496659,1915.238745,4293.194464,8956.491898
1929.496976,1838.629195,4737.318029,7698.141797
1929.497293,919.314598,4737.318029,7550.100608
1929.497611,153.219100,5255.462188,7179.997637
1929.497928,-766.095498,4737.318029,8438.347739
1929.498245,-1072.533697,4515.256246,9326.594869
1929.498562,-1149.143247,2812.782580,10732.986159
1929.498879,-842.705048,1776.494261,12361.439231
1929.499197,76.609550,666.185348,12805.562797
1929.499514,1762.019645,-0.000000,11843.295072
1929.499831,3753.867940,-0.000000,11843.295072
1929.500148,5439.278036,1036.288319,9622.677246
1929.500465,7431.126331,1776.494261,8586.388927
1929.500783,8427.050478,2886.803174,6143.709319
1929.501100,8963.317327,3478.967927,5255.462188
1929.501417,8656.879127,3849.070898,3849.070898
1929.501734,6818.249932,2442.679609,4885.359217
1929.502051,3600.648841,-1036.288319,7476.080014
1929.502369,0.000000,-4959.379811,10214.842000
1929.502686,-1455.581446,-7994.224174,12361.439231
1929.503003,-1838.629195,-8734.430116,12065.356855
1929.503320,76.609550,-8216.285956,12879.583391
1929.503637,1762.019645,-5773.606348,10214.842000
1929.503955,2604.724693,-5107.421000,8734.430116
1929.504272,2528.115143,-4737.318029,7846.182985
1929.504589,459.657299,-4885.359217,8512.368333
1929.504906,-1149.143247,-5847.626942,9474.636058
1929.505223,-2834.553343,-6069.688724,10807.006753
1929.505540,-3064.381992,-6883.915261,12953.603985
1929.505858,-1685.410096,-5625.565159,12583.501014
1929.506175,766.095498,-3775.050304,10658.965565
1929.506492,4443.353888,-2664.741391,9252.574275
1929.506809,6511.811733,-1628.453072,7179.997637
1929.507126,7584.345430,-1036.288319,3627.009116
1929.507444,7354.516781,-592.164754,2072.576638
1929.507761,5209.449386,-1554.432478,2812.782580
1929.508078,2757.943793,-2294.638420,4663.297435
1929.508395,689.485948,-2294.638420,6809.894666
1929.508712,-2145.067394,-1850.514855,8956.491898
1929.509030,-3140.991542,-1554.432478,11177.109724
1929.509347,-3370.820191,-962.267725,11547.212695
1929.509664,-2451.505594,-740.205942,10955.047942
1929.509981,-612.876398,-0.000000,8882.471304
1929.510298,1302.362347,1332.370696,5995.668130
1929.510616,3753.867940,2072.576638,3997.112087
1929.510933,4443.353888,2442.679609,3404.947333
1929.511250,4136.915689,2072.576638,4589.276840
1929.511568,1838.629195,1776.494261,6587.832884
1929.511885,-842.705048,2368.659014,8956.491898
1929.512203,-3140.991542,2886.803174,10288.862594
1929.512520,-4903.011187,3923.091493,11029.068536
1929.512838,-5132.839837,4145.153275,10881.027347
1929.513155,-4290.134789,3330.926739,9548.656652
1929.513473,-3370.820191,2812.782580,7698.141797
1929.513790,-1532.190996,1628.453072,7105.977043
1929.514108,-153.219100,666.185348,7402.059420
1929.514425,0.000000,148.041188,7550.100608
1929.514743,-612.876398,1258.350101,8660.409521
1929.515060,-3447.429741,2368.659014,10066.800811
1929.515378,-5056.230287,2812.782580,12361.439231
1929.515695,-6358.592633,3849.070898,13619.789333
1929.516013,-5745.716235,5033.400406,13841.851115
1929.516330,-3370.820191,5625.565159,12879.583391
1929.516648,-1685.410096,5033.400406,11177.109724
1929.516965,1455.581446,4367.215058,9992.780217
1929.517283,3294.210641,3923.091493,9104.533087
1929.517600,4749.792088,4219.173869,8882.471304
1929.517917,5056.230287,5181.441594,8660.409521
1929.518235,4136.915689,5477.523971,9474.636058
1929.518552,2604.724693,5033.400406,10510.924376
1929.518870,1072.533697,5255.462188,11991.336260
1929.519187,0.000000,4885.359217,13027.624579
1929.519505,0.000000,4737.318029,13397.727550
1929.519822,76.609550,3923.091493,12509.480420
1929.520140,1685.410096,2812.782580,11547.212695
1929.520457,2374.896044,1332.370696,11103.089130
1929.520775,3830.477490,222.061783,11029.068536
1929.521092,4136.915689,888.247130,10881.027347
1929.521410,4213.525239,1110.308913,11177.109724
1929.521727,3294.210641,2146.597232,11621.233289
1929.522045,1838.629195,2146.597232,11843.295072
1929.522362,306.438199,1554.432478,12287.418637
1929.522680,-689.485948,444.123565,12879.583391
1929.522997,-1838.629195,-666.185348,13249.686362
1929.523315,-1225.752797,-1110.308913,12583.501014
1929.523632,0.000000,-1628.453072,11547.212695
1929.523950,2145.067394,-2664.741391,11547.212695
1929.524267,2298.286494,-3330.926739,10510.924376
1929.524585,2757.943793,-3775.050304,9918.759623
1929.524902,2604.724693,-3923.091493,9770.718434
1929.525220,1991.848295,-3627.009116,9548.656652
1929.525537,766.095498,-3478.967927,9474.636058
1929.525855,0.000000,-3923.091493,10807.006753
1929.526172,-1532.190996,-4737.318029,10807.006753
1929.526490,-2221.676944,-4663.297435,11399.171507
1929.526807,-1378.971896,-3849.070898,10510.924376
1929.527125,76.609550,-3182.885551,9474.636058
1929.527442,1685.410096,-3108.864956,8586.388927
1929.527760,2911.162892,-2812.782580,7846.182985
1929.528077,3753.867940,-2516.700203,6291.750507
1929.528394,4596.572988,-2146.597232,5773.606348
1929.528712,3907.087040,-2590.720797,5551.544565
1929.529029,3140.991542,-2146.597232,5921.647536
1929.529347,2451.505594,-1110.308913,6365.771101
1929.529664,1225.752797,-814.226536,6217.729913
1929.529982,919.314598,-1184.329507,7254.018232
1929.530299,919.314598,-888.247130,7105.977043
1929.530617,1991.848295,-370.102971,5699.585753
1929.530934,3447.429741,-370.102971,4885.359217
1929.531252,4290.134789,-1110.308913,4589.276840
1929.531569,4979.620737,-1998.556043,4589.276840
1929.531887,4366.744339,-1406.391290,4145.153275
1929.532204,3447.429741,-1480.411884,5181.441594
1929.532522,1532.190996,-1036.288319,6809.894666
1929.532839,0.000000,-74.020594,7698.141797
1929.533157,-995.924147,222.061783,8364.327145
1929.533474,-1838.629195,666.185348,8956.491898
1929.533792,-1532.190996,592.164754,8512.368333
1929.534109,-459.657299,222.061783,7698.141797
1929.534427,0.000000,-0.000000,7179.997637
1929.534744,306.438199,-740.205942,7402.059420
1929.535062,689.485948,-1184.329507,7105.977043
1929.535379,383.047749,-1036.288319,7254.018232
1929.535697,-1225.752797,-1258.350101,8882.471304
1929.536014,-2604.724693,-592.164754,10288.862594
1929.536332,-3064.381992,222.061783,11399.171507
1929.536649,-4903.011187,222.061783,12657.521608
1929.536967,-5209.449386,814.226536,12879.583391
1929.537284,-4443.353888,888.247130,12657.521608
1929.537602,-2987.772442,518.144159,11843.295072
1929.537919,-1685.410096,-148.041188,11547.212695
1929.538237,0.000000,370.102971,10807.006753
1929.538554,842.705048,740.205942,10584.944971
1929.538871,1378.971896,1924.535449,10807.006753
1929.539189,919.314598,2368.659014,11177.109724
1929.539506,306.438199,3108.864956,11621.233289
1929.539824,-153.219100,3478.967927,12139.377449
1929.540141,-153.219100,3775.050304,12213.398043
1929.540459,153.219100,3108.864956,11991.336260
1929.540776,1225.752797,2368.659014,11843.295072
1929.541094,2911.162892,2368.659014,11029.068536
1929.541411,3524.039291,1924.535449,10288.862594
1929.541729,4366.744339,1554.432478,10362.883188
1929.542046,4366.744339,1776.494261,10436.903782
1929.542364,4213.525239,1776.494261,10807.006753
1929.542681,3064.381992,2516.700203,10732.986159
1929.542999,2451.505594,2812.782580,11473.192101
1929.543316,1685.410096,2590.720797,12065.356855
1929.543634,1225.752797,2368.659014,12213.398043
1929.543951,1685.410096,1776.494261,11917.315666
1929.544269,2451.505594,1258.350101,11399.171507
1929.544586,2834.553343,296.082377,10510.924376
1929.544904,3830.477490,-0.000000,9844.739029
1929.545221,4366.744339,-148.041188,9326.594869
1929.545539,4213.525239,-370.102971,8734.430116
1929.545856,3830.477490,-74.020594,9104.533087
1929.546174,2757.943793,-296.082377,9104.533087
1929.546491,1378.971896,-592.164754,9622.677246
1929.546809,0.000000,-1702.473667,10214.842000
1929.547126,-689.485948,-2368.659014,10510.924376
1929.547444,-1225.752797,-3182.885551,10436.903782
1929.547761,-1072.533697,-3404.947333,10066.800811
1929.548079,383.047749,-3552.988522,10288.862594
1929.548396,536.266849,-3404.947333,9326.594869
1929.548714,1072.533697,-2960.823768,8512.368333
1929.549031,1532.190996,-2738.761985,7920.203579
1929.549348,1455.581446,-2442.679609,7772.162391
1929.549666,1302.362347,-2664.741391,7254.018232
1929.549983,612.876398,-2368.659014,7846.182985
1929.550301,-229.828649,-2442.679609,8512.368333
1929.550618,-153.219100,-2294.638420,8512.368333
1929.550936,76.609550,-2072.576638,8512.368333
1929.551253,536.266849,-2146.597232,8438.347739
1929.551571,1838.629195,-1850.514855,7402.059420
1929.551888,2757.943793,-1480.411884,6143.709319
1929.552206,3830.477490,-1776.494261,5403.503377
1929.552523,3907.087040,-1406.391290,5403.503377
1929.552841,3600.648841,-1406.391290,4885.359217
1929.553158,2911.162892,-1184.329507,5551.544565
1929.553476,1532.190996,-1184.329507,6291.750507
1929.553793,995.924147,-814.226536,6809.894666
1929.554111,306.438199,-666.185348,7328.038826
1929.554428,689.485948,-962.267725,7624.121203
1929.554746,1072.533697,-814.226536,7476.080014
1929.555063,1608.800546,-1258.350101,7105.977043
1929.555381,2451.505594,-1110.308913,6809.894666
1929.555698,2987.772442,-1258.350101,6809.894666
1929.556016,2834.553343,-1036.288319,7105.977043
1929.556333,2451.505594,-444.123565,7254.018232
1929.556651,1685.410096,-370.102971,8142.265362
1929.556968,612.876398,-222.061783,9326.594869
1929.557286,153.219100,-370.102971,10214.842000
1929.557603,0.000000,-74.020594,11029.068536
1929.557921,0.000000,-0.000000,10732.986159
1929.558238,766.095498,-0.000000,10658.965565
1929.558556,1685.410096,-518.144159,10362.883188
1929.558873,2834.553343,-740.205942,9548.656652
1929.559191,2834.553343,-666.185348,8956.491898
1929.559508,3064.381992,-148.041188,9474.636058
1929.559825,2451.505594,-0.000000,9992.780217
1929.560143,1302.362347,518.144159,10732.986159
1929.560460,0.000000,740.205942,11695.253884
1929.560778,-919.314598,740.205942,12731.542202
1929.561095,-1072.533697,740.205942,13471.748144
1929.561413,-842.705048,962.267725,12879.583391
1929.561730,0.000000,1184.329507,12361.439231
1929.562048,842.705048,740.205942,11621.233289
1929.562365,1378.971896,1036.288319,10807.006753
1929.562683,1762.019645,1554.432478,10066.800811
1929.563000,1072.533697,2294.638420,10288.862594
1929.563318,76.609550,2294.638420,9918.759623
1929.563635,-766.095498,2294.638420,11769.274478
1929.563953,-3064.381992,1924.535449,11325.150913
1929.564270,-2987.772442,1110.308913,13249.686362
1929.564588,-3983.696590,-74.020594,12953.603985
1929.564905,-2911.162892,592.164754,13767.830521
1929.565223,-2834.553343,-1110.308913,12361.439231
1929.565540,-1685.410096,1480.411884,11843.295072
1929.565858,-689.485948,592.164754,11473.192101
1929.566175,-459.657299,2368.659014,9178.553681
1929.566493,1378.971896,2590.720797,10214.842000
1929.566810,536.266849,5181.441594,8512.368333
1929.567128,1915.238745,2886.803174,9696.697840
1929.567445,-153.219100,4071.132681,8586.388927
1929.567763,536.266849,2664.741391,10362.883188
1929.568080,919.314598,1480.411884,9844.739029
1929.568398,842.705048,1776.494261,8216.285956
1929.568715,2604.724693,962.267725,8882.471304
1929.569033,2528.115143,1110.308913,7328.038826
1929.569350,4060.306139,1332.370696,7105.977043
1929.569668,2681.334243,740.205942,5699.585753
1929.569985,2528.115143,1332.370696,8068.244768
1929.570302,1149.143247,1480.411884,8068.244768
1929.570620,0.000000,962.267725,8882.471304
1929.570937,-1225.752797,1332.370696,8956.491898
1929.571255,-1225.752797,1332.370696,9844.739029
1929.571572,-612.876398,888.247130,9770.718434
1929.571890,-306.438199,666.185348,8882.471304
1929.572207,766.095498,-74.020594,9178.553681
1929.572525,536.266849,592.164754,7328.038826
1929.572842,2221.676944,666.185348,7846.182985
1929.573160,1915.238745,296.082377,7031.956449
1929.573477,1991.848295,592.164754,6365.771101
1929.573795,1072.533697,1184.329507,6809.894666
1929.574112,0.000000,1036.288319,7920.203579
1929.574430,-536.266849,370.102971,9104.533087
1929.574747,-1608.800546,-74.020594,8290.306550
1929.575065,-1225.752797,-1036.288319,9992.780217
1929.575382,-1149.143247,-962.267725,9474.636058
1929.575700,-383.047749,-2368.659014,9252.574275
1929.576017,-306.438199,-1110.308913,8068.244768
1929.576335,1225.752797,-1110.308913,8586.388927
1929.576652,766.095498,-518.144159,7698.141797
1929.576970,1072.533697,-592.164754,7846.182985
1929.577287,383.047749,-1702.473667,9474.636058
1929.577605,-612.876398,-1554.432478,10066.800811
1929.577922,-689.485948,-1924.535449,11177.109724
1929.578240,-919.314598,-2220.617826,11843.295072
1929.578557,0.000000,-2442.679609,12065.356855
1929.578875,766.095498,-962.267725,10584.944971
1929.579192,1378.971896,-888.247130,10140.821405
1929.579510,2681.334243,-444.123565,9548.656652
1929.579827,3830.477490,-0.000000,8512.368333
1929.580145,3677.258390,518.144159,8216.285956
1929.580462,3294.210641,592.164754,8512.368333
1929.580779,2911.162892,-0.000000,9400.615463
1929.581097,2145.067394,-148.041188,10140.821405
1929.581414,1685.410096,-222.061783,11325.150913
1929.581732,2068.457845,518.144159,10955.047942
1929.582049,2374.896044,444.123565,11103.089130
1929.582367,2987.772442,888.247130,10066.800811
1929.582684,3830.477490,740.205942,9770.718434
1929.583002,3983.696590,1480.411884,9252.574275
1929.583319,4366.744339,1554.432478,8882.471304
1929.583637,3983.696590,1998.556043,8586.388927
1929.583954,2987.772442,2368.659014,8956.491898
1929.584272,1915.238745,2442.679609,9400.615463
1929.584589,153.219100,1850.514855,10288.862594
1929.584907,-229.828649,1850.514855,11103.089130
1929.585224,-612.876398,2220.617826,10658.965565
1929.585542,-229.828649,2664.741391,10288.862594
1929.585859,536.266849,1998.556043,9770.718434
1929.586177,919.314598,1702.473667,9104.533087
1929.586494,689.485948,1776.494261,8364.327145
1929.586812,383.047749,1924.535449,8438.347739
1929.587129,229.828649,1850.514855,8734.430116
1929.587447,-459.657299,2294.638420,8956.491898
1929.587764,-1455.581446,1998.556043,9474.636058
1929.588082,-2834.553343,1924.535449,10066.800811
1929.588399,-3370.820191,1554.432478,10658.965565
1929.588717,-3370.820191,1628.453072,10732.986159
1929.589034,-2681.334243,1554.432478,10214.842000
1929.589352,-1532.190996,1184.329507,10066.800811
1929.589669,-1149.143247,1110.308913,9474.636058
1929.589987,0.000000,518.144159,9400.615463
1929.590304,306.438199,962.267725,8660.409521
1929.590622,383.047749,1184.329507,9104.533087
1929.590939,-229.828649,1850.514855,8660.409521
1929.591256,-689.485948,1554.432478,9326.594869
1929.591574,-1455.581446,1332.370696,9622.677246
1929.591891,-2068.457845,740.205942,10362.883188
1929.592209,-1838.629195,222.061783,10214.842000
1929.592526,-995.924147,-0.000000,10140.821405
1929.592844,-76.609550,-74.020594,9622.677246
1929.593161,306.438199,-444.123565,9252.574275
1929.593479,1608.800546,-0.000000,8882.471304
1929.593796,1302.362347,518.144159,8216.285956
1929.594114,1455.581446,1258.350101,7994.224174
1929.594431,1149.143247,1554.432478,8142.265362
1929.594749,229.828649,1184.329507,8734.430116
1929.595066,-229.828649,148.041188,8956.491898
1929.595384,-689.485948,-222.061783,9696.697840
1929.595701,-459.657299,-370.102971,9992.780217
1929.596019,459.657299,-0.000000,9326.594869
1929.596336,1225.752797,-518.144159,9030.512492
1929.596654,1225.752797,-740.205942,8216.285956
1929.596971,2528.115143,-814.226536,7698.141797
1929.597289,2451.505594,-592.164754,7402.059420
1929.597606,1608.800546,-296.082377,7994.224174
1929.597924,1149.143247,-666.185348,8660.409521
1929.598241,0.000000,-1036.288319,9326.594869
1929.598559,-536.266849,-962.267725,9918.759623
1929.598876,-842.705048,-1258.350101,10362.883188
1929.599194,-383.047749,-1776.494261,10510.924376
1929.599511,459.657299,-1184.329507,9770.718434
1929.599829,1762.019645,-888.247130,9252.574275
1929.600146,2528.115143,-148.041188,8438.347739
1929.600464,3600.648841,-0.000000,7994.224174
1929.600781,3677.258390,370.102971,7698.141797
1929.601099,3753.867940,-222.061783,8068.244768
1929.601416,2451.505594,222.061783,8364.327145
1929.601733,1225.752797,-74.020594,9770.718434
1929.602051,536.266849,-296.082377,10510.924376
1929.602368,76.609550,-0.000000,10510.924376
1929.602686,612.876398,-222.061783,10955.047942
1929.603003,842.705048,-0.000000,10732.986159
1929.603321,1225.752797,-148.041188,9474.636058
1929.603638,1838.629195,296.082377,9178.553681
1929.603956,2068.457845,370.102971,9104.533087
1929.604273,1991.848295,296.082377,8956.491898
1929.604591,842.705048,370.102971,8882.471304
1929.604908,-229.828649,740.205942,9992.780217
1929.605226,-995.924147,740.205942,11029.068536
1929.605543,-2068.457845,888.247130,11473.192101
1929.605861,-1838.629195,1332.370696,11177.109724
1929.606178,-1608.800546,1480.411884,10955.047942
1929.606496,-842.705048,1258.350101,10214.842000
1929.606813,-229.828649,814.226536,9474.636058
1929.607131,612.876398,592.164754,9474.636058
1929.607448,995.924147,740.205942,9178.553681
1929.607766,919.314598,740.205942,9252.574275
1929.608083,76.609550,888.247130,9992.780217
1929.608401,-229.828649,666.185348,10732.986159
1929.608718,-995.924147,1332.370696,11251.130318
1929.609036,-1302.362347,1924.535449,11473.192101
1929.609353,-1149.143247,2220.617826,11251.130318
1929.609671,-229.828649,2072.576638,10732.986159
1929.609988,919.314598,2146.597232,9992.780217
1929.610306,2145.067394,1406.391290,9252.574275
1929.610623,2681.334243,962.267725,8882.471304
1929.610941,2987.772442,1036.288319,8438.347739
1929.611258,3064.381992,1332.370696,8438.347739
1929.611576,2068.457845,1628.453072,9252.574275
1929.611893,919.314598,1258.350101,9844.739029
1929.612210,0.000000,1110.308913,10362.883188
1929.612528,-306.438199,1110.308913,10510.924376
1929.612845,-229.828649,962.267725,10881.027347
1929.613163,842.705048,888.247130,10732.986159
1929.613480,1991.848295,444.123565,9622.677246
1929.613798,2834.553343,518.144159,9030.512492
1929.614115,3370.820191,444.123565,7920.203579
1929.614432,3217.601092,444.123565,7698.141797
1929.614750,3294.210641,444.123565,7698.141797
1929.615067,2681.334243,740.205942,8216.285956
1929.615385,1762.019645,1036.288319,9104.533087
1929.615702,612.876398,-74.020594,9696.697840
1929.616020,-229.828649,-1036.288319,9918.759623
1929.616337,229.828649,-1036.288319,10362.883188
1929.616654,229.828649,-1184.329507,9844.739029
1929.616972,919.314598,-1554.432478,9030.512492
1929.617289,1685.410096,-1036.288319,8586.388927
1929.617607,1685.410096,-1258.350101,7846.182985
1929.617924,1838.629195,-1480.411884,8216.285956
1929.618241,1378.971896,-592.164754,8586.388927
1929.618559,76.609550,-814.226536,8290.306550
1929.618876,-766.095498,-1036.288319,8808.450710
1929.619194,-1608.800546,-2368.659014,9844.739029
1929.619511,-2298.286494,-1998.556043,10584.944971
1929.619829,-1991.848295,-1998.556043,10066.800811
1929.620146,-1225.752797,-2220.617826,9622.677246
1929.620463,306.438199,-2072.576638,9252.574275
1929.620781,689.485948,-2072.576638,8216.285956
1929.621098,1762.019645,-1554.432478,7698.141797
1929.621416,1915.238745,-1702.473667,7772.162391
1929.621733,1762.019645,-1554.432478,7698.141797
1929.622050,1532.190996,-1036.288319,8142.265362
1929.622368,919.314598,-592.164754,9252.574275
1929.622685,306.438199,-740.205942,9548.656652
1929.623003,229.828649,-1036.288319,10140.821405
1929.623320,536.266849,-1036.288319,9918.759623
1929.623638,1455.581446,-1036.288319,9770.718434
1929.623955,2681.334243,-1036.288319,9178.553681
1929.624272,3600.648841,-666.185348,8364.327145
1929.624590,4060.306139,-962.267725,7624.121203
1929.624907,3907.087040,-518.144159,7550.100608
1929.625225,3830.477490,-518.144159,8068.244768
1929.625542,2451.505594,-222.061783,8512.368333
1929.625859,1378.971896,-222.061783,9178.553681
1929.626177,459.657299,148.041188,9548.656652
1929.626494,0.000000,-0.000000,9992.780217
1929.626812,459.657299,-814.226536,10510.924376
1929.627129,689.485948,-1110.308913,10140.821405
1929.627447,1838.629195,-592.164754,9400.615463
1929.627764,2834.553343,-296.082377,8660.409521
1929.628081,3140.991542,-222.061783,8216.285956
1929.628399,2911.162892,-0.000000,8364.327145
1929.628716,2451.505594,-0.000000,8660.409521
1929.629034,919.314598,666.185348,9252.574275
1929.629351,0.000000,518.144159,9992.780217
1929.629668,-1302.362347,444.123565,10955.047942
1929.629986,-1072.533697,-148.041188,11177.109724
1929.630303,-919.314598,-148.041188,10955.047942
1929.630621,-229.828649,-518.144159,10955.047942
1929.630938,383.047749,-592.164754,10066.800811
1929.631256,1302.362347,-296.082377,9474.636058
1929.631573,1838.629195,-222.061783,9104.533087
1929.631890,1455.581446,-0.000000,9030.512492
1929.632208,612.876398,296.082377,9104.533087
1929.632525,-153.219100,444.123565,9770.718434
1929.632843,-1225.752797,740.205942,10510.924376
1929.633160,-1608.800546,962.267725,10955.047942
1929.633478,-1608.800546,1036.288319,11325.150913
1929.633795,-612.876398,518.144159,11103.089130
1929.634112,0.000000,444.123565,10288.862594
1929.634430,1378.971896,592.164754,9622.677246
1929.634747,2145.067394,1036.288319,8586.388927
1929.635065,2911.162892,1258.350101,8364.327145
1929.635382,2068.457845,1702.473667,7550.100608
1929.635699,-306.438199,2294.638420,6735.874072
1929.636017,1149.143247,222.061783,10658.965565
1929.636334,-2145.067394,1332.370696,10140.821405
1929.636652,-1991.848295,888.247130,10732.986159
1929.636969,-3753.867940,-0.000000,9918.759623
1929.637287,-1608.800546,962.267725,13693.809927
1929.637604,-995.924147,-370.102971,11769.274478
1929.637921,-919.314598,222.061783,7994.224174
1929.638239,1149.143247,1406.391290,10214.842000
1929.638556,1838.629195,2146.597232,9918.759623
1929.638874,3830.477490,1924.535449,7846.182985
1929.639191,2681.334243,2516.700203,7624.121203
1929.639508,1685.410096,370.102971,10881.027347
1929.639826,459.657299,2220.617826,9030.512492
1929.640143,1838.629195,592.164754,10214.842000
1929.640461,1378.971896,222.061783,9992.780217
1929.640778,2221.676944,1776.494261,9326.594869
1929.641096,3140.991542,2072.576638,8290.306550
1929.641413,4060.306139,888.247130,8734.430116
1929.641730,5209.449386,-888.247130,9252.574275
1929.642048,3753.867940,1110.308913,6957.935855
1929.642365,3524.039291,1258.350101,9622.677246
1929.642683,2528.115143,592.164754,9474.636058
1929.643000,1532.190996,296.082377,8882.471304
1929.643317,766.095498,1258.350101,10288.862594
1929.643635,-153.219100,1184.329507,11325.150913
1929.643952,-153.219100,888.247130,9992.780217
1929.644270,1149.143247,296.082377,9844.739029
1929.644587,1991.848295,-0.000000,10140.821405
1929.644905,1608.800546,-222.061783,8512.368333
1929.645222,2298.286494,-1332.370696,8364.327145
1929.645539,2451.505594,-1628.453072,8882.471304
1929.645857,2145.067394,-444.123565,8364.327145
1929.646174,766.095498,1036.288319,8068.244768
1929.646492,0.000000,518.144159,9474.636058
1929.646809,-1302.362347,-222.061783,9622.677246
1929.647126,-3064.381992,-370.102971,8734.430116
1929.647444,-3907.087040,-222.061783,10066.800811
1929.647761,-1302.362347,-2886.803174,11547.212695
1929.648079,-1762.019645,-1554.432478,8882.471304
1929.648396,76.609550,-1776.494261,9104.533087
1929.648714,-766.095498,-962.267725,8142.265362
1929.649031,919.314598,-2072.576638,10658.965565
1929.649348,536.266849,-2590.720797,9252.574275
1929.649666,-536.266849,-1406.391290,8068.244768
1929.649983,-612.876398,444.123565,11029.068536
1929.650301,-842.705048,-148.041188,11103.089130
1929.650618,-536.266849,-222.061783,9178.553681
1929.650935,306.438199,-0.000000,10288.862594
1929.651253,306.438199,-666.185348,10288.862594
1929.651570,1532.190996,1110.308913,7179.997637
1929.651888,3600.648841,-1776.494261,7846.182985
1929.652205,3753.867940,-1332.370696,7254.018232
1929.652523,3600.648841,-0.000000,7328.038826
1929.652840,2757.943793,-0.000000,6883.915261
1929.653157,2374.896044,-2146.597232,9400.615463
1929.653475,1838.629195,-1258.350101,9770.718434
1929.653792,383.047749,370.102971,9030.512492
1929.654110,536.266849,296.082377,11029.068536
1929.654427,995.924147,-962.267725,10881.027347
1929.654744,2068.457845,-814.226536,9622.677246
1929.655062,2987.772442,518.144159,9474.636058
1929.655379,3983.696590,666.185348,8734.430116
1929.655697,4673.182538,740.205942,6957.935855
1929.656014,5439.278036,814.226536,7550.100608
1929.656332,3907.087040,888.247130,8216.285956
1929.656649,2681.334243,888.247130,8216.285956
1929.656966,2068.457845,740.205942,9252.574275
1929.657284,995.924147,148.041188,10362.883188
1929.657601,842.705048,1110.308913,10214.842000
1929.657919,306.438199,1332.370696,9030.512492
1929.658236,1072.533697,222.061783,9770.718434
1929.658553,1608.800546,-0.000000,9326.594869
1929.658871,2145.067394,370.102971,7994.224174
1929.659188,1685.410096,1036.288319,8068.244768
1929.659506,1608.800546,814.226536,8882.471304
1929.659823,689.485948,888.247130,8586.388927
1929.660141,-306.438199,1258.350101,9326.594869
1929.660458,-1838.629195,1332.370696,10510.924376
1929.660775,-2451.505594,814.226536,11103.089130
1929.661093,-2604.724693,888.247130,10881.027347
1929.661410,-2374.896044,1184.329507,10955.047942
1929.661728,-1608.800546,962.267725,11399.171507
1929.662045,-689.485948,814.226536,10140.821405
1929.662362,-306.438199,296.082377,9696.697840
1929.662680,76.609550,1184.329507,9252.574275
1929.662997,459.657299,2146.597232,8882.471304
1929.663315,-229.828649,2146.597232,9326.594869
1929.663632,-1072.533697,1702.473667,9918.759623
1929.663950,-1991.848295,1184.329507,10807.006753
1929.664267,-2298.286494,1406.391290,11325.150913
1929.664584,-1455.581446,1406.391290,11473.192101
1929.664902,-766.095498,666.185348,10807.006753
1929.665219,0.000000,1110.308913,10288.862594
1929.665537,536.266849,1702.473667,9400.615463
1929.665854,1378.971896,1406.391290,8438.347739
1929.666171,1991.848295,1036.288319,8512.368333
1929.666489,1532.190996,1554.432478,9178.553681
1929.666806,766.095498,2072.576638,9474.636058
1929.667124,-306.438199,2072.576638,9696.697840
1929.667441,-1302.362347,2072.576638,10732.986159
1929.667759,-1915.238745,1554.432478,11251.130318
1929.668076,-1915.238745,1776.494261,11399.171507
1929.668393,-995.924147,2294.638420,9918.759623
1929.668711,76.609550,2442.679609,9252.574275
1929.669028,1762.019645,1850.514855,8882.471304
1929.669346,2068.457845,1406.391290,8216.285956
1929.669663,2298.286494,1554.432478,7698.141797
1929.669980,1685.410096,1480.411884,7698.141797
1929.670298,919.314598,1184.329507,8364.327145
1929.670615,229.828649,1332.370696,9252.574275
1929.670933,-689.485948,1110.308913,9696.697840
1929.671250,-1455.581446,962.267725,10288.862594
1929.671568,-919.314598,814.226536,10732.986159
1929.671885,0.000000,370.102971,10510.924376
1929.672202,689.485948,1110.308913,9326.594869
1929.672520,1915.238745,1332.370696,8734.430116
1929.672837,2451.505594,814.226536,8068.244768
1929.673155,2451.505594,444.123565,8068.244768
1929.673472,2298.286494,-0.000000,8512.368333
1929.673789,1455.581446,-0.000000,9030.512492
1929.674107,766.095498,-518.144159,9992.780217
1929.674424,-153.219100,-148.041188,10584.944971
1929.674742,-536.266849,-296.082377,11029.068536
1929.675059,-229.828649,-518.144159,10658.965565
1929.675377,76.609550,-666.185348,10436.903782
1929.675694,1149.143247,-814.226536,9548.656652
1929.676011,2068.457845,-370.102971,9030.512492
1929.676329,2681.334243,-296.082377,8586.388927
1929.676646,2757.943793,-444.123565,8438.347739
1929.676964,2221.676944,-444.123565,8882.471304
1929.677281,1838.629195,-296.082377,9030.512492
1929.677599,306.438199,-296.082377,9918.759623
1929.677916,-536.266849,-296.082377,10140.821405
1929.678233,-689.485948,-370.102971,10584.944971
1929.678551,-229.828649,-444.123565,10140.821405
1929.678868,306.438199,-666.185348,9844.739029
1929.679186,1072.533697,-740.205942,8956.491898
1929.679503,1072.533697,-1258.350101,8512.368333
1929.679820,2068.457845,-888.247130,8290.306550
1929.680138,1838.629195,-888.247130,8068.244768
1929.680455,1072.533697,-740.205942,8586.388927
1929.680773,0.000000,-1036.288319,9400.615463
1929.681090,-842.705048,-962.267725,10140.821405
1929.681408,-1532.190996,-222.061783,10362.883188
1929.681725,-1838.629195,-222.061783,10436.903782
1929.682042,-919.314598,-370.102971,10214.842000
1929.682360,76.609550,-666.185348,9696.697840
1929.682677,1072.533697,-888.247130,8734.430116
1929.682995,1991.848295,-1036.288319,8142.265362
1929.683312,2604.724693,-518.144159,7624.121203
1929.683629,2834.553343,-370.102971,7476.080014
1929.683947,2528.115143,296.082377,7994.224174
1929.684264,1762.019645,370.102971,8660.409521
1929.684582,689.485948,592.164754,8734.430116
1929.684899,612.876398,222.061783,9252.574275
1929.685217,536.266849,148.041188,9548.656652
1929.685534,1225.752797,-0.000000,9474.636058
1929.685851,1532.190996,-222.061783,8956.491898
1929.686169,2221.676944,-296.082377,8586.388927
1929.686486,2911.162892,-0.000000,7994.224174
1929.686804,3140.991542,296.082377,7846.182985
1929.687121,2374.896044,370.102971,8216.285956
1929.687438,1762.019645,1036.288319,8882.471304
1929.687756,1149.143247,1258.350101,9400.615463
1929.688073,-306.438199,1258.350101,9474.636058
1929.688391,-919.314598,1184.329507,10214.842000
1929.688708,-919.314598,1110.308913,9992.780217
1929.689026,-612.876398,666.185348,10288.862594
1929.689343,0.000000,-0.000000,9844.739029
1929.689660,536.266849,-0.000000,9622.677246
1929.689978,1072.533697,-222.061783,9696.697840
1929.690295,1072.533697,-0.000000,8734.430116
1929.690613,766.095498,592.164754,9104.533087
1929.690930,76.609550,1480.411884,9400.615463
1929.691247,-229.828649,1776.494261,9770.718434
1929.691565,-612.876398,1406.391290,9918.759623
1929.691882,-919.314598,1406.391290,10510.924376
1929.692200,-612.876398,1036.288319,10732.986159
1929.692517,0.000000,518.144159,10436.903782
1929.692835,383.047749,296.082377,9918.759623
1929.693152,1225.752797,-0.000000,9622.677246
1929.693469,1838.629195,222.061783,9030.512492
1929.693787,1532.190996,518.144159,9030.512492
1929.694104,1762.019645,740.205942,9474.636058
1929.694422,689.485948,888.247130,9548.656652
1929.694739,-153.219100,370.102971,10288.862594
1929.695056,-995.924147,296.082377,10881.027347
1929.695374,-1149.143247,592.164754,11621.233289
1929.695691,-1149.143247,296.082377,11325.150913
1929.696009,0.000000,-74.020594,11473.192101
1929.696326,689.485948,148.041188,10658.965565
1929.696644,2145.067394,444.123565,10066.800811
1929.696961,2604.724693,518.144159,9400.615463
1929.697278,2987.772442,518.144159,9104.533087
1929.697596,2987.772442,592.164754,9326.594869
1929.697913,2451.505594,740.205942,9326.594869
1929.698231,1532.190996,962.267725,9696.697840
1929.698548,1072.533697,148.041188,10214.842000
1929.698865,459.657299,222.061783,10362.883188
1929.699183,995.924147,-444.123565,10510.924376
1929.699500,1532.190996,-740.205942,10140.821405
1929.699818,2068.457845,-1036.288319,9548.656652
1929.700135,2528.115143,-592.164754,8438.347739
1929.700453,2757.943793,-962.267725,8364.327145
1929.700770,2834.553343,-814.226536,8586.388927
1929.701087,1991.848295,-666.185348,8512.368333
1929.701405,1072.533697,-444.123565,8734.430116
1929.701722,-306.438199,-370.102971,9178.553681
1929.702040,-766.095498,-592.164754,9548.656652
1929.702357,-995.924147,-444.123565,9770.718434
1929.702674,-995.924147,-592.164754,9770.718434
1929.702992,-383.047749,-888.247130,9474.636058
1929.703309,229.828649,-962.267725,9030.512492
1929.703627,1762.019645,-1332.370696,8586.388927
1929.703944,1532.190996,-1110.308913,7846.182985
1929.704262,1225.752797,-1036.288319,7624.121203
1929.704579,689.485948,-370.102971,8068.244768
1929.704896,459.657299,-518.144159,8586.388927
1929.705214,-919.314598,-0.000000,9178.553681
1929.705531,-1302.362347,-0.000000,9696.697840
1929.705849,-1225.752797,-0.000000,9844.739029
1929.706166,-919.314598,-592.164754,9548.656652
1929.706483,0.000000,-1036.288319,9326.594869
1929.706801,689.485948,-1184.329507,8734.430116
1929.707118,1838.629195,-666.185348,8142.265362
1929.707436,2374.896044,-0.000000,7254.018232
1929.707753,2068.457845,370.102971,7550.100608
1929.708071,1455.581446,518.144159,8290.306550
1929.708388,766.095498,1110.308913,8142.265362
1929.708705,0.000000,1036.288319,9030.512492
1929.709023,-536.266849,1036.288319,9622.677246
1929.709340,-153.219100,740.205942,9696.697840
1929.709658,229.828649,222.061783,9622.677246
1929.709975,766.095498,222.061783,9326.594869
1929.710292,1915.238745,-0.000000,8660.409521
1929.710610,2298.286494,296.082377,8438.347739
1929.710927,2528.115143,148.041188,8216.285956
1929.711245,2068.457845,222.061783,8660.409521
1929.711562,1225.752797,222.061783,9548.656652
1929.711880,536.266849,518.144159,10140.821405
1929.712197,-229.828649,740.205942,10288.862594
1929.712514,-459.657299,888.247130,11103.089130
1929.712832,0.000000,814.226536,11103.089130
1929.713149,459.657299,444.123565,10732.986159
1929.713467,1455.581446,-148.041188,10658.965565
1929.713784,2528.115143,-0.000000,10362.883188
1929.714101,3140.991542,-666.185348,9844.739029
1929.714419,3064.381992,-296.082377,9548.656652
1929.714736,2681.334243,148.041188,9474.636058
1929.715054,1991.848295,740.205942,10140.821405
1929.715371,1149.143247,1110.308913,10288.862594
1929.715688,383.047749,666.185348,11325.150913
1929.716006,0.000000,-0.000000,11473.192101
1929.716323,0.000000,-0.000000,11399.171507
1929.716641,536.266849,-444.123565,11399.171507
1929.716958,1225.752797,-740.205942,10732.986159
1929.717275,2068.457845,-370.102971,9400.615463
1929.717593,3064.381992,-296.082377,8956.491898
1929.717910,2987.772442,148.041188,8808.450710
1929.718228,2987.772442,444.123565,8734.430116
1929.718545,1915.238745,592.164754,9030.512492
1929.718862,1378.971896,444.123565,9696.697840
1929.719180,459.657299,518.144159,9992.780217
1929.719497,306.438199,814.226536,9770.718434
1929.719815,383.047749,148.041188,10140.821405
1929.720132,1225.752797,-0.000000,9844.739029
1929.720449,1762.019645,-0.000000,9104.533087
1929.720767,2374.896044,-148.041188,8290.306550
1929.721084,2681.334243,-0.000000,8068.244768
1929.721402,2221.676944,-0.000000,7550.100608
1929.721719,1915.238745,222.061783,7846.182985
1929.722036,995.924147,888.247130,8068.244768
1929.722354,-229.828649,444.123565,8660.409521
1929.722671,-919.314598,370.102971,9548.656652
1929.722989,-1149.143247,-0.000000,9252.574275
1929.723306,0.000000,-444.123565,9918.759623
1929.723623,-229.828649,-296.082377,9474.636058
1929.723941,306.438199,-444.123565,8512.368333
1929.724258,1685.410096,-222.061783,7846.182985
1929.724576,1991.848295,-148.041188,7402.059420
1929.724893,2145.067394,-74.020594,7476.080014
1929.725210,1608.800546,444.123565,6883.915261
1929.725528,842.705048,888.247130,7772.162391
1929.725845,-229.828649,-0.000000,8882.471304
1929.726163,-842.705048,-296.082377,9622.677246
1929.726480,-1532.190996,-370.102971,9992.780217
1929.726797,-1225.752797,-518.144159,10214.842000
1929.727115,-766.095498,-370.102971,9844.739029
1929.727432,306.438199,-518.144159,9252.574275
1929.727749,1378.971896,-518.144159,8956.491898
1929.728067,1455.581446,-148.041188,8068.244768
1929.728384,1532.190996,-148.041188,8142.265362
1929.728702,995.924147,592.164754,8660.409521
1929.729019,306.438199,888.247130,8734.430116
1929.729336,-229.828649,962.267725,9474.636058
1929.729654,-689.485948,592.164754,10214.842000
1929.729971,-612.876398,740.205942,10807.006753
1929.730289,-306.438199,518.144159,10510.924376
1929.730606,383.047749,222.061783,10066.800811
1929.730923,1532.190996,222.061783,9992.780217
1929.731241,2451.505594,444.123565,9252.574275
1929.731558,2604.724693,740.205942,8438.347739
1929.731876,2451.505594,962.267725,8438.347739
1929.732193,2221.676944,888.247130,9030.512492
1929.732510,919.314598,1036.288319,9918.759623
1929.732828,229.828649,666.185348,10584.944971
1929.733145,-459.657299,592.164754,11251.130318
1929.733463,-766.095498,740.205942,11251.130318
1929.733780,0.000000,518.144159,11177.109724
1929.734097,842.705048,-0.000000,10436.903782
1929.734415,1532.190996,296.082377,9696.697840
1929.734732,1991.848295,-0.000000,9178.553681
1929.735050,2298.286494,370.102971,8660.409521
1929.735367,2451.505594,740.205942,9104.533087
1929.735684,1685.410096,888.247130,9178.553681
1929.736002,229.828649,592.164754,9992.780217
1929.736319,-689.485948,444.123565,10584.944971
1929.736637,-1149.143247,740.205942,11547.212695
1929.736954,-1149.143247,592.164754,11547.212695
1929.737271,-612.876398,592.164754,11325.150913
1929.737589,0.000000,370.102971,10732.986159
1929.737906,995.924147,222.061783,9918.759623
1929.738224,2145.067394,370.102971,9400.615463
1929.738541,2221.676944,814.226536,8734.430116
1929.738858,2221.676944,518.144159,8882.471304
1929.739176,1378.971896,962.267725,8956.491898
1929.739493,383.047749,1184.329507,9030.512492
1929.739810,-229.828649,666.185348,9992.780217
1929.740128,-1455.581446,888.247130,10436.903782
1929.740445,-995.924147,740.205942,10140.821405
1929.740763,-536.266849,296.082377,9326.594869
1929.741080,76.609550,-0.000000,9474.636058
1929.741397,536.266849,-444.123565,8586.388927
1929.741715,1149.143247,-370.102971,8068.244768
1929.742032,1685.410096,-222.061783,7698.141797
1929.742350,1378.971896,148.041188,7994.224174
1929.742667,612.876398,888.247130,8068.244768
1929.742984,0.000000,740.205942,8438.347739
1929.743302,-995.924147,1036.288319,8808.450710
1929.743619,-1225.752797,962.267725,9178.553681
1929.743937,-1608.800546,666.185348,9474.636058
1929.744254,-842.705048,-0.000000,9474.636058
1929.744571,-459.657299,-444.123565,8660.409521
1929.744889,383.047749,-0.000000,8734.430116
1929.745206,1608.800546,444.123565,8068.244768
1929.745524,1838.629195,444.123565,7772.162391
1929.745841,1915.238745,592.164754,7994.224174
1929.746158,1302.362347,592.164754,8882.471304
1929.746476,536.266849,888.247130,9326.594869
1929.746793,153.219100,666.185348,9770.718434
1929.747111,-153.219100,592.164754,9992.780217
1929.747428,76.609550,592.164754,9918.759623
1929.747745,612.876398,296.082377,9696.697840
1929.748063,1455.581446,148.041188,9400.615463
1929.748380,2528.115143,-0.000000,8808.450710
1929.748698,2757.943793,-0.000000,8512.368333
1929.749015,2528.115143,-148.041188,8882.471304
1929.749332,2451.505594,-0.000000,8956.491898
1929.749650,1302.362347,74.020594,9178.553681
1929.749967,459.657299,370.102971,9844.739029
1929.750285,0.000000,148.041188,10807.006753
1929.750602,-459.657299,296.082377,10510.924376
1929.750919,0.000000,444.123565,10881.027347
1929.751237,306.438199,-666.185348,10436.903782
1929.751554,1378.971896,-148.041188,9918.759623
1929.751871,2298.286494,-0.000000,9104.533087
1929.752189,2451.505594,-74.020594,8808.450710
1929.752506,2681.334243,-0.000000,8956.491898
1929.752824,2374.896044,592.164754,8882.471304
1929.753141,995.924147,740.205942,8808.450710
1929.753458,306.438199,666.185348,9474.636058
1929.753776,-612.876398,666.185348,10288.862594
1929.754093,-842.705048,740.205942,10436.903782
1929.754411,-536.266849,296.082377,10436.903782
1929.754728,-612.876398,-296.082377,10732.986159
1929.755045,0.000000,-296.082377,9992.780217
1929.755363,1072.533697,-148.041188,9400.615463
1929.755680,995.924147,-222.061783,9104.533087
1929.755998,1302.362347,-296.082377,9252.574275
1929.756315,689.485948,222.061783,9104.533087
1929.756632,153.219100,370.102971,9030.512492
1929.756950,-612.876398,592.164754,9992.780217
1929.757267,-995.924147,444.123565,10214.842000
1929.757585,-995.924147,444.123565,10066.800811
1929.757902,-612.876398,-0.000000,10066.800811
1929.758219,0.000000,-222.061783,10362.883188
1929.758537,995.924147,-370.102971,9622.677246
1929.758854,2145.067394,-370.102971,9030.512492
1929.759172,2374.896044,-0.000000,8216.285956
1929.759489,2757.943793,-0.000000,8290.306550
1929.759806,2451.505594,592.164754,8512.368333
1929.760124,1991.848295,666.185348,8512.368333
1929.760441,995.924147,518.144159,9178.553681
1929.760759,383.047749,444.123565,9992.780217
1929.761076,0.000000,888.247130,10214.842000
1929.761393,229.828649,518.144159,9770.718434
1929.761711,766.095498,666.185348,9548.656652
1929.762028,1378.971896,148.041188,9474.636058
1929.762346,1991.848295,-74.020594,8956.491898
1929.762663,2221.676944,-296.082377,8586.388927
1929.762980,1762.019645,-296.082377,8808.450710
1929.763298,766.095498,-0.000000,9474.636058
1929.763615,229.828649,222.061783,9474.636058
1929.763933,-842.705048,296.082377,9622.677246
1929.764250,-1762.019645,370.102971,10510.924376
1929.764567,-1532.190996,-0.000000,10436.903782
1929.764885,-1149.143247,-222.061783,10362.883188
1929.765202,0.000000,-592.164754,9770.718434
1929.765519,842.705048,-518.144159,9178.553681
1929.765837,1302.362347,-444.123565,8142.265362
1929.766154,2145.067394,-296.082377,7920.203579
1929.766472,1532.190996,-148.041188,7698.141797
1929.766789,1378.971896,-0.000000,8290.306550
1929.767106,766.095498,370.102971,8660.409521
1929.767424,-153.219100,370.102971,9178.553681
1929.767741,-995.924147,444.123565,9622.677246
1929.768059,-1072.533697,296.082377,9918.759623
1929.768376,-536.266849,-222.061783,9918.759623
1929.768693,-306.438199,-148.041188,9474.636058
1929.769011,919.314598,-148.041188,9400.615463
1929.769328,1225.752797,-222.061783,8586.388927
1929.769646,1532.190996,148.041188,8438.347739
1929.769963,1149.143247,592.164754,8660.409521
1929.770280,995.924147,962.267725,9178.553681
1929.770598,153.219100,1406.391290,8808.450710
1929.770915,-612.876398,1406.391290,9548.656652
1929.771233,-919.314598,1258.350101,9844.739029
1929.771550,-995.924147,814.226536,10436.903782
1929.771867,-229.828649,370.102971,10362.883188
1929.772185,306.438199,-0.000000,10066.800811
1929.772502,919.314598,-0.000000,9474.636058
1929.772820,1532.190996,444.123565,8956.491898
1929.773137,2145.067394,740.205942,8956.491898
1929.773454,1608.800546,740.205942,8586.388927
1929.773772,1302.362347,1628.453072,8586.388927
1929.774089,459.657299,1776.494261,8882.471304
1929.774407,-229.828649,1554.432478,9918.759623
1929.774724,-459.657299,888.247130,10288.862594
1929.775041,-612.876398,740.205942,10436.903782
1929.775359,0.000000,148.041188,10510.924376
1929.775676,459.657299,-148.041188,10140.821405
1929.775994,1455.581446,-0.000000,9326.594869
1929.776311,2145.067394,-0.000000,9030.512492
1929.776628,1685.410096,370.102971,8882.471304
1929.776946,1685.410096,888.247130,8660.409521
1929.777263,612.876398,1184.329507,9252.574275
1929.777580,0.000000,888.247130,9622.677246
1929.777898,-689.485948,814.226536,10658.965565
1929.778215,-842.705048,888.247130,11177.109724
1929.778533,-842.705048,962.267725,11325.150913
1929.778850,-153.219100,592.164754,10881.027347
1929.779167,766.095498,296.082377,10362.883188
1929.779485,1762.019645,666.185348,10214.842000
1929.779802,2757.943793,-0.000000,9400.615463
1929.780120,2911.162892,666.185348,8660.409521
1929.780437,2911.162892,740.205942,8956.491898
1929.780754,2604.724693,962.267725,9252.574275
1929.781072,1838.629195,888.247130,9252.574275
1929.781389,995.924147,592.164754,9770.718434
1929.781707,766.095498,222.061783,10362.883188
1929.782024,459.657299,-0.000000,10214.842000
1929.782341,1302.362347,-148.041188,10288.862594
1929.782659,1685.410096,-740.205942,9474.636058
1929.782976,2604.724693,-1332.370696,9030.512492
1929.783294,2757.943793,-1406.391290,8364.327145
1929.783611,2757.943793,-1184.329507,8586.388927
1929.783928,2451.505594,-1110.308913,8956.491898
1929.784246,1225.752797,-592.164754,8586.388927
1929.784563,459.657299,-592.164754,9474.636058
1929.784881,-229.828649,-444.123565,9918.759623
1929.785198,-229.828649,-592.164754,10510.924376
1929.785515,-306.438199,-1036.288319,10510.924376
1929.785833,229.828649,-1184.329507,10214.842000
1929.786150,1149.143247,-1554.432478,9474.636058
1929.786468,1915.238745,-1110.308913,8734.430116
1929.786785,2298.286494,-1036.288319,8512.368333
1929.787102,2451.505594,-962.267725,8142.265362
1929.787420,2528.115143,-370.102971,8142.265362
1929.787737,1685.410096,-148.041188,8290.306550
1929.788055,1608.800546,-296.082377,9104.533087
1929.788372,229.828649,-148.041188,9104.533087
1929.788689,0.000000,-0.000000,9104.533087
1929.789007,153.219100,-222.061783,9400.615463
1929.789324,689.485948,-1258.350101,9400.615463
1929.789642,1455.581446,-1110.308913,8660.409521
1929.789959,1915.238745,-1480.411884,8290.306550
1929.790276,2451.505594,-1110.308913,7994.224174
1929.790594,2145.067394,-888.247130,7920.203579
1929.790911,1838.629195,-296.082377,7994.224174
1929.791228,766.095498,-0.000000,8290.306550
1929.791546,-153.219100,296.082377,9104.533087
1929.791863,-536.266849,518.144159,9178.553681
1929.792181,-306.438199,666.185348,9104.533087
1929.792498,0.000000,-370.102971,9770.718434
1929.792815,383.047749,-666.185348,9400.615463
1929.793133,919.314598,-518.144159,8586.388927
1929.793450,1762.019645,-666.185348,8142.265362
1929.793768,1915.238745,-740.205942,8142.265362
1929.794085,1608.800546,-74.020594,8364.327145
1929.794402,1455.581446,-0.000000,8734.430116
1929.794720,995.924147,592.164754,8660.409521
1929.795037,-229.828649,1110.308913,9400.615463
1929.795355,0.000000,592.164754,10214.842000
1929.795672,-153.219100,814.226536,10214.842000
1929.795989,0.000000,-0.000000,10362.883188
1929.796307,766.095498,-0.000000,10140.821405
1929.796624,995.924147,-0.000000,9548.656652
1929.796942,2068.457845,148.041188,9474.636058
1929.797259,2221.676944,444.123565,9178.553681
1929.797576,2298.286494,962.267725,9104.533087
1929.797894,1762.019645,1110.308913,9696.697840
1929.798211,0.000000,1110.308913,9696.697840
1929.798529,0.000000,888.247130,10510.924376
1929.798846,-842.705048,888.247130,11547.212695
1929.799163,-766.095498,1036.288319,10732.986159
1929.799481,-383.047749,592.164754,10881.027347
1929.799798,0.000000,370.102971,10881.027347
1929.800116,1225.752797,518.144159,10510.924376
1929.800433,1608.800546,666.185348,9178.553681
1929.800750,1915.238745,1184.329507,9326.594869
1929.801068,2221.676944,1110.308913,9548.656652
1929.801385,1991.848295,1554.432478,9178.553681
1929.801703,1149.143247,1776.494261,9696.697840
1929.802020,536.266849,1406.391290,10140.821405
1929.802337,229.828649,2146.597232,9918.759623
1929.802655,229.828649,2072.576638,9918.759623
1929.802972,536.266849,1628.453072,10066.800811
1929.803289,1225.752797,1110.308913,10214.842000
1929.803607,1838.629195,666.185348,9474.636058
1929.803924,2145.067394,962.267725,8808.450710
1929.804242,1762.019645,518.144159,8808.450710
1929.804559,1838.629195,888.247130,8956.491898
1929.804876,1072.533697,1406.391290,9400.615463
1929.805194,-306.438199,740.205942,9696.697840
1929.805511,-1378.971896,592.164754,10140.821405
1929.805829,-1608.800546,370.102971,10881.027347
1929.806146,-1608.800546,222.061783,10881.027347
1929.806463,-1072.533697,-296.082377,10510.924376
1929.806781,-306.438199,-0.000000,10066.800811
1929.807098,689.485948,-0.000000,9326.594869
1929.807416,1532.190996,-0.000000,8660.409521
1929.807733,1991.848295,-222.061783,8438.347739
1929.808050,2604.724693,-0.000000,8882.471304
1929.808368,1762.019645,296.082377,8438.347739
1929.808685,689.485948,-0.000000,8660.409521
1929.809003,0.000000,222.061783,9474.636058
1929.809320,-76.609550,-0.000000,9918.759623
1929.809637,76.609550,-0.000000,9474.636058
1929.809955,383.047749,-0.000000,9178.553681
1929.810272,1149.143247,-222.061783,8956.491898
1929.810590,1762.019645,-370.102971,8660.409521
1929.810907,1838.629195,-370.102971,8142.265362
1929.811224,2298.286494,-222.061783,7994.224174
1929.811542,1302.362347,-0.000000,8364.327145
1929.811859,612.876398,370.102971,8956.491898
1929.812177,76.609550,592.164754,9474.636058
1929.812494,-919.314598,444.123565,9918.759623
1929.812811,-995.924147,592.164754,10214.842000
1929.813129,-766.095498,370.102971,9992.780217
1929.813446,-229.828649,370.102971,9474.636058
1929.813763,536.266849,74.020594,8882.471304
1929.814081,1532.190996,-370.102971,8512.368333
1929.814398,2298.286494,-0.000000,7846.182985
1929.814715,2298.286494,-148.041188,7920.203579
1929.815032,1991.848295,-0.000000,7994.224174
1929.815350,1608.800546,222.061783,8808.450710
1929.815667,919.314598,222.061783,9326.594869
1929.815984,0.000000,444.123565,9400.615463
1929.816302,76.609550,222.061783,10066.800811
1929.816619,306.438199,-0.000000,9918.759623
1929.816936,919.314598,-444.123565,9622.677246
1929.817254,1685.410096,-740.205942,9178.553681
1929.817571,2374.896044,-888.247130,9400.615463
1929.817888,2374.896044,-814.226536,8364.327145
1929.818206,2451.505594,-666.185348,9178.553681
1929.818523,1378.971896,-0.000000,9622.677246
1929.818840,1225.752797,444.123565,9992.780217
1929.819158,383.047749,296.082377,10066.800811
1929.819475,-612.876398,296.082377,10658.965565
1929.819792,-536.266849,296.082377,10881.027347
1929.820110,0.000000,-0.000000,10955.047942
1929.820427,995.924147,-222.061783,10584.944971
1929.820744,1149.143247,-592.164754,10066.800811
1929.821061,1991.848295,-148.041188,9400.615463
1929.821379,2681.334243,-222.061783,9474.636058
1929.821696,2528.115143,-222.061783,9326.594869
1929.822013,1915.238745,370.102971,9326.594869
1929.822331,1302.362347,962.267725,9400.615463
1929.822648,536.266849,1184.329507,9770.718434
1929.822965,306.438199,370.102971,10214.842000
1929.823283,-383.047749,222.061783,10362.883188
1929.823600,-536.266849,-370.102971,10214.842000
1929.823917,536.266849,-0.000000,9548.656652
1929.824235,919.314598,-74.020594,9104.533087
1929.824552,1072.533697,-148.041188,9104.533087
1929.824869,1532.190996,370.102971,8438.347739
1929.825187,995.924147,370.102971,8438.347739
1929.825504,536.266849,814.226536,8290.306550
1929.825821,-153.219100,1110.308913,8586.388927
1929.826139,-1225.752797,814.226536,9474.636058
1929.826456,-1762.019645,962.267725,9770.718434
1929.826773,-1532.190996,666.185348,9548.656652
1929.827090,-1225.752797,-0.000000,9992.780217
1929.827408,-612.876398,-370.102971,9918.759623
1929.827725,0.000000,-0.000000,8882.471304
1929.828042,612.876398,370.102971,8586.388927
1929.828360,842.705048,370.102971,8586.388927
1929.828677,919.314598,370.102971,9178.553681
1929.828994,1072.533697,962.267725,9252.574275
1929.829312,76.609550,888.247130,9474.636058
1929.829629,-229.828649,962.267725,9844.739029
1929.829946,-229.828649,1184.329507,10066.800811
1929.830264,0.000000,1110.308913,10214.842000
1929.830581,689.485948,1184.329507,9992.780217
1929.830898,1302.362347,666.185348,9548.656652
1929.831216,2451.505594,592.164754,9030.512492
1929.831533,2681.334243,740.205942,8364.327145
1929.831850,2757.943793,-0.000000,8364.327145
1929.832168,2298.286494,-0.000000,8586.388927
1929.832485,1378.971896,-0.000000,9178.553681
1929.832802,383.047749,444.123565,9770.718434
1929.833119,-459.657299,592.164754,10288.862594
1929.833437,-612.876398,740.205942,10436.903782
1929.833754,-229.828649,740.205942,10214.842000
1929.834071,0.000000,518.144159,9918.759623
1929.834389,842.705048,592.164754,9548.656652
1929.834706,1302.362347,1184.329507,8512.368333
1929.835023,2068.457845,888.247130,8364.327145
1929.835341,2068.457845,296.082377,8512.368333
1929.835658,1838.629195,444.123565,8808.450710
1929.835975,1225.752797,1036.288319,8882.471304
1929.836293,0.000000,888.247130,9474.636058
1929.836610,-383.047749,962.267725,10066.800811
1929.836927,-536.266849,1036.288319,10436.903782
1929.837245,-919.314598,518.144159,10362.883188
1929.837562,-842.705048,518.144159,9992.780217
1929.837879,229.828649,222.061783,9918.759623
1929.838196,612.876398,814.226536,9178.553681
1929.838514,1072.533697,518.144159,9030.512492
1929.838831,842.705048,222.061783,9104.533087
1929.839148,0.000000,-0.000000,9696.697840
1929.839466,-689.485948,-74.020594,10066.800811
1929.839783,-1378.971896,-74.020594,10214.842000
1929.840100,-1838.629195,-0.000000,11103.089130
1929.840418,-1608.800546,148.041188,11251.130318
1929.840735,-842.705048,-0.000000,10362.883188
1929.841052,-229.828649,-296.082377,9844.739029
1929.841370,842.705048,-296.082377,9622.677246
1929.841687,1838.629195,-296.082377,8808.450710
1929.842004,2528.115143,-0.000000,8216.285956
1929.842322,2298.286494,-0.000000,8808.450710
1929.842639,1915.238745,222.061783,9252.574275
1929.842956,1378.971896,666.185348,8808.450710
1929.843274,689.485948,740.205942,9548.656652
1929.843591,306.438199,518.144159,9992.780217
1929.843908,383.047749,296.082377,10288.862594
1929.844225,383.047749,-370.102971,10140.821405
1929.844543,1072.533697,-518.144159,9992.780217
1929.844860,1608.800546,-370.102971,9400.615463
1929.845177,2374.896044,-0.000000,8586.388927
1929.845495,2911.162892,444.123565,8364.327145
1929.845812,2068.457845,370.102971,8586.388927
1929.846129,1455.581446,666.185348,9104.533087
1929.846447,689.485948,1036.288319,9252.574275
1929.846764,306.438199,888.247130,9770.718434
1929.847081,229.828649,296.082377,10066.800811
1929.847399,-383.047749,-0.000000,9992.780217
1929.847716,153.219100,-370.102971,9474.636058
1929.848033,1072.533697,-666.185348,9178.553681
1929.848351,1378.971896,-370.102971,8216.285956
1929.848668,2068.457845,-370.102971,7476.080014
1929.848985,2068.457845,-296.082377,7328.038826
1929.849303,1838.629195,-444.123565,7772.162391
1929.849620,689.485948,-296.082377,8438.347739
1929.849937,0.000000,-148.041188,8808.450710
1929.850254,-842.705048,-0.000000,9400.615463
1929.850572,-1302.362347,-74.020594,9696.697840
1929.850889,-1532.190996,-222.061783,10362.883188
1929.851206,-842.705048,-592.164754,10066.800811
1929.851524,-612.876398,-888.247130,9548.656652
1929.851841,842.705048,-222.061783,9696.697840
1929.852158,1608.800546,-370.102971,9178.553681
1929.852476,1838.629195,-148.041188,8734.430116
1929.852793,1838.629195,-0.000000,8882.471304
1929.853110,689.485948,814.226536,9326.594869
1929.853428,536.266849,888.247130,9252.574275
1929.853745,229.828649,962.267725,9474.636058
1929.854062,0.000000,1036.288319,9696.697840
1929.854380,0.000000,666.185348,10140.821405
1929.854697,842.705048,-0.000000,9622.677246
1929.855014,1149.143247,148.041188,9178.553681
1929.855332,1838.629195,-444.123565,8660.409521
1929.855649,1838.629195,-444.123565,8734.430116
1929.855966,2145.067394,-370.102971,8882.471304
1929.856283,1685.410096,-148.041188,9400.615463
1929.856601,612.876398,-0.000000,9622.677246
1929.856918,0.000000,-0.000000,10140.821405
1929.857235,-536.266849,296.082377,10732.986159
1929.857553,-306.438199,-0.000000,10658.965565
1929.857870,0.000000,222.061783,10214.842000
1929.858187,919.314598,222.061783,10066.800811
1929.858505,1608.800546,222.061783,9252.574275
1929.858822,2834.553343,370.102971,8660.409521
1929.859139,3064.381992,888.247130,8216.285956
1929.859457,3294.210641,592.164754,7846.182985
1929.859774,2451.505594,-0.000000,8660.409521
1929.860091,1378.971896,444.123565,9030.512492
1929.860409,306.438199,-0.000000,9992.780217
1929.860726,-689.485948,222.061783,10436.903782
1929.861043,-766.095498,666.185348,10807.006753
1929.861361,-459.657299,296.082377,11103.089130
1929.861678,76.609550,-148.041188,10807.006753
1929.861995,1072.533697,-222.061783,9918.759623
1929.862312,1225.752797,-370.102971,9622.677246
1929.862630,2221.676944,-222.061783,9104.533087
1929.862947,1838.629195,148.041188,8956.491898
1929.863264,1915.238745,518.144159,9474.636058
1929.863582,1685.410096,1036.288319,9178.553681
1929.863899,689.485948,1184.329507,9696.697840
1929.864216,383.047749,1036.288319,9992.780217
1929.864534,383.047749,666.185348,10362.883188
1929.864851,766.095498,222.061783,9770.718434
1929.865168,1072.533697,-592.164754,9696.697840
1929.865486,1915.238745,-518.144159,8734.430116
1929.865803,2298.286494,-444.123565,8586.388927
1929.866120,2528.115143,-222.061783,8216.285956
1929.866438,2145.067394,222.061783,8364.327145
1929.866755,1532.190996,296.082377,8512.368333
1929.867072,612.876398,370.102971,9252.574275
1929.867390,-306.438199,222.061783,9844.739029
1929.867707,-919.314598,-0.000000,10584.944971
1929.868024,-766.095498,-148.041188,10807.006753
1929.868341,-153.219100,-0.000000,10955.047942
1929.868659,459.657299,-592.164754,10066.800811
1929.868976,1072.533697,-296.082377,9326.594869
1929.869293,1991.848295,-222.061783,8808.450710
1929.869611,2374.896044,-370.102971,8660.409521
1929.869928,2145.067394,148.041188,8438.347739
1929.870245,1455.581446,592.164754,8660.409521
1929.870563,689.485948,592.164754,9326.594869
1929.870880,-153.219100,740.205942,9474.636058
1929.871197,-842.705048,444.123565,9474.636058
1929.871515,-1072.533697,-0.000000,9548.656652
1929.871832,-459.657299,-296.082377,9918.759623
1929.872149,0.000000,-962.267725,9696.697840
1929.872467,536.266849,-1184.329507,9104.533087
1929.872784,1302.362347,-888.247130,9030.512492
1929.873101,1225.752797,-518.144159,8364.327145
1929.873419,995.924147,-148.041188,8438.347739
1929.873736,383.047749,-0.000000,9104.533087
1929.874053,0.000000,-74.020594,9696.697840
1929.874370,-689.485948,-0.000000,9992.780217
1929.874688,-766.095498,-0.000000,10732.986159
1929.875005,-919.314598,-74.020594,9918.759623
1929.875322,0.000000,-0.000000,9770.718434
1929.875640,766.095498,148.041188,9252.574275
1929.875957,1532.190996,148.041188,8216.285956
1929.876274,2451.505594,296.082377,7402.059420
1929.876592,2604.724693,518.144159,7624.121203
1929.876909,2451.505594,370.102971,8068.244768
1929.877226,1838.629195,370.102971,8512.368333
1929.877544,1378.971896,888.247130,8512.368333
1929.877861,153.219100,962.267725,9474.636058
1929.878178,-153.219100,1332.370696,10066.800811
1929.878496,-153.219100,814.226536,10288.862594
1929.878813,536.266849,222.061783,10510.924376
1929.879130,1072.533697,518.144159,9918.759623
1929.879448,1991.848295,666.185348,9400.615463
1929.879765,2451.505594,518.144159,9030.512492
1929.880082,2604.724693,740.205942,9178.553681
1929.880399,2374.896044,888.247130,9104.533087
1929.880717,1455.581446,1258.350101,8956.491898
1929.881034,842.705048,1406.391290,9622.677246
1929.881351,306.438199,962.267725,10066.800811
1929.881669,-459.657299,962.267725,10510.924376
1929.881986,-153.219100,222.061783,10584.944971
1929.882303,0.000000,-148.041188,9992.780217
1929.882621,1072.533697,-444.123565,9622.677246
1929.882938,1838.629195,-518.144159,9326.594869
1929.883255,2221.676944,-370.102971,9178.553681
1929.883573,1991.848295,-518.144159,9252.574275
1929.883890,1915.238745,-148.041188,9104.533087
1929.884207,1149.143247,296.082377,9548.656652
1929.884525,459.657299,740.205942,10214.842000
1929.884842,0.000000,1332.370696,10510.924376
1929.885159,-306.438199,1332.370696,10362.883188
1929.885477,0.000000,1184.329507,9696.697840
1929.885794,766.095498,592.164754,10066.800811
1929.886111,1302.362347,296.082377,9770.718434
1929.886428,2145.067394,-0.000000,8956.491898
1929.886746,2145.067394,-148.041188,8734.430116
1929.887063,2068.457845,-74.020594,8882.471304
1929.887380,1378.971896,814.226536,8956.491898
1929.887698,766.095498,-148.041188,9474.636058
1929.888015,-995.924147,-0.000000,10066.800811
1929.888332,-1532.190996,-148.041188,10658.965565
1929.888650,-1762.019645,222.061783,10658.965565
1929.888967,-1225.752797,-74.020594,10658.965565
1929.889284,-536.266849,-222.061783,10510.924376
1929.889602,536.266849,-148.041188,9400.615463
1929.889919,1302.362347,-148.041188,8808.450710
1929.890236,2298.286494,-0.000000,7994.224174
1929.890554,2451.505594,-0.000000,7846.182985
1929.890871,1915.238745,518.144159,8364.327145
1929.891188,1378.971896,444.123565,8808.450710
1929.891505,536.266849,-0.000000,8808.450710
1929.891823,0.000000,222.061783,9474.636058
1929.892140,153.219100,-0.000000,9844.739029
1929.892457,306.438199,-222.061783,9918.759623
1929.892775,842.705048,-518.144159,9474.636058
1929.893092,1302.362347,-666.185348,8956.491898
1929.893409,2068.457845,-148.041188,8438.347739
1929.893727,2451.505594,296.082377,8068.244768
1929.894044,2451.505594,370.102971,7994.224174
1929.894361,1608.800546,592.164754,8512.368333
1929.894679,842.705048,814.226536,8882.471304
1929.894996,-153.219100,518.144159,9252.574275
1929.895313,-459.657299,814.226536,9918.759623
1929.895631,-689.485948,296.082377,9844.739029
1929.895948,-536.266849,-0.000000,9918.759623
1929.896265,0.000000,-0.000000,9622.677246
1929.896583,689.485948,-370.102971,9030.512492
1929.896900,1302.362347,-0.000000,8512.368333
1929.897217,1685.410096,518.144159,8364.327145
1929.897534,1838.629195,888.247130,8142.265362
1929.897852,842.705048,814.226536,8438.347739
1929.898169,76.609550,814.226536,9104.533087
1929.898486,-842.705048,740.205942,9474.636058
1929.898804,-919.314598,1110.308913,9622.677246
1929.899121,-1378.971896,518.144159,9548.656652
1929.899438,-919.314598,148.041188,10140.821405
1929.899756,-919.314598,-74.020594,9770.718434
1929.900073,536.266849,-296.082377,9770.718434
1929.900390,1302.362347,-148.041188,9400.615463
1929.900708,1378.971896,-148.041188,9326.594869
1929.901025,1302.362347,296.082377,9178.553681
1929.901342,689.485948,592.164754,9474.636058
1929.901660,229.828649,740.205942,10214.842000
1929.901977,-383.047749,1110.308913,10584.944971
1929.902294,-612.876398,1406.391290,10732.986159
1929.902612,-612.876398,962.267725,10732.986159
1929.902929,0.000000,1110.308913,10955.047942
1929.903246,995.924147,518.144159,10362.883188
1929.903563,1915.238745,740.205942,9622.677246
1929.903881,2681.334243,296.082377,9178.553681
1929.904198,2834.553343,-0.000000,9252.574275
1929.904515,2681.334243,-0.000000,9622.677246
1929.904833,1991.848295,592.164754,9918.759623
1929.905150,995.924147,888.247130,9992.780217
1929.905467,0.000000,1036.288319,10510.924376
1929.905785,-459.657299,1184.329507,10584.944971
1929.906102,-612.876398,592.164754,10881.027347
1929.906419,0.000000,74.020594,10732.986159
1929.906737,766.095498,-222.061783,10140.821405
1929.907054,995.924147,-148.041188,9252.574275
1929.907371,1762.019645,-222.061783,8882.471304
1929.907689,1915.238745,-222.061783,8290.306550
1929.908006,1302.362347,148.041188,9030.512492
1929.908323,383.047749,296.082377,9178.553681
1929.908641,-229.828649,814.226536,9326.594869
1929.908958,-919.314598,1110.308913,9474.636058
1929.909275,-1455.581446,592.164754,9622.677246
1929.909592,-1378.971896,148.041188,10362.883188
1929.909910,-919.314598,-444.123565,10066.800811
1929.910227,76.609550,-444.123565,9548.656652
1929.910544,1991.848295,-740.205942,8882.471304
1929.910862,1838.629195,-0.000000,8586.388927
1929.911179,1838.629195,-0.000000,8142.265362
1929.911496,1991.848295,444.123565,8512.368333
1929.911814,1149.143247,1036.288319,8364.327145
1929.912131,689.485948,1184.329507,9252.574275
1929.912448,-229.828649,814.226536,9104.533087
1929.912766,229.828649,888.247130,9326.594869
1929.913083,306.438199,444.123565,9178.553681
1929.913400,919.314598,-74.020594,9326.594869
1929.913718,1762.019645,-444.123565,8734.430116
1929.914035,2451.505594,-518.144159,8512.368333
1929.914352,2604.724693,-444.123565,8068.244768
1929.914670,2068.457845,-740.205942,8068.244768
1929.914987,1072.533697,-444.123565,7920.203579
1929.915304,459.657299,-0.000000,8364.327145
1929.915622,-383.047749,-0.000000,9400.615463
1929.915939,-1149.143247,-0.000000,10066.800811
1929.916257,-1532.190996,-74.020594,10140.821405
1929.916574,-612.876398,-814.226536,10510.924376
1929.916891,0.000000,-962.267725,10214.842000
1929.917209,306.438199,-1110.308913,9918.759623
1929.917526,1915.238745,-444.123565,9326.594869
1929.917843,2145.067394,-148.041188,8364.327145
1929.918161,2528.115143,148.041188,8586.388927
1929.918478,1991.848295,1036.288319,8808.450710
1929.918796,1608.800546,1480.411884,8660.409521
1929.919113,1149.143247,962.267725,9030.512492
1929.919430,0.000000,518.144159,10288.862594
1929.919748,-153.219100,-0.000000,10584.944971
1929.920065,76.609550,-222.061783,10066.800811
1929.920383,919.314598,-444.123565,10140.821405
1929.920700,689.485948,-592.164754,9326.594869
1929.921017,2068.457845,-222.061783,9548.656652
1929.921335,2145.067394,74.020594,8734.430116
1929.921652,1991.848295,222.061783,8808.450710
1929.921969,1532.190996,518.144159,9178.553681
1929.922287,766.095498,518.144159,9474.636058
1929.922604,0.000000,370.102971,9992.780217
1929.922922,-766.095498,444.123565,10881.027347
1929.923239,-459.657299,-0.000000,10807.006753
1929.923556,306.438199,-0.000000,10436.903782
1929.923874,842.705048,-0.000000,9844.739029
1929.924191,2068.457845,-444.123565,9474.636058
1929.924509,2604.724693,222.061783,8734.430116
1929.924826,3140.991542,222.061783,8290.306550
1929.925143,2681.334243,518.144159,8290.306550
1929.925461,1838.629195,740.205942,8438.347739
1929.925778,919.314598,1110.308913,9252.574275
1929.926095,229.828649,962.267725,9696.697840
1929.926413,-229.828649,1258.350101,10140.821405
1929.926730,-612.876398,1036.288319,10436.903782
1929.927048,0.000000,444.123565,10362.883188
1929.927365,-306.438199,-74.020594,9918.759623
1929.927682,919.314598,-296.082377,9696.697840
1929.928000,1149.143247,222.061783,9104.533087
1929.928317,1532.190996,-0.000000,9030.512492
1929.928634,919.314598,444.123565,8438.347739
1929.928952,76.609550,518.144159,9104.533087
1929.929269,-536.266849,814.226536,9770.718434
1929.929587,-1072.533697,1036.288319,9696.697840
1929.929904,-1762.019645,666.185348,10288.862594
1929.930221,-1991.848295,518.144159,10510.924376
1929.930539,-995.924147,222.061783,10214.842000
1929.930856,-383.047749,-296.082377,9252.574275
1929.931174,689.485948,-518.144159,8808.450710
1929.931491,1378.971896,-592.164754,8216.285956
1929.931808,1149.143247,-0.000000,8290.306550
1929.932126,1455.581446,370.102971,8068.244768
1929.932443,383.047749,148.041188,8512.368333
1929.932760,-229.828649,296.082377,9252.574275
1929.933078,-1072.533697,592.164754,9770.718434
1929.933395,-1685.410096,-74.020594,10214.842000
1929.933713,-919.314598,-74.020594,10510.924376
1929.934030,-306.438199,-444.123565,10658.965565
1929.934347,383.047749,-666.185348,9770.718434
1929.934665,1685.410096,-370.102971,9400.615463
1929.934982,2987.772442,-370.102971,8882.471304
1929.935300,3064.381992,-0.000000,8660.409521
1929.935617,3370.820191,962.267725,8216.285956
1929.935934,2451.505594,1036.288319,8290.306550
1929.936252,1838.629195,1406.391290,8956.491898
1929.936569,1302.362347,740.205942,9548.656652
1929.936886,689.485948,666.185348,10066.800811
1929.937204,766.095498,444.123565,10288.862594
1929.937521,1149.143247,-0.000000,9696.697840
1929.937839,1838.629195,-814.226536,9326.594869
1929.938156,2068.457845,-222.061783,8956.491898
1929.938473,2681.334243,-148.041188,8290.306550
1929.938791,2374.896044,-0.000000,8438.347739
1929.939108,1685.410096,-148.041188,8808.450710
1929.939425,766.095498,296.082377,9104.533087
1929.939743,-383.047749,296.082377,9844.739029
1929.940060,-1072.533697,148.041188,10510.924376
1929.940378,-1378.971896,-0.000000,10584.944971
1929.940695,-1225.752797,-74.020594,10732.986159
1929.941012,-229.828649,-518.144159,10066.800811
1929.941330,536.266849,-740.205942,9548.656652
1929.941647,1072.533697,-740.205942,8808.450710
1929.941965,1685.410096,-296.082377,8512.368333
1929.942282,1685.410096,148.041188,8364.327145
1929.942599,842.705048,370.102971,8438.347739
1929.942917,229.828649,888.247130,8956.491898
1929.943234,-459.657299,1110.308913,9770.718434
1929.943551,-1149.143247,1110.308913,10066.800811
1929.943869,-995.924147,888.247130,10362.883188
1929.944186,-689.485948,222.061783,10510.924376
1929.944504,76.609550,222.061783,10584.944971
1929.944821,919.314598,148.041188,9770.718434
1929.945138,1991.848295,222.061783,8956.491898
1929.945456,2911.162892,444.123565,8586.388927
1929.945773,2451.505594,740.205942,8438.347739
1929.946091,2221.676944,740.205942,8438.347739
1929.946408,1072.533697,1110.308913,8956.491898
1929.946725,383.047749,1184.329507,9474.636058
1929.947043,0.000000,888.247130,9844.739029
1929.947360,-383.047749,962.267725,10288.862594
1929.947677,-536.266849,296.082377,10140.821405
1929.947995,383.047749,-444.123565,9770.718434
1929.948312,842.705048,-518.144159,9696.697840
1929.948630,1378.971896,-518.144159,8882.471304
1929.948947,2221.676944,-296.082377,8660.409521
1929.949264,1762.019645,148.041188,8438.347739
1929.949582,1532.190996,444.123565,8808.450710
1929.949899,612.876398,814.226536,8956.491898
1929.950216,0.000000,370.102971,9622.677246
1929.950534,-612.876398,444.123565,10140.821405
1929.950851,-689.485948,222.061783,10214.842000
1929.951169,0.000000,-0.000000,10288.862594
1929.951486,689.485948,-444.123565,10066.800811
1929.951803,1608.800546,-296.082377,9326.594869
1929.952121,2451.505594,-148.041188,9030.512492
1929.952438,2834.553343,222.061783,8586.388927
1929.952756,3217.601092,592.164754,8364.327145
1929.953073,2911.162892,666.185348,8438.347739
1929.953390,2145.067394,370.102971,9400.615463
1929.953708,1608.800546,666.185348,10140.821405
1929.954025,995.924147,592.164754,9992.780217
1929.954342,612.876398,888.247130,9918.759623
1929.954660,1302.362347,444.123565,9548.656652
1929.954977,1838.629195,296.082377,9252.574275
1929.955295,2451.505594,-0.000000,8660.409521
1929.955612,2451.505594,-222.061783,8364.327145
1929.955929,2298.286494,-222.061783,7920.203579
1929.956247,1455.581446,-666.185348,8734.430116
1929.956564,536.266849,-370.102971,9178.553681
1929.956882,-842.705048,-444.123565,9622.677246
1929.957199,-2068.457845,-1036.288319,10214.842000
1929.957516,-2298.286494,-1184.329507,11399.171507
1929.957834,-2451.505594,-1110.308913,11177.109724
1929.958151,-2068.457845,-1184.329507,11029.068536
1929.958468,-995.924147,-1110.308913,10436.903782
1929.958786,0.000000,-1036.288319,9622.677246
1929.959103,1149.143247,-814.226536,9178.553681
1929.959421,1608.800546,-296.082377,8290.306550
1929.959738,1685.410096,370.102971,7920.203579
1929.960055,1302.362347,888.247130,8512.368333
1929.960373,995.924147,1332.370696,8734.430116
1929.960690,459.657299,962.267725,9104.533087
1929.961007,383.047749,518.144159,9696.697840
1929.961325,76.609550,-222.061783,9992.780217
1929.961642,459.657299,-370.102971,9844.739029
1929.961960,1532.190996,-592.164754,9030.512492
1929.962277,2221.676944,-0.000000,8882.471304
1929.962594,2681.334243,222.061783,8438.347739
1929.962912,2834.553343,444.123565,8142.265362
1929.963229,2604.724693,962.267725,8216.285956
1929.963547,2528.115143,1184.329507,8512.368333
1929.963864,1532.190996,1332.370696,8808.450710
1929.964181,842.705048,1036.288319,9474.636058
1929.964499,383.047749,1110.308913,9548.656652
1929.964816,383.047749,296.082377,9770.718434
1929.965133,459.657299,-0.000000,10140.821405
1929.965451,1455.581446,-0.000000,9178.553681
1929.965768,2221.676944,444.123565,8734.430116
1929.966086,2604.724693,296.082377,8290.306550
1929.966403,2528.115143,444.123565,8660.409521
1929.966720,1915.238745,296.082377,8956.491898
1929.967038,995.924147,1036.288319,9474.636058
1929.967355,229.828649,1258.350101,9622.677246
1929.967672,-229.828649,1258.350101,10436.903782
1929.967990,-766.095498,1480.411884,10214.842000
1929.968307,-459.657299,1332.370696,10362.883188
1929.968625,-229.828649,592.164754,10288.862594
1929.968942,306.438199,-0.000000,9696.697840
1929.969259,995.924147,-222.061783,9400.615463
1929.969577,1532.190996,-888.247130,9326.594869
1929.969894,766.095498,-814.226536,9696.697840
1929.970212,-306.438199,-740.205942,10214.842000
1929.970529,-766.095498,-296.082377,10510.924376
1929.970846,-1685.410096,-0.000000,10881.027347
1929.971164,-2068.457845,-0.000000,11177.109724
1929.971481,-2221.676944,592.164754,11029.068536
1929.971798,-1302.362347,370.102971,10510.924376
1929.972116,-306.438199,-0.000000,10584.944971
1929.972433,459.657299,148.041188,9622.677246
1929.972751,1532.190996,-0.000000,9104.533087
1929.973068,2604.724693,-0.000000,8364.327145
1929.973385,2145.067394,-0.000000,8734.430116
1929.973703,2298.286494,296.082377,8734.430116
1929.974020,1532.190996,666.185348,9104.533087
1929.974338,153.219100,-0.000000,10066.800811
1929.974655,153.219100,148.041188,9992.780217
1929.974972,153.219100,592.164754,10140.821405
1929.975290,612.876398,518.144159,9992.780217
1929.975607,1532.190996,370.102971,9474.636058
1929.975924,1455.581446,592.164754,8956.491898
1929.976242,2834.553343,1036.288319,9030.512492
1929.976559,2298.286494,1036.288319,8068.244768
1929.976877,2528.115143,1184.329507,8364.327145
1929.977194,2374.896044,1258.350101,8290.306550
1929.977511,689.485948,1332.370696,8734.430116
1929.977829,306.438199,1036.288319,9326.594869
1929.978146,-612.876398,518.144159,9474.636058
1929.978463,-842.705048,444.123565,9696.697840
1929.978781,-153.219100,-0.000000,9770.718434
1929.979098,-306.438199,222.061783,9400.615463
1929.979416,306.438199,296.082377,8808.450710
1929.979733,1072.533697,666.185348,8216.285956
1929.980050,1149.143247,444.123565,7920.203579
1929.980368,612.876398,518.144159,8290.306550
1929.980685,153.219100,740.205942,8512.368333
1929.981003,0.000000,666.185348,8956.491898
1929.981320,-842.705048,296.082377,9474.636058
1929.981637,-919.314598,444.123565,9918.759623
1929.981955,-919.314598,-148.041188,10140.821405
1929.982272,-459.657299,-740.205942,9918.759623
1929.982589,689.485948,-296.082377,9474.636058
1929.982907,1532.190996,-370.102971,9104.533087
1929.983224,2068.457845,-74.020594,8586.388927
1929.983542,2451.505594,-0.000000,8734.430116
1929.983859,2374.896044,370.102971,8586.388927
1929.984176,1685.410096,888.247130,8660.409521
1929.984494,919.314598,814.226536,9474.636058
1929.984811,0.000000,888.247130,10510.924376
1929.985129,-229.828649,962.267725,10436.903782
1929.985446,-459.657299,370.102971,10881.027347
1929.985763,0.000000,-0.000000,11029.068536
1929.986081,995.924147,-1036.288319,11251.130318
1929.986398,1225.752797,-518.144159,9992.780217
1929.986715,1838.629195,-222.061783,9696.697840
1929.987033,2451.505594,-148.041188,9326.594869
1929.987350,2298.286494,296.082377,9178.553681
1929.987668,1685.410096,370.102971,9104.533087
1929.987985,1072.533697,592.164754,9622.677246
1929.988302,0.000000,444.123565,9992.780217
1929.988620,-229.828649,222.061783,10436.903782
1929.988937,-229.828649,370.102971,10807.006753
1929.989254,842.705048,-592.164754,10510.924376
1929.989572,689.485948,-592.164754,9918.759623
1929.989889,1378.971896,-962.267725,9178.553681
1929.990207,2374.896044,-666.185348,8956.491898
1929.990524,2068.457845,-814.226536,8586.388927
1929.990841,1991.848295,-222.061783,8808.450710
1929.991159,1149.143247,-74.020594,8956.491898
1929.991476,229.828649,-0.000000,9474.636058
1929.991794,-306.438199,296.082377,9918.759623
1929.992111,-689.485948,370.102971,9992.780217
1929.992428,-459.657299,444.123565,10510.924376
1929.992746,153.219100,-0.000000,9696.697840
1929.993063,995.924147,-0.000000,9252.574275
1929.993380,1762.019645,-74.020594,8660.409521
1929.993698,2374.896044,-0.000000,8216.285956
1929.994015,2145.067394,518.144159,8142.265362
1929.994333,1915.238745,962.267725,8290.306550
1929.994650,1378.971896,1332.370696,8660.409521
1929.994967,689.485948,1554.432478,9030.512492
1929.995285,0.000000,1332.370696,9474.636058
1929.995602,383.047749,1258.350101,9474.636058
1929.995920,536.266849,814.226536,9474.636058
1929.996237,1072.533697,222.061783,9104.533087
1929.996554,1685.410096,-74.020594,8290.306550
1929.996872,2681.334243,-0.000000,8068.244768
1929.997189,2221.676944,-148.041188,7846.182985
1929.997506,1608.800546,-148.041188,7994.224174
1929.997824,536.266849,-0.000000,8660.409521
1929.998141,-306.438199,-148.041188,9474.636058
1929.998459,-536.266849,-296.082377,10140.821405
1929.998776,-2221.676944,-370.102971,10658.965565
1929.999093,-2145.067394,-518.144159,10955.047942
1929.999411,-1608.800546,-370.102971,10732.986159
1929.999728,-689.485948,-370.102971,10140.821405
1930.000045,383.047749,-518.144159,9918.759623
1930.000363,1072.533697,-74.020594,9104.533087
1930.000680,1455.581446,444.123565,8512.368333
1930.000998,1608.800546,518.144159,8586.388927
1930.001315,995.924147,1332.370696,9326.594869
1930.001632,459.657299,888.247130,9326.594869
1930.001950,-383.047749,1036.288319,9400.615463
1930.002267,-1149.143247,592.164754,9992.780217
1930.002585,-1225.752797,370.102971,10510.924376
1930.002902,-306.438199,148.041188,10510.924376
1930.003219,229.828649,-0.000000,9992.780217
1930.003537,995.924147,-222.061783,9696.697840
1930.003854,1685.410096,-296.082377,9474.636058
1930.004171,2068.457845,-0.000000,8808.450710
1930.004489,1608.800546,444.123565,8882.471304
1930.004806,1608.800546,518.144159,9548.656652
1930.005124,842.705048,1406.391290,9474.636058
1930.005441,0.000000,1480.411884,9474.636058
1930.005758,0.000000,1628.453072,9918.759623
1930.006076,-383.047749,888.247130,10214.842000
1930.006393,1072.533697,444.123565,10140.821405
1930.006711,1991.848295,-296.082377,9548.656652
1930.007028,2528.115143,-444.123565,9178.553681
1930.007345,2987.772442,-74.020594,8882.471304
1930.007663,3140.991542,-0.000000,8438.347739
1930.007980,2834.553343,740.205942,8512.368333
1930.008297,2221.676944,1332.370696,8808.450710
1930.008615,1149.143247,1258.350101,9400.615463
1930.008932,459.657299,1480.411884,9696.697840
1930.009250,153.219100,296.082377,10732.986159
1930.009567,0.000000,-0.000000,10658.965565
1930.009884,0.000000,-296.082377,10732.986159
1930.010202,612.876398,-888.247130,10140.821405
1930.010519,995.924147,-814.226536,9992.780217
1930.010836,1762.019645,-814.226536,9770.718434
1930.011154,1685.410096,-370.102971,9030.512492
1930.011471,995.924147,-148.041188,9030.512492
1930.011789,612.876398,-0.000000,9474.636058
1930.012106,-153.219100,-0.000000,9844.739029
1930.012423,-1225.752797,296.082377,10362.883188
1930.012741,-1455.581446,222.061783,10732.986159
1930.013058,-919.314598,-222.061783,10140.821405
1930.013376,-383.047749,-296.082377,10066.800811
1930.013693,153.219100,-370.102971,9326.594869
1930.014010,1225.752797,-444.123565,8808.450710
1930.014328,1608.800546,-592.164754,8142.265362
1930.014645,1838.629195,-296.082377,7846.182985
1930.014962,1302.362347,-148.041188,8216.285956
1930.015280,919.314598,-0.000000,8956.491898
1930.015597,0.000000,518.144159,9104.533087
1930.015916,-612.876398,740.205942,9474.636058
1930.016233,-842.705048,814.226536,9918.759623
1930.016550,-919.314598,740.205942,9696.697840
1930.016868,536.266849,-0.000000,9474.636058
1930.017185,1072.533697,-0.000000,8660.409521
1930.017502,1685.410096,-0.000000,8438.347739
1930.017820,2451.505594,296.082377,8068.244768
1930.018137,2528.115143,592.164754,7698.141797
1930.018455,1685.410096,962.267725,8068.244768
1930.018772,766.095498,1110.308913,8660.409521
1930.019089,229.828649,1258.350101,9474.636058
1930.019407,-612.876398,888.247130,9770.718434
1930.019724,-536.266849,148.041188,10288.862594
1930.020042,-459.657299,-0.000000,10140.821405
1930.020359,153.219100,-222.061783,9992.780217
1930.020676,1225.752797,-296.082377,9252.574275
1930.020994,2298.286494,-666.185348,8882.471304
1930.021311,2987.772442,-148.041188,8364.327145
1930.021629,3064.381992,370.102971,8290.306550
1930.021946,2528.115143,740.205942,8438.347739
1930.022263,2068.457845,814.226536,8734.430116
1930.022581,1378.971896,1184.329507,9474.636058
1930.022898,766.095498,444.123565,9770.718434
1930.023215,842.705048,444.123565,10362.883188
1930.023533,995.924147,-370.102971,10584.944971
1930.023850,1455.581446,-814.226536,10214.842000
1930.024168,1991.848295,-888.247130,9696.697840
1930.024485,2451.505594,-962.267725,9474.636058
1930.024802,2451.505594,-814.226536,9030.512492
1930.025120,2068.457845,-148.041188,9252.574275
1930.025437,1455.581446,518.144159,9474.636058
1930.025755,383.047749,370.102971,10362.883188
1930.026072,-536.266849,148.041188,11103.089130
1930.026389,-1225.752797,-148.041188,11251.130318
1930.026707,-1455.581446,-0.000000,11399.171507
1930.027024,-306.438199,-148.041188,11325.150913
1930.027341,536.266849,-0.000000,10732.986159
1930.027659,1378.971896,-296.082377,9622.677246
1930.027976,2298.286494,-0.000000,8882.471304
1930.028294,2298.286494,-0.000000,8142.265362
1930.028611,2374.896044,444.123565,8364.327145
1930.028928,1991.848295,1110.308913,8512.368333
1930.029246,995.924147,1332.370696,8290.306550
1930.029563,153.219100,1036.288319,9252.574275
1930.029881,-383.047749,518.144159,9844.739029
1930.030198,-766.095498,-222.061783,9844.739029
1930.030515,76.609550,-222.061783,9992.780217
1930.030833,229.828649,-370.102971,9326.594869
1930.031150,919.314598,-222.061783,9178.553681
1930.031468,1685.410096,-0.000000,8660.409521
1930.031785,1838.629195,-0.000000,8216.285956
1930.032102,1532.190996,666.185348,8586.388927
1930.032420,1072.533697,962.267725,8808.450710
1930.032737,0.000000,1258.350101,8808.450710
1930.033054,-612.876398,962.267725,9548.656652
1930.033372,-919.314598,222.061783,9992.780217
1930.033689,-842.705048,592.164754,9918.759623
1930.034007,-76.609550,370.102971,9104.533087
1930.034324,536.266849,-0.000000,9030.512492
1930.034641,1302.362347,370.102971,8586.388927
1930.034959,2374.896044,222.061783,8512.368333
1930.035276,2221.676944,148.041188,8290.306550
1930.035594,1378.971896,222.061783,8438.347739
1930.035911,612.876398,518.144159,8956.491898
1930.036228,153.219100,518.144159,9474.636058
1930.036546,-383.047749,888.247130,10066.800811
1930.036863,-536.266849,1036.288319,10140.821405
1930.037181,-536.266849,592.164754,10214.842000
1930.037498,306.438199,-0.000000,10140.821405
1930.037815,1225.752797,-666.185348,9696.697840
1930.038133,2068.457845,-148.041188,9178.553681
1930.038450,2604.724693,-74.020594,8808.450710
1930.038767,2681.334243,444.123565,8586.388927
1930.039085,1991.848295,814.226536,8290.306550
1930.039402,1608.800546,888.247130,9104.533087
1930.039720,536.266849,666.185348,9918.759623
1930.040037,-383.047749,222.061783,10214.842000
1930.040354,-459.657299,-74.020594,10732.986159
1930.040672,-306.438199,-444.123565,10732.986159
1930.040989,306.438199,-962.267725,10881.027347
1930.041307,689.485948,-740.205942,10214.842000
1930.041624,1608.800546,-740.205942,9474.636058
1930.041941,2145.067394,-592.164754,8882.471304
1930.042259,1838.629195,-518.144159,9252.574275
1930.042576,1608.800546,-296.082377,9918.759623
1930.042893,612.876398,-370.102971,9548.656652
1930.043211,153.219100,-0.000000,10584.944971
1930.043528,-306.438199,-0.000000,10732.986159
1930.043846,-842.705048,666.185348,10584.944971
1930.044163,-229.828649,222.061783,10436.903782
1930.044480,383.047749,-0.000000,9992.780217
1930.044798,1149.143247,-148.041188,9474.636058
1930.045115,2221.676944,-74.020594,9178.553681
1930.045433,2528.115143,-222.061783,8808.450710
1930.045750,2604.724693,-0.000000,8734.430116
1930.046067,1915.238745,296.082377,8438.347739
1930.046385,842.705048,518.144159,8956.491898
1930.046702,383.047749,444.123565,9548.656652
1930.047020,-306.438199,1332.370696,9326.594869
1930.047337,-689.485948,1258.350101,9548.656652
1930.047654,0.000000,518.144159,9844.739029
1930.047972,612.876398,-0.000000,9548.656652
1930.048289,1225.752797,-0.000000,8660.409521
1930.048606,1991.848295,222.061783,8142.265362
1930.048924,2221.676944,592.164754,7476.080014
1930.049241,2221.676944,666.185348,7772.162391
1930.049559,1608.800546,1628.453072,8216.285956
1930.049876,842.705048,1184.329507,8586.388927
1930.050193,76.609550,1480.411884,9252.574275
1930.050511,-383.047749,1258.350101,9474.636058
1930.050828,-306.438199,1258.350101,9622.677246
1930.051146,0.000000,666.185348,9400.615463
1930.051463,-229.828649,518.144159,9326.594869
1930.051780,612.876398,518.144159,9104.533087
1930.052098,1072.533697,740.205942,8290.306550
1930.052415,766.095498,666.185348,8586.388927
1930.052732,459.657299,592.164754,8660.409521
1930.053050,0.000000,740.205942,9252.574275
1930.053367,-1225.752797,814.226536,9918.759623
1930.053685,-1991.848295,740.205942,10288.862594
1930.054002,-2068.457845,444.123565,10658.965565
1930.054319,-1838.629195,666.185348,11251.130318
1930.054637,-1532.190996,296.082377,10584.944971
1930.054954,-689.485948,296.082377,10214.842000
1930.055272,612.876398,296.082377,9474.636058
1930.055589,1455.581446,296.082377,8882.471304
1930.055906,2145.067394,148.041188,8512.368333
1930.056224,1685.410096,444.123565,9030.512492
1930.056541,1149.143247,222.061783,9474.636058
1930.056859,766.095498,-74.020594,10510.924376
1930.057176,0.000000,-74.020594,10658.965565
1930.057493,0.000000,-0.000000,10658.965565
1930.057811,229.828649,222.061783,10732.986159
1930.058128,1072.533697,592.164754,10140.821405
1930.058445,1532.190996,518.144159,9400.615463
1930.058763,2451.505594,296.082377,9252.574275
1930.059080,3447.429741,-0.000000,9030.512492
1930.059398,3140.991542,-0.000000,8882.471304
1930.059715,3217.601092,-0.000000,9548.656652
1930.060032,2451.505594,148.041188,9696.697840
1930.060350,1608.800546,370.102971,10066.800811
1930.060667,1072.533697,444.123565,10510.924376
1930.060985,689.485948,296.082377,10214.842000
1930.061302,919.314598,222.061783,9992.780217
1930.061619,1072.533697,-0.000000,9992.780217
1930.061937,1455.581446,-666.185348,10066.800811
1930.062254,2221.676944,-666.185348,9474.636058
1930.062571,2604.724693,-1036.288319,8956.491898
1930.062889,2604.724693,-888.247130,8438.347739
1930.063206,2068.457845,-740.205942,8808.450710
1930.063524,1838.629195,-518.144159,8660.409521
1930.063841,612.876398,-296.082377,9030.512492
1930.064158,306.438199,518.144159,9474.636058
1930.064476,76.609550,444.123565,9178.553681
1930.064793,153.219100,-0.000000,9178.553681
1930.065111,459.657299,-1110.308913,9474.636058
1930.065428,459.657299,-1110.308913,9178.553681
1930.065745,766.095498,-888.247130,8586.388927
1930.066063,1225.752797,-814.226536,8290.306550
1930.066380,842.705048,-666.185348,7846.182985
1930.066698,306.438199,-222.061783,8734.430116
1930.067015,-229.828649,-0.000000,9104.533087
1930.067332,-1149.143247,592.164754,9030.512492
1930.067650,-1532.190996,666.185348,8956.491898
1930.067967,-1532.190996,740.205942,9622.677246
1930.068284,-1378.971896,-74.020594,10140.821405
1930.068602,-766.095498,-666.185348,9474.636058
1930.068919,0.000000,-370.102971,9178.553681
1930.069237,459.657299,-0.000000,8660.409521
1930.069554,1378.971896,148.041188,8216.285956
1930.069871,1762.019645,592.164754,7550.100608
1930.070189,1378.971896,888.247130,8290.306550
1930.070506,689.485948,1036.288319,8734.430116
1930.070824,0.000000,814.226536,8734.430116
1930.071141,-229.828649,444.123565,9400.615463
1930.071458,-612.876398,296.082377,9770.718434
1930.071776,-383.047749,740.205942,9622.677246
1930.072093,0.000000,222.061783,9474.636058
1930.072410,689.485948,-0.000000,9252.574275
1930.072728,1532.190996,296.082377,8660.409521
1930.073045,1532.190996,444.123565,8882.471304
1930.073363,1532.190996,444.123565,8808.450710
1930.073680,919.314598,592.164754,9104.533087
1930.073997,229.828649,1036.288319,9474.636058
1930.074315,-153.219100,1036.288319,10140.821405
1930.074632,-919.314598,1110.308913,10732.986159
1930.074950,-842.705048,814.226536,10955.047942
1930.075267,-536.266849,740.205942,10584.944971
1930.075584,0.000000,444.123565,10955.047942
1930.075902,536.266849,-296.082377,10955.047942
1930.076219,1455.581446,222.061783,9770.718434
1930.076537,1991.848295,592.164754,9474.636058
1930.076854,2298.286494,888.247130,9474.636058
1930.077171,2068.457845,1036.288319,9400.615463
1930.077489,1378.971896,1184.329507,9696.697840
1930.077806,1072.533697,962.267725,9696.697840
1930.078123,612.876398,1110.308913,10288.862594
1930.078441,612.876398,1258.350101,10362.883188
1930.078758,1225.752797,814.226536,10214.842000
1930.079076,1685.410096,-0.000000,9992.780217
1930.079393,2298.286494,-148.041188,9696.697840
1930.079710,2374.896044,-0.000000,9474.636058
1930.080028,2528.115143,-0.000000,8586.388927
1930.080345,2221.676944,222.061783,8956.491898
1930.080663,1838.629195,370.102971,9548.656652
1930.080980,153.219100,296.082377,9844.739029
1930.081297,-229.828649,222.061783,9696.697840
1930.081615,-612.876398,148.041188,11029.068536
1930.081932,-536.266849,-0.000000,11325.150913
1930.082250,0.000000,-444.123565,10658.965565
1930.082567,383.047749,-814.226536,10584.944971
1930.082884,1149.143247,-592.164754,9770.718434
1930.083202,2374.896044,-444.123565,8808.450710
1930.083519,2068.457845,-0.000000,8438.347739
1930.083836,2451.505594,-0.000000,8512.368333
1930.084154,1532.190996,444.123565,8660.409521
1930.084471,842.705048,444.123565,8734.430116
1930.084789,0.000000,-0.000000,9400.615463
1930.085106,-536.266849,148.041188,9770.718434
1930.085423,-383.047749,-0.000000,9622.677246
1930.085741,-383.047749,-444.123565,9474.636058
1930.086058,-153.219100,-814.226536,9252.574275
1930.086376,612.876398,-888.247130,8808.450710
1930.086693,1149.143247,-370.102971,7994.224174
1930.087010,995.924147,-74.020594,7772.162391
1930.087328,995.924147,-148.041188,8290.306550
1930.087645,919.314598,-0.000000,8364.327145
1930.087962,-689.485948,148.041188,8734.430116
1930.088280,-1378.971896,296.082377,9178.553681
1930.088597,-1225.752797,518.144159,9400.615463
1930.088915,-995.924147,296.082377,9474.636058
1930.089232,0.000000,-370.102971,9326.594869
1930.089549,76.609550,-74.020594,8956.491898
1930.089867,1225.752797,-0.000000,8068.244768
1930.090184,1991.848295,296.082377,8142.265362
1930.090502,2374.896044,814.226536,7772.162391
1930.090819,2528.115143,814.226536,7550.100608
1930.091136,1838.629195,1036.288319,8216.285956
1930.091454,1378.971896,814.226536,9326.594869
1930.091771,766.095498,518.144159,9474.636058
1930.092089,919.314598,592.164754,9548.656652
1930.092406,1072.533697,-148.041188,9992.780217
1930.092723,1532.190996,-74.020594,9770.718434
1930.093041,2145.067394,-222.061783,9400.615463
1930.093358,2298.286494,-0.000000,9030.512492
1930.093675,2604.724693,-74.020594,9400.615463
1930.093993,2374.896044,222.061783,9178.553681
1930.094310,1762.019645,888.247130,9474.636058
1930.094628,1149.143247,296.082377,10288.862594
1930.094945,459.657299,-0.000000,11177.109724
1930.095262,-229.828649,-444.123565,11103.089130
1930.095580,-229.828649,-740.205942,11769.274478
1930.095897,0.000000,-888.247130,11769.274478
1930.096215,536.266849,-888.247130,11325.150913
1930.096532,1225.752797,-518.144159,10362.883188
1930.096849,1991.848295,-370.102971,9696.697840
1930.097167,2374.896044,148.041188,8808.450710
1930.097484,2068.457845,444.123565,8364.327145
1930.097801,1915.238745,444.123565,9252.574275
1930.098119,919.314598,666.185348,9326.594869
1930.098436,229.828649,814.226536,10066.800811
1930.098754,-383.047749,296.082377,10288.862594
1930.099071,-842.705048,-0.000000,10807.006753
1930.099388,-536.266849,-222.061783,10658.965565
1930.099706,153.219100,74.020594,10436.903782
1930.100023,459.657299,444.123565,9696.697840
1930.100341,1072.533697,740.205942,8734.430116
1930.100658,1378.971896,1332.370696,8512.368333
1930.100975,1225.752797,1110.308913,8364.327145
1930.101293,842.705048,1258.350101,8734.430116
1930.101610,459.657299,1554.432478,9030.512492
1930.101928,-229.828649,1258.350101,9474.636058
1930.102245,-612.876398,888.247130,9918.759623
1930.102562,-306.438199,370.102971,10288.862594
1930.102880,0.000000,-0.000000,9992.780217
1930.103197,842.705048,-296.082377,9178.553681
1930.103514,1072.533697,74.020594,8512.368333
1930.103832,1991.848295,518.144159,7994.224174
1930.104149,2145.067394,592.164754,7920.203579
1930.104467,2068.457845,962.267725,7550.100608
1930.104784,1302.362347,962.267725,8142.265362
1930.105101,689.485948,962.267725,8734.430116
1930.105419,0.000000,814.226536,9474.636058
1930.105736,-153.219100,962.267725,9474.636058
1930.106054,-153.219100,444.123565,9844.739029
1930.106371,459.657299,-296.082377,10066.800811
1930.106688,459.657299,-370.102971,9474.636058
1930.107006,995.924147,-518.144159,9252.574275
1930.107323,995.924147,-74.020594,8882.471304
1930.107640,1225.752797,518.144159,8660.409521
1930.107958,766.095498,444.123565,8290.306550
1930.108275,229.828649,740.205942,9104.533087
1930.108593,-306.438199,740.205942,9326.594869
1930.108910,-995.924147,962.267725,9992.780217
1930.109227,-995.924147,444.123565,10214.842000
1930.109545,0.000000,296.082377,10436.903782
1930.109862,-229.828649,-222.061783,10362.883188
1930.110180,536.266849,-296.082377,9696.697840
1930.110497,1072.533697,-518.144159,9326.594869
1930.110814,2068.457845,-370.102971,9104.533087
1930.111132,1991.848295,-444.123565,9030.512492
1930.111449,1685.410096,-0.000000,8808.450710
1930.111767,1072.533697,-74.020594,9474.636058
1930.112084,536.266849,-222.061783,10066.800811
1930.112401,76.609550,-0.000000,10066.800811
1930.112719,0.000000,-0.000000,10140.821405
1930.113036,612.876398,-370.102971,10510.924376
1930.113353,1072.533697,-740.205942,10288.862594
1930.113671,2145.067394,-666.185348,9548.656652
1930.113988,2604.724693,-444.123565,9400.615463
1930.114306,2987.772442,-740.205942,9030.512492
1930.114623,2834.553343,-296.082377,8734.430116
1930.114940,2221.676944,-0.000000,9030.512492
1930.115258,1608.800546,-0.000000,9474.636058
1930.115575,689.485948,-148.041188,10066.800811
1930.115893,229.828649,-0.000000,10362.883188
1930.116210,0.000000,74.020594,10584.944971
1930.116527,76.609550,-296.082377,10881.027347
1930.116845,842.705048,-296.082377,10288.862594
1930.117162,1762.019645,-592.164754,9918.759623
1930.117479,2145.067394,148.041188,9252.574275
1930.117797,2298.286494,-0.000000,9104.533087
1930.118114,2374.896044,814.226536,8660.409521
1930.118431,2145.067394,814.226536,8882.471304
1930.118749,1762.019645,1406.391290,8660.409521
1930.119066,459.657299,962.267725,8956.491898
1930.119383,306.438199,370.102971,9548.656652
1930.119701,76.609550,148.041188,9474.636058
1930.120018,-153.219100,-148.041188,9474.636058
1930.120335,766.095498,-370.102971,9030.512492
1930.120652,919.314598,-666.185348,8586.388927
1930.120970,1149.143247,-518.144159,8290.306550
1930.121287,842.705048,-444.123565,8438.347739
1930.121604,536.266849,-444.123565,8290.306550
1930.121922,0.000000,222.061783,8586.388927
1930.122239,-612.876398,814.226536,9104.533087
1930.122556,-1378.971896,740.205942,9474.636058
1930.122874,-1685.410096,888.247130,9770.718434
1930.123191,-1302.362347,666.185348,10214.842000
1930.123508,-919.314598,-0.000000,10066.800811
1930.123826,76.609550,222.061783,9474.636058
1930.124143,842.705048,814.226536,9252.574275
1930.124460,1685.410096,962.267725,8808.450710
1930.124777,2068.457845,1258.350101,7994.224174
1930.125095,2145.067394,1406.391290,8216.285956
1930.125412,1915.238745,2220.617826,8364.327145
1930.125729,1378.971896,2220.617826,8586.388927
1930.126047,766.095498,1776.494261,8956.491898
1930.126364,0.000000,1110.308913,10066.800811
1930.126681,-229.828649,370.102971,10584.944971
1930.126999,-153.219100,-0.000000,10288.862594
1930.127316,612.876398,-222.061783,9770.718434
1930.127633,1149.143247,-74.020594,9770.718434
1930.127951,995.924147,-0.000000,9474.636058
1930.128268,1072.533697,-370.102971,9400.615463
1930.128585,995.924147,-518.144159,9548.656652
1930.128902,76.609550,-148.041188,10288.862594
1930.129220,-229.828649,666.185348,9548.656652
1930.129537,-842.705048,370.102971,10066.800811
1930.129854,-842.705048,222.061783,10881.027347
1930.130172,-842.705048,-222.061783,10584.944971
1930.130489,-383.047749,-222.061783,10510.924376
1930.130806,612.876398,-740.205942,10436.903782
1930.131124,1378.971896,-222.061783,9770.718434
1930.131441,2145.067394,148.041188,9030.512492
1930.131758,2145.067394,-0.000000,9178.553681
1930.132076,2451.505594,444.123565,8956.491898
1930.132393,2298.286494,1036.288319,8734.430116
1930.132710,1685.410096,1184.329507,8660.409521
1930.133027,1455.581446,1036.288319,9400.615463
1930.133345,995.924147,888.247130,9548.656652
1930.133662,919.314598,444.123565,9992.780217
1930.133979,1302.362347,-0.000000,9696.697840
1930.134297,1608.800546,-148.041188,9548.656652
1930.134614,2221.676944,-0.000000,9326.594869
1930.134931,2604.724693,222.061783,8660.409521
1930.135249,2528.115143,296.082377,8660.409521
1930.135566,2528.115143,370.102971,8808.450710
1930.135883,1685.410096,592.164754,8882.471304
1930.136200,1455.581446,740.205942,9104.533087
1930.136518,229.828649,666.185348,9548.656652
1930.136835,0.000000,888.247130,9918.759623
1930.137152,-229.828649,444.123565,9992.780217
1930.137470,0.000000,-148.041188,10066.800811
1930.137787,612.876398,-592.164754,9696.697840
1930.138104,536.266849,-370.102971,8882.471304
1930.138422,1225.752797,-370.102971,8882.471304
1930.138739,1378.971896,-222.061783,8364.327145
1930.139056,1302.362347,-222.061783,8586.388927
1930.139374,612.876398,-444.123565,8808.450710
1930.139691,-306.438199,-222.061783,9622.677246
1930.140008,-919.314598,-222.061783,9770.718434
1930.140325,-842.705048,-148.041188,9992.780217
1930.140643,-766.095498,-296.082377,10436.903782
1930.140960,-459.657299,-592.164754,10140.821405
1930.141277,-153.219100,-148.041188,9622.677246
1930.141595,612.876398,-296.082377,9104.533087
1930.141912,1532.190996,-296.082377,8882.471304
1930.142229,1455.581446,-0.000000,8734.430116
1930.142547,1072.533697,-0.000000,8660.409521
1930.142864,766.095498,-0.000000,9104.533087
1930.143181,153.219100,518.144159,9400.615463
1930.143499,0.000000,518.144159,9400.615463
1930.143816,-383.047749,740.205942,9844.739029
1930.144133,0.000000,-0.000000,10066.800811
1930.144450,229.828649,-518.144159,9548.656652
1930.144768,612.876398,-518.144159,9622.677246
1930.145085,1608.800546,-222.061783,9030.512492
1930.145402,1991.848295,-222.061783,8586.388927
1930.145720,2451.505594,-0.000000,8438.347739
1930.146037,2374.896044,666.185348,8512.368333
1930.146354,1685.410096,1110.308913,8660.409521
1930.146672,842.705048,1258.350101,8956.491898
1930.146989,383.047749,1184.329507,9474.636058
1930.147306,153.219100,962.267725,10214.842000
1930.147624,306.438199,592.164754,9548.656652
1930.147941,612.876398,296.082377,9474.636058
1930.148258,1225.752797,-0.000000,9326.594869
1930.148575,1378.971896,-0.000000,8956.491898
1930.148893,1685.410096,444.123565,8586.388927
1930.149210,1302.362347,518.144159,8512.368333
1930.149527,612.876398,888.247130,8586.388927
1930.149845,0.000000,888.247130,8956.491898
1930.150162,-766.095498,1036.288319,9844.739029
1930.150479,-1072.533697,888.247130,10066.800811
1930.150797,-1455.581446,740.205942,10140.821405
1930.151114,-995.924147,740.205942,10362.883188
1930.151431,-689.485948,-0.000000,10362.883188
1930.151748,-153.219100,-0.000000,9548.656652
1930.152066,536.266849,-74.020594,9400.615463
1930.152383,995.924147,-0.000000,9030.512492
1930.152700,995.924147,444.123565,8956.491898
1930.153018,766.095498,518.144159,9178.553681
1930.153335,842.705048,1036.288319,9178.553681
1930.153652,-306.438199,666.185348,9992.780217
1930.153970,-612.876398,814.226536,9918.759623
1930.154287,-306.438199,592.164754,10214.842000
1930.154604,153.219100,666.185348,10140.821405
1930.154922,766.095498,592.164754,9770.718434
1930.155239,1149.143247,370.102971,9474.636058
1930.155556,2068.457845,444.123565,9030.512492
1930.155873,2374.896044,888.247130,9104.533087
1930.156191,2068.457845,888.247130,8882.471304
1930.156508,1991.848295,740.205942,9326.594869
1930.156825,1302.362347,1258.350101,9474.636058
1930.157143,842.705048,814.226536,9696.697840
1930.157460,0.000000,666.185348,9992.780217
1930.157777,-153.219100,370.102971,10658.965565
1930.158095,229.828649,148.041188,10732.986159
1930.158412,842.705048,-148.041188,10436.903782
1930.158729,1302.362347,-0.000000,9992.780217
1930.159047,1532.190996,-0.000000,9622.677246
1930.159364,2451.505594,370.102971,9178.553681
1930.159681,2221.676944,444.123565,9030.512492
1930.159998,1455.581446,370.102971,8882.471304
1930.160316,842.705048,222.061783,9696.697840
1930.160633,306.438199,-0.000000,9770.718434
1930.160950,0.000000,-370.102971,10066.800811
1930.161268,229.828649,-888.247130,10362.883188
1930.161585,306.438199,-1184.329507,10584.944971
1930.161902,842.705048,-1480.411884,9770.718434
1930.162220,1378.971896,-1554.432478,9252.574275
1930.162537,1991.848295,-888.247130,8734.430116
1930.162854,2374.896044,-518.144159,8438.347739
1930.163172,2145.067394,-148.041188,8068.244768
1930.163489,1378.971896,-74.020594,8438.347739
1930.163806,1149.143247,-222.061783,9030.512492
1930.164123,76.609550,-74.020594,9326.594869
1930.164441,-76.609550,-74.020594,9844.739029
1930.164758,76.609550,-814.226536,10066.800811
1930.165075,306.438199,-814.226536,9992.780217
1930.165393,1072.533697,-1258.350101,9548.656652
1930.165710,1762.019645,-814.226536,8808.450710
1930.166027,2298.286494,-222.061783,8216.285956
1930.166345,2451.505594,-0.000000,7550.100608
1930.166662,2145.067394,666.185348,7624.121203
1930.166979,1302.362347,666.185348,7254.018232
1930.167296,689.485948,1184.329507,8438.347739
1930.167614,229.828649,1332.370696,8734.430116
1930.167931,0.000000,1036.288319,9252.574275
1930.168248,-229.828649,518.144159,9474.636058
1930.168566,0.000000,-296.082377,9474.636058
1930.168883,153.219100,-148.041188,9252.574275
1930.169200,766.095498,-296.082377,8956.491898
1930.169518,995.924147,-0.000000,8216.285956
1930.169835,842.705048,296.082377,7920.203579
1930.170152,229.828649,296.082377,8216.285956
1930.170470,-842.705048,666.185348,8660.409521
1930.170787,-1378.971896,666.185348,9252.574275
1930.171104,-1532.190996,370.102971,9918.759623
1930.171421,-2298.286494,296.082377,10140.821405
1930.171739,-1608.800546,-0.000000,10214.842000
1930.172056,-919.314598,-370.102971,10288.862594
1930.172373,0.000000,-222.061783,9474.636058
1930.172691,842.705048,-0.000000,8808.450710
1930.173008,1838.629195,444.123565,8808.450710
1930.173325,1915.238745,888.247130,8512.368333
1930.173643,1532.190996,1184.329507,8512.368333
1930.173960,1302.362347,1628.453072,9104.533087
1930.174277,383.047749,1554.432478,9696.697840
1930.174595,306.438199,1702.473667,10214.842000
1930.174912,76.609550,1554.432478,10436.903782
1930.175229,229.828649,814.226536,10584.944971
1930.175546,766.095498,148.041188,10881.027347
1930.175864,1455.581446,-74.020594,11029.068536
1930.176181,1762.019645,-518.144159,10881.027347
1930.176498,2145.067394,-148.041188,10214.842000
1930.176816,2145.067394,444.123565,10362.883188
1930.177133,1915.238745,740.205942,10140.821405
1930.177450,1225.752797,1036.288319,10288.862594
1930.177768,766.095498,888.247130,10362.883188
1930.178085,459.657299,814.226536,10584.944971
1930.178402,612.876398,1110.308913,10881.027347
1930.178720,1149.143247,518.144159,10732.986159
1930.179037,1455.581446,-296.082377,10658.965565
1930.179354,2298.286494,-666.185348,10288.862594
1930.179671,2145.067394,-518.144159,9548.656652
1930.179989,2604.724693,-74.020594,9548.656652
1930.180306,2528.115143,74.020594,9474.636058
1930.180623,2068.457845,370.102971,9474.636058
1930.180941,1149.143247,518.144159,9844.739029
1930.181258,153.219100,296.082377,10140.821405
1930.181575,0.000000,-0.000000,10436.903782
1930.181893,-153.219100,-0.000000,10066.800811
1930.182210,153.219100,-74.020594,10214.842000
1930.182527,919.314598,-444.123565,9992.780217
1930.182845,1302.362347,-444.123565,9104.533087
1930.183162,1762.019645,-444.123565,8216.285956
1930.183479,2145.067394,222.061783,7994.224174
1930.183796,1838.629195,888.247130,7698.141797
1930.184114,1378.971896,1036.288319,7328.038826
1930.184431,306.438199,666.185348,7698.141797
1930.184748,-842.705048,370.102971,8290.306550
1930.185066,-1302.362347,148.041188,8882.471304
1930.185383,-1608.800546,148.041188,8882.471304
1930.185700,-1302.362347,-518.144159,9326.594869
1930.186018,-995.924147,-370.102971,9030.512492
1930.186335,-306.438199,-666.185348,8808.450710
1930.186652,383.047749,-592.164754,8734.430116
1930.186969,919.314598,-296.082377,8068.244768
1930.187287,689.485948,296.082377,7698.141797
1930.187604,76.609550,740.205942,7920.203579
1930.187921,76.609550,888.247130,8142.265362
1930.188239,0.000000,592.164754,8660.409521
1930.188556,-383.047749,-0.000000,8660.409521
1930.188873,76.609550,-0.000000,8882.471304
1930.189191,229.828649,-740.205942,9104.533087
1930.189508,1072.533697,-888.247130,8734.430116
1930.189825,2145.067394,-814.226536,8586.388927
1930.190143,2068.457845,-444.123565,8586.388927
1930.190460,1991.848295,-0.000000,8068.244768
1930.190777,1915.238745,740.205942,7698.141797
1930.191094,1149.143247,1110.308913,8142.265362
1930.191412,536.266849,1110.308913,9400.615463
1930.191729,-459.657299,962.267725,9992.780217
1930.192046,-536.266849,666.185348,10362.883188
1930.192364,-536.266849,-0.000000,11325.150913
1930.192681,0.000000,-0.000000,11695.253884
1930.192998,536.266849,-74.020594,11177.109724
1930.193316,1302.362347,-0.000000,10362.883188
1930.193633,2221.676944,148.041188,10066.800811
1930.193950,1991.848295,592.164754,9474.636058
1930.194268,2298.286494,888.247130,9770.718434
1930.194585,2298.286494,1406.391290,9992.780217
1930.194902,1378.971896,1258.350101,9918.759623
1930.195219,919.314598,1110.308913,10436.903782
1930.195537,766.095498,888.247130,10881.027347
1930.195854,1378.971896,-0.000000,11177.109724
1930.196171,1378.971896,-222.061783,10881.027347
1930.196489,1685.410096,-666.185348,10881.027347
1930.196806,2145.067394,-666.185348,10510.924376
1930.197123,2528.115143,-296.082377,9770.718434
1930.197441,2451.505594,-148.041188,9770.718434
1930.197758,2374.896044,444.123565,9770.718434
1930.198075,2145.067394,740.205942,9770.718434
1930.198393,1072.533697,888.247130,9918.759623
1930.198710,766.095498,592.164754,10436.903782
1930.199027,459.657299,592.164754,10732.986159
1930.199344,689.485948,222.061783,10732.986159
1930.199662,919.314598,-74.020594,10510.924376
1930.199979,1378.971896,-370.102971,10066.800811
1930.200296,2145.067394,-296.082377,9400.615463
1930.200614,2451.505594,-0.000000,8956.491898
1930.200931,2145.067394,222.061783,8438.347739
1930.201248,2068.457845,592.164754,8364.327145
1930.201566,1149.143247,666.185348,8956.491898
1930.201883,229.828649,666.185348,9104.533087
1930.202200,-689.485948,666.185348,9622.677246
1930.202517,-536.266849,444.123565,9474.636058
1930.202835,-766.095498,-0.000000,9474.636058
1930.203152,-306.438199,-444.123565,9474.636058
1930.203469,0.000000,-666.185348,8882.471304
1930.203787,766.095498,-370.102971,8290.306550
1930.204104,1225.752797,-74.020594,7698.141797
1930.204421,689.485948,148.041188,7698.141797
1930.204739,383.047749,370.102971,7698.141797
1930.205056,0.000000,518.144159,7698.141797
1930.205373,-1532.190996,666.185348,8364.327145
1930.205691,-1608.800546,296.082377,8808.450710
1930.206008,-1532.190996,148.041188,9104.533087
1930.206325,-995.924147,-148.041188,9474.636058
1930.206642,-919.314598,-666.185348,8882.471304
1930.206960,0.000000,-962.267725,8660.409521
1930.207277,689.485948,-740.205942,8438.347739
1930.207594,919.314598,-370.102971,7920.203579
1930.207912,536.266849,-0.000000,7550.100608
1930.208229,766.095498,518.144159,8438.347739
1930.208546,383.047749,666.185348,8734.430116
1930.208864,0.000000,740.205942,9474.636058
1930.209181,-383.047749,962.267725,9474.636058
1930.209498,459.657299,370.102971,9992.780217
1930.209816,459.657299,296.082377,9844.739029
1930.210133,1149.143247,-74.020594,9622.677246
1930.210450,1685.410096,-518.144159,9474.636058
1930.210767,2145.067394,-74.020594,9474.636058
1930.211085,2451.505594,-666.185348,9400.615463
1930.211402,2374.896044,222.061783,8882.471304
1930.211719,2068.457845,1110.308913,8956.491898
1930.212037,1302.362347,962.267725,9696.697840
1930.212354,383.047749,814.226536,10214.842000
1930.212671,459.657299,296.082377,10584.944971
1930.212989,306.438199,-0.000000,10881.027347
1930.213306,689.485948,-0.000000,11325.150913
1930.213623,1225.752797,-444.123565,10955.047942
1930.213941,2068.457845,-518.144159,9992.780217
1930.214258,2681.334243,-0.000000,9918.759623
1930.214575,2987.772442,518.144159,9696.697840
1930.214892,2987.772442,888.247130,9474.636058
1930.215210,2451.505594,1184.329507,9178.553681
1930.215527,1838.629195,1258.350101,9474.636058
1930.215844,1225.752797,666.185348,10066.800811
1930.216162,459.657299,296.082377,10510.924376
1930.216479,306.438199,296.082377,10362.883188
1930.216796,76.609550,-0.000000,10436.903782
1930.217114,536.266849,-74.020594,10288.862594
1930.217431,842.705048,-222.061783,9844.739029
1930.217748,919.314598,-444.123565,9992.780217
1930.218066,1072.533697,-0.000000,9474.636058
1930.218383,536.266849,518.144159,9474.636058
1930.218700,306.438199,592.164754,9474.636058
1930.219018,-383.047749,814.226536,9548.656652
1930.219335,-1149.143247,962.267725,10066.800811
1930.219652,-1455.581446,1036.288319,10288.862594
1930.219970,-1455.581446,814.226536,10214.842000
1930.220287,-536.266849,444.123565,10140.821405
1930.220604,0.000000,444.123565,9918.759623
1930.220922,459.657299,-0.000000,9400.615463
1930.221239,1149.143247,518.144159,8808.450710
1930.221556,1302.362347,296.082377,8512.368333
1930.221874,1072.533697,1036.288319,8438.347739
1930.222191,766.095498,1332.370696,8142.265362
1930.222508,153.219100,1036.288319,8438.347739
1930.222826,-459.657299,1184.329507,9178.553681
1930.223143,-766.095498,962.267725,9474.636058
1930.223460,-459.657299,740.205942,9252.574275
1930.223778,0.000000,592.164754,9474.636058
1930.224095,76.609550,-0.000000,9400.615463
1930.224412,842.705048,-296.082377,8882.471304
1930.224730,1532.190996,-222.061783,8438.347739
1930.225047,1608.800546,-222.061783,8216.285956
1930.225364,1225.752797,592.164754,8068.244768
1930.225682,842.705048,1036.288319,7772.162391
1930.225999,153.219100,1110.308913,8512.368333
1930.226316,-919.314598,296.082377,9326.594869
1930.226634,-1149.143247,222.061783,9548.656652
1930.226951,-995.924147,296.082377,9918.759623
1930.227268,-689.485948,-296.082377,9696.697840
1930.227586,0.000000,-592.164754,9696.697840
1930.227903,459.657299,-148.041188,9918.759623
1930.228220,1225.752797,-370.102971,9252.574275
1930.228538,1532.190996,74.020594,8808.450710
1930.228855,1762.019645,666.185348,8660.409521
1930.229172,1455.581446,962.267725,9030.512492
1930.229490,995.924147,1036.288319,9326.594869
1930.229807,229.828649,592.164754,9474.636058
1930.230124,766.095498,666.185348,9548.656652
1930.230442,766.095498,-0.000000,9992.780217
1930.230759,1225.752797,-222.061783,9622.677246
1930.231076,1378.971896,-518.144159,9622.677246
1930.231394,2145.067394,-518.144159,9400.615463
1930.231711,2451.505594,-296.082377,9104.533087
1930.232028,2221.676944,222.061783,8808.450710
1930.232346,2451.505594,518.144159,8882.471304
1930.232663,1378.971896,370.102971,9474.636058
1930.232980,612.876398,296.082377,10066.800811
1930.233298,76.609550,-0.000000,10807.006753
1930.233615,0.000000,-296.082377,11029.068536
1930.233932,383.047749,-74.020594,11029.068536
1930.234250,229.828649,-814.226536,10955.047942
1930.234567,689.485948,-814.226536,10436.903782
1930.234884,1455.581446,-592.164754,10066.800811
1930.235202,2068.457845,-444.123565,9548.656652
1930.235519,2145.067394,-148.041188,9178.553681
1930.235836,1838.629195,370.102971,9104.533087
1930.236154,995.924147,370.102971,9326.594869
1930.236471,689.485948,740.205942,9474.636058
1930.236788,612.876398,444.123565,10066.800811
1930.237106,0.000000,370.102971,9992.780217
1930.237423,229.828649,222.061783,9992.780217
1930.237740,766.095498,-222.061783,10288.862594
1930.238058,995.924147,-148.041188,9696.697840
1930.238375,2068.457845,-0.000000,9178.553681
1930.238692,2068.457845,370.102971,8734.430116
1930.239010,2068.457845,740.205942,8512.368333
1930.239327,1762.019645,962.267725,8290.306550
1930.239644,919.314598,814.226536,9104.533087
1930.239961,0.000000,666.185348,9252.574275
1930.240279,-459.657299,888.247130,9696.697840
1930.240596,-229.828649,592.164754,9992.780217
1930.240913,0.000000,148.041188,10066.800811
1930.241231,1149.143247,-0.000000,9548.656652
1930.241548,842.705048,-0.000000,9104.533087
1930.241865,1302.362347,666.185348,8438.347739
1930.242183,1762.019645,1036.288319,8068.244768
1930.242500,1838.629195,740.205942,7772.162391
1930.242817,1072.533697,370.102971,8364.327145
1930.243135,76.609550,444.123565,8660.409521
1930.243452,-76.609550,370.102971,9474.636058
1930.243769,-536.266849,148.041188,9548.656652
1930.244087,-995.924147,222.061783,9918.759623
1930.244404,-689.485948,-518.144159,10584.944971
1930.244721,-153.219100,-740.205942,9844.739029
1930.245039,306.438199,-888.247130,9548.656652
1930.245356,1149.143247,-518.144159,9474.636058
1930.245673,1149.143247,222.061783,8364.327145
1930.245991,1915.238745,222.061783,8142.265362
1930.246308,1072.533697,888.247130,8734.430116
1930.246625,459.657299,592.164754,9326.594869
1930.246943,0.000000,444.123565,9474.636058
1930.247260,-229.828649,-0.000000,9770.718434
1930.247577,-229.828649,-222.061783,10066.800811
1930.247895,153.219100,-370.102971,9844.739029
1930.248212,612.876398,-666.185348,9548.656652
1930.248529,1149.143247,-740.205942,9696.697840
1930.248847,1455.581446,-222.061783,9326.594869
1930.249164,2298.286494,-0.000000,8808.450710
1930.249481,2221.676944,666.185348,8882.471304
1930.249799,1149.143247,666.185348,9326.594869
1930.250116,689.485948,740.205942,9326.594869
1930.250433,76.609550,444.123565,9770.718434
1930.250751,0.000000,518.144159,10288.862594
1930.251068,0.000000,444.123565,9992.780217
1930.251385,536.266849,444.123565,9770.718434
1930.251703,1685.410096,-148.041188,9474.636058
1930.252020,1762.019645,-296.082377,9030.512492
1930.252337,2298.286494,-74.020594,8660.409521
1930.252655,1915.238745,-0.000000,8660.409521
1930.252972,1608.800546,888.247130,8512.368333
1930.253289,1072.533697,962.267725,8808.450710
1930.253607,153.219100,1184.329507,9548.656652
1930.253924,-612.876398,962.267725,9844.739029
1930.254241,-842.705048,370.102971,10362.883188
1930.254559,-689.485948,-74.020594,10732.986159
1930.254876,153.219100,-222.061783,10584.944971
1930.255193,306.438199,-814.226536,10066.800811
1930.255511,995.924147,-74.020594,9770.718434
1930.255828,1685.410096,444.123565,9252.574275
1930.256145,1685.410096,740.205942,8882.471304
1930.256463,1608.800546,1702.473667,8142.265362
1930.256780,1455.581446,1924.535449,8290.306550
1930.257097,766.095498,1776.494261,8586.388927
1930.257415,612.876398,1332.370696,9178.553681
1930.257732,229.828649,666.185348,9696.697840
1930.258049,229.828649,148.041188,9622.677246
1930.258367,766.095498,-518.144159,9918.759623
1930.258684,612.876398,-518.144159,9770.718434
1930.259001,842.705048,-444.123565,9474.636058
1930.259319,1072.533697,-148.041188,9474.636058
1930.259636,766.095498,-74.020594,9474.636058
1930.259953,536.266849,296.082377,9770.718434
1930.260271,0.000000,666.185348,10066.800811
1930.260588,-383.047749,740.205942,10140.821405
1930.260905,-536.266849,666.185348,10436.903782
1930.261223,-383.047749,222.061783,10732.986159
1930.261540,-229.828649,-222.061783,10584.944971
1930.261857,995.924147,-0.000000,10214.842000
1930.262175,1685.410096,-0.000000,9622.677246
1930.262492,2528.115143,-74.020594,8808.450710
1930.262809,3140.991542,444.123565,8068.244768
1930.263127,3064.381992,592.164754,8142.265362
1930.263444,2834.553343,518.144159,8364.327145
1930.263761,2221.676944,592.164754,8956.491898
1930.264079,1532.190996,-0.000000,9326.594869
1930.264396,1149.143247,296.082377,9474.636058
1930.264713,842.705048,-444.123565,10140.821405
1930.265031,842.705048,-740.205942,10510.924376
1930.265348,1302.362347,-1036.288319,10140.821405
1930.265665,2451.505594,-518.144159,9474.636058
1930.265983,2451.505594,-444.123565,8956.491898
1930.266300,2528.115143,-370.102971,8438.347739
1930.266617,2068.457845,-148.041188,8512.368333
1930.266935,1455.581446,444.123565,8660.409521
1930.267252,612.876398,518.144159,9178.553681
1930.267569,76.609550,296.082377,9474.636058
1930.267887,-229.828649,148.041188,9696.697840
1930.268204,-383.047749,-0.000000,9770.718434
1930.268521,0.000000,-666.185348,10066.800811
1930.268839,153.219100,-814.226536,9474.636058
1930.269156,766.095498,-1110.308913,8882.471304
1930.269473,1225.752797,-740.205942,8660.409521
1930.269791,1149.143247,-296.082377,8364.327145
1930.270108,1072.533697,-0.000000,8512.368333
1930.270425,459.657299,222.061783,8734.430116
1930.270743,0.000000,518.144159,8956.491898
1930.271060,-766.095498,666.185348,9400.615463
1930.271377,-1149.143247,444.123565,9474.636058
1930.271695,-306.438199,148.041188,9844.739029
