#time,accel_x,accel_y,accel_z
1454.731754,2298.286494,-1702.473667,6143.709319
1454.732072,2221.676944,-1110.308913,5403.503377
1454.732389,1838.629195,-1258.350101,5477.523971
1454.732706,1302.362347,-1332.370696,5255.462188
1454.733024,919.314598,-814.226536,5181.441594
1454.733341,0.000000,-666.185348,5699.585753
1454.733659,-459.657299,-296.082377,6735.874072
1454.733976,-842.705048,-74.020594,6957.935855
1454.734294,-1072.533697,-148.041188,7031.956449
1454.734611,-995.924147,-0.000000,7846.182985
1454.734929,-919.314598,296.082377,8216.285956
1454.735246,-995.924147,444.123565,7920.203579
1454.735564,-919.314598,-0.000000,7994.224174
1454.735881,-536.266849,222.061783,8808.450710
1454.736198,-459.657299,-0.000000,8512.368333
1454.736516,-612.876398,296.082377,8512.368333
1454.736833,-842.705048,296.082377,9104.533087
1454.737151,-995.924147,296.082377,9696.697840
1454.737468,-1378.971896,518.144159,10288.862594
1454.737786,-1072.533697,-0.000000,10955.047942
1454.738103,-1225.752797,222.061783,10807.006753
1454.738421,-1149.143247,-148.041188,11843.295072
1454.738738,-306.438199,-222.061783,11991.336260
1454.739056,229.828649,-296.082377,11621.233289
1454.739373,536.266849,-444.123565,11843.295072
1454.739690,612.876398,-444.123565,12213.398043
1454.740008,459.657299,-592.164754,12509.480420
1454.740325,536.266849,-74.020594,11991.336260
1454.740643,76.609550,444.123565,11843.295072
1454.740960,-383.047749,592.164754,11917.315666
1454.741278,-459.657299,814.226536,11177.109724
1454.741595,-995.924147,962.267725,10881.027347
1454.741913,-1455.581446,888.247130,10881.027347
1454.742230,-1685.410096,962.267725,10362.883188
1454.742547,-1685.410096,592.164754,10066.800811
1454.742865,-2221.676944,148.041188,10214.842000
1454.743182,-2451.505594,-518.144159,10584.944971
1454.743500,-3217.601092,-1036.288319,10658.965565
1454.743817,-3447.429741,-962.267725,10584.944971
1454.744135,-3447.429741,-888.247130,10732.986159
1454.744452,-3600.648841,-666.185348,10214.842000
1454.744770,-3140.991542,-370.102971,10510.924376
1454.745087,-3217.601092,-148.041188,9992.780217
1454.745405,-2604.724693,-222.061783,9770.718434
1454.745722,-2221.676944,-0.000000,9844.739029
1454.746039,-1072.533697,-222.061783,10066.800811
1454.746357,-766.095498,-148.041188,9992.780217
1454.746674,-383.047749,-518.144159,9918.759623
1454.746992,612.876398,-666.185348,9696.697840
1454.747309,1225.752797,-740.205942,9548.656652
1454.747627,2451.505594,-74.020594,9474.636058
1454.747944,2451.505594,-592.164754,9104.533087
1454.748262,2528.115143,-370.102971,8882.471304
1454.748579,2757.943793,-740.205942,9178.553681
1454.748896,3140.991542,-1258.350101,9104.533087
1454.749214,3447.429741,-2146.597232,9548.656652
1454.749531,3447.429741,-2294.638420,9696.697840
1454.749849,3524.039291,-2368.659014,9474.636058
1454.750166,3600.648841,-2294.638420,9622.677246
1454.750484,3370.820191,-2368.659014,9770.718434
1454.750801,3983.696590,-2072.576638,9030.512492
1454.751119,3753.867940,-1702.473667,9326.594869
1454.751436,3217.601092,-1110.308913,8364.327145
1454.751754,2834.553343,-888.247130,8660.409521
1454.752071,2451.505594,-888.247130,8290.306550
1454.752388,1838.629195,-1258.350101,8290.306550
1454.752706,1149.143247,-1776.494261,8956.491898
1454.753023,1302.362347,-1702.473667,9030.512492
1454.753341,919.314598,-1776.494261,8364.327145
1454.753658,536.266849,-1554.432478,8290.306550
1454.753976,0.000000,-1406.391290,7624.121203
1454.754293,-383.047749,-962.267725,7254.018232
1454.754611,-766.095498,-1184.329507,7328.038826
1454.754928,-1532.190996,-1258.350101,7328.038826
1454.755246,-1838.629195,-1554.432478,7920.203579
1454.755563,-2298.286494,-1850.514855,8142.265362
1454.755880,-2757.943793,-1850.514855,8660.409521
1454.756198,-3064.381992,-1924.535449,9104.533087
1454.756515,-2068.457845,-1776.494261,9104.533087
1454.756833,-2604.724693,-1184.329507,8882.471304
1454.757150,-2834.553343,-888.247130,8438.347739
1454.757468,-2604.724693,-814.226536,9104.533087
1454.757785,-2145.067394,-370.102971,9178.553681
1454.758103,-1991.848295,-444.123565,9474.636058
1454.758420,-1838.629195,-444.123565,9992.780217
1454.758737,-1532.190996,-814.226536,10214.842000
1454.759055,-995.924147,-444.123565,10288.862594
1454.759372,-383.047749,-370.102971,10732.986159
1454.759690,459.657299,-0.000000,10288.862594
1454.760007,842.705048,148.041188,10288.862594
1454.760325,1608.800546,740.205942,9400.615463
1454.760642,1685.410096,666.185348,9030.512492
1454.760960,2221.676944,222.061783,9474.636058
1454.761277,2068.457845,296.082377,9474.636058
1454.761595,2068.457845,-0.000000,9992.780217
1454.761912,1915.238745,-222.061783,10807.006753
1454.762229,1762.019645,-0.000000,11103.089130
1454.762547,1685.410096,666.185348,10288.862594
1454.762864,1991.848295,888.247130,10288.862594
1454.763182,1838.629195,1480.411884,9622.677246
1454.763499,1915.238745,1702.473667,9622.677246
1454.763817,2068.457845,1850.514855,9548.656652
1454.764134,1838.629195,1406.391290,9770.718434
1454.764452,1532.190996,1184.329507,9992.780217
1454.764769,1838.629195,888.247130,9992.780217
1454.765087,1608.800546,962.267725,10214.842000
1454.765404,1532.190996,1406.391290,9992.780217
1454.765722,1378.971896,1332.370696,9326.594869
1454.766039,1302.362347,1776.494261,8660.409521
1454.766357,1225.752797,1924.535449,8364.327145
1454.766674,612.876398,1702.473667,8734.430116
1454.766992,612.876398,1480.411884,8438.347739
1454.767309,842.705048,740.205942,9104.533087
1454.767627,0.000000,222.061783,9844.739029
1454.767944,-306.438199,-370.102971,10066.800811
1454.768262,-459.657299,-518.144159,10807.006753
1454.768579,-536.266849,-222.061783,10732.986159
1454.768897,-536.266849,296.082377,10510.924376
1454.769214,-689.485948,740.205942,9844.739029
1454.769531,-689.485948,740.205942,9400.615463
1454.769849,-459.657299,444.123565,9474.636058
1454.770166,-383.047749,-0.000000,9622.677246
1454.770484,-383.047749,-370.102971,9992.780217
1454.770801,-306.438199,-518.144159,10658.965565
1454.771119,-306.438199,-740.205942,10732.986159
1454.771436,-153.219100,-296.082377,10807.006753
1454.771754,229.828649,-0.000000,10140.821405
1454.772071,919.314598,444.123565,9474.636058
1454.772389,1072.533697,592.164754,8882.471304
1454.772706,1378.971896,296.082377,8438.347739
1454.773024,1608.800546,-0.000000,8216.285956
1454.773341,1455.581446,-0.000000,8808.450710
1454.773659,1225.752797,-592.164754,9104.533087
1454.773976,995.924147,-814.226536,8882.471304
1454.774294,536.266849,-518.144159,9474.636058
1454.774611,536.266849,-740.205942,9400.615463
1454.774929,306.438199,-296.082377,9178.553681
1454.775246,306.438199,-0.000000,8882.471304
1454.775564,612.876398,-0.000000,8586.388927
1454.775881,536.266849,-296.082377,8660.409521
1454.776199,459.657299,-370.102971,8882.471304
1454.776516,459.657299,-888.247130,9400.615463
1454.776834,459.657299,-814.226536,9622.677246
1454.777151,306.438199,-1110.308913,9474.636058
1454.777468,229.828649,-518.144159,9400.615463
1454.777786,383.047749,-592.164754,9104.533087
1454.778103,612.876398,-148.041188,8512.368333
1454.778421,1149.143247,-222.061783,8216.285956
1454.778738,1225.752797,-518.144159,8142.265362
1454.779056,1225.752797,-1110.308913,8216.285956
1454.779373,1302.362347,-1628.453072,9252.574275
1454.779691,612.876398,-1702.473667,9474.636058
1454.780008,229.828649,-2294.638420,10140.821405
1454.780326,153.219100,-1924.535449,10436.903782
1454.780643,306.438199,-1406.391290,10584.944971
1454.780961,612.876398,-370.102971,10214.842000
1454.781278,459.657299,-0.000000,9622.677246
1454.781596,459.657299,-0.000000,9622.677246
1454.781913,612.876398,-222.061783,9918.759623
1454.782231,1225.752797,-592.164754,9992.780217
1454.782548,689.485948,-1036.288319,10214.842000
1454.782866,1149.143247,-222.061783,10214.842000
1454.783183,1072.533697,-0.000000,10288.862594
1454.783501,1915.238745,814.226536,9844.739029
1454.783818,2145.067394,1406.391290,9178.553681
1454.784136,1991.848295,1702.473667,8364.327145
1454.784453,1991.848295,2072.576638,8142.265362
1454.784770,2221.676944,1924.535449,7846.182985
1454.785088,2068.457845,1776.494261,8142.265362
1454.785405,1225.752797,1480.411884,8290.306550
1454.785723,1455.581446,962.267725,8882.471304
1454.786040,1532.190996,1110.308913,9030.512492
1454.786358,1225.752797,1406.391290,9178.553681
1454.786675,919.314598,1850.514855,9326.594869
1454.786993,612.876398,2294.638420,8956.491898
1454.787310,842.705048,2738.761985,8882.471304
1454.787628,766.095498,2664.741391,8734.430116
1454.787945,689.485948,2516.700203,8882.471304
1454.788263,536.266849,2368.659014,9030.512492
1454.788580,689.485948,1998.556043,9400.615463
1454.788898,612.876398,2146.597232,9622.677246
1454.789215,842.705048,2072.576638,9474.636058
1454.789533,536.266849,2146.597232,9474.636058
1454.789850,612.876398,2072.576638,9326.594869
1454.790168,612.876398,1998.556043,8808.450710
1454.790485,229.828649,1924.535449,9326.594869
1454.790803,0.000000,1258.350101,9474.636058
1454.791120,0.000000,888.247130,9770.718434
1454.791438,-612.876398,-0.000000,10436.903782
1454.791755,-459.657299,296.082377,10732.986159
1454.792072,-995.924147,222.061783,11029.068536
1454.792390,-459.657299,740.205942,10955.047942
1454.792707,-689.485948,518.144159,10510.924376
1454.793025,-229.828649,814.226536,10955.047942
1454.793342,0.000000,888.247130,10288.862594
1454.793660,229.828649,740.205942,10140.821405
1454.793977,536.266849,222.061783,10140.821405
1454.794295,612.876398,-0.000000,10288.862594
1454.794612,612.876398,370.102971,10584.944971
1454.794930,1149.143247,518.144159,10362.883188
1454.795247,1762.019645,814.226536,10066.800811
1454.795565,1762.019645,962.267725,9474.636058
1454.795882,1991.848295,1036.288319,9178.553681
1454.796200,2298.286494,962.267725,8734.430116
1454.796517,2451.505594,740.205942,8660.409521
1454.796835,2298.286494,296.082377,8586.388927
1454.797152,2528.115143,-0.000000,8808.450710
1454.797470,2604.724693,-592.164754,9178.553681
1454.797787,2221.676944,-296.082377,9326.594869
1454.798105,1838.629195,148.041188,9400.615463
1454.798422,2298.286494,370.102971,9252.574275
1454.798740,1608.800546,518.144159,8882.471304
1454.799057,2145.067394,666.185348,9104.533087
1454.799374,1991.848295,444.123565,8882.471304
1454.799692,2068.457845,222.061783,8882.471304
1454.800009,1991.848295,-74.020594,9178.553681
1454.800327,2145.067394,-666.185348,9548.656652
1454.800644,1838.629195,-666.185348,9696.697840
1454.800962,1608.800546,-296.082377,9696.697840
1454.801279,1608.800546,-148.041188,9326.594869
1454.801597,1762.019645,-74.020594,9326.594869
1454.801914,1302.362347,148.041188,9030.512492
1454.802232,919.314598,-74.020594,8808.450710
1454.802549,919.314598,-0.000000,8882.471304
1454.802867,689.485948,-518.144159,9030.512492
1454.803184,383.047749,-740.205942,9326.594869
1454.803502,229.828649,-740.205942,9622.677246
1454.803819,-229.828649,-592.164754,9696.697840
1454.804137,-306.438199,-518.144159,9474.636058
1454.804454,-459.657299,370.102971,9400.615463
1454.804772,-229.828649,592.164754,9400.615463
1454.805089,-612.876398,888.247130,8586.388927
1454.805407,-689.485948,740.205942,8808.450710
1454.805724,-536.266849,814.226536,8956.491898
1454.806042,-459.657299,740.205942,9400.615463
1454.806359,-459.657299,740.205942,9326.594869
1454.806677,-383.047749,1036.288319,9474.636058
1454.806994,0.000000,1554.432478,9104.533087
1454.807311,153.219100,2072.576638,8882.471304
1454.807629,459.657299,2368.659014,8586.388927
1454.807946,995.924147,2368.659014,8216.285956
1454.808264,766.095498,2368.659014,8216.285956
1454.808581,1225.752797,2368.659014,7920.203579
1454.808899,766.095498,1554.432478,8364.327145
1454.809216,995.924147,1258.350101,9030.512492
1454.809534,919.314598,1110.308913,9548.656652
1454.809851,459.657299,1258.350101,9548.656652
1454.810169,689.485948,1702.473667,9622.677246
1454.810486,689.485948,2146.597232,9696.697840
1454.810804,842.705048,2294.638420,9474.636058
1454.811121,1225.752797,2072.576638,9770.718434
1454.811439,1225.752797,1702.473667,9918.759623
1454.811756,919.314598,1332.370696,9844.739029
1454.812074,1302.362347,962.267725,10214.842000
1454.812391,995.924147,666.185348,10658.965565
1454.812709,1455.581446,592.164754,10881.027347
1454.813026,1149.143247,1184.329507,10807.006753
1454.813344,1455.581446,1258.350101,10436.903782
1454.813661,1302.362347,1184.329507,10510.924376
1454.813979,1378.971896,814.226536,9918.759623
1454.814296,919.314598,444.123565,9918.759623
1454.814613,1072.533697,-74.020594,10140.821405
1454.814931,842.705048,-370.102971,10362.883188
1454.815248,995.924147,-592.164754,10436.903782
1454.815566,612.876398,-370.102971,10658.965565
1454.815883,536.266849,-222.061783,10510.924376
1454.816201,229.828649,148.041188,10362.883188
1454.816518,306.438199,222.061783,10140.821405
1454.816836,229.828649,370.102971,9622.677246
1454.817153,383.047749,-0.000000,9770.718434
1454.817471,612.876398,-370.102971,9474.636058
1454.817788,536.266849,-222.061783,9548.656652
1454.818106,536.266849,-592.164754,9548.656652
1454.818423,919.314598,-592.164754,9400.615463
1454.818741,1149.143247,-296.082377,9474.636058
1454.819058,1149.143247,-74.020594,8882.471304
1454.819376,1072.533697,-0.000000,8586.388927
1454.819693,1225.752797,-0.000000,8290.306550
1454.820011,1225.752797,-222.061783,8142.265362
1454.820328,1762.019645,-740.205942,8216.285956
1454.820646,995.924147,-888.247130,8512.368333
1454.820963,919.314598,-1258.350101,8882.471304
1454.821281,1072.533697,-1406.391290,8956.491898
1454.821598,919.314598,-1406.391290,9104.533087
1454.821915,1149.143247,-1480.411884,9030.512492
1454.822233,1149.143247,-814.226536,8882.471304
1454.822550,1149.143247,-444.123565,8734.430116
1454.822868,1149.143247,-296.082377,8586.388927
1454.823185,1072.533697,-444.123565,8882.471304
1454.823503,1302.362347,-962.267725,9030.512492
1454.823820,995.924147,-1332.370696,9178.553681
1454.824138,536.266849,-1258.350101,9474.636058
1454.824455,995.924147,-1036.288319,9474.636058
1454.824773,1838.629195,-740.205942,9252.574275
1454.825090,1455.581446,-370.102971,9030.512492
1454.825408,1378.971896,-74.020594,8734.430116
1454.825725,1302.362347,-74.020594,8734.430116
1454.826043,1149.143247,-444.123565,8586.388927
1454.826360,1378.971896,-814.226536,8660.409521
1454.826678,383.047749,-888.247130,8956.491898
1454.826995,612.876398,-518.144159,9252.574275
1454.827313,459.657299,-296.082377,9400.615463
1454.827630,229.828649,-296.082377,9474.636058
1454.827948,153.219100,-0.000000,9400.615463
1454.828265,383.047749,296.082377,9104.533087
1454.828583,306.438199,666.185348,8956.491898
1454.828900,459.657299,592.164754,8734.430116
1454.829218,229.828649,740.205942,8882.471304
1454.829535,459.657299,296.082377,9326.594869
1454.829852,383.047749,444.123565,9474.636058
1454.830170,459.657299,444.123565,9770.718434
1454.830487,383.047749,666.185348,9770.718434
1454.830805,612.876398,1184.329507,9548.656652
1454.831122,766.095498,1406.391290,9326.594869
1454.831440,919.314598,1332.370696,9326.594869
1454.831757,842.705048,1184.329507,8956.491898
1454.832075,1072.533697,1036.288319,9178.553681
1454.832392,1378.971896,296.082377,9400.615463
1454.832710,766.095498,518.144159,10066.800811
1454.833027,842.705048,370.102971,10140.821405
1454.833345,383.047749,-0.000000,10510.924376
1454.833662,229.828649,222.061783,10584.944971
1454.833980,153.219100,592.164754,10658.965565
1454.834297,383.047749,888.247130,10362.883188
1454.834615,306.438199,888.247130,10214.842000
1454.834932,153.219100,518.144159,10288.862594
1454.835250,229.828649,148.041188,10436.903782
1454.835567,383.047749,-0.000000,10510.924376
1454.835885,0.000000,-74.020594,10807.006753
1454.836202,153.219100,148.041188,10658.965565
1454.836520,229.828649,148.041188,10584.944971
1454.836837,536.266849,222.061783,10510.924376
1454.837154,76.609550,370.102971,10066.800811
1454.837472,76.609550,592.164754,9770.718434
1454.837789,153.219100,518.144159,9474.636058
1454.838107,306.438199,-0.000000,9326.594869
1454.838424,76.609550,-222.061783,9400.615463
1454.838742,0.000000,-740.205942,9770.718434
1454.839059,-153.219100,-518.144159,9992.780217
1454.839377,0.000000,-222.061783,9918.759623
1454.839694,-383.047749,-370.102971,9770.718434
1454.840012,-306.438199,-0.000000,9474.636058
1454.840329,76.609550,74.020594,9326.594869
1454.840647,0.000000,-0.000000,9030.512492
1454.840964,229.828649,-370.102971,8956.491898
1454.841282,383.047749,-444.123565,8882.471304
1454.841599,766.095498,-592.164754,9030.512492
1454.841917,536.266849,-592.164754,8956.491898
1454.842234,766.095498,-518.144159,9030.512492
1454.842552,689.485948,-296.082377,8882.471304
1454.842869,1378.971896,-0.000000,8808.450710
1454.843187,1302.362347,-0.000000,7994.224174
1454.843504,1378.971896,-222.061783,7624.121203
1454.843822,1149.143247,-444.123565,8068.244768
1454.844139,1225.752797,-962.267725,8216.285956
1454.844456,1149.143247,-1628.453072,8512.368333
1454.844774,995.924147,-1702.473667,8734.430116
1454.845091,1072.533697,-1480.411884,9178.553681
1454.845409,689.485948,-1332.370696,9400.615463
1454.845726,842.705048,-1036.288319,9178.553681
1454.846044,766.095498,-1110.308913,8660.409521
1454.846361,383.047749,-888.247130,8882.471304
1454.846679,766.095498,-740.205942,8660.409521
1454.846996,842.705048,-888.247130,8734.430116
1454.847314,919.314598,-1036.288319,8586.388927
1454.847631,612.876398,-814.226536,9030.512492
1454.847949,995.924147,-814.226536,9178.553681
1454.848266,689.485948,-740.205942,9252.574275
1454.848584,842.705048,-222.061783,9104.533087
1454.848901,919.314598,-74.020594,8956.491898
1454.849219,919.314598,-74.020594,8512.368333
1454.849536,689.485948,-74.020594,8586.388927
1454.849854,612.876398,-444.123565,8734.430116
1454.850171,459.657299,-296.082377,9104.533087
1454.850489,612.876398,-444.123565,9178.553681
1454.850806,459.657299,-740.205942,9548.656652
1454.851124,0.000000,-0.000000,9622.677246
1454.851441,306.438199,-74.020594,9696.697840
1454.851759,229.828649,-0.000000,9770.718434
1454.852076,459.657299,444.123565,9548.656652
1454.852393,689.485948,296.082377,9844.739029
1454.852711,383.047749,518.144159,9992.780217
1454.853028,536.266849,296.082377,10140.821405
1454.853346,612.876398,148.041188,10288.862594
1454.853663,536.266849,74.020594,10362.883188
1454.853981,995.924147,370.102971,10658.965565
1454.854298,1225.752797,888.247130,10584.944971
1454.854616,1149.143247,1184.329507,9992.780217
1454.854933,1378.971896,1332.370696,9770.718434
1454.855251,1532.190996,1184.329507,9770.718434
1454.855568,1608.800546,962.267725,9622.677246
1454.855886,1455.581446,814.226536,9844.739029
1454.856203,1378.971896,444.123565,10066.800811
1454.856521,1302.362347,518.144159,10362.883188
1454.856838,1378.971896,222.061783,10584.944971
1454.857156,995.924147,740.205942,10732.986159
1454.857473,1225.752797,888.247130,10362.883188
1454.857791,1072.533697,1110.308913,10140.821405
1454.858108,1072.533697,1406.391290,10066.800811
1454.858426,995.924147,962.267725,10140.821405
1454.858743,842.705048,1258.350101,9992.780217
1454.859061,1072.533697,888.247130,9992.780217
1454.859378,842.705048,740.205942,10140.821405
1454.859695,689.485948,814.226536,10066.800811
1454.860013,689.485948,962.267725,9770.718434
1454.860330,536.266849,1258.350101,9622.677246
1454.860648,536.266849,1406.391290,9474.636058
1454.860965,306.438199,1554.432478,9178.553681
1454.861283,612.876398,1184.329507,9178.553681
1454.861600,459.657299,888.247130,8734.430116
1454.861918,153.219100,666.185348,8734.430116
1454.862235,0.000000,592.164754,9030.512492
1454.862553,0.000000,222.061783,9252.574275
1454.862870,0.000000,296.082377,9326.594869
1454.863188,-229.828649,518.144159,9178.553681
1454.863505,-306.438199,962.267725,8882.471304
1454.863823,0.000000,888.247130,8734.430116
1454.864140,0.000000,814.226536,8734.430116
1454.864457,0.000000,518.144159,8808.450710
1454.864775,229.828649,370.102971,9030.512492
1454.865092,153.219100,-74.020594,9252.574275
1454.865410,229.828649,-0.000000,9548.656652
1454.865727,536.266849,-0.000000,9474.636058
1454.866045,995.924147,-0.000000,9252.574275
1454.866362,919.314598,592.164754,8808.450710
1454.866679,1072.533697,518.144159,8512.368333
1454.866997,1302.362347,444.123565,8290.306550
1454.867314,1302.362347,-0.000000,8290.306550
1454.867632,1455.581446,74.020594,8512.368333
1454.867949,1149.143247,-370.102971,8808.450710
1454.868266,995.924147,-888.247130,9252.574275
1454.868584,1225.752797,-740.205942,9326.594869
1454.868901,766.095498,-444.123565,9622.677246
1454.869219,1072.533697,-0.000000,9400.615463
1454.869536,1072.533697,-0.000000,9252.574275
1454.869854,1072.533697,296.082377,9104.533087
1454.870171,1072.533697,-0.000000,9104.533087
1454.870488,1072.533697,74.020594,9178.553681
1454.870806,1072.533697,-0.000000,9326.594869
1454.871123,919.314598,-148.041188,9474.636058
1454.871441,383.047749,-370.102971,9548.656652
1454.871758,1302.362347,-0.000000,9474.636058
1454.872075,919.314598,222.061783,9548.656652
1454.872393,1225.752797,518.144159,9400.615463
1454.872710,1455.581446,666.185348,9030.512492
1454.873028,1378.971896,518.144159,8808.450710
1454.873345,1225.752797,296.082377,9326.594869
1454.873663,842.705048,-0.000000,9252.574275
1454.873980,689.485948,-0.000000,9474.636058
1454.874297,536.266849,-0.000000,9844.739029
1454.874615,153.219100,222.061783,10066.800811
1454.874932,229.828649,296.082377,10066.800811
1454.875250,383.047749,666.185348,10066.800811
1454.875567,459.657299,1036.288319,9548.656652
1454.875885,459.657299,962.267725,9770.718434
1454.876202,689.485948,888.247130,9918.759623
1454.876519,459.657299,666.185348,10066.800811
1454.876837,536.266849,518.144159,10066.800811
1454.877154,612.876398,444.123565,10510.924376
1454.877472,842.705048,518.144159,10436.903782
1454.877789,1149.143247,888.247130,10288.862594
1454.878106,842.705048,1406.391290,9844.739029
1454.878424,1149.143247,1480.411884,9696.697840
1454.878741,1302.362347,1332.370696,9474.636058
1454.879059,1455.581446,1110.308913,8956.491898
1454.879376,1378.971896,1258.350101,9104.533087
1454.879694,1225.752797,962.267725,9474.636058
1454.880011,1455.581446,666.185348,9548.656652
1454.880328,1225.752797,592.164754,9918.759623
1454.880646,995.924147,592.164754,9770.718434
1454.880963,919.314598,962.267725,9770.718434
1454.881281,1149.143247,1184.329507,9474.636058
1454.881598,1532.190996,1554.432478,9252.574275
1454.881915,995.924147,1554.432478,9252.574275
1454.882233,995.924147,1332.370696,9104.533087
1454.882550,1302.362347,962.267725,9178.553681
1454.882868,1149.143247,740.205942,9252.574275
1454.883185,919.314598,666.185348,9474.636058
1454.883503,1072.533697,740.205942,9474.636058
1454.883820,1225.752797,1036.288319,9326.594869
1454.884137,1149.143247,1036.288319,9252.574275
1454.884455,1455.581446,1184.329507,8808.450710
1454.884772,1685.410096,962.267725,8586.388927
1454.885090,1225.752797,444.123565,8660.409521
1454.885407,1225.752797,444.123565,8808.450710
1454.885725,919.314598,296.082377,8956.491898
1454.886042,689.485948,-0.000000,9252.574275
1454.886359,459.657299,222.061783,9474.636058
1454.886677,536.266849,148.041188,9474.636058
1454.886994,612.876398,444.123565,9474.636058
1454.887312,383.047749,518.144159,9400.615463
1454.887629,689.485948,444.123565,9400.615463
1454.887946,689.485948,222.061783,9326.594869
1454.888264,919.314598,-0.000000,9326.594869
1454.888581,919.314598,-74.020594,9548.656652
1454.888899,612.876398,-222.061783,10214.842000
1454.889216,1225.752797,-148.041188,9770.718434
1454.889534,1072.533697,222.061783,9770.718434
1454.889851,1149.143247,296.082377,9474.636058
1454.890168,1149.143247,518.144159,9178.553681
1454.890486,1608.800546,518.144159,9104.533087
1454.890803,1378.971896,222.061783,8586.388927
1454.891121,995.924147,-0.000000,8882.471304
1454.891438,1225.752797,-148.041188,9030.512492
1454.891755,919.314598,-296.082377,9474.636058
1454.892073,1225.752797,-296.082377,9548.656652
1454.892390,536.266849,-444.123565,9696.697840
1454.892708,383.047749,-0.000000,9696.697840
1454.893025,229.828649,296.082377,9474.636058
1454.893343,689.485948,518.144159,9326.594869
1454.893660,0.000000,444.123565,9326.594869
1454.893977,383.047749,444.123565,9474.636058
1454.894295,306.438199,-0.000000,9474.636058
1454.894612,383.047749,222.061783,9474.636058
1454.894930,306.438199,-0.000000,9622.677246
1454.895247,153.219100,-0.000000,9326.594869
1454.895565,229.828649,-0.000000,9474.636058
1454.895882,459.657299,518.144159,9474.636058
1454.896199,612.876398,592.164754,9030.512492
1454.896517,612.876398,-0.000000,8882.471304
1454.896834,229.828649,-0.000000,9252.574275
1454.897152,612.876398,-0.000000,9030.512492
1454.897469,76.609550,-370.102971,9474.636058
1454.897786,229.828649,-222.061783,9622.677246
1454.898104,536.266849,-222.061783,9770.718434
1454.898421,0.000000,-222.061783,9992.780217
1454.898739,76.609550,148.041188,9918.759623
1454.899056,0.000000,370.102971,9696.697840
1454.899374,0.000000,592.164754,9474.636058
1454.899691,536.266849,370.102971,9474.636058
1454.900008,612.876398,148.041188,9548.656652
1454.900326,306.438199,-74.020594,9696.697840
1454.900643,766.095498,-74.020594,9918.759623
1454.900961,842.705048,-0.000000,10214.842000
1454.901278,919.314598,370.102971,10140.821405
1454.901595,995.924147,518.144159,9622.677246
1454.901913,1149.143247,740.205942,9474.636058
1454.902230,1378.971896,814.226536,9178.553681
1454.902548,1225.752797,666.185348,9030.512492
1454.902865,1378.971896,444.123565,8882.471304
1454.903183,1532.190996,-0.000000,9104.533087
1454.903500,919.314598,-444.123565,9400.615463
1454.903817,919.314598,-444.123565,9696.697840
1454.904135,766.095498,-222.061783,9770.718434
1454.904452,689.485948,-222.061783,9696.697840
1454.904770,766.095498,-0.000000,9622.677246
1454.905087,919.314598,148.041188,9104.533087
1454.905405,919.314598,444.123565,9178.553681
1454.905722,1225.752797,222.061783,9178.553681
1454.906039,842.705048,296.082377,9548.656652
1454.906357,919.314598,-0.000000,9178.553681
1454.906674,689.485948,-296.082377,9400.615463
1454.906992,995.924147,-0.000000,9474.636058
1454.907309,1225.752797,-0.000000,9474.636058
1454.907626,842.705048,148.041188,9104.533087
1454.907944,995.924147,222.061783,8956.491898
1454.908261,1072.533697,222.061783,8734.430116
1454.908579,995.924147,-0.000000,8586.388927
1454.908896,1225.752797,-148.041188,8956.491898
1454.909214,995.924147,-444.123565,8956.491898
1454.909531,536.266849,-814.226536,9400.615463
1454.909848,383.047749,-444.123565,9844.739029
1454.910166,536.266849,-370.102971,9622.677246
1454.910483,0.000000,-148.041188,9770.718434
1454.910801,383.047749,-0.000000,9474.636058
1454.911118,229.828649,-0.000000,9474.636058
1454.911435,306.438199,-0.000000,9400.615463
1454.911753,919.314598,-0.000000,9326.594869
1454.912070,612.876398,-296.082377,9474.636058
1454.912388,766.095498,-148.041188,9696.697840
1454.912705,919.314598,-74.020594,9622.677246
1454.913023,842.705048,148.041188,9696.697840
1454.913340,1378.971896,592.164754,9548.656652
1454.913657,1149.143247,518.144159,9252.574275
1454.913975,1225.752797,518.144159,8882.471304
1454.914292,1378.971896,296.082377,8660.409521
1454.914610,1149.143247,-0.000000,8808.450710
1454.914927,1225.752797,-222.061783,9104.533087
1454.915245,1072.533697,-518.144159,9400.615463
1454.915562,919.314598,-444.123565,9622.677246
1454.915879,689.485948,-518.144159,9918.759623
1454.916197,919.314598,-296.082377,9992.780217
1454.916514,689.485948,-0.000000,9770.718434
1454.916832,459.657299,370.102971,9548.656652
1454.917149,766.095498,518.144159,9474.636058
1454.917466,536.266849,370.102971,9400.615463
1454.917784,536.266849,370.102971,9474.636058
1454.918101,306.438199,-148.041188,9696.697840
1454.918419,306.438199,-0.000000,9844.739029
1454.918736,383.047749,-0.000000,9844.739029
1454.919054,383.047749,-0.000000,9696.697840
1454.919371,153.219100,148.041188,9770.718434
1454.919688,766.095498,296.082377,9474.636058
1454.920006,612.876398,296.082377,9030.512492
1454.920323,536.266849,-0.000000,9104.533087
1454.920641,0.000000,-444.123565,9104.533087
1454.920958,229.828649,-592.164754,9252.574275
1454.921276,76.609550,-666.185348,9548.656652
1454.921593,0.000000,-666.185348,10140.821405
1454.921910,0.000000,-666.185348,9992.780217
1454.922228,-306.438199,-148.041188,10066.800811
1454.922545,76.609550,-222.061783,9844.739029
1454.922863,0.000000,-0.000000,9326.594869
1454.923180,306.438199,-0.000000,9474.636058
1454.923497,229.828649,-222.061783,9474.636058
1454.923815,229.828649,-666.185348,9400.615463
1454.924132,689.485948,-518.144159,9474.636058
1454.924450,766.095498,-444.123565,9474.636058
1454.924767,766.095498,-296.082377,9474.636058
1454.925085,1225.752797,-0.000000,9400.615463
1454.925402,995.924147,74.020594,9104.533087
1454.925719,1302.362347,370.102971,8882.471304
1454.926037,1225.752797,444.123565,8586.388927
1454.926354,1149.143247,222.061783,8660.409521
1454.926672,1225.752797,-148.041188,8734.430116
1454.926989,689.485948,-444.123565,9178.553681
1454.927306,995.924147,-592.164754,9326.594869
1454.927624,689.485948,-592.164754,9474.636058
1454.927941,689.485948,-296.082377,9548.656652
1454.928259,612.876398,-0.000000,9474.636058
1454.928576,536.266849,296.082377,9178.553681
1454.928894,995.924147,444.123565,8882.471304
1454.929211,612.876398,-0.000000,9104.533087
1454.929528,612.876398,-0.000000,9252.574275
1454.929846,536.266849,-0.000000,9326.594869
1454.930163,689.485948,-74.020594,9474.636058
1454.930481,459.657299,-0.000000,9474.636058
1454.930798,536.266849,-0.000000,9548.656652
1454.931116,766.095498,370.102971,9474.636058
1454.931433,766.095498,444.123565,8882.471304
1454.931750,1072.533697,-0.000000,8734.430116
1454.932068,919.314598,740.205942,8808.450710
1454.932385,1149.143247,444.123565,8956.491898
1454.932703,919.314598,148.041188,9104.533087
1454.933020,612.876398,-74.020594,9400.615463
1454.933337,459.657299,222.061783,9548.656652
1454.933655,229.828649,222.061783,9770.718434
1454.933972,229.828649,518.144159,9770.718434
1454.934290,306.438199,740.205942,9622.677246
1454.934607,383.047749,666.185348,9474.636058
1454.934925,842.705048,592.164754,9474.636058
1454.935242,536.266849,666.185348,9548.656652
1454.935559,689.485948,592.164754,9548.656652
1454.935877,766.095498,296.082377,9548.656652
1454.936194,1149.143247,-0.000000,10288.862594
1454.936512,1149.143247,814.226536,10066.800811
1454.936829,1225.752797,888.247130,9844.739029
1454.937146,1378.971896,1110.308913,9622.677246
1454.937464,1225.752797,1184.329507,9474.636058
1454.937781,1072.533697,1406.391290,9474.636058
1454.938099,1455.581446,1036.288319,9030.512492
1454.938416,1149.143247,444.123565,9252.574275
1454.938734,1455.581446,296.082377,9474.636058
1454.939051,1149.143247,222.061783,9844.739029
1454.939368,995.924147,-74.020594,9992.780217
1454.939686,536.266849,148.041188,10140.821405
1454.940003,766.095498,518.144159,9770.718434
1454.940321,766.095498,814.226536,9696.697840
1454.940638,842.705048,740.205942,9474.636058
1454.940956,766.095498,740.205942,9696.697840
1454.941273,689.485948,666.185348,9474.636058
1454.941590,536.266849,-0.000000,9696.697840
1454.941908,842.705048,370.102971,9992.780217
1454.942225,1072.533697,-0.000000,10140.821405
1454.942543,689.485948,370.102971,9770.718434
1454.942860,459.657299,740.205942,9548.656652
1454.943177,919.314598,814.226536,9400.615463
1454.943495,995.924147,888.247130,9178.553681
1454.943812,1072.533697,666.185348,8660.409521
1454.944130,995.924147,518.144159,8882.471304
1454.944447,1072.533697,370.102971,8734.430116
1454.944765,459.657299,-0.000000,9252.574275
1454.945082,383.047749,-0.000000,9400.615463
1454.945399,229.828649,-74.020594,9696.697840
1454.945717,0.000000,-0.000000,9474.636058
1454.946034,0.000000,222.061783,9474.636058
1454.946352,76.609550,296.082377,9400.615463
1454.946669,612.876398,-0.000000,9104.533087
1454.946986,0.000000,74.020594,9252.574275
1454.947304,383.047749,-0.000000,9400.615463
1454.947621,689.485948,-0.000000,9252.574275
1454.947939,612.876398,-148.041188,9474.636058
1454.948256,689.485948,-0.000000,9844.739029
1454.948574,995.924147,222.061783,9474.636058
1454.948891,1072.533697,296.082377,9104.533087
1454.949208,1302.362347,814.226536,9030.512492
1454.949526,1302.362347,666.185348,8660.409521
1454.949843,1455.581446,444.123565,8586.388927
1454.950161,1455.581446,518.144159,8586.388927
1454.950478,1455.581446,-74.020594,9030.512492
1454.950796,1225.752797,-222.061783,9400.615463
1454.951113,1149.143247,-518.144159,9400.615463
1454.951430,766.095498,-0.000000,9548.656652
1454.951748,612.876398,296.082377,9474.636058
1454.952065,919.314598,444.123565,9326.594869
1454.952383,995.924147,888.247130,9178.553681
1454.952700,1225.752797,888.247130,9326.594869
1454.953017,919.314598,740.205942,9252.574275
1454.953335,919.314598,592.164754,9326.594869
1454.953652,919.314598,296.082377,9548.656652
1454.953970,689.485948,148.041188,9770.718434
1454.954287,689.485948,518.144159,9770.718434
1454.954605,842.705048,666.185348,9474.636058
1454.954922,842.705048,814.226536,9252.574275
1454.955239,766.095498,962.267725,8956.491898
1454.955557,1225.752797,814.226536,8882.471304
1454.955874,919.314598,444.123565,8956.491898
1454.956192,459.657299,296.082377,9104.533087
1454.956509,229.828649,-0.000000,9474.636058
1454.956826,306.438199,-0.000000,9696.697840
1454.957144,153.219100,-222.061783,9992.780217
1454.957461,153.219100,296.082377,10066.800811
1454.957779,306.438199,740.205942,9622.677246
1454.958096,229.828649,888.247130,9770.718434
1454.958414,229.828649,814.226536,9474.636058
1454.958731,306.438199,814.226536,9474.636058
1454.959048,612.876398,666.185348,9622.677246
1454.959366,766.095498,592.164754,9770.718434
1454.959683,919.314598,222.061783,9696.697840
1454.960001,1072.533697,592.164754,9992.780217
1454.960318,766.095498,740.205942,10140.821405
1454.960636,1072.533697,1184.329507,9770.718434
1454.960953,1225.752797,1110.308913,9400.615463
1454.961270,1685.410096,1110.308913,9178.553681
1454.961588,1532.190996,1110.308913,8882.471304
1454.961905,1455.581446,888.247130,9178.553681
1454.962222,1302.362347,444.123565,9252.574275
1454.962540,1149.143247,-0.000000,9696.697840
1454.962857,1072.533697,-0.000000,10140.821405
1454.963174,919.314598,-0.000000,9918.759623
1454.963492,842.705048,148.041188,10288.862594
1454.963809,766.095498,666.185348,9548.656652
1454.964126,842.705048,740.205942,9474.636058
1454.964444,1149.143247,1036.288319,9326.594869
1454.964761,995.924147,592.164754,9400.615463
1454.965078,919.314598,222.061783,9474.636058
1454.965396,842.705048,-0.000000,9474.636058
1454.965713,919.314598,222.061783,9696.697840
1454.966030,766.095498,370.102971,9918.759623
1454.966347,919.314598,296.082377,9844.739029
1454.966665,1072.533697,740.205942,9474.636058
1454.966982,995.924147,666.185348,8956.491898
1454.967299,995.924147,518.144159,8808.450710
1454.967617,842.705048,296.082377,8808.450710
1454.967934,995.924147,-74.020594,9252.574275
1454.968251,383.047749,-370.102971,9178.553681
1454.968569,306.438199,-444.123565,9622.677246
1454.968886,306.438199,-370.102971,9844.739029
1454.969203,229.828649,-222.061783,9696.697840
1454.969521,229.828649,296.082377,9474.636058
1454.969838,76.609550,370.102971,9548.656652
1454.970155,536.266849,444.123565,9326.594869
1454.970473,689.485948,296.082377,9178.553681
1454.970790,612.876398,-0.000000,9252.574275
1454.971107,995.924147,-222.061783,9474.636058
1454.971424,919.314598,-0.000000,9548.656652
1454.971742,919.314598,-0.000000,9696.697840
1454.972059,766.095498,148.041188,9696.697840
1454.972376,1302.362347,370.102971,9474.636058
1454.972694,1149.143247,444.123565,9030.512492
1454.973011,1378.971896,888.247130,8956.491898
1454.973328,1149.143247,222.061783,8808.450710
1454.973646,1302.362347,444.123565,8660.409521
1454.973963,1225.752797,148.041188,9030.512492
1454.974280,842.705048,-370.102971,9474.636058
1454.974598,995.924147,-222.061783,9548.656652
1454.974915,766.095498,-222.061783,9770.718434
1454.975232,689.485948,-0.000000,9548.656652
1454.975549,536.266849,148.041188,9400.615463
1454.975867,459.657299,592.164754,9474.636058
1454.976184,842.705048,666.185348,9178.553681
1454.976501,383.047749,370.102971,8956.491898
1454.976819,689.485948,148.041188,9474.636058
1454.977136,612.876398,148.041188,9252.574275
1454.977453,306.438199,-0.000000,9696.697840
1454.977771,383.047749,148.041188,9770.718434
1454.978088,0.000000,222.061783,9622.677246
1454.978405,536.266849,592.164754,9474.636058
1454.978723,383.047749,740.205942,9252.574275
1454.979040,459.657299,740.205942,9030.512492
1454.979357,459.657299,592.164754,9178.553681
1454.979675,383.047749,148.041188,8956.491898
1454.979992,383.047749,-370.102971,9326.594869
1454.980309,306.438199,-518.144159,9400.615463
1454.980626,76.609550,-74.020594,9770.718434
1454.980944,153.219100,-0.000000,9918.759623
1454.981261,0.000000,-0.000000,9844.739029
1454.981578,383.047749,370.102971,9770.718434
1454.981896,0.000000,370.102971,9400.615463
1454.982213,536.266849,666.185348,9622.677246
1454.982530,306.438199,370.102971,9474.636058
1454.982848,919.314598,-0.000000,9770.718434
1454.983165,766.095498,-0.000000,9918.759623
1454.983482,919.314598,-0.000000,9992.780217
1454.983800,995.924147,222.061783,10140.821405
1454.984117,1225.752797,296.082377,9770.718434
1454.984434,1302.362347,666.185348,9696.697840
1454.984752,1455.581446,592.164754,9178.553681
1454.985069,1685.410096,444.123565,8882.471304
1454.985386,1455.581446,74.020594,8956.491898
1454.985703,1762.019645,-74.020594,9178.553681
1454.986021,1532.190996,-740.205942,9474.636058
1454.986338,1378.971896,-370.102971,9918.759623
1454.986655,1149.143247,-370.102971,10066.800811
1454.986973,1072.533697,-0.000000,9844.739029
1454.987290,995.924147,-0.000000,9548.656652
1454.987607,1149.143247,296.082377,9326.594869
1454.987925,1072.533697,444.123565,9326.594869
1454.988242,689.485948,222.061783,9178.553681
1454.988559,842.705048,-0.000000,9178.553681
1454.988877,766.095498,-148.041188,9474.636058
1454.989194,842.705048,-444.123565,9992.780217
1454.989511,536.266849,-0.000000,9696.697840
1454.989829,766.095498,-74.020594,9400.615463
1454.990146,919.314598,-0.000000,9104.533087
1454.990463,919.314598,222.061783,8734.430116
1454.990780,919.314598,296.082377,8734.430116
1454.991098,842.705048,-0.000000,8586.388927
1454.991415,766.095498,-148.041188,8734.430116
1454.991732,383.047749,-444.123565,8882.471304
1454.992050,306.438199,-962.267725,9400.615463
1454.992367,229.828649,-740.205942,9474.636058
1454.992684,153.219100,-592.164754,9400.615463
1454.993002,0.000000,-296.082377,9474.636058
1454.993319,-153.219100,-0.000000,9326.594869
1454.993636,0.000000,-0.000000,9548.656652
1454.993954,153.219100,-0.000000,9178.553681
1454.994271,153.219100,-148.041188,9252.574275
1454.994588,383.047749,-222.061783,9474.636058
1454.994905,536.266849,-222.061783,9474.636058
1454.995223,536.266849,-296.082377,9696.697840
1454.995540,536.266849,-0.000000,9474.636058
1454.995857,1072.533697,296.082377,9474.636058
1454.996175,1149.143247,444.123565,9252.574275
1454.996492,1225.752797,444.123565,9030.512492
1454.996809,1225.752797,444.123565,8660.409521
1454.997127,1302.362347,444.123565,8882.471304
1454.997444,1378.971896,-0.000000,9178.553681
1454.997761,919.314598,-296.082377,9326.594869
1454.998079,842.705048,-444.123565,9548.656652
1454.998396,536.266849,-370.102971,9992.780217
1454.998713,612.876398,-222.061783,9992.780217
1454.999031,766.095498,222.061783,9770.718434
1454.999348,766.095498,370.102971,9548.656652
1454.999665,689.485948,814.226536,9474.636058
1454.999982,459.657299,592.164754,9622.677246
1455.000300,536.266849,444.123565,9474.636058
1455.000617,689.485948,370.102971,9622.677246
1455.000934,536.266849,148.041188,9844.739029
1455.001252,689.485948,-0.000000,9844.739029
1455.001569,689.485948,296.082377,10140.821405
1455.001886,689.485948,666.185348,9548.656652
1455.002204,536.266849,592.164754,9548.656652
1455.002521,459.657299,518.144159,9030.512492
1455.002838,612.876398,148.041188,9030.512492
1455.003156,459.657299,148.041188,9104.533087
1455.003473,459.657299,-0.000000,9400.615463
1455.003790,153.219100,-148.041188,9622.677246
1455.004108,0.000000,-74.020594,9992.780217
1455.004425,0.000000,-0.000000,9918.759623
1455.004742,76.609550,296.082377,9844.739029
1455.005059,-306.438199,370.102971,9548.656652
1455.005377,0.000000,592.164754,9548.656652
1455.005694,0.000000,370.102971,9474.636058
1455.006011,689.485948,222.061783,9696.697840
1455.006329,306.438199,222.061783,9622.677246
1455.006646,459.657299,-0.000000,9844.739029
1455.006963,842.705048,-74.020594,9622.677246
1455.007281,689.485948,222.061783,9770.718434
1455.007598,766.095498,370.102971,9696.697840
1455.007915,995.924147,592.164754,9400.615463
1455.008233,1302.362347,1110.308913,8956.491898
1455.008550,1072.533697,740.205942,8956.491898
1455.008867,1149.143247,296.082377,8808.450710
1455.009185,1149.143247,-0.000000,8882.471304
1455.009502,919.314598,-148.041188,9400.615463
1455.009819,1149.143247,-370.102971,9548.656652
1455.010136,842.705048,-370.102971,9548.656652
1455.010454,459.657299,-370.102971,9474.636058
1455.010771,842.705048,-0.000000,9622.677246
1455.011088,536.266849,370.102971,9178.553681
1455.011406,1072.533697,296.082377,9104.533087
1455.011723,536.266849,518.144159,9030.512492
1455.012040,1225.752797,296.082377,9400.615463
1455.012358,766.095498,-0.000000,9104.533087
1455.012675,536.266849,-222.061783,9326.594869
1455.012992,689.485948,-74.020594,9474.636058
1455.013310,689.485948,-0.000000,9474.636058
1455.013627,919.314598,444.123565,9252.574275
1455.013944,919.314598,370.102971,9030.512492
1455.014261,842.705048,370.102971,8808.450710
1455.014579,689.485948,296.082377,8512.368333
1455.014896,842.705048,-0.000000,8734.430116
1455.015213,536.266849,-296.082377,9104.533087
1455.015531,383.047749,-222.061783,9252.574275
1455.015848,306.438199,-370.102971,9548.656652
1455.016165,76.609550,-370.102971,9622.677246
1455.016483,-153.219100,-0.000000,9696.697840
1455.016800,612.876398,-0.000000,9474.636058
1455.017117,0.000000,296.082377,9474.636058
1455.017435,536.266849,444.123565,9474.636058
1455.017752,766.095498,296.082377,9252.574275
1455.018069,1149.143247,-222.061783,9474.636058
1455.018387,1149.143247,-74.020594,9696.697840
1455.018704,1302.362347,-0.000000,9844.739029
1455.019021,1302.362347,-0.000000,9770.718434
1455.019338,1532.190996,518.144159,9770.718434
1455.019656,1455.581446,444.123565,9400.615463
1455.019973,1915.238745,592.164754,9252.574275
1455.020290,1762.019645,814.226536,9030.512492
1455.020608,1838.629195,518.144159,8734.430116
1455.020925,1991.848295,444.123565,8882.471304
1455.021242,1685.410096,-0.000000,9474.636058
1455.021560,1455.581446,-0.000000,9622.677246
1455.021877,1072.533697,-74.020594,9918.759623
1455.022194,1149.143247,-0.000000,9918.759623
1455.022512,995.924147,296.082377,9918.759623
1455.022829,995.924147,666.185348,9548.656652
1455.023146,1072.533697,888.247130,9474.636058
1455.023464,919.314598,814.226536,9474.636058
1455.023781,1072.533697,666.185348,9622.677246
1455.024098,766.095498,740.205942,10140.821405
1455.024415,919.314598,518.144159,9770.718434
1455.024733,612.876398,296.082377,9918.759623
1455.025050,459.657299,518.144159,9770.718434
1455.025367,689.485948,444.123565,9696.697840
1455.025685,612.876398,592.164754,9400.615463
1455.026002,689.485948,888.247130,9104.533087
1455.026319,536.266849,740.205942,9030.512492
1455.026637,689.485948,370.102971,8882.471304
1455.026954,536.266849,222.061783,9104.533087
1455.027271,383.047749,-0.000000,9326.594869
1455.027589,536.266849,370.102971,9474.636058
1455.027906,153.219100,222.061783,9770.718434
1455.028223,76.609550,444.123565,9548.656652
1455.028541,-383.047749,444.123565,9622.677246
1455.028858,153.219100,814.226536,9400.615463
1455.029175,229.828649,962.267725,9400.615463
1455.029492,306.438199,888.247130,9400.615463
1455.029810,459.657299,666.185348,9326.594869
1455.030127,766.095498,222.061783,9474.636058
1455.030444,612.876398,296.082377,9770.718434
1455.030762,1149.143247,888.247130,9548.656652
1455.031079,1225.752797,666.185348,9400.615463
1455.031396,1378.971896,1110.308913,9326.594869
1455.031714,1608.800546,1258.350101,8660.409521
1455.032031,1532.190996,1110.308913,8660.409521
1455.032348,1608.800546,962.267725,8734.430116
1455.032666,1302.362347,666.185348,8808.450710
1455.032983,1455.581446,-222.061783,9400.615463
1455.033300,1072.533697,-148.041188,9622.677246
1455.033618,842.705048,-0.000000,9770.718434
1455.033935,612.876398,296.082377,9770.718434
1455.034252,383.047749,444.123565,9696.697840
1455.034569,383.047749,518.144159,9474.636058
1455.034887,229.828649,666.185348,9178.553681
1455.035204,229.828649,592.164754,9326.594869
1455.035521,383.047749,444.123565,9400.615463
1455.035839,76.609550,296.082377,9622.677246
1455.036156,306.438199,-74.020594,9844.739029
1455.036473,383.047749,-0.000000,9770.718434
1455.036791,229.828649,148.041188,9844.739029
1455.037108,536.266849,444.123565,9474.636058
1455.037425,229.828649,222.061783,9474.636058
1455.037743,766.095498,222.061783,9474.636058
1455.038060,383.047749,444.123565,9104.533087
1455.038377,229.828649,-0.000000,8956.491898
1455.038694,536.266849,-0.000000,9474.636058
1455.039012,919.314598,-370.102971,9474.636058
1455.039329,76.609550,-740.205942,9474.636058
1455.039646,229.828649,-0.000000,9992.780217
1455.039964,0.000000,-222.061783,9696.697840
1455.040281,229.828649,370.102971,9770.718434
1455.040598,306.438199,444.123565,9326.594869
1455.040916,689.485948,370.102971,9400.615463
1455.041233,919.314598,296.082377,9326.594869
1455.041550,842.705048,-0.000000,9474.636058
1455.041868,1072.533697,-0.000000,9770.718434
1455.042185,459.657299,-518.144159,9622.677246
1455.042502,1455.581446,222.061783,9844.739029
1455.042820,1532.190996,296.082377,9548.656652
1455.043137,2068.457845,740.205942,9474.636058
1455.043454,1762.019645,740.205942,9104.533087
1455.043771,2374.896044,740.205942,8660.409521
1455.044089,2068.457845,370.102971,8586.388927
1455.044406,1991.848295,-0.000000,8882.471304
1455.044723,1532.190996,-74.020594,9178.553681
1455.045041,1685.410096,-296.082377,9326.594869
1455.045358,1302.362347,-222.061783,9622.677246
1455.045675,1072.533697,-370.102971,9770.718434
1455.045993,919.314598,444.123565,9770.718434
1455.046310,995.924147,370.102971,9400.615463
1455.046627,1149.143247,444.123565,9252.574275
1455.046945,919.314598,296.082377,9252.574275
1455.047262,919.314598,370.102971,9104.533087
1455.047579,536.266849,222.061783,9400.615463
1455.047897,842.705048,-0.000000,9400.615463
1455.048214,689.485948,296.082377,9548.656652
1455.048531,689.485948,592.164754,9696.697840
1455.048848,766.095498,592.164754,9474.636058
1455.049166,536.266849,518.144159,9178.553681
1455.049483,612.876398,666.185348,8956.491898
1455.049800,995.924147,518.144159,8586.388927
1455.050118,842.705048,222.061783,8586.388927
1455.050435,689.485948,148.041188,8882.471304
1455.050752,689.485948,-0.000000,9178.553681
1455.051070,689.485948,-0.000000,9400.615463
1455.051387,0.000000,-0.000000,9474.636058
1455.051704,76.609550,222.061783,9548.656652
1455.052022,76.609550,296.082377,9474.636058
1455.052339,0.000000,740.205942,9474.636058
1455.052656,689.485948,-222.061783,9178.553681
1455.052974,766.095498,740.205942,9622.677246
1455.053291,459.657299,-0.000000,9326.594869
1455.053608,383.047749,222.061783,9474.636058
1455.053925,842.705048,222.061783,9770.718434
1455.054243,842.705048,-74.020594,9844.739029
1455.054560,995.924147,740.205942,9770.718434
1455.054877,1072.533697,740.205942,9474.636058
1455.055195,1149.143247,888.247130,9252.574275
1455.055512,1225.752797,962.267725,9104.533087
1455.055829,1532.190996,888.247130,9326.594869
1455.056147,1455.581446,444.123565,9178.553681
1455.056464,1455.581446,-0.000000,9326.594869
1455.056781,995.924147,-74.020594,9696.697840
1455.057099,1072.533697,-296.082377,9918.759623
1455.057416,383.047749,-222.061783,10214.842000
1455.057733,995.924147,222.061783,9770.718434
1455.058050,689.485948,518.144159,9696.697840
1455.058368,766.095498,666.185348,9622.677246
1455.058685,766.095498,740.205942,9474.636058
1455.059002,612.876398,444.123565,9474.636058
1455.059320,766.095498,148.041188,9474.636058
1455.059637,536.266849,148.041188,9770.718434
1455.059954,306.438199,-0.000000,9622.677246
1455.060272,383.047749,148.041188,9770.718434
1455.060589,536.266849,296.082377,9696.697840
1455.060906,306.438199,370.102971,9548.656652
1455.061224,459.657299,592.164754,9326.594869
1455.061541,306.438199,444.123565,9030.512492
1455.061858,536.266849,148.041188,9252.574275
1455.062176,536.266849,-0.000000,9030.512492
1455.062493,536.266849,-222.061783,9326.594869
1455.062810,153.219100,-296.082377,9474.636058
1455.063127,0.000000,-296.082377,9474.636058
1455.063445,-153.219100,-148.041188,9696.697840
1455.063762,-76.609550,-74.020594,9622.677246
1455.064079,0.000000,-0.000000,9400.615463
1455.064396,0.000000,222.061783,9326.594869
1455.064713,153.219100,-0.000000,9400.615463
1455.065031,153.219100,-0.000000,9326.594869
1455.065348,0.000000,-296.082377,9622.677246
1455.065665,76.609550,-444.123565,9844.739029
1455.065982,306.438199,-296.082377,9844.739029
1455.066299,459.657299,-222.061783,9770.718434
1455.066617,536.266849,-148.041188,9548.656652
1455.066934,536.266849,222.061783,9474.636058
1455.067251,995.924147,370.102971,9252.574275
1455.067568,1225.752797,370.102971,9030.512492
1455.067885,1302.362347,222.061783,9030.512492
1455.068203,1455.581446,-0.000000,9030.512492
1455.068520,1378.971896,-370.102971,9326.594869
1455.068837,995.924147,-814.226536,9548.656652
1455.069154,1225.752797,-444.123565,9622.677246
1455.069471,1072.533697,-296.082377,9548.656652
1455.069789,1149.143247,-0.000000,9548.656652
1455.070106,1302.362347,296.082377,9178.553681
1455.070423,1455.581446,-0.000000,9030.512492
1455.070740,1378.971896,148.041188,8956.491898
1455.071057,1455.581446,-0.000000,9104.533087
1455.071374,1378.971896,370.102971,9474.636058
1455.071692,1455.581446,148.041188,9622.677246
1455.072009,1225.752797,222.061783,9696.697840
1455.072326,1149.143247,222.061783,9474.636058
1455.072643,1225.752797,370.102971,9252.574275
1455.072960,1072.533697,444.123565,9178.553681
1455.073278,1149.143247,296.082377,8734.430116
1455.073595,995.924147,444.123565,8734.430116
1455.073912,1225.752797,148.041188,8808.450710
1455.074229,1149.143247,-74.020594,8882.471304
1455.074546,306.438199,-444.123565,9178.553681
1455.074864,536.266849,-222.061783,9400.615463
1455.075181,536.266849,-0.000000,9474.636058
1455.075498,0.000000,370.102971,9474.636058
1455.075815,229.828649,518.144159,9400.615463
1455.076132,459.657299,222.061783,9030.512492
1455.076450,229.828649,296.082377,9326.594869
1455.076767,383.047749,222.061783,9326.594869
1455.077084,459.657299,-0.000000,9326.594869
1455.077401,689.485948,-370.102971,9696.697840
1455.077718,459.657299,222.061783,9992.780217
1455.078036,919.314598,370.102971,9696.697840
1455.078353,612.876398,666.185348,9622.677246
1455.078670,919.314598,740.205942,9474.636058
1455.078987,842.705048,592.164754,9400.615463
1455.079304,919.314598,740.205942,9030.512492
1455.079622,995.924147,518.144159,9104.533087
1455.079939,919.314598,148.041188,9326.594869
1455.080256,766.095498,-74.020594,9474.636058
1455.080573,536.266849,-74.020594,9918.759623
1455.080890,536.266849,-222.061783,9918.759623
1455.081207,689.485948,370.102971,10288.862594
1455.081525,536.266849,444.123565,10066.800811
1455.081842,842.705048,666.185348,9548.656652
1455.082159,1072.533697,666.185348,9770.718434
1455.082476,919.314598,666.185348,9326.594869
1455.082793,536.266849,444.123565,9326.594869
1455.083111,766.095498,222.061783,9622.677246
1455.083428,842.705048,370.102971,9918.759623
1455.083745,995.924147,296.082377,9918.759623
1455.084062,995.924147,444.123565,10066.800811
1455.084379,842.705048,444.123565,9844.739029
1455.084697,842.705048,592.164754,9474.636058
1455.085014,1072.533697,740.205942,9104.533087
1455.085331,842.705048,888.247130,9252.574275
1455.085648,459.657299,148.041188,9178.553681
1455.085965,612.876398,-0.000000,9326.594869
1455.086283,459.657299,-222.061783,9474.636058
1455.086600,383.047749,-222.061783,9622.677246
1455.086917,306.438199,-148.041188,9770.718434
1455.087234,306.438199,-0.000000,9548.656652
1455.087551,0.000000,-0.000000,9548.656652
1455.087869,0.000000,222.061783,9474.636058
1455.088186,0.000000,-0.000000,9326.594869
1455.088503,76.609550,-74.020594,9326.594869
1455.088820,229.828649,-0.000000,9474.636058
1455.089137,153.219100,-370.102971,9696.697840
1455.089455,153.219100,-222.061783,9992.780217
1455.089772,536.266849,-74.020594,9696.697840
1455.090089,612.876398,74.020594,9770.718434
1455.090406,995.924147,370.102971,9326.594869
1455.090723,766.095498,444.123565,9104.533087
1455.091040,1225.752797,592.164754,8956.491898
1455.091358,1072.533697,-0.000000,8586.388927
1455.091675,1225.752797,-0.000000,8808.450710
1455.091992,1378.971896,-370.102971,8956.491898
1455.092309,1149.143247,-518.144159,9326.594869
1455.092626,1455.581446,-222.061783,9696.697840
1455.092944,1302.362347,-444.123565,9622.677246
1455.093261,919.314598,-0.000000,9474.636058
1455.093578,766.095498,-0.000000,9400.615463
1455.093895,995.924147,296.082377,8956.491898
1455.094212,1455.581446,-0.000000,9104.533087
1455.094530,995.924147,-0.000000,8956.491898
1455.094847,766.095498,-74.020594,9178.553681
1455.095164,919.314598,-0.000000,9474.636058
1455.095481,536.266849,-0.000000,9474.636058
1455.095798,536.266849,-74.020594,9622.677246
1455.096116,842.705048,222.061783,9326.594869
1455.096433,689.485948,666.185348,9030.512492
1455.096750,842.705048,740.205942,8808.450710
1455.097067,995.924147,444.123565,8734.430116
1455.097384,766.095498,296.082377,8734.430116
1455.097702,842.705048,296.082377,8882.471304
1455.098019,842.705048,148.041188,9104.533087
1455.098336,383.047749,-0.000000,9474.636058
1455.098653,459.657299,148.041188,9696.697840
1455.098970,76.609550,592.164754,9474.636058
1455.099287,229.828649,666.185348,9474.636058
1455.099605,306.438199,1036.288319,9400.615463
1455.099922,0.000000,814.226536,9400.615463
1455.100239,153.219100,962.267725,9474.636058
1455.100556,153.219100,518.144159,9770.718434
1455.100873,689.485948,592.164754,9548.656652
1455.101191,1072.533697,518.144159,9918.759623
1455.101508,1149.143247,740.205942,9992.780217
1455.101825,1225.752797,962.267725,9992.780217
1455.102142,1302.362347,1110.308913,9622.677246
1455.102459,1455.581446,1332.370696,9400.615463
1455.102777,1532.190996,1258.350101,9178.553681
1455.103094,1532.190996,888.247130,9104.533087
1455.103411,1608.800546,296.082377,9104.533087
1455.103728,1072.533697,666.185348,9474.636058
1455.104045,995.924147,-0.000000,9918.759623
1455.104363,995.924147,148.041188,9992.780217
1455.104680,842.705048,444.123565,10140.821405
1455.104997,536.266849,666.185348,10066.800811
1455.105314,612.876398,888.247130,9696.697840
1455.105631,766.095498,1036.288319,9696.697840
1455.105949,612.876398,888.247130,9696.697840
1455.106266,536.266849,814.226536,9844.739029
1455.106583,689.485948,148.041188,9474.636058
1455.106900,689.485948,518.144159,9918.759623
1455.107217,689.485948,296.082377,10140.821405
1455.107535,536.266849,296.082377,9844.739029
1455.107852,995.924147,666.185348,9992.780217
1455.108169,766.095498,740.205942,9474.636058
1455.108486,1072.533697,888.247130,8956.491898
1455.108803,919.314598,666.185348,8956.491898
1455.109120,919.314598,518.144159,8956.491898
1455.109438,995.924147,-0.000000,9030.512492
1455.109755,1072.533697,-0.000000,9474.636058
1455.110072,612.876398,-370.102971,9622.677246
1455.110389,459.657299,-74.020594,9770.718434
1455.110706,229.828649,-0.000000,9622.677246
1455.111024,1149.143247,222.061783,9992.780217
1455.111341,612.876398,222.061783,9474.636058
1455.111658,536.266849,296.082377,9252.574275
1455.111975,689.485948,-0.000000,9178.553681
1455.112292,842.705048,-148.041188,9252.574275
1455.112610,1225.752797,-222.061783,9474.636058
1455.112927,766.095498,-296.082377,9548.656652
1455.113244,1149.143247,-74.020594,9474.636058
1455.113561,1149.143247,-0.000000,9474.636058
1455.113878,1302.362347,-0.000000,9178.553681
1455.114196,1378.971896,518.144159,9252.574275
1455.114513,1455.581446,370.102971,8734.430116
1455.114830,1302.362347,222.061783,8512.368333
1455.115147,1302.362347,-0.000000,8586.388927
1455.115464,1225.752797,-592.164754,9178.553681
1455.115782,919.314598,-592.164754,8882.471304
1455.116099,1072.533697,-444.123565,9400.615463
1455.116416,536.266849,-296.082377,9474.636058
1455.116733,689.485948,-0.000000,9326.594869
1455.117050,383.047749,222.061783,9252.574275
1455.117367,383.047749,222.061783,9400.615463
1455.117685,306.438199,370.102971,9252.574275
1455.118002,766.095498,148.041188,9104.533087
1455.118319,536.266849,-0.000000,9178.553681
1455.118636,229.828649,-296.082377,9474.636058
1455.118953,229.828649,-74.020594,9844.739029
1455.119271,383.047749,148.041188,9770.718434
1455.119588,459.657299,-0.000000,9474.636058
1455.119905,612.876398,370.102971,9104.533087
1455.120222,1225.752797,592.164754,9252.574275
1455.120539,995.924147,296.082377,8808.450710
1455.120857,842.705048,444.123565,8882.471304
1455.121174,612.876398,-0.000000,8956.491898
1455.121491,919.314598,-0.000000,9178.553681
1455.121808,919.314598,-0.000000,9548.656652
1455.122125,383.047749,-74.020594,9770.718434
1455.122443,383.047749,-0.000000,9770.718434
1455.122760,459.657299,370.102971,9548.656652
1455.123077,306.438199,666.185348,9622.677246
1455.123394,459.657299,592.164754,9178.553681
1455.123711,536.266849,444.123565,9326.594869
1455.124029,766.095498,814.226536,9474.636058
1455.124346,612.876398,592.164754,9622.677246
1455.124663,1302.362347,-0.000000,9918.759623
1455.124980,1149.143247,370.102971,10066.800811
1455.125297,1149.143247,814.226536,10066.800811
1455.125615,1455.581446,1184.329507,9622.677246
1455.125932,1225.752797,962.267725,9474.636058
1455.126249,1225.752797,1184.329507,9252.574275
1455.126566,1532.190996,888.247130,8956.491898
1455.126883,1455.581446,888.247130,9030.512492
1455.127200,1302.362347,222.061783,9400.615463
1455.127518,1072.533697,-0.000000,9548.656652
1455.127835,842.705048,-0.000000,9696.697840
1455.128152,1378.971896,-0.000000,10066.800811
1455.128469,612.876398,444.123565,9918.759623
1455.128786,766.095498,592.164754,9622.677246
1455.129104,766.095498,740.205942,9622.677246
1455.129421,766.095498,592.164754,9400.615463
1455.129738,919.314598,592.164754,9474.636058
1455.130055,689.485948,-0.000000,9548.656652
1455.130372,383.047749,-0.000000,9844.739029
1455.130690,459.657299,-0.000000,9918.759623
1455.131007,612.876398,-0.000000,10214.842000
1455.131324,536.266849,222.061783,9918.759623
1455.131641,766.095498,370.102971,9474.636058
1455.131958,689.485948,370.102971,9178.553681
1455.132276,919.314598,444.123565,9104.533087
1455.132593,842.705048,296.082377,8882.471304
1455.132910,842.705048,-0.000000,8882.471304
1455.133227,919.314598,-444.123565,9104.533087
1455.133544,766.095498,-518.144159,9474.636058
1455.133862,536.266849,-444.123565,9622.677246
1455.134179,383.047749,-444.123565,9770.718434
1455.134496,76.609550,-74.020594,9474.636058
1455.134813,0.000000,-0.000000,9400.615463
1455.135130,229.828649,-0.000000,9400.615463
1455.135447,306.438199,148.041188,9326.594869
1455.135765,383.047749,-296.082377,9252.574275
1455.136082,229.828649,-518.144159,9474.636058
1455.136399,612.876398,-518.144159,9696.697840
1455.136716,383.047749,-740.205942,9770.718434
1455.137033,766.095498,-0.000000,9622.677246
1455.137351,1072.533697,-0.000000,9474.636058
1455.137668,1149.143247,370.102971,9030.512492
1455.137985,1225.752797,296.082377,8882.471304
1455.138302,1455.581446,444.123565,8290.306550
1455.138619,1532.190996,-74.020594,8216.285956
1455.138937,1378.971896,-296.082377,8882.471304
1455.139254,1225.752797,-592.164754,9030.512492
1455.139571,1302.362347,-592.164754,9474.636058
1455.139888,1072.533697,-370.102971,9474.636058
1455.140205,1072.533697,-74.020594,9622.677246
1455.140523,919.314598,-0.000000,9400.615463
1455.140840,919.314598,444.123565,9104.533087
1455.141157,995.924147,518.144159,8956.491898
1455.141474,689.485948,518.144159,8956.491898
1455.141791,612.876398,296.082377,9326.594869
1455.142109,766.095498,-0.000000,9474.636058
1455.142426,536.266849,-0.000000,9696.697840
1455.142743,383.047749,-0.000000,9696.697840
1455.143060,612.876398,444.123565,9474.636058
1455.143377,689.485948,518.144159,9326.594869
1455.143695,689.485948,592.164754,9178.553681
1455.144012,842.705048,740.205942,8882.471304
1455.144329,612.876398,444.123565,8734.430116
1455.144646,536.266849,592.164754,9104.533087
1455.144963,536.266849,296.082377,9030.512492
1455.145280,459.657299,-74.020594,9474.636058
1455.145598,153.219100,-222.061783,9622.677246
1455.145915,536.266849,-148.041188,9992.780217
1455.146232,76.609550,222.061783,9844.739029
1455.146549,0.000000,518.144159,9696.697840
1455.146866,229.828649,740.205942,9548.656652
1455.147184,536.266849,592.164754,9622.677246
1455.147501,689.485948,222.061783,9548.656652
1455.147818,383.047749,-0.000000,9696.697840
1455.148135,612.876398,370.102971,9770.718434
1455.148452,612.876398,222.061783,9992.780217
1455.148770,689.485948,444.123565,10140.821405
1455.149087,995.924147,888.247130,9992.780217
1455.149404,995.924147,1036.288319,9918.759623
1455.149721,1072.533697,1036.288319,9474.636058
1455.150038,1225.752797,740.205942,9326.594869
1455.150356,1225.752797,518.144159,9178.553681
1455.150673,1072.533697,-0.000000,9252.574275
1455.150990,842.705048,-148.041188,9474.636058
1455.151307,995.924147,-592.164754,9992.780217
1455.151624,612.876398,-148.041188,10066.800811
1455.151942,536.266849,-0.000000,9844.739029
1455.152259,459.657299,-0.000000,9696.697840
1455.152576,459.657299,444.123565,9474.636058
1455.152893,766.095498,518.144159,9474.636058
1455.153210,459.657299,296.082377,9400.615463
1455.153527,689.485948,-0.000000,9474.636058
1455.153845,612.876398,-148.041188,9770.718434
1455.154162,919.314598,-222.061783,9622.677246
1455.154479,536.266849,-0.000000,9770.718434
1455.154796,612.876398,-0.000000,9622.677246
1455.155113,766.095498,444.123565,9474.636058
1455.155431,995.924147,518.144159,8882.471304
1455.155748,1072.533697,592.164754,8586.388927
1455.156065,842.705048,-0.000000,8808.450710
1455.156382,842.705048,-0.000000,8808.450710
1455.156699,995.924147,-444.123565,8734.430116
1455.157017,919.314598,-814.226536,9104.533087
1455.157334,536.266849,-592.164754,9474.636058
1455.157651,306.438199,-444.123565,9474.636058
1455.157968,383.047749,-74.020594,9252.574275
1455.158285,153.219100,-0.000000,9178.553681
1455.158603,459.657299,296.082377,9030.512492
1455.158920,536.266849,148.041188,8882.471304
1455.159237,459.657299,-0.000000,9178.553681
1455.159554,536.266849,-222.061783,9178.553681
1455.159871,919.314598,-222.061783,9474.636058
1455.160189,536.266849,-222.061783,9696.697840
1455.160506,1149.143247,296.082377,9474.636058
1455.160823,995.924147,370.102971,9474.636058
1455.161140,1302.362347,666.185348,9030.512492
1455.161457,1838.629195,740.205942,8956.491898
1455.161775,1532.190996,740.205942,8364.327145
1455.162092,1608.800546,444.123565,8364.327145
1455.162409,1455.581446,148.041188,8586.388927
1455.162726,1225.752797,-0.000000,8956.491898
1455.163043,1302.362347,-74.020594,9474.636058
1455.163360,689.485948,-148.041188,9696.697840
1455.163678,536.266849,-0.000000,9696.697840
1455.163995,459.657299,-0.000000,9548.656652
1455.164312,612.876398,518.144159,9474.636058
1455.164629,612.876398,518.144159,9326.594869
1455.164947,536.266849,666.185348,9474.636058
1455.165264,536.266849,370.102971,9548.656652
1455.165581,612.876398,148.041188,9918.759623
1455.165898,306.438199,222.061783,10584.944971
1455.166216,536.266849,-0.000000,10214.842000
1455.166533,153.219100,444.123565,10066.800811
1455.166850,842.705048,740.205942,9770.718434
1455.167168,766.095498,592.164754,9548.656652
1455.167485,842.705048,888.247130,9104.533087
1455.167802,919.314598,814.226536,9252.574275
1455.168120,842.705048,296.082377,9178.553681
1455.168437,919.314598,-0.000000,9400.615463
1455.168754,459.657299,-0.000000,9696.697840
1455.169072,153.219100,-0.000000,10066.800811
1455.169389,76.609550,222.061783,9992.780217
1455.169706,229.828649,518.144159,9992.780217
1455.170023,76.609550,740.205942,9992.780217
1455.170341,76.609550,814.226536,9696.697840
1455.170658,229.828649,592.164754,9622.677246
1455.170975,153.219100,444.123565,9622.677246
1455.171293,383.047749,222.061783,9622.677246
1455.171610,536.266849,-0.000000,9770.718434
1455.171927,766.095498,148.041188,10140.821405
1455.172245,536.266849,666.185348,9992.780217
1455.172562,766.095498,888.247130,9622.677246
1455.172879,919.314598,962.267725,9326.594869
1455.173197,919.314598,1480.411884,9178.553681
1455.173514,1455.581446,1258.350101,9104.533087
1455.173831,1149.143247,814.226536,8660.409521
1455.174148,995.924147,444.123565,8956.491898
1455.174466,1072.533697,-74.020594,9178.553681
1455.174783,842.705048,-0.000000,9474.636058
1455.175100,919.314598,-0.000000,9622.677246
1455.175418,842.705048,-0.000000,9474.636058
1455.175735,459.657299,222.061783,9474.636058
1455.176052,229.828649,592.164754,9326.594869
1455.176370,153.219100,592.164754,9326.594869
1455.176687,612.876398,740.205942,9252.574275
1455.177004,612.876398,370.102971,9178.553681
1455.177322,612.876398,-0.000000,9326.594869
1455.177639,842.705048,-222.061783,9548.656652
1455.177956,689.485948,-74.020594,9770.718434
1455.178273,766.095498,-0.000000,9548.656652
1455.178591,766.095498,-0.000000,9474.636058
1455.178908,919.314598,592.164754,9178.553681
1455.179225,1072.533697,444.123565,8734.430116
1455.179543,1225.752797,148.041188,8808.450710
1455.179860,919.314598,-0.000000,8660.409521
1455.180177,842.705048,-296.082377,9030.512492
1455.180495,766.095498,-370.102971,9178.553681
1455.180812,995.924147,-518.144159,9400.615463
1455.181129,766.095498,-222.061783,9474.636058
1455.181447,306.438199,-0.000000,9474.636058
1455.181764,383.047749,-0.000000,9474.636058
1455.182081,536.266849,296.082377,9252.574275
1455.182398,383.047749,296.082377,9400.615463
1455.182716,536.266849,-74.020594,9252.574275
1455.183033,229.828649,-222.061783,9474.636058
1455.183350,459.657299,-444.123565,9548.656652
1455.183668,612.876398,-148.041188,9770.718434
1455.183985,842.705048,-0.000000,9918.759623
1455.184302,842.705048,296.082377,9548.656652
1455.184620,1225.752797,740.205942,9326.594869
1455.184937,1378.971896,962.267725,8734.430116
1455.185254,1149.143247,814.226536,8586.388927
1455.185572,1685.410096,444.123565,8586.388927
1455.185889,1302.362347,296.082377,8438.347739
1455.186206,1378.971896,-0.000000,9178.553681
1455.186523,1072.533697,-296.082377,9400.615463
1455.186841,919.314598,-296.082377,9474.636058
1455.187158,1532.190996,-74.020594,9252.574275
1455.187475,842.705048,370.102971,9622.677246
1455.187793,842.705048,740.205942,9400.615463
1455.188110,842.705048,888.247130,9326.594869
1455.188427,1302.362347,740.205942,9178.553681
1455.188745,842.705048,148.041188,9326.594869
1455.189062,995.924147,370.102971,9474.636058
1455.189379,1072.533697,370.102971,9622.677246
1455.189697,919.314598,444.123565,9992.780217
1455.190014,919.314598,666.185348,9992.780217
1455.190331,995.924147,740.205942,9770.718434
1455.190648,1225.752797,888.247130,9400.615463
1455.190966,1149.143247,1110.308913,9326.594869
1455.191283,1072.533697,1036.288319,9030.512492
1455.191600,1302.362347,814.226536,9400.615463
1455.191918,1378.971896,-0.000000,9326.594869
1455.192235,689.485948,-0.000000,9474.636058
1455.192552,536.266849,-0.000000,10140.821405
1455.192870,459.657299,148.041188,10066.800811
1455.193187,229.828649,296.082377,10140.821405
1455.193504,0.000000,518.144159,10140.821405
1455.193822,76.609550,814.226536,10066.800811
1455.194139,153.219100,814.226536,9696.697840
1455.194456,229.828649,518.144159,9474.636058
1455.194773,306.438199,370.102971,9474.636058
1455.195091,766.095498,296.082377,9696.697840
1455.195408,842.705048,370.102971,9992.780217
1455.195725,689.485948,444.123565,9844.739029
1455.196043,842.705048,814.226536,9696.697840
1455.196360,1378.971896,814.226536,9474.636058
1455.196677,1225.752797,1184.329507,9178.553681
1455.196995,1455.581446,1258.350101,8956.491898
1455.197312,1378.971896,888.247130,8512.368333
1455.197629,1072.533697,444.123565,8734.430116
1455.197947,1302.362347,222.061783,9474.636058
1455.198264,766.095498,-444.123565,9178.553681
1455.198581,689.485948,-296.082377,9696.697840
1455.198898,536.266849,-0.000000,9992.780217
1455.199216,229.828649,296.082377,9696.697840
1455.199533,459.657299,222.061783,9622.677246
1455.199850,459.657299,740.205942,9474.636058
1455.200168,536.266849,592.164754,9178.553681
1455.200485,459.657299,370.102971,9252.574275
1455.200802,766.095498,-0.000000,9548.656652
1455.201120,766.095498,-222.061783,9400.615463
1455.201437,689.485948,-0.000000,9696.697840
1455.201754,689.485948,-148.041188,9474.636058
1455.202072,612.876398,148.041188,9548.656652
1455.202389,689.485948,518.144159,9400.615463
1455.202706,689.485948,370.102971,9178.553681
1455.203023,766.095498,222.061783,8882.471304
1455.203341,689.485948,-222.061783,8808.450710
1455.203658,766.095498,-444.123565,8808.450710
1455.203975,919.314598,-888.247130,9178.553681
1455.204293,0.000000,-962.267725,9474.636058
1455.204610,0.000000,-814.226536,9992.780217
1455.204927,76.609550,-370.102971,9844.739029
1455.205245,306.438199,-148.041188,9548.656652
1455.205562,459.657299,-0.000000,9326.594869
1455.205879,383.047749,-0.000000,9474.636058
1455.206197,306.438199,-0.000000,9178.553681
1455.206514,536.266849,-296.082377,9252.574275
1455.206831,612.876398,-666.185348,9474.636058
1455.207148,689.485948,-370.102971,9622.677246
1455.207466,919.314598,-222.061783,9696.697840
1455.207783,919.314598,-74.020594,9400.615463
1455.208100,1072.533697,222.061783,9252.574275
1455.208418,1149.143247,592.164754,9104.533087
1455.208735,1378.971896,666.185348,8586.388927
1455.209052,1685.410096,518.144159,8438.347739
1455.209370,1455.581446,222.061783,8660.409521
1455.209687,1149.143247,-370.102971,8808.450710
1455.210004,1455.581446,-222.061783,9326.594869
1455.210322,1455.581446,-296.082377,9474.636058
1455.210639,919.314598,-222.061783,9474.636058
1455.210956,1225.752797,-0.000000,9548.656652
1455.211273,1608.800546,370.102971,9548.656652
1455.211591,1225.752797,592.164754,8882.471304
1455.211908,995.924147,444.123565,8882.471304
1455.212225,1149.143247,444.123565,9178.553681
1455.212543,1149.143247,-0.000000,9252.574275
1455.212860,1149.143247,-74.020594,9474.636058
1455.213177,842.705048,148.041188,9622.677246
1455.213495,612.876398,-0.000000,9918.759623
1455.213812,919.314598,518.144159,9696.697840
1455.214129,689.485948,296.082377,9474.636058
1455.214447,919.314598,296.082377,9326.594869
1455.214764,1149.143247,518.144159,8956.491898
1455.215081,842.705048,592.164754,9178.553681
1455.215398,919.314598,296.082377,9030.512492
1455.215716,536.266849,-0.000000,9326.594869
1455.216033,689.485948,-222.061783,9696.697840
1455.216350,76.609550,-0.000000,9844.739029
1455.216668,229.828649,222.061783,10066.800811
1455.216985,229.828649,592.164754,9696.697840
1455.217302,153.219100,518.144159,9474.636058
1455.217620,459.657299,592.164754,8956.491898
1455.217937,459.657299,518.144159,9474.636058
1455.218254,459.657299,296.082377,9622.677246
1455.218572,689.485948,222.061783,9918.759623
1455.218889,766.095498,148.041188,9992.780217
1455.219206,459.657299,370.102971,9992.780217
1455.219523,766.095498,518.144159,9770.718434
1455.219841,995.924147,666.185348,9548.656652
1455.220158,1072.533697,1036.288319,9474.636058
1455.220475,1378.971896,740.205942,9104.533087
1455.220793,1302.362347,592.164754,9030.512492
1455.221110,995.924147,592.164754,8882.471304
1455.221427,1455.581446,-0.000000,9030.512492
1455.221745,1072.533697,-222.061783,9548.656652
1455.222062,1072.533697,-222.061783,9622.677246
1455.222379,995.924147,-0.000000,9844.739029
1455.222697,919.314598,-0.000000,9696.697840
1455.223014,689.485948,370.102971,9548.656652
1455.223331,842.705048,444.123565,9252.574275
1455.223648,689.485948,444.123565,9474.636058
1455.223966,459.657299,222.061783,9400.615463
1455.224283,536.266849,-0.000000,9474.636058
1455.224600,612.876398,-0.000000,9622.677246
1455.224918,459.657299,-222.061783,9696.697840
1455.225235,459.657299,-0.000000,9770.718434
1455.225552,536.266849,370.102971,9770.718434
1455.225870,459.657299,518.144159,9400.615463
1455.226187,536.266849,222.061783,9104.533087
1455.226504,842.705048,444.123565,8882.471304
1455.226822,612.876398,148.041188,8882.471304
1455.227139,459.657299,-0.000000,9030.512492
1455.227456,153.219100,-370.102971,9030.512492
1455.227773,229.828649,-518.144159,9326.594869
1455.228091,0.000000,-444.123565,9548.656652
1455.228408,-766.095498,-296.082377,9474.636058
1455.228725,-76.609550,-0.000000,9548.656652
1455.229043,-153.219100,-0.000000,9474.636058
1455.229360,0.000000,-0.000000,9178.553681
1455.229677,-76.609550,-74.020594,9326.594869
1455.229995,0.000000,-296.082377,9400.615463
1455.230312,0.000000,-444.123565,9548.656652
1455.230629,153.219100,-148.041188,9474.636058
1455.230947,383.047749,-296.082377,9844.739029
1455.231264,383.047749,-0.000000,9770.718434
1455.231581,153.219100,296.082377,9696.697840
1455.231898,842.705048,666.185348,9178.553681
1455.232216,919.314598,740.205942,8882.471304
1455.232533,1378.971896,592.164754,8586.388927
1455.232850,1302.362347,296.082377,8512.368333
1455.233168,2068.457845,222.061783,9104.533087
1455.233485,1225.752797,-296.082377,9178.553681
1455.233802,1378.971896,-296.082377,9474.636058
1455.234120,1302.362347,-148.041188,9474.636058
1455.234437,919.314598,-0.000000,9548.656652
1455.234754,1302.362347,370.102971,9474.636058
1455.235072,1072.533697,518.144159,9474.636058
1455.235389,842.705048,666.185348,9400.615463
1455.235706,995.924147,370.102971,9178.553681
1455.236023,766.095498,-0.000000,9474.636058
1455.236341,1149.143247,-74.020594,10140.821405
1455.236658,1072.533697,222.061783,9992.780217
1455.236975,919.314598,370.102971,9844.739029
1455.237293,1149.143247,444.123565,9622.677246
1455.237610,1455.581446,666.185348,9400.615463
1455.237927,1378.971896,888.247130,9104.533087
1455.238245,1455.581446,740.205942,8808.450710
1455.238562,1532.190996,592.164754,8734.430116
1455.238879,1149.143247,222.061783,8808.450710
1455.239197,995.924147,-0.000000,8882.471304
1455.239514,919.314598,-74.020594,9474.636058
1455.239831,536.266849,-0.000000,9696.697840
1455.240148,0.000000,-0.000000,10066.800811
1455.240466,76.609550,222.061783,9918.759623
1455.240783,229.828649,148.041188,9696.697840
1455.241100,76.609550,444.123565,9548.656652
1455.241418,0.000000,444.123565,9474.636058
1455.241735,229.828649,148.041188,9474.636058
1455.242052,383.047749,-0.000000,9474.636058
1455.242370,0.000000,-0.000000,9770.718434
1455.242687,229.828649,-0.000000,9992.780217
1455.243004,536.266849,370.102971,9622.677246
1455.243322,612.876398,814.226536,9474.636058
1455.243639,689.485948,1036.288319,9178.553681
1455.243956,842.705048,1258.350101,9030.512492
1455.244273,1072.533697,1184.329507,8734.430116
1455.244591,1225.752797,814.226536,8586.388927
1455.244908,995.924147,370.102971,9030.512492
1455.245225,995.924147,-0.000000,9400.615463
1455.245543,1072.533697,-222.061783,9844.739029
1455.245860,306.438199,-0.000000,9770.718434
1455.246177,536.266849,222.061783,9918.759623
1455.246495,459.657299,592.164754,9696.697840
1455.246812,536.266849,592.164754,9326.594869
1455.247129,766.095498,666.185348,9326.594869
1455.247447,919.314598,814.226536,9400.615463
1455.247764,766.095498,444.123565,9548.656652
1455.248081,1072.533697,148.041188,9474.636058
1455.248398,1149.143247,-0.000000,9696.697840
1455.248716,1149.143247,74.020594,9770.718434
1455.249033,1149.143247,592.164754,9474.636058
1455.249350,1225.752797,592.164754,9474.636058
1455.249668,1149.143247,666.185348,9252.574275
1455.249985,1378.971896,518.144159,8882.471304
1455.250302,1532.190996,296.082377,8956.491898
1455.250620,1149.143247,-0.000000,9030.512492
1455.250937,995.924147,-74.020594,9104.533087
1455.251254,689.485948,-296.082377,9548.656652
1455.251572,612.876398,-370.102971,9622.677246
1455.251889,76.609550,-370.102971,9918.759623
1455.252206,383.047749,-0.000000,9844.739029
1455.252523,306.438199,296.082377,9622.677246
1455.252841,383.047749,-0.000000,9696.697840
1455.253158,459.657299,222.061783,9474.636058
1455.253475,383.047749,-0.000000,9400.615463
1455.253793,612.876398,-0.000000,9474.636058
1455.254110,383.047749,-74.020594,9918.759623
1455.254427,689.485948,-148.041188,9918.759623
1455.254745,766.095498,148.041188,9770.718434
1455.255062,995.924147,370.102971,9474.636058
1455.255379,842.705048,444.123565,9252.574275
1455.255697,1685.410096,666.185348,9178.553681
1455.256014,1225.752797,666.185348,8734.430116
1455.256331,842.705048,222.061783,8734.430116
1455.256648,842.705048,-0.000000,8956.491898
1455.256966,842.705048,-74.020594,9178.553681
1455.257283,536.266849,-518.144159,9548.656652
1455.257600,383.047749,-370.102971,9622.677246
1455.257918,229.828649,-0.000000,9844.739029
1455.258235,0.000000,222.061783,9474.636058
1455.258552,383.047749,444.123565,9326.594869
1455.258870,76.609550,666.185348,9178.553681
1455.259187,153.219100,518.144159,9104.533087
1455.259504,383.047749,814.226536,9400.615463
1455.259822,459.657299,296.082377,9252.574275
1455.260139,306.438199,222.061783,9252.574275
1455.260456,383.047749,-0.000000,9622.677246
1455.260773,612.876398,370.102971,9474.636058
1455.261091,383.047749,370.102971,9104.533087
1455.261408,536.266849,888.247130,8956.491898
1455.261725,995.924147,592.164754,8734.430116
1455.262043,459.657299,518.144159,8438.347739
1455.262360,1072.533697,444.123565,9030.512492
1455.262677,689.485948,74.020594,8882.471304
1455.262995,842.705048,-148.041188,9474.636058
1455.263312,383.047749,-0.000000,9474.636058
1455.263629,536.266849,222.061783,10066.800811
1455.263946,919.314598,444.123565,9844.739029
1455.264263,689.485948,740.205942,9622.677246
1455.264581,766.095498,888.247130,9474.636058
1455.264898,1149.143247,740.205942,9252.574275
1455.265215,842.705048,370.102971,8956.491898
1455.265532,1149.143247,222.061783,9474.636058
1455.265850,1302.362347,222.061783,9696.697840
1455.266167,1072.533697,296.082377,9918.759623
1455.266484,1225.752797,370.102971,9992.780217
1455.266801,1225.752797,370.102971,9844.739029
1455.267118,1455.581446,444.123565,9696.697840
1455.267436,1225.752797,814.226536,9400.615463
1455.267753,1225.752797,888.247130,9104.533087
1455.268070,1149.143247,592.164754,9030.512492
1455.268387,1378.971896,-0.000000,9030.512492
1455.268705,995.924147,-148.041188,9548.656652
1455.269022,766.095498,-370.102971,9770.718434
1455.269339,689.485948,-74.020594,10066.800811
1455.269656,536.266849,-0.000000,10140.821405
1455.269973,153.219100,148.041188,9844.739029
1455.270291,459.657299,592.164754,9622.677246
1455.270608,459.657299,592.164754,9326.594869
1455.270925,536.266849,740.205942,9252.574275
1455.271242,536.266849,592.164754,9400.615463
1455.271560,612.876398,-0.000000,9400.615463
1455.271877,536.266849,222.061783,9474.636058
1455.272194,383.047749,222.061783,9622.677246
1455.272511,229.828649,222.061783,9696.697840
1455.272828,459.657299,-0.000000,9474.636058
1455.273146,612.876398,370.102971,9178.553681
1455.273463,612.876398,592.164754,8956.491898
1455.273780,842.705048,296.082377,8512.368333
1455.274097,612.876398,222.061783,8734.430116
1455.274414,919.314598,-0.000000,8808.450710
1455.274732,536.266849,-74.020594,8882.471304
1455.275049,612.876398,-296.082377,9326.594869
1455.275366,459.657299,-74.020594,9326.594869
1455.275683,306.438199,222.061783,9474.636058
1455.276001,229.828649,370.102971,9548.656652
1455.276318,689.485948,370.102971,9400.615463
1455.276635,689.485948,444.123565,9178.553681
1455.276952,842.705048,222.061783,9252.574275
1455.277269,995.924147,-0.000000,9474.636058
1455.277587,919.314598,-370.102971,9622.677246
1455.277904,1149.143247,-296.082377,9548.656652
1455.278221,1302.362347,-148.041188,9622.677246
1455.278538,1455.581446,74.020594,9770.718434
1455.278856,1302.362347,370.102971,9474.636058
1455.279173,1455.581446,222.061783,9622.677246
1455.279490,1915.238745,592.164754,9030.512492
1455.279807,1915.238745,444.123565,8586.388927
1455.280124,1915.238745,222.061783,8734.430116
1455.280442,1608.800546,-74.020594,9104.533087
1455.280759,1225.752797,-370.102971,9770.718434
1455.281076,919.314598,-370.102971,9844.739029
1455.281393,995.924147,-148.041188,9918.759623
1455.281710,842.705048,-74.020594,9770.718434
1455.282028,842.705048,296.082377,9548.656652
1455.282345,919.314598,592.164754,9548.656652
1455.282662,919.314598,370.102971,9252.574275
1455.282979,536.266849,-0.000000,9474.636058
1455.283297,766.095498,-0.000000,9548.656652
1455.283614,306.438199,-0.000000,9918.759623
1455.283931,306.438199,-148.041188,9474.636058
1455.284248,0.000000,-0.000000,9992.780217
1455.284565,383.047749,370.102971,9770.718434
1455.284883,459.657299,666.185348,9400.615463
1455.285200,536.266849,518.144159,9326.594869
1455.285517,612.876398,814.226536,8882.471304
1455.285834,459.657299,518.144159,8882.471304
1455.286152,383.047749,148.041188,8882.471304
1455.286469,0.000000,-222.061783,9252.574275
1455.286786,306.438199,-296.082377,9622.677246
1455.287103,0.000000,-74.020594,9622.677246
1455.287420,-76.609550,148.041188,9918.759623
1455.287738,-459.657299,296.082377,9844.739029
1455.288055,-229.828649,518.144159,9548.656652
1455.288372,0.000000,740.205942,9474.636058
1455.288689,-229.828649,370.102971,9326.594869
1455.289007,229.828649,222.061783,9474.636058
1455.289324,76.609550,-0.000000,9548.656652
1455.289641,383.047749,-0.000000,10214.842000
1455.289958,689.485948,222.061783,9844.739029
1455.290275,459.657299,518.144159,9992.780217
1455.290593,1378.971896,962.267725,9474.636058
1455.290910,1302.362347,814.226536,9178.553681
1455.291227,1608.800546,666.185348,8882.471304
1455.291544,1532.190996,888.247130,8586.388927
1455.291861,1685.410096,296.082377,8660.409521
1455.292179,1532.190996,-0.000000,8956.491898
1455.292496,1302.362347,-0.000000,9400.615463
1455.292813,1378.971896,-0.000000,9696.697840
1455.293130,919.314598,-0.000000,9696.697840
1455.293448,766.095498,148.041188,9622.677246
1455.293765,689.485948,370.102971,9622.677246
1455.294082,919.314598,518.144159,9178.553681
1455.294399,995.924147,370.102971,9178.553681
1455.294716,995.924147,370.102971,9326.594869
1455.295034,995.924147,-0.000000,9400.615463
1455.295351,919.314598,-148.041188,9474.636058
1455.295668,1302.362347,-0.000000,9696.697840
1455.295985,766.095498,148.041188,9696.697840
1455.296303,1149.143247,444.123565,9622.677246
1455.296620,1225.752797,370.102971,9252.574275
1455.296937,1149.143247,444.123565,9178.553681
1455.297254,1532.190996,222.061783,8882.471304
1455.297571,1149.143247,-0.000000,8808.450710
1455.297889,919.314598,-148.041188,8882.471304
1455.298206,842.705048,-222.061783,9252.574275
1455.298523,459.657299,-518.144159,9474.636058
1455.298840,306.438199,-518.144159,9770.718434
1455.299157,-76.609550,-222.061783,9770.718434
1455.299475,0.000000,-0.000000,9992.780217
1455.299792,0.000000,222.061783,9548.656652
1455.300109,153.219100,370.102971,9696.697840
1455.300426,153.219100,-0.000000,9474.636058
1455.300744,306.438199,-74.020594,9696.697840
1455.301061,153.219100,-148.041188,9770.718434
1455.301378,612.876398,-296.082377,9918.759623
1455.301695,383.047749,-222.061783,10140.821405
1455.302012,766.095498,-0.000000,9844.739029
1455.302330,842.705048,592.164754,9622.677246
1455.302647,842.705048,814.226536,9326.594869
1455.302964,1072.533697,518.144159,8808.450710
1455.303281,1302.362347,370.102971,9030.512492
1455.303599,1532.190996,-0.000000,8808.450710
1455.303916,995.924147,-0.000000,9104.533087
1455.304233,995.924147,-222.061783,9474.636058
1455.304550,766.095498,-370.102971,9548.656652
1455.304867,1072.533697,-296.082377,9844.739029
1455.305185,612.876398,-74.020594,9696.697840
1455.305502,459.657299,222.061783,9474.636058
1455.305819,766.095498,518.144159,9400.615463
1455.306136,766.095498,444.123565,9326.594869
1455.306454,842.705048,296.082377,8956.491898
1455.306771,919.314598,518.144159,9400.615463
1455.307088,919.314598,-0.000000,9474.636058
1455.307405,842.705048,-0.000000,9400.615463
1455.307722,1072.533697,370.102971,9474.636058
1455.308040,919.314598,666.185348,9474.636058
1455.308357,1149.143247,666.185348,9400.615463
1455.308674,1225.752797,592.164754,8956.491898
1455.308991,1149.143247,666.185348,8734.430116
1455.309308,1072.533697,592.164754,8364.327145
1455.309626,995.924147,444.123565,8956.491898
1455.309943,459.657299,-0.000000,9326.594869
1455.310260,306.438199,-0.000000,9252.574275
1455.310577,0.000000,-0.000000,9548.656652
1455.310895,0.000000,-0.000000,9918.759623
1455.311212,0.000000,-0.000000,9844.739029
1455.311529,0.000000,444.123565,9770.718434
1455.311846,76.609550,518.144159,9548.656652
1455.312163,76.609550,296.082377,9474.636058
1455.312481,383.047749,148.041188,9696.697840
1455.312798,383.047749,296.082377,9474.636058
1455.313115,689.485948,296.082377,9622.677246
1455.313432,689.485948,296.082377,9844.739029
1455.313750,766.095498,370.102971,9844.739029
1455.314067,1072.533697,666.185348,9622.677246
1455.314384,1149.143247,888.247130,9400.615463
1455.314701,1149.143247,962.267725,9178.553681
1455.315018,1378.971896,740.205942,9104.533087
1455.315336,1149.143247,370.102971,8956.491898
1455.315653,689.485948,-0.000000,9030.512492
1455.315970,919.314598,-148.041188,9400.615463
1455.316287,766.095498,-222.061783,9622.677246
1455.316605,919.314598,-74.020594,9770.718434
1455.316922,536.266849,222.061783,9844.739029
1455.317239,766.095498,296.082377,10140.821405
1455.317556,536.266849,370.102971,9474.636058
1455.317873,689.485948,666.185348,9326.594869
1455.318191,766.095498,518.144159,9252.574275
1455.318508,995.924147,296.082377,9474.636058
1455.318825,459.657299,148.041188,9548.656652
1455.319142,689.485948,-0.000000,9696.697840
1455.319459,919.314598,-0.000000,9622.677246
1455.319777,842.705048,296.082377,9548.656652
1455.320094,1149.143247,518.144159,9252.574275
1455.320411,919.314598,370.102971,9178.553681
1455.320728,919.314598,444.123565,8956.491898
1455.321046,842.705048,296.082377,8882.471304
1455.321363,766.095498,148.041188,8882.471304
1455.321680,229.828649,-0.000000,9030.512492
1455.321997,536.266849,-222.061783,9400.615463
1455.322314,306.438199,-444.123565,9548.656652
1455.322632,153.219100,-444.123565,9696.697840
1455.322949,76.609550,-0.000000,9696.697840
1455.323266,76.609550,-0.000000,9326.594869
1455.323583,76.609550,222.061783,9474.636058
1455.323901,76.609550,148.041188,9178.553681
1455.324218,229.828649,-0.000000,9104.533087
1455.324535,306.438199,-148.041188,9400.615463
1455.324852,536.266849,-222.061783,9474.636058
1455.325169,383.047749,-74.020594,9622.677246
1455.325487,612.876398,-222.061783,9770.718434
1455.325804,766.095498,296.082377,9474.636058
1455.326121,842.705048,518.144159,9252.574275
1455.326438,1072.533697,518.144159,9178.553681
1455.326755,1149.143247,740.205942,8734.430116
1455.327073,1072.533697,222.061783,8586.388927
1455.327390,1302.362347,-0.000000,8882.471304
1455.327707,919.314598,-74.020594,9104.533087
1455.328024,995.924147,-592.164754,9548.656652
1455.328342,459.657299,-222.061783,9548.656652
1455.328659,612.876398,-74.020594,9992.780217
1455.328976,689.485948,370.102971,9622.677246
1455.329293,919.314598,592.164754,9400.615463
1455.329610,995.924147,814.226536,8956.491898
1455.329928,1149.143247,592.164754,9030.512492
1455.330245,1149.143247,666.185348,9326.594869
1455.330562,766.095498,296.082377,9474.636058
1455.330879,1072.533697,-0.000000,9844.739029
1455.331197,995.924147,222.061783,9844.739029
1455.331514,1149.143247,370.102971,9548.656652
1455.331831,1072.533697,444.123565,9474.636058
1455.332148,919.314598,592.164754,9252.574275
1455.332465,1378.971896,592.164754,9252.574275
1455.332783,1378.971896,296.082377,8882.471304
1455.333100,1149.143247,222.061783,9030.512492
1455.333417,1149.143247,148.041188,9474.636058
1455.333734,919.314598,-74.020594,9474.636058
1455.334052,766.095498,-74.020594,9918.759623
1455.334369,766.095498,-0.000000,9992.780217
1455.334686,383.047749,74.020594,9992.780217
1455.335003,612.876398,518.144159,9622.677246
1455.335320,536.266849,666.185348,9474.636058
1455.335638,842.705048,740.205942,9474.636058
1455.335955,766.095498,592.164754,9326.594869
1455.336272,995.924147,296.082377,9622.677246
1455.336589,995.924147,-0.000000,9696.697840
1455.336906,842.705048,-222.061783,9548.656652
1455.337224,1072.533697,296.082377,10066.800811
1455.337541,995.924147,370.102971,9696.697840
1455.337858,995.924147,814.226536,9548.656652
1455.338175,1378.971896,740.205942,9178.553681
1455.338493,1225.752797,888.247130,8956.491898
1455.338810,1302.362347,740.205942,8956.491898
1455.339127,1149.143247,-0.000000,9178.553681
1455.339444,995.924147,-74.020594,9178.553681
1455.339761,995.924147,-148.041188,9400.615463
1455.340079,766.095498,-0.000000,9696.697840
1455.340396,689.485948,-0.000000,9696.697840
1455.340713,459.657299,518.144159,9474.636058
1455.341030,229.828649,740.205942,9104.533087
1455.341348,842.705048,888.247130,9252.574275
1455.341665,76.609550,592.164754,9104.533087
1455.341982,459.657299,444.123565,8956.491898
1455.342299,229.828649,-0.000000,9400.615463
1455.342616,76.609550,-0.000000,9474.636058
1455.342934,76.609550,-296.082377,9548.656652
1455.343251,153.219100,-0.000000,9696.697840
1455.343568,0.000000,370.102971,9400.615463
1455.343885,306.438199,666.185348,9178.553681
1455.344202,689.485948,518.144159,8734.430116
1455.344520,153.219100,518.144159,8808.450710
1455.344837,536.266849,74.020594,8660.409521
1455.345154,76.609550,-0.000000,8956.491898
1455.345471,383.047749,-148.041188,9252.574275
1455.345789,229.828649,-222.061783,9474.636058
1455.346106,0.000000,-222.061783,9400.615463
1455.346423,0.000000,222.061783,9548.656652
1455.346740,76.609550,370.102971,9400.615463
1455.347057,306.438199,518.144159,9178.553681
1455.347375,459.657299,148.041188,9252.574275
1455.347692,612.876398,148.041188,9252.574275
1455.348009,536.266849,-74.020594,9474.636058
1455.348326,766.095498,-148.041188,9622.677246
1455.348644,995.924147,-74.020594,9696.697840
1455.348961,995.924147,-0.000000,9844.739029
1455.349278,1378.971896,-0.000000,9696.697840
1455.349595,1532.190996,592.164754,9474.636058
1455.349912,1915.238745,814.226536,9326.594869
1455.350230,1685.410096,592.164754,8808.450710
1455.350547,1915.238745,518.144159,9178.553681
1455.350864,2145.067394,-0.000000,9474.636058
1455.351181,1608.800546,-0.000000,9326.594869
1455.351499,1532.190996,-296.082377,9622.677246
1455.351816,1378.971896,-222.061783,9622.677246
1455.352133,1302.362347,-148.041188,9918.759623
1455.352450,1378.971896,-148.041188,9844.739029
1455.352767,1225.752797,370.102971,9622.677246
1455.353085,842.705048,296.082377,9474.636058
1455.353402,766.095498,222.061783,9178.553681
1455.353719,383.047749,-0.000000,9252.574275
1455.354036,689.485948,-0.000000,9548.656652
1455.354353,689.485948,-0.000000,9622.677246
1455.354671,306.438199,-148.041188,9548.656652
1455.354988,383.047749,296.082377,9696.697840
1455.355305,689.485948,518.144159,9696.697840
1455.355622,689.485948,666.185348,9474.636058
1455.355940,766.095498,740.205942,8734.430116
1455.356257,612.876398,370.102971,8512.368333
1455.356574,459.657299,-0.000000,8734.430116
1455.356891,459.657299,-0.000000,8882.471304
1455.357208,229.828649,-0.000000,9622.677246
1455.357526,-76.609550,-0.000000,9474.636058
1455.357843,-306.438199,-0.000000,9696.697840
1455.358160,0.000000,-0.000000,9548.656652
1455.358477,0.000000,222.061783,9844.739029
1455.358795,-229.828649,296.082377,9622.677246
1455.359112,0.000000,296.082377,9326.594869
1455.359429,0.000000,296.082377,9178.553681
1455.359746,76.609550,296.082377,9326.594869
1455.360063,306.438199,-0.000000,9548.656652
1455.360381,919.314598,-0.000000,9696.697840
1455.360698,459.657299,148.041188,9622.677246
1455.361015,919.314598,444.123565,9474.636058
1455.361332,1149.143247,740.205942,9400.615463
1455.361650,1532.190996,740.205942,9178.553681
1455.361967,1532.190996,740.205942,8808.450710
1455.362284,1455.581446,740.205942,8808.450710
1455.362601,1302.362347,296.082377,8882.471304
1455.362918,1378.971896,-0.000000,9178.553681
1455.363236,1149.143247,-148.041188,9548.656652
1455.363553,919.314598,-222.061783,10140.821405
1455.363870,766.095498,-0.000000,9918.759623
1455.364187,842.705048,222.061783,9918.759623
1455.364504,766.095498,518.144159,9844.739029
1455.364822,919.314598,592.164754,9548.656652
1455.365139,842.705048,370.102971,9400.615463
1455.365456,689.485948,370.102971,9474.636058
1455.365774,689.485948,222.061783,9548.656652
1455.366091,766.095498,-0.000000,9696.697840
1455.366408,1072.533697,-0.000000,9918.759623
1455.366726,842.705048,-0.000000,9548.656652
1455.367043,459.657299,-0.000000,9696.697840
1455.367360,612.876398,296.082377,9548.656652
1455.367677,766.095498,296.082377,9326.594869
1455.367995,766.095498,-0.000000,9400.615463
1455.368312,536.266849,222.061783,8882.471304
1455.368629,842.705048,-0.000000,9104.533087
1455.368947,689.485948,-296.082377,9400.615463
1455.369264,689.485948,-296.082377,9474.636058
1455.369581,383.047749,-296.082377,9696.697840
1455.369899,459.657299,-0.000000,9844.739029
1455.370216,306.438199,-222.061783,9474.636058
1455.370533,383.047749,296.082377,9474.636058
1455.370850,229.828649,296.082377,9326.594869
1455.371168,383.047749,-0.000000,9178.553681
1455.371485,536.266849,-0.000000,9252.574275
1455.371802,689.485948,-222.061783,9474.636058
1455.372120,459.657299,-444.123565,9696.697840
1455.372437,229.828649,-74.020594,9918.759623
1455.372754,689.485948,-148.041188,9770.718434
1455.373072,842.705048,444.123565,9474.636058
1455.373389,995.924147,740.205942,9030.512492
1455.373706,1149.143247,740.205942,8734.430116
1455.374023,1149.143247,592.164754,8660.409521
1455.374341,919.314598,222.061783,8586.388927
1455.374658,1302.362347,-0.000000,8956.491898
1455.374975,842.705048,-370.102971,9252.574275
1455.375293,766.095498,-296.082377,9548.656652
1455.375610,766.095498,-148.041188,9696.697840
1455.375927,766.095498,-0.000000,9770.718434
1455.376245,689.485948,-0.000000,9178.553681
1455.376562,995.924147,518.144159,9252.574275
1455.376879,919.314598,518.144159,8956.491898
1455.377196,995.924147,222.061783,9252.574275
1455.377514,842.705048,296.082377,9178.553681
1455.377831,689.485948,148.041188,9252.574275
1455.378148,995.924147,74.020594,9622.677246
1455.378466,766.095498,222.061783,9622.677246
1455.378783,689.485948,296.082377,9474.636058
1455.379100,995.924147,592.164754,9400.615463
1455.379418,766.095498,888.247130,9474.636058
1455.379735,689.485948,592.164754,9178.553681
1455.380052,995.924147,592.164754,8956.491898
1455.380369,1072.533697,-0.000000,8882.471304
1455.380687,919.314598,-0.000000,9178.553681
1455.381004,536.266849,-222.061783,9548.656652
1455.381321,689.485948,-148.041188,9770.718434
1455.381639,153.219100,148.041188,9844.739029
1455.381956,229.828649,370.102971,9474.636058
1455.382273,383.047749,444.123565,9548.656652
1455.382590,306.438199,592.164754,9548.656652
1455.382908,612.876398,518.144159,9474.636058
1455.383225,766.095498,222.061783,9326.594869
1455.383542,766.095498,-0.000000,9622.677246
1455.383860,1072.533697,-0.000000,9770.718434
1455.384177,1072.533697,-0.000000,9992.780217
1455.384494,1225.752797,444.123565,10066.800811
1455.384812,1455.581446,518.144159,9696.697840
1455.385129,1225.752797,1036.288319,9474.636058
1455.385446,1455.581446,1332.370696,9178.553681
1455.385763,1378.971896,740.205942,8882.471304
1455.386081,1532.190996,592.164754,8808.450710
1455.386398,1378.971896,222.061783,9474.636058
1455.386715,995.924147,-74.020594,9696.697840
1455.387033,766.095498,-370.102971,9770.718434
1455.387350,689.485948,-0.000000,9992.780217
1455.387667,612.876398,-0.000000,9992.780217
1455.387985,919.314598,370.102971,9770.718434
1455.388302,612.876398,740.205942,9474.636058
1455.388619,536.266849,740.205942,9178.553681
1455.388936,612.876398,592.164754,9252.574275
1455.389254,459.657299,148.041188,9474.636058
1455.389571,689.485948,-74.020594,9474.636058
1455.389888,383.047749,-0.000000,9696.697840
1455.390206,612.876398,74.020594,9844.739029
1455.390523,306.438199,222.061783,9622.677246
1455.390840,383.047749,296.082377,9252.574275
1455.391158,0.000000,666.185348,9030.512492
1455.391475,536.266849,666.185348,8808.450710
1455.391792,459.657299,592.164754,8734.430116
1455.392109,306.438199,-0.000000,8808.450710
1455.392427,153.219100,-0.000000,9030.512492
1455.392744,306.438199,-74.020594,9400.615463
1455.393061,0.000000,-0.000000,9548.656652
1455.393379,0.000000,-74.020594,9474.636058
1455.393696,0.000000,148.041188,9622.677246
1455.394013,536.266849,-0.000000,9474.636058
1455.394331,306.438199,444.123565,9474.636058
1455.394648,76.609550,370.102971,9326.594869
1455.394965,153.219100,222.061783,9622.677246
1455.395282,383.047749,-148.041188,9548.656652
1455.395600,536.266849,-222.061783,9548.656652
1455.395917,689.485948,-0.000000,9770.718434
1455.396234,766.095498,-0.000000,9696.697840
1455.396552,995.924147,444.123565,9622.677246
1455.396869,1532.190996,592.164754,9474.636058
1455.397186,1378.971896,666.185348,9104.533087
1455.397504,1608.800546,518.144159,8734.430116
1455.397821,1608.800546,370.102971,8808.450710
1455.398138,1685.410096,-0.000000,8956.491898
1455.398455,1685.410096,-444.123565,9474.636058
1455.398773,1378.971896,-444.123565,9474.636058
1455.399090,1378.971896,-444.123565,9696.697840
1455.399407,1149.143247,-0.000000,9844.739029
1455.399725,919.314598,-0.000000,9548.656652
1455.400042,1302.362347,222.061783,9326.594869
1455.400359,1072.533697,592.164754,9178.553681
1455.400677,1072.533697,444.123565,9252.574275
1455.400994,1072.533697,222.061783,9400.615463
1455.401311,1149.143247,-74.020594,9400.615463
1455.401628,1225.752797,-222.061783,9770.718434
1455.401946,689.485948,296.082377,9770.718434
1455.402263,919.314598,592.164754,9622.677246
1455.402580,689.485948,518.144159,9474.636058
1455.402898,383.047749,592.164754,9252.574275
1455.403215,459.657299,666.185348,8808.450710
1455.403532,689.485948,592.164754,8734.430116
1455.403850,842.705048,296.082377,8882.471304
1455.404167,612.876398,-0.000000,9104.533087
1455.404484,536.266849,-0.000000,9474.636058
1455.404801,153.219100,-0.000000,9548.656652
1455.405119,229.828649,-0.000000,9474.636058
1455.405436,0.000000,-0.000000,9696.697840
1455.405753,0.000000,666.185348,9622.677246
1455.406071,0.000000,518.144159,9474.636058
1455.406388,76.609550,222.061783,9400.615463
1455.406705,306.438199,296.082377,9400.615463
1455.407023,383.047749,148.041188,9548.656652
1455.407340,459.657299,148.041188,9770.718434
1455.407657,766.095498,-0.000000,10140.821405
1455.407974,689.485948,-0.000000,9844.739029
1455.408292,1225.752797,592.164754,9548.656652
1455.408609,1072.533697,740.205942,9474.636058
1455.408926,1378.971896,1036.288319,9178.553681
1455.409244,1302.362347,814.226536,8882.471304
1455.409561,1378.971896,592.164754,9104.533087
1455.409878,1455.581446,370.102971,9104.533087
1455.410195,1149.143247,-148.041188,9400.615463
1455.410513,995.924147,-296.082377,9622.677246
1455.410830,1072.533697,-74.020594,9918.759623
1455.411147,1072.533697,-0.000000,9918.759623
1455.411465,766.095498,740.205942,9992.780217
1455.411782,995.924147,666.185348,9622.677246
1455.412099,919.314598,666.185348,9326.594869
1455.412417,919.314598,740.205942,9178.553681
1455.412734,995.924147,370.102971,9474.636058
1455.413051,1072.533697,370.102971,9474.636058
1455.413368,842.705048,-0.000000,9474.636058
1455.413686,766.095498,296.082377,9696.697840
1455.414003,1149.143247,592.164754,9622.677246
1455.414320,1225.752797,518.144159,9548.656652
1455.414638,689.485948,666.185348,9104.533087
1455.414955,995.924147,592.164754,9030.512492
1455.415272,995.924147,444.123565,8586.388927
1455.415590,919.314598,148.041188,8956.491898
1455.415907,612.876398,-0.000000,9252.574275
1455.416224,459.657299,-0.000000,9326.594869
1455.416541,153.219100,-0.000000,9474.636058
1455.416859,0.000000,-0.000000,9696.697840
1455.417176,0.000000,-0.000000,9844.739029
1455.417493,153.219100,666.185348,9770.718434
1455.417811,153.219100,444.123565,9474.636058
1455.418128,229.828649,296.082377,9178.553681
1455.418445,459.657299,296.082377,9400.615463
1455.418763,689.485948,-0.000000,9548.656652
1455.419080,459.657299,-74.020594,9548.656652
1455.419397,689.485948,-148.041188,9622.677246
1455.419714,612.876398,-0.000000,9918.759623
1455.420032,919.314598,296.082377,9548.656652
1455.420349,919.314598,-0.000000,9696.697840
1455.420666,1302.362347,518.144159,9400.615463
1455.420984,1685.410096,592.164754,8956.491898
1455.421301,1378.971896,370.102971,9030.512492
1455.421618,1378.971896,-0.000000,9104.533087
1455.421936,1072.533697,-666.185348,9252.574275
1455.422253,1225.752797,-592.164754,9474.636058
1455.422570,1225.752797,-370.102971,9918.759623
1455.422887,995.924147,-148.041188,9770.718434
1455.423205,1608.800546,-0.000000,9696.697840
1455.423522,995.924147,296.082377,9548.656652
1455.423839,1072.533697,666.185348,9104.533087
1455.424157,919.314598,296.082377,9252.574275
1455.424474,842.705048,148.041188,9178.553681
1455.424791,689.485948,-0.000000,9474.636058
1455.425109,612.876398,-0.000000,9474.636058
1455.425426,689.485948,-0.000000,9844.739029
1455.425743,612.876398,222.061783,9622.677246
1455.426060,459.657299,444.123565,9474.636058
1455.426378,766.095498,592.164754,9474.636058
1455.426695,766.095498,148.041188,9030.512492
1455.427012,689.485948,222.061783,8734.430116
1455.427330,383.047749,444.123565,8956.491898
1455.427647,536.266849,-0.000000,9104.533087
1455.427964,536.266849,-0.000000,9030.512492
1455.428282,76.609550,-0.000000,9622.677246
1455.428599,76.609550,-0.000000,9696.697840
1455.428916,0.000000,-0.000000,9696.697840
1455.429233,0.000000,444.123565,9474.636058
1455.429551,0.000000,222.061783,9548.656652
1455.429868,0.000000,370.102971,9474.636058
1455.430185,383.047749,222.061783,9178.553681
1455.430503,536.266849,222.061783,9474.636058
1455.430820,766.095498,-0.000000,9622.677246
1455.431137,766.095498,296.082377,9844.739029
1455.431455,842.705048,148.041188,9696.697840
1455.431772,842.705048,370.102971,9474.636058
1455.432089,995.924147,518.144159,9474.636058
1455.432406,1072.533697,888.247130,9252.574275
1455.432724,689.485948,518.144159,8734.430116
1455.433041,1608.800546,740.205942,8956.491898
1455.433358,1225.752797,370.102971,9030.512492
1455.433676,1302.362347,-0.000000,9400.615463
1455.433993,842.705048,-74.020594,9474.636058
1455.434310,612.876398,-296.082377,9844.739029
1455.434627,919.314598,-0.000000,9770.718434
1455.434945,842.705048,370.102971,9696.697840
1455.435262,536.266849,592.164754,9474.636058
1455.435579,766.095498,518.144159,9400.615463
1455.435897,1225.752797,740.205942,9400.615463
1455.436214,995.924147,592.164754,9178.553681
1455.436531,919.314598,148.041188,9400.615463
1455.436849,919.314598,222.061783,9622.677246
1455.437166,1149.143247,296.082377,9992.780217
1455.437483,842.705048,148.041188,9548.656652
1455.437800,995.924147,296.082377,9474.636058
1455.438118,612.876398,814.226536,9252.574275
1455.438435,689.485948,592.164754,8956.491898
1455.438752,1378.971896,592.164754,8882.471304
1455.439070,766.095498,-0.000000,8808.450710
1455.439387,919.314598,-74.020594,9030.512492
1455.439704,536.266849,-74.020594,9400.615463
1455.440022,459.657299,-518.144159,9474.636058
1455.440339,459.657299,-370.102971,9992.780217
1455.440656,0.000000,-0.000000,9770.718434
1455.440973,306.438199,222.061783,9918.759623
1455.441291,383.047749,222.061783,9622.677246
1455.441608,459.657299,-0.000000,9400.615463
1455.441925,383.047749,74.020594,9326.594869
1455.442243,612.876398,-0.000000,9474.636058
1455.442560,689.485948,-296.082377,9770.718434
1455.442877,689.485948,-370.102971,9992.780217
1455.443195,1225.752797,-370.102971,10214.842000
1455.443512,995.924147,-0.000000,9622.677246
1455.443829,1378.971896,444.123565,9696.697840
1455.444146,1532.190996,444.123565,9252.574275
1455.444464,1608.800546,592.164754,9104.533087
1455.444781,1532.190996,296.082377,8882.471304
1455.445098,1532.190996,-74.020594,9030.512492
1455.445416,1532.190996,-74.020594,8956.491898
1455.445733,1225.752797,-296.082377,9474.636058
1455.446050,1378.971896,-666.185348,9326.594869
1455.446368,842.705048,-148.041188,9622.677246
1455.446685,766.095498,-0.000000,9474.636058
1455.447002,842.705048,222.061783,9400.615463
1455.447319,919.314598,518.144159,9178.553681
1455.447637,1072.533697,222.061783,9252.574275
1455.447954,919.314598,296.082377,9030.512492
1455.448271,842.705048,296.082377,9252.574275
1455.448589,689.485948,148.041188,9474.636058
1455.448906,689.485948,-0.000000,9622.677246
1455.449223,459.657299,-222.061783,9474.636058
1455.449541,689.485948,444.123565,9326.594869
1455.449858,383.047749,518.144159,9252.574275
1455.450175,459.657299,740.205942,9030.512492
1455.450492,383.047749,592.164754,8734.430116
1455.450810,612.876398,370.102971,8660.409521
1455.451127,459.657299,222.061783,8808.450710
1455.451444,383.047749,-0.000000,9104.533087
1455.451762,0.000000,-0.000000,9252.574275
1455.452079,0.000000,296.082377,9548.656652
1455.452396,0.000000,370.102971,9548.656652
1455.452714,-229.828649,296.082377,9696.697840
1455.453031,0.000000,666.185348,9474.636058
1455.453348,0.000000,740.205942,9474.636058
1455.453665,612.876398,518.144159,9474.636058
1455.453983,536.266849,296.082377,9474.636058
1455.454300,536.266849,-0.000000,9696.697840
1455.454617,689.485948,-0.000000,9918.759623
1455.454935,919.314598,148.041188,9992.780217
1455.455252,1225.752797,962.267725,9918.759623
1455.455569,1072.533697,592.164754,9548.656652
1455.455887,1532.190996,1184.329507,9474.636058
1455.456204,1608.800546,888.247130,9252.574275
1455.456521,1532.190996,740.205942,9030.512492
1455.456838,1608.800546,222.061783,9178.553681
1455.457156,1608.800546,-0.000000,9252.574275
1455.457473,1225.752797,-148.041188,9474.636058
1455.457790,1149.143247,-370.102971,9844.739029
1455.458108,612.876398,-222.061783,9918.759623
1455.458425,612.876398,222.061783,9770.718434
1455.458742,689.485948,296.082377,9770.718434
1455.459060,689.485948,814.226536,9548.656652
1455.459377,919.314598,814.226536,9178.553681
1455.459694,842.705048,592.164754,9326.594869
1455.460011,612.876398,148.041188,9178.553681
1455.460329,766.095498,222.061783,9548.656652
1455.460646,766.095498,296.082377,9770.718434
1455.460963,612.876398,296.082377,9696.697840
1455.461281,842.705048,-0.000000,9622.677246
1455.461598,1072.533697,666.185348,9474.636058
1455.461915,766.095498,370.102971,8956.491898
1455.462232,536.266849,444.123565,9104.533087
1455.462550,383.047749,222.061783,8734.430116
1455.462867,383.047749,-74.020594,8956.491898
1455.463184,306.438199,-74.020594,9400.615463
1455.463502,229.828649,-222.061783,9474.636058
1455.463819,-229.828649,-370.102971,9474.636058
1455.464136,-153.219100,-148.041188,9474.636058
1455.464454,-153.219100,-0.000000,9474.636058
1455.464771,0.000000,-0.000000,9326.594869
1455.465088,0.000000,148.041188,9400.615463
1455.465405,459.657299,148.041188,9178.553681
1455.465723,459.657299,-74.020594,9400.615463
1455.466040,689.485948,-222.061783,9178.553681
1455.466357,536.266849,-222.061783,9622.677246
1455.466674,766.095498,-74.020594,9770.718434
1455.466992,919.314598,-0.000000,9548.656652
1455.467309,995.924147,148.041188,9326.594869
1455.467626,995.924147,518.144159,9252.574275
1455.467943,1378.971896,592.164754,9104.533087
1455.468260,1532.190996,666.185348,8586.388927
1455.468578,1608.800546,296.082377,8734.430116
1455.468895,1762.019645,-0.000000,8882.471304
1455.469212,1915.238745,-518.144159,9104.533087
1455.469529,1225.752797,-296.082377,9770.718434
1455.469846,1149.143247,-74.020594,9844.739029
1455.470164,995.924147,-0.000000,9696.697840
1455.470481,842.705048,666.185348,9622.677246
1455.470798,1302.362347,592.164754,9252.574275
1455.471115,1072.533697,592.164754,9178.553681
1455.471432,1072.533697,444.123565,9474.636058
1455.471750,919.314598,296.082377,9326.594869
1455.472067,842.705048,444.123565,9474.636058
1455.472384,842.705048,-0.000000,9770.718434
1455.472701,766.095498,-0.000000,9622.677246
1455.473018,766.095498,222.061783,9622.677246
1455.473336,919.314598,518.144159,9548.656652
1455.473653,536.266849,370.102971,9474.636058
1455.473970,1302.362347,740.205942,9326.594869
1455.474287,1225.752797,444.123565,8882.471304
1455.474604,1149.143247,-0.000000,8882.471304
1455.474922,842.705048,-0.000000,9104.533087
1455.475239,842.705048,-370.102971,9326.594869
1455.475556,383.047749,-74.020594,9474.636058
1455.475873,229.828649,148.041188,9622.677246
1455.476190,153.219100,296.082377,9622.677246
1455.476508,459.657299,-0.000000,9474.636058
1455.476825,76.609550,-0.000000,9696.697840
1455.477142,0.000000,222.061783,9474.636058
1455.477459,306.438199,296.082377,9474.636058
1455.477776,229.828649,222.061783,9844.739029
1455.478094,383.047749,-74.020594,9918.759623
1455.478411,536.266849,-0.000000,9770.718434
1455.478728,612.876398,296.082377,9696.697840
1455.479045,842.705048,666.185348,9548.656652
1455.479362,842.705048,814.226536,9252.574275
1455.479680,689.485948,1036.288319,9030.512492
1455.479997,1149.143247,814.226536,8808.450710
1455.480314,1455.581446,666.185348,8734.430116
1455.480631,1225.752797,296.082377,8808.450710
1455.480948,1072.533697,148.041188,9178.553681
1455.481266,1149.143247,74.020594,9474.636058
1455.481583,842.705048,-0.000000,9696.697840
1455.481900,612.876398,-0.000000,9474.636058
1455.482217,383.047749,666.185348,9474.636058
1455.482534,919.314598,888.247130,9548.656652
1455.482852,689.485948,888.247130,9252.574275
1455.483169,612.876398,962.267725,9178.553681
1455.483486,383.047749,518.144159,9326.594869
1455.483803,842.705048,370.102971,9474.636058
1455.484120,919.314598,-0.000000,9400.615463
1455.484438,612.876398,296.082377,9474.636058
1455.484755,766.095498,444.123565,9548.656652
1455.485072,766.095498,666.185348,9400.615463
1455.485389,536.266849,888.247130,9104.533087
1455.485706,612.876398,222.061783,8660.409521
1455.486023,612.876398,444.123565,8956.491898
1455.486341,689.485948,148.041188,9030.512492
1455.486658,612.876398,-0.000000,9178.553681
1455.486975,612.876398,-296.082377,9474.636058
1455.487292,383.047749,-148.041188,10066.800811
1455.487609,-153.219100,-222.061783,9844.739029
1455.487927,0.000000,-0.000000,9844.739029
1455.488244,0.000000,222.061783,9622.677246
1455.488561,76.609550,370.102971,9622.677246
1455.488878,229.828649,-74.020594,9474.636058
1455.489195,306.438199,-0.000000,9622.677246
1455.489513,76.609550,-296.082377,9474.636058
1455.489830,536.266849,-370.102971,9918.759623
1455.490147,229.828649,-296.082377,10214.842000
1455.490464,995.924147,-0.000000,10066.800811
1455.490781,1225.752797,370.102971,9844.739029
1455.491099,995.924147,518.144159,9474.636058
1455.491416,1225.752797,740.205942,9252.574275
1455.491733,1608.800546,444.123565,9030.512492
1455.492050,1302.362347,222.061783,9104.533087
1455.492367,1455.581446,-0.000000,8956.491898
1455.492685,1608.800546,-296.082377,9326.594869
1455.493002,1149.143247,-518.144159,9548.656652
1455.493319,1225.752797,-444.123565,9844.739029
1455.493636,1225.752797,-370.102971,9770.718434
1455.493953,1072.533697,370.102971,9474.636058
1455.494271,919.314598,518.144159,9178.553681
1455.494588,919.314598,592.164754,8882.471304
1455.494905,919.314598,370.102971,8882.471304
1455.495222,459.657299,222.061783,9178.553681
1455.495539,612.876398,-74.020594,9252.574275
1455.495857,536.266849,-74.020594,9548.656652
1455.496174,383.047749,-74.020594,9548.656652
1455.496491,459.657299,370.102971,9548.656652
1455.496808,76.609550,444.123565,9326.594869
1455.497125,536.266849,592.164754,9252.574275
1455.497443,612.876398,740.205942,8660.409521
1455.497760,766.095498,444.123565,8586.388927
1455.498077,689.485948,-0.000000,8660.409521
1455.498394,842.705048,-0.000000,9030.512492
1455.498711,612.876398,-74.020594,9326.594869
1455.499029,383.047749,-74.020594,9474.636058
1455.499346,306.438199,-74.020594,9622.677246
1455.499663,306.438199,-0.000000,9474.636058
1455.499980,459.657299,148.041188,9326.594869
1455.500297,153.219100,222.061783,9474.636058
1455.500615,536.266849,666.185348,9252.574275
1455.500932,459.657299,222.061783,9400.615463
1455.501249,689.485948,148.041188,9474.636058
1455.501566,842.705048,-0.000000,9696.697840
1455.501883,689.485948,-0.000000,9622.677246
1455.502201,1149.143247,296.082377,9770.718434
1455.502518,1455.581446,444.123565,9844.739029
1455.502835,1532.190996,962.267725,9474.636058
1455.503152,1838.629195,1258.350101,9474.636058
1455.503469,1455.581446,1036.288319,9178.553681
1455.503787,1455.581446,888.247130,8660.409521
1455.504104,1532.190996,370.102971,8882.471304
1455.504421,1378.971896,-222.061783,9326.594869
1455.504738,1302.362347,-74.020594,9770.718434
1455.505055,919.314598,-148.041188,9770.718434
1455.505373,766.095498,222.061783,10066.800811
1455.505690,383.047749,518.144159,9770.718434
1455.506007,689.485948,592.164754,9622.677246
1455.506324,459.657299,814.226536,9770.718434
1455.506641,536.266849,592.164754,9474.636058
1455.506958,306.438199,222.061783,9474.636058
1455.507276,383.047749,-0.000000,9474.636058
1455.507593,612.876398,-148.041188,10140.821405
1455.507910,229.828649,296.082377,9992.780217
1455.508227,383.047749,370.102971,10066.800811
1455.508544,689.485948,370.102971,9844.739029
1455.508862,1225.752797,370.102971,9326.594869
1455.509179,689.485948,592.164754,9104.533087
1455.509496,612.876398,592.164754,8956.491898
1455.509813,536.266849,-0.000000,8882.471304
1455.510130,612.876398,-0.000000,9252.574275
1455.510448,306.438199,-148.041188,9548.656652
1455.510765,0.000000,-296.082377,9918.759623
1455.511082,153.219100,-296.082377,9770.718434
1455.511399,0.000000,-0.000000,9622.677246
1455.511716,0.000000,296.082377,9696.697840
1455.512034,229.828649,222.061783,9474.636058
1455.512351,766.095498,296.082377,9400.615463
1455.512668,919.314598,444.123565,9252.574275
1455.512985,612.876398,-74.020594,9474.636058
1455.513302,919.314598,-74.020594,9548.656652
1455.513620,842.705048,-222.061783,9696.697840
1455.513937,995.924147,-74.020594,9844.739029
1455.514254,1225.752797,148.041188,9400.615463
1455.514571,1532.190996,444.123565,9326.594869
1455.514888,1608.800546,518.144159,8882.471304
1455.515206,1991.848295,592.164754,8734.430116
1455.515523,1762.019645,222.061783,8660.409521
1455.515840,1685.410096,296.082377,8882.471304
1455.516157,1455.581446,-444.123565,9030.512492
1455.516474,1225.752797,-518.144159,9252.574275
1455.516792,1302.362347,-740.205942,9548.656652
1455.517109,919.314598,-370.102971,9474.636058
1455.517426,995.924147,-0.000000,9474.636058
1455.517743,766.095498,370.102971,9178.553681
1455.518060,1072.533697,518.144159,9030.512492
1455.518378,995.924147,370.102971,8956.491898
1455.518695,919.314598,-0.000000,8882.471304
1455.519012,383.047749,-0.000000,9252.574275
1455.519329,612.876398,-74.020594,9400.615463
1455.519646,383.047749,-148.041188,9548.656652
1455.519964,383.047749,-0.000000,9474.636058
1455.520281,459.657299,148.041188,9548.656652
1455.520598,459.657299,518.144159,9178.553681
1455.520915,383.047749,444.123565,8882.471304
1455.521232,306.438199,740.205942,8734.430116
1455.521550,153.219100,-0.000000,8586.388927
1455.521867,459.657299,-0.000000,8882.471304
1455.522184,153.219100,-222.061783,9252.574275
1455.522501,0.000000,-74.020594,9622.677246
1455.522818,-229.828649,-0.000000,9844.739029
1455.523136,0.000000,-0.000000,9770.718434
1455.523453,0.000000,222.061783,9622.677246
1455.523770,76.609550,740.205942,9622.677246
1455.524087,76.609550,814.226536,9326.594869
1455.524404,383.047749,444.123565,9474.636058
1455.524722,383.047749,370.102971,9474.636058
1455.525039,536.266849,-0.000000,9918.759623
1455.525356,842.705048,-0.000000,9918.759623
1455.525673,766.095498,-0.000000,9844.739029
1455.525990,919.314598,518.144159,9992.780217
1455.526308,1302.362347,740.205942,9622.677246
1455.526625,1149.143247,1036.288319,9548.656652
1455.526942,1455.581446,962.267725,9178.553681
1455.527259,1685.410096,814.226536,9400.615463
1455.527576,1532.190996,518.144159,8882.471304
1455.527894,1455.581446,222.061783,9474.636058
1455.528211,1455.581446,-74.020594,9844.739029
1455.528528,1225.752797,-0.000000,9770.718434
1455.528845,1149.143247,-0.000000,9992.780217
1455.529162,1072.533697,370.102971,9844.739029
1455.529479,842.705048,666.185348,9696.697840
1455.529797,919.314598,592.164754,9400.615463
1455.530114,919.314598,222.061783,9326.594869
1455.530431,766.095498,370.102971,9104.533087
1455.530748,689.485948,148.041188,9400.615463
1455.531065,919.314598,148.041188,9696.697840
1455.531383,1072.533697,-0.000000,9696.697840
1455.531700,612.876398,-222.061783,9918.759623
1455.532017,995.924147,370.102971,9474.636058
1455.532334,842.705048,592.164754,9474.636058
1455.532651,919.314598,740.205942,9104.533087
1455.532969,919.314598,518.144159,8808.450710
1455.533286,1378.971896,222.061783,9178.553681
1455.533603,919.314598,-0.000000,8808.450710
1455.533920,536.266849,-74.020594,9030.512492
1455.534237,612.876398,-148.041188,9474.636058
1455.534555,153.219100,-444.123565,9474.636058
1455.534872,-383.047749,-74.020594,9548.656652
1455.535189,0.000000,222.061783,9770.718434
1455.535506,306.438199,518.144159,9474.636058
1455.535823,153.219100,444.123565,9326.594869
1455.536141,229.828649,-0.000000,9178.553681
1455.536458,153.219100,-74.020594,9474.636058
1455.536775,229.828649,-74.020594,9622.677246
1455.537092,536.266849,-444.123565,9622.677246
1455.537409,459.657299,-444.123565,9622.677246
1455.537727,459.657299,-0.000000,9696.697840
1455.538044,689.485948,296.082377,9474.636058
1455.538361,1225.752797,814.226536,9030.512492
1455.538678,1149.143247,518.144159,8956.491898
1455.538995,1455.581446,370.102971,8586.388927
1455.539313,1302.362347,148.041188,8660.409521
1455.539630,1378.971896,-148.041188,8882.471304
1455.539947,1378.971896,-296.082377,9252.574275
1455.540264,1072.533697,-444.123565,9474.636058
1455.540581,995.924147,-222.061783,9696.697840
1455.540899,766.095498,-0.000000,9696.697840
1455.541216,689.485948,296.082377,9622.677246
1455.541533,766.095498,370.102971,9548.656652
1455.541850,766.095498,518.144159,9252.574275
1455.542167,842.705048,222.061783,9104.533087
1455.542485,689.485948,-0.000000,9178.553681
1455.542802,612.876398,-148.041188,9548.656652
1455.543119,536.266849,-0.000000,9622.677246
1455.543436,459.657299,148.041188,9844.739029
1455.543753,612.876398,518.144159,9696.697840
1455.544071,766.095498,370.102971,9474.636058
1455.544388,689.485948,592.164754,9104.533087
1455.544705,842.705048,370.102971,9030.512492
1455.545022,995.924147,370.102971,8956.491898
1455.545339,536.266849,370.102971,8956.491898
1455.545657,612.876398,-0.000000,9252.574275
1455.545974,229.828649,-0.000000,9622.677246
1455.546291,306.438199,222.061783,9696.697840
1455.546608,153.219100,-0.000000,9696.697840
1455.546925,306.438199,444.123565,9696.697840
1455.547243,76.609550,666.185348,9474.636058
1455.547560,383.047749,1036.288319,9548.656652
1455.547877,229.828649,444.123565,9548.656652
1455.548194,612.876398,296.082377,9400.615463
1455.548511,689.485948,148.041188,9548.656652
1455.548829,842.705048,-148.041188,9696.697840
1455.549146,919.314598,-0.000000,9918.759623
1455.549463,995.924147,296.082377,10066.800811
1455.549780,1225.752797,592.164754,9622.677246
1455.550097,1455.581446,666.185348,9474.636058
1455.550414,1532.190996,962.267725,9252.574275
1455.550732,1302.362347,740.205942,9104.533087
1455.551049,1762.019645,666.185348,8956.491898
1455.551366,1455.581446,296.082377,9178.553681
1455.551683,1455.581446,-0.000000,9400.615463
1455.552000,1455.581446,-0.000000,9918.759623
1455.552318,1072.533697,-0.000000,9844.739029
