#time,accel_x,accel_y,accel_z
1158.759650,76.609550,518.144159,9474.636058
1158.759968,229.828649,518.144159,9252.574275
1158.760287,306.438199,222.061783,9252.574275
1158.760606,306.438199,222.061783,9178.553681
1158.760924,306.438199,296.082377,9252.574275
1158.761243,536.266849,592.164754,9400.615463
1158.761562,306.438199,148.041188,9326.594869
1158.761881,459.657299,296.082377,9252.574275
1158.762199,919.314598,148.041188,9400.615463
1158.762518,536.266849,518.144159,9400.615463
1158.762837,459.657299,296.082377,9252.574275
1158.763155,536.266849,296.082377,9252.574275
1158.763474,306.438199,296.082377,9326.594869
1158.763793,76.609550,370.102971,9178.553681
1158.764112,536.266849,296.082377,9400.615463
1158.764430,383.047749,222.061783,9178.553681
1158.764749,536.266849,296.082377,9252.574275
1158.765068,842.705048,296.082377,9474.636058
1158.765386,459.657299,444.123565,9252.574275
1158.765705,383.047749,222.061783,9178.553681
1158.766024,383.047749,518.144159,9252.574275
1158.766343,459.657299,518.144159,9252.574275
1158.766661,536.266849,444.123565,9252.574275
1158.766980,459.657299,370.102971,9252.574275
1158.767299,306.438199,370.102971,9178.553681
1158.767617,306.438199,296.082377,9474.636058
1158.767936,459.657299,444.123565,9326.594869
1158.768255,306.438199,370.102971,9474.636058
1158.768574,612.876398,444.123565,9030.512492
1158.768892,383.047749,444.123565,9400.615463
1158.769211,459.657299,518.144159,9252.574275
1158.769530,536.266849,296.082377,9400.615463
1158.769848,612.876398,296.082377,9252.574275
1158.770167,306.438199,518.144159,9178.553681
1158.770486,153.219100,-0.000000,9178.553681
1158.770805,536.266849,296.082377,9252.574275
1158.771123,229.828649,296.082377,9326.594869
1158.771442,383.047749,518.144159,9474.636058
1158.771761,459.657299,148.041188,9178.553681
1158.772079,689.485948,518.144159,9252.574275
1158.772398,536.266849,222.061783,9252.574275
1158.772717,612.876398,296.082377,9178.553681
1158.773036,459.657299,222.061783,9178.553681
1158.773354,383.047749,370.102971,9400.615463
1158.773673,153.219100,518.144159,9326.594869
1158.773992,766.095498,370.102971,9326.594869
1158.774310,689.485948,74.020594,9252.574275
1158.774629,229.828649,296.082377,9474.636058
1158.774948,612.876398,370.102971,9104.533087
1158.775267,459.657299,370.102971,9326.594869
1158.775585,536.266849,592.164754,9252.574275
1158.775904,306.438199,370.102971,9178.553681
1158.776223,459.657299,518.144159,9400.615463
1158.776541,306.438199,370.102971,9400.615463
1158.776860,306.438199,444.123565,9326.594869
1158.777179,383.047749,-0.000000,9326.594869
1158.777498,383.047749,74.020594,9178.553681
1158.777816,459.657299,444.123565,9252.574275
1158.778135,306.438199,444.123565,9474.636058
1158.778454,306.438199,444.123565,9326.594869
1158.778772,306.438199,222.061783,9326.594869
1158.779091,536.266849,444.123565,9104.533087
1158.779410,459.657299,296.082377,9030.512492
1158.779729,383.047749,148.041188,9104.533087
1158.780047,536.266849,296.082377,9178.553681
1158.780366,383.047749,518.144159,9252.574275
1158.780685,306.438199,296.082377,8956.491898
1158.781003,0.000000,-0.000000,9030.512492
1158.781322,76.609550,-148.041188,8734.430116
1158.781641,0.000000,-222.061783,8956.491898
1158.781960,0.000000,-666.185348,9178.553681
1158.782278,-229.828649,-370.102971,9030.512492
1158.782597,-306.438199,-444.123565,9400.615463
1158.782916,-766.095498,-592.164754,9178.553681
1158.783234,-766.095498,-666.185348,9326.594869
1158.783553,-1302.362347,-888.247130,8734.430116
1158.783872,-1685.410096,-666.185348,8660.409521
1158.784191,-1072.533697,-814.226536,8660.409521
1158.784509,-1608.800546,-1110.308913,9178.553681
1158.784828,-1378.971896,-1406.391290,9252.574275
1158.785147,-1149.143247,-1110.308913,9030.512492
1158.785465,-1378.971896,-1036.288319,8586.388927
1158.785784,-1302.362347,-740.205942,8364.327145
1158.786103,-1072.533697,-592.164754,8142.265362
1158.786422,-1072.533697,-740.205942,7254.018232
1158.786740,-1455.581446,-1332.370696,7328.038826
1158.787059,-1302.362347,-1332.370696,7476.080014
1158.787378,-1838.629195,-1702.473667,7846.182985
1158.787696,-1762.019645,-2368.659014,8364.327145
1158.788015,-1991.848295,-2442.679609,9178.553681
1158.788334,-1838.629195,-2294.638420,9030.512492
1158.788653,-1838.629195,-2146.597232,8660.409521
1158.788971,-2145.067394,-1702.473667,8586.388927
1158.789290,-2374.896044,-2146.597232,8142.265362
1158.789609,-2528.115143,-1850.514855,8142.265362
1158.789927,-2604.724693,-2442.679609,7772.162391
1158.790246,-3217.601092,-3404.947333,8586.388927
1158.790565,-3677.258390,-4367.215058,9474.636058
1158.790884,-3830.477490,-4293.194464,10436.903782
1158.791202,-4136.915689,-4737.318029,10732.986159
1158.791521,-4596.572988,-4293.194464,11103.089130
1158.791840,-4060.306139,-3849.070898,11399.171507
1158.792158,-3753.867940,-3552.988522,10881.027347
1158.792477,-3447.429741,-2886.803174,10881.027347
1158.792796,-3064.381992,-2664.741391,11029.068536
1158.793115,-3140.991542,-2886.803174,10436.903782
1158.793433,-2987.772442,-3182.885551,10584.944971
1158.793752,-2911.162892,-3701.029710,10732.986159
1158.794071,-2987.772442,-3775.050304,10732.986159
1158.794389,-3140.991542,-3997.112087,10658.965565
1158.794708,-3140.991542,-3923.091493,10658.965565
1158.795027,-2757.943793,-4071.132681,10881.027347
1158.795346,-3217.601092,-4367.215058,11621.233289
1158.795664,-3524.039291,-3552.988522,11399.171507
1158.795983,-3217.601092,-3478.967927,11621.233289
1158.796302,-3830.477490,-3182.885551,11325.150913
1158.796620,-3447.429741,-3330.926739,11029.068536
1158.796939,-4136.915689,-3404.947333,10510.924376
1158.797258,-3524.039291,-3404.947333,10807.006753
1158.797577,-3064.381992,-3627.009116,11103.089130
1158.797895,-2757.943793,-3182.885551,10881.027347
1158.798214,-1302.362347,-3034.844362,11621.233289
1158.798533,-1072.533697,-1998.556043,10732.986159
1158.798851,0.000000,-148.041188,9548.656652
1158.799170,612.876398,814.226536,7402.059420
1158.799489,1302.362347,2146.597232,6291.750507
1158.799808,1455.581446,2146.597232,5403.503377
1158.800126,1149.143247,1406.391290,4885.359217
1158.800445,459.657299,-518.144159,6217.729913
1158.800764,0.000000,-1924.535449,7846.182985
1158.801082,-689.485948,-2516.700203,8956.491898
1158.801401,-1455.581446,-2146.597232,9474.636058
1158.801720,-1608.800546,-1184.329507,10140.821405
1158.802039,-919.314598,592.164754,9400.615463
1158.802357,-536.266849,2146.597232,8290.306550
1158.802676,76.609550,2294.638420,8142.265362
1158.802995,459.657299,2516.700203,7698.141797
1158.803313,536.266849,2146.597232,6587.832884
1158.803632,536.266849,1480.411884,6217.729913
1158.803951,153.219100,370.102971,6069.688724
1158.804270,0.000000,-888.247130,6439.791695
1158.804588,-536.266849,-1332.370696,6513.812290
1158.804907,-766.095498,-2072.576638,8216.285956
1158.805226,-1532.190996,-2442.679609,9992.780217
1158.805544,-1762.019645,-2220.617826,10881.027347
1158.805863,-1685.410096,-1406.391290,11769.274478
1158.806182,-1915.238745,-296.082377,11251.130318
1158.806501,-2374.896044,-74.020594,10584.944971
1158.806819,-2145.067394,-0.000000,9474.636058
1158.807138,-1991.848295,-592.164754,9326.594869
1158.807457,-2221.676944,-1702.473667,8808.450710
1158.807775,-2298.286494,-2294.638420,8364.327145
1158.808094,-2604.724693,-3256.906145,8660.409521
1158.808413,-2987.772442,-4145.153275,9178.553681
1158.808732,-3217.601092,-5107.421000,10584.944971
1158.809050,-3983.696590,-4885.359217,11547.212695
1158.809369,-3447.429741,-3182.885551,11843.295072
1158.809688,-3983.696590,-1924.535449,11177.109724
1158.810006,-4060.306139,-1258.350101,11251.130318
1158.810325,-4290.134789,-1628.453072,11621.233289
1158.810644,-5056.230287,-2442.679609,11103.089130
1158.810963,-5132.839837,-3330.926739,10362.883188
1158.811281,-4366.744339,-4515.256246,11029.068536
1158.811600,-4290.134789,-4515.256246,10881.027347
1158.811919,-2911.162892,-5921.647536,13175.665768
1158.812237,-2757.943793,-4811.338623,12509.480420
1158.812556,-536.266849,-3849.070898,11917.315666
1158.812875,536.266849,-2664.741391,10732.986159
1158.813194,2221.676944,-444.123565,10214.842000
1158.813512,3064.381992,814.226536,7846.182985
1158.813831,2834.553343,1776.494261,5329.482782
1158.814150,2911.162892,666.185348,5033.400406
1158.814468,2068.457845,-1480.411884,6291.750507
1158.814787,919.314598,-2960.823768,7624.121203
1158.815106,306.438199,-3997.112087,8734.430116
1158.815425,-306.438199,-4441.235652,10066.800811
1158.815743,-1149.143247,-4367.215058,10658.965565
1158.816062,-1838.629195,-4737.318029,11621.233289
1158.816381,-3064.381992,-3182.885551,11029.068536
1158.816699,-3064.381992,-2072.576638,9992.780217
1158.817018,-3217.601092,-740.205942,8734.430116
1158.817337,-3064.381992,-444.123565,7994.224174
1158.817656,-2911.162892,-888.247130,7550.100608
1158.817974,-2834.553343,-1850.514855,7698.141797
1158.818293,-2604.724693,-2812.782580,8438.347739
1158.818612,-2604.724693,-3182.885551,9252.574275
1158.818930,-1762.019645,-2220.617826,9400.615463
1158.819249,-306.438199,-888.247130,8660.409521
1158.819568,-306.438199,-0.000000,8438.347739
1158.819887,0.000000,444.123565,7994.224174
1158.820205,76.609550,1480.411884,6587.832884
1158.820524,919.314598,1036.288319,5625.565159
1158.820843,-689.485948,-592.164754,5773.606348
1158.821161,-2068.457845,-2220.617826,6291.750507
1158.821480,-3983.696590,-3775.050304,6439.791695
1158.821799,-4903.011187,-5181.441594,8660.409521
1158.822118,-5822.325785,-5625.565159,10066.800811
1158.822436,-5439.278036,-5403.503377,11695.253884
1158.822755,-5592.497135,-4515.256246,12509.480420
1158.823074,-4979.620737,-3034.844362,13619.789333
1158.823392,-3447.429741,-2294.638420,12879.583391
1158.823711,-1991.848295,-296.082377,11473.192101
1158.824030,-995.924147,148.041188,10362.883188
1158.824349,229.828649,962.267725,9104.533087
1158.824668,842.705048,814.226536,6365.771101
1158.824987,1378.971896,-222.061783,5995.668130
1158.825306,995.924147,-814.226536,6143.709319
1158.825624,0.000000,-1924.535449,5255.462188
1158.825943,-1072.533697,-3108.864956,5847.626942
1158.826262,-2451.505594,-5033.400406,8956.491898
1158.826581,-5056.230287,-6439.791695,10732.986159
1158.826900,-5745.716235,-7550.100608,13027.624579
1158.827219,-6435.202183,-7105.977043,16432.571912
1158.827538,-5975.544884,-6587.832884,16654.633695
1158.827857,-4979.620737,-5033.400406,15766.386565
1158.828175,-3370.820191,-2738.761985,15840.407159
1158.828494,-1378.971896,-592.164754,14211.954086
1158.828813,306.438199,1628.453072,9252.574275
1158.829132,2068.457845,3701.029710,6143.709319
1158.829451,4060.306139,4219.173869,4145.153275
1158.829770,4136.915689,2960.823768,814.226536
1158.830089,3983.696590,1184.329507,1406.391290
1158.830408,1915.238745,-1702.473667,3108.864956
1158.830726,0.000000,-3923.091493,4589.276840
1158.831045,-2221.676944,-7031.956449,8882.471304
1158.831364,-4826.401637,-6957.935855,12213.398043
1158.831683,-6894.859482,-7402.059420,14656.077652
1158.832002,-7201.297681,-4737.318029,16284.530724
1158.832321,-6818.249932,-2886.803174,17394.839637
1158.832640,-4596.572988,-222.061783,15322.262999
1158.832958,-3447.429741,3034.844362,13249.686362
1158.833277,-536.266849,5625.565159,9770.718434
1158.833596,1685.410096,6143.709319,5181.441594
1158.833915,3830.477490,5181.441594,2442.679609
1158.834234,5286.058936,2738.761985,592.164754
1158.834553,4673.182538,-74.020594,-814.226536
1158.834872,3677.258390,-3182.885551,370.102971
1158.835191,1302.362347,-5033.400406,3701.029710
1158.835509,-1072.533697,-5699.585753,6069.688724
1158.835828,-3907.087040,-5921.647536,9474.636058
1158.836147,-6818.249932,-5699.585753,14582.057057
1158.836466,-8197.221829,-4811.338623,16728.654289
1158.836785,-9039.926876,-2886.803174,18209.066173
1158.837104,-8197.221829,-370.102971,19541.436869
1158.837423,-5439.278036,-666.185348,17912.983796
1158.837742,-3140.991542,518.144159,14952.160028
1158.838060,229.828649,1850.514855,10881.027347
1158.838379,4213.525239,518.144159,7550.100608
1158.838698,5515.887586,222.061783,1776.494261
1158.839017,7431.126331,-1258.350101,-1110.308913
1158.839336,6818.249932,-1258.350101,-2590.720797
1158.839655,4979.620737,-1850.514855,-1406.391290
1158.839974,1225.752797,-3256.906145,1554.432478
1158.840292,-2221.676944,-4145.153275,7402.059420
1158.840611,-5898.935335,-6957.935855,13027.624579
1158.840930,-8963.317327,-6957.935855,18949.272115
1158.841249,-11491.432470,-6957.935855,21614.013506
1158.841568,-12180.918418,-4663.297435,23538.548956
1158.841887,-9806.022374,-4737.318029,23094.425390
1158.842206,-7048.078582,-148.041188,19097.313304
1158.842525,-3524.039291,1184.329507,13027.624579
1158.842843,-306.438199,1554.432478,7550.100608
1158.843162,2757.943793,1850.514855,2072.576638
1158.843481,4903.011187,1554.432478,-1332.370696
1158.843800,5898.935335,1332.370696,-2590.720797
1158.844119,4826.401637,-0.000000,-3775.050304
1158.844438,2528.115143,-2368.659014,-740.205942
1158.844757,153.219100,-4441.235652,5255.462188
1158.845075,-3140.991542,-4737.318029,10732.986159
1158.845394,-4290.134789,-5107.421000,15174.221811
1158.845713,-5745.716235,-3478.967927,19171.333898
1158.846032,-5975.544884,-2664.741391,23316.487173
1158.846351,-4749.792088,-2220.617826,20873.807564
1158.846670,-1915.238745,296.082377,15692.365970
1158.846989,1991.848295,3330.926739,12139.377449
1158.847308,5362.668486,3849.070898,7105.977043
1158.847626,9116.536426,5551.544565,0.000000
1158.847945,11414.822920,5107.421000,-2738.761985
1158.848264,12257.527968,4959.379811,-4367.215058
1158.848583,11721.261119,2072.576638,-4959.379811
1158.848902,9039.926876,222.061783,-2664.741391
1158.849221,6128.763984,-1110.308913,3330.926739
1158.849540,2528.115143,-2442.679609,7624.121203
1158.849859,0.000000,-3552.988522,14434.015869
1158.850177,-1762.019645,-2442.679609,19541.436869
1158.850496,-2757.943793,-0.000000,21836.075289
1158.850815,-3140.991542,1850.514855,20133.601622
1158.851134,-2451.505594,7846.182985,14359.995275
1158.851453,-229.828649,4959.379811,12879.583391
1158.851772,1685.410096,7624.121203,7328.038826
1158.852091,4136.915689,5625.565159,1998.556043
1158.852409,5669.106685,6513.812290,-2220.617826
1158.852728,5286.058936,1628.453072,-1184.329507
1158.853047,5209.449386,-370.102971,-370.102971
1158.853366,3677.258390,-962.267725,296.082377
1158.853685,153.219100,-2368.659014,4885.359217
1158.854004,-2451.505594,-2664.741391,11251.130318
1158.854323,-5286.058936,-2368.659014,15692.365970
1158.854642,-6971.469032,740.205942,18135.045579
1158.854960,-7814.174080,1554.432478,21539.992912
1158.855279,-8120.612279,4441.235652,21762.054695
1158.855598,-5439.278036,7105.977043,18505.148550
1158.855917,-4366.744339,5995.668130,15618.345376
1158.856236,-1378.971896,5255.462188,10881.027347
1158.856555,1225.752797,4441.235652,4959.379811
1158.856874,2757.943793,2368.659014,1110.308913
1158.857193,2834.553343,-222.061783,-222.061783
1158.857511,3064.381992,-2220.617826,962.267725
1158.857830,1608.800546,-4145.153275,2960.823768
1158.858149,-306.438199,-4959.379811,5995.668130
1158.858468,-1762.019645,-4293.194464,11843.295072
1158.858787,-3830.477490,-3627.009116,17912.983796
1158.859106,-4826.401637,-1702.473667,21391.951724
1158.859425,-6511.811733,-1406.391290,22502.260637
1158.859743,-4826.401637,-296.082377,24796.899057
1158.860062,-3140.991542,6291.750507,19763.498651
1158.860381,-229.828649,5403.503377,11991.336260
1158.860700,3600.648841,4589.276840,9474.636058
1158.861019,6205.373534,2738.761985,1702.473667
1158.861338,6435.202183,-1628.453072,-3256.906145
1158.861657,6435.202183,-5847.626942,-2368.659014
1158.861976,6358.592633,-6661.853478,518.144159
1158.862294,4596.572988,-7254.018232,1406.391290
1158.862613,2528.115143,-5625.565159,4959.379811
1158.862932,306.438199,-4219.173869,11473.192101
1158.863251,-1608.800546,-3849.070898,17098.757260
1158.863570,-2757.943793,-2886.803174,21465.972318
1158.863889,-1915.238745,-592.164754,21465.972318
1158.864208,-2757.943793,4219.173869,19097.313304
1158.864527,153.219100,4219.173869,17246.798449
1158.864845,3370.820191,4441.235652,11177.109724
1158.865164,7660.954980,8290.306550,4071.132681
1158.865483,10418.898773,4515.256246,-4219.173869
1158.865802,11184.994271,3108.864956,-7920.203579
1158.866121,10572.117872,-74.020594,-8586.388927
1158.866440,8810.098227,-3108.864956,-6661.853478
1158.866759,5362.668486,-6069.688724,-1850.514855
1158.867077,766.095498,-6809.894666,3627.009116
1158.867396,-4519.963438,-7994.224174,10658.965565
1158.867715,-6894.859482,-7179.997637,20429.683999
1158.868034,-7814.174080,-3701.029710,22872.363608
1158.868353,-8044.002729,222.061783,24500.816680
1158.868672,-6894.859482,5329.482782,20355.663405
1158.868991,-4826.401637,9474.636058,17172.777854
1158.869310,0.000000,8438.347739,10066.800811
1158.869628,3140.991542,9844.739029,1776.494261
1158.869947,7354.516781,6069.688724,-2220.617826
1158.870266,6052.154434,5181.441594,-7476.080014
1158.870585,7584.345430,-962.267725,-7179.997637
1158.870904,5132.839837,-3182.885551,-5255.462188
1158.871223,2145.067394,-5181.441594,-1184.329507
1158.871542,-2298.286494,-6513.812290,4737.318029
1158.871860,-5362.668486,-5403.503377,12065.356855
1158.872179,-8810.098227,-5107.421000,20503.704593
1158.872498,-10418.898773,-1480.411884,24426.796086
1158.872817,-10035.851024,2368.659014,27239.578666
1158.873136,-9116.536426,4219.173869,26425.352129
1158.873455,-5362.668486,5329.482782,22724.322419
1158.873774,-2681.334243,10807.006753,13027.624579
1158.874093,3294.210641,8290.306550,8734.430116
1158.874411,6358.592633,9622.677246,1258.350101
1158.874730,10725.336972,6217.729913,-5699.585753
1158.875049,10572.117872,4737.318029,-8438.347739
1158.875368,9039.926876,-0.000000,-5181.441594
1158.875687,5209.449386,-5921.647536,666.185348
1158.876006,1915.238745,-5255.462188,2812.782580
1158.876325,-1378.971896,-4367.215058,11251.130318
1158.876644,-4366.744339,-5255.462188,20725.766376
1158.876962,-8197.221829,-3849.070898,26943.496289
1158.877281,-8350.440928,-1998.556043,30792.567187
1158.877600,-9346.365076,1702.473667,28794.011144
1158.877919,-3140.991542,6439.791695,29682.258274
1158.878238,842.705048,14285.974681,15840.407159
1158.878557,7124.688131,13915.871710,8808.450710
1158.878876,10572.117872,8586.388927,1998.556043
1158.879194,12793.794817,11325.150913,-8290.306550
1158.879513,15015.471761,592.164754,-8734.430116
1158.879832,12027.699319,-370.102971,-8512.368333
1158.880151,10418.898773,-6661.853478,-1702.473667
1158.880470,5132.839837,-8438.347739,2072.576638
1158.880789,689.485948,-8068.244768,6439.791695
1158.881108,-5592.497135,-6735.874072,18135.045579
1158.881427,-7124.688131,-6513.812290,25315.043216
1158.881745,-9729.412825,-888.247130,25981.228564
1158.882064,-8963.317327,2442.679609,28349.887579
1158.882383,-8656.879127,7550.100608,24204.734303
1158.882702,-1762.019645,7031.956449,21539.992912
1158.883021,2987.772442,13915.871710,7179.997637
1158.883340,7277.907231,8364.327145,1406.391290
1158.883659,10495.508323,6587.832884,-7105.977043
1158.883978,11261.603821,3701.029710,-13693.809927
1158.884296,9806.022374,-2664.741391,-12139.377449
1158.884615,6281.983084,-7994.224174,-5329.482782
1158.884934,1378.971896,-7105.977043,-222.061783
1158.885253,-2757.943793,-8956.491898,4663.297435
1158.885572,-6894.859482,-9104.533087,14137.933492
1158.885891,-9269.755526,-7328.038826,24796.899057
1158.886210,-11721.261119,-3034.844362,25611.125593
1158.886528,-12717.185267,2590.720797,23760.610738
1158.886847,-9193.145976,6587.832884,22502.260637
1158.887166,-7354.516781,11917.315666,19319.375086
1158.887485,-766.095498,6439.791695,12213.398043
1158.887804,4290.134789,6365.771101,1924.535449
1158.888123,7584.345430,8512.368333,-4959.379811
1158.888442,10035.851024,-296.082377,-8216.285956
1158.888761,9116.536426,-3404.947333,-7550.100608
1158.889079,7737.564530,-6809.894666,-6735.874072
1158.889398,3370.820191,-8808.450710,-2516.700203
1158.889717,1225.752797,-7179.997637,3923.091493
1158.890036,-2987.772442,-6661.853478,12509.480420
1158.890355,-5669.106685,-8068.244768,21317.931130
1158.890674,-9729.412825,-5033.400406,24426.796086
1158.890993,-9576.193725,518.144159,27979.784608
1158.891311,-8810.098227,5847.626942,24278.754898
1158.891630,-3140.991542,7772.162391,21836.075289
1158.891949,842.705048,7105.977043,16432.571912
1158.892268,8810.098227,7254.018232,7994.224174
1158.892587,12793.794817,6957.935855,-5921.647536
1158.892906,14402.595362,2072.576638,-6365.771101
1158.893225,12563.966167,-3552.988522,-8586.388927
1158.893544,11108.384721,-7994.224174,-6143.709319
1158.893862,7814.174080,-9918.759623,-1184.329507
1158.894181,2451.505594,-7254.018232,5551.544565
1158.894500,76.609550,-7476.080014,13693.809927
1158.894819,-4213.525239,-6587.832884,21095.869347
1158.895138,-5669.106685,-1850.514855,28719.990550
1158.895457,-8503.660028,2368.659014,29460.196492
1158.895776,-8350.440928,10436.903782,23390.507767
1158.896095,-5209.449386,8290.306550,26277.310941
1158.896413,2757.943793,14730.098246,16506.592507
1158.896732,5822.325785,7328.038826,5255.462188
1158.897051,11031.775171,7179.997637,-3478.967927
1158.897370,11644.651570,5329.482782,-7846.182985
1158.897689,12334.137518,-1702.473667,-8734.430116
1158.898008,7201.297681,-4737.318029,-7476.080014
1158.898327,4213.525239,-8290.306550,-296.082377
1158.898645,1225.752797,-4663.297435,3034.844362
1158.898964,-4136.915689,-4589.276840,10214.842000
1158.899283,-7967.393179,-8808.450710,23316.487173
1158.899602,-10418.898773,-1628.453072,28645.969955
1158.899921,-11874.480219,3627.009116,29238.134709
1158.900240,-10955.165621,7179.997637,25611.125593
1158.900559,-8197.221829,14434.015869,22354.219448
1158.900878,-3907.087040,13989.892304,14582.057057
1158.901196,2528.115143,12657.521608,5551.544565
1158.901515,5745.716235,9844.739029,-3108.864956
1158.901834,9193.145976,5921.647536,-9326.594869
1158.902153,8427.050478,888.247130,-10140.821405
1158.902472,5362.668486,-6217.729913,-5625.565159
1158.902791,1685.410096,-9844.739029,0.000000
1158.903110,-1225.752797,-8956.491898,2294.638420
1158.903429,-6588.421283,-8586.388927,9992.780217
1158.903747,-7277.907231,-10510.924376,23094.425390
1158.904066,-11644.651570,-5551.544565,25537.104999
1158.904385,-10801.946522,518.144159,29386.175897
1158.904704,-11414.822920,7328.038826,24722.878463
1158.905023,-7124.688131,10584.944971,25389.063811
1158.905342,-229.828649,14434.015869,14878.139434
1158.905661,4366.744339,11325.150913,7402.059420
1158.905979,11184.994271,8956.491898,444.123565
1158.906298,13330.061665,6809.894666,-10732.986159
1158.906617,13406.671215,-2738.761985,-12065.356855
1158.906936,11108.384721,-8216.285956,-6957.935855
1158.907255,7048.078582,-12583.501014,666.185348
1158.907574,4596.572988,-9474.636058,222.061783
1158.907893,-536.266849,-10658.965565,4367.215058
1158.908212,-3830.477490,-10510.924376,20947.828159
1158.908530,-8044.002729,-9474.636058,27239.578666
1158.908849,-10265.679673,-1110.308913,29904.320057
1158.909168,-9422.974625,2220.617826,30422.464216
1158.909487,-6358.592633,11917.315666,29460.196492
1158.909806,-1072.533697,10658.965565,20059.581028
1158.910125,6128.763984,12361.439231,8734.430116
1158.910444,12717.185267,11251.130318,-1776.494261
1158.910763,15704.957709,9030.512492,-12213.398043
1158.911081,16241.224558,1332.370696,-15248.242405
1158.911400,13330.061665,-8364.327145,-10140.821405
1158.911719,6205.373534,-13471.748144,-5033.400406
1158.912038,2145.067394,-11991.336260,-1110.308913
1158.912357,-2528.115143,-13915.871710,2516.700203
1158.912676,-6818.249932,-15618.345376,15988.448347
1158.912995,-11874.480219,-11843.295072,25537.104999
1158.913313,-13942.938064,-6883.915261,30422.464216
1158.913632,-14785.643111,2072.576638,27683.702231
1158.913951,-10648.727422,9474.636058,30644.525999
1158.914270,-5439.278036,13619.789333,24056.693115
1158.914589,5132.839837,13027.624579,9918.759623
1158.914908,6435.202183,16580.613101,-666.185348
1158.915227,11108.384721,8364.327145,-7846.182985
1158.915546,13253.452115,3478.967927,-16136.489536
1158.915864,14249.376263,-0.000000,-15248.242405
1158.916183,7814.174080,-7476.080014,-6439.791695
1158.916502,3064.381992,-9696.697840,-6661.853478
1158.916821,-2528.115143,-5625.565159,-2146.597232
1158.917140,-5898.935335,-13693.809927,10214.842000
1158.917459,-10418.898773,-14582.057057,20725.766376
1158.917778,-15398.519510,-7698.141797,28127.825796
1158.918096,-14709.033562,-3182.885551,31236.690752
1158.918415,-15168.690860,10436.903782,27165.558071
1158.918734,-9193.145976,8660.409521,31236.690752
1158.919053,-2834.553343,13767.830521,18653.189738
1158.919372,4519.963438,14211.954086,7698.141797
1158.919691,10725.336972,14063.912898,-5255.462188
1158.920010,11644.651570,10807.006753,-13101.645173
1158.920329,14249.376263,3034.844362,-14211.954086
1158.920647,13406.671215,-3923.091493,-8290.306550
1158.920966,7124.688131,-9474.636058,-4071.132681
1158.921285,1532.190996,-8364.327145,444.123565
1158.921604,-1378.971896,-9770.718434,8216.285956
1158.921923,-5439.278036,-11843.295072,18209.066173
1158.922242,-7124.688131,-7698.141797,29238.134709
1158.922565,-11491.432470,-2442.679609,31902.876100
1158.922884,-13023.623466,3627.009116,30792.567187
1158.923203,-7431.126331,10955.047942,28275.866984
1158.923522,-842.705048,14434.015869,26129.269753
1158.923840,3830.477490,13841.851115,16580.613101
1158.924159,13866.328514,13323.706956,4219.173869
1158.924478,16317.834107,11103.089130,-11029.068536
1158.924797,16241.224558,2812.782580,-12435.459826
1158.925115,16011.395908,-5921.647536,-7328.038826
1158.925434,12104.308868,-10214.842000,-9104.533087
1158.925753,4519.963438,-7698.141797,-4293.194464
1158.926072,995.924147,-12953.603985,6143.709319
1158.926390,-5669.106685,-14730.098246,18357.107362
1158.926709,-7048.078582,-10288.862594,30200.402434
1158.927028,-12793.794817,-7624.121203,31310.711347
1158.927347,-14325.985813,1924.535449,33679.370361
1158.927666,-11797.870669,10658.965565,28645.969955
1158.927984,-5515.887586,13249.686362,28423.908173
1158.928303,1225.752797,13397.727550,15618.345376
1158.928622,6358.592633,11251.130318,4145.153275
1158.928941,12027.699319,9252.574275,-5033.400406
1158.929259,11491.432470,3478.967927,-15396.283594
1158.929578,13023.623466,-4663.297435,-11991.336260
1158.929897,8273.831378,-9326.594869,-7179.997637
1158.930216,3983.696590,-10955.047942,-4811.338623
1158.930534,-2298.286494,-8882.471304,-3404.947333
1158.930853,-5362.668486,-12065.356855,11991.336260
1158.931172,-9652.803275,-12139.377449,24352.775492
1158.931491,-14402.595362,-5033.400406,26351.331535
1158.931810,-16011.395908,1480.411884,27683.702231
1158.932128,-14019.547613,7328.038826,26277.310941
1158.932447,-9269.755526,13175.665768,25463.084405
1158.932766,-3524.039291,12953.603985,14656.077652
1158.933085,2834.553343,11399.171507,7920.203579
1158.933403,10189.070123,11991.336260,-4663.297435
1158.933722,12104.308868,7328.038826,-14211.954086
1158.934041,13789.718964,1628.453072,-14359.995275
1158.934360,10648.727422,-7920.203579,-8586.388927
1158.934678,5822.325785,-11621.233289,-6513.812290
1158.934997,612.876398,-9030.512492,-4959.379811
1158.935316,-3907.087040,-10140.821405,5699.585753
1158.935635,-6052.154434,-15692.365970,19023.292709
1158.935954,-10265.679673,-9474.636058,27387.619854
1158.936272,-12410.747068,-4515.256246,31606.793723
1158.936591,-14096.157163,5551.544565,28868.031738
1158.936910,-7584.345430,12435.459826,26499.372724
1158.937229,1378.971896,12953.603985,21095.869347
1158.937547,6205.373534,15322.262999,10140.821405
1158.937866,12410.747068,11399.171507,-1110.308913
1158.938185,14555.814462,10362.883188,-12583.501014
1158.938504,16164.615008,222.061783,-12139.377449
1158.938822,14555.814462,-8882.471304,-8216.285956
1158.939141,10572.117872,-10510.924376,-2072.576638
1158.939460,5669.106685,-9770.718434,-2146.597232
1158.939779,1302.362347,-7772.162391,1554.432478
1158.940098,-3370.820191,-11991.336260,15100.201217
1158.940416,-7507.735880,-9622.677246,28571.949361
1158.940735,-11108.384721,-3923.091493,31236.690752
1158.941054,-13789.718964,2220.617826,31606.793723
1158.941373,-10342.289223,12065.356855,29978.340651
1158.941691,-1608.800546,16284.530724,25389.063811
1158.942010,4136.915689,16062.468941,16062.468941
1158.942329,9806.022374,14285.974681,4737.318029
1158.942648,13100.233016,11251.130318,-7402.059420
1158.942966,15168.690860,7105.977043,-12509.480420
1158.943285,13100.233016,-4145.153275,-8068.244768
1158.943604,9959.241474,-7698.141797,-5255.462188
1158.943923,3600.648841,-9030.512492,-4737.318029
1158.944242,-1225.752797,-6365.771101,-2368.659014
1158.944560,-5975.544884,-13693.809927,12287.418637
1158.944879,-7584.345430,-13027.624579,23834.631332
1158.945198,-14709.033562,-7105.977043,30422.464216
1158.945517,-15628.348159,-592.164754,34345.555709
1158.945835,-17466.977354,9252.574275,31828.855506
1158.946154,-9576.193725,13841.851115,32717.102636
1158.946473,-1685.410096,11991.336260,21021.848753
1158.946792,2604.724693,15174.221811,6513.812290
1158.947110,10265.679673,11991.336260,-1702.473667
1158.947429,10801.946522,7994.224174,-13693.809927
1158.947748,13559.890315,-0.000000,-11843.295072
1158.948067,13406.671215,-7476.080014,-7402.059420
1158.948386,6971.469032,-10362.883188,-5995.668130
1158.948704,1302.362347,-7550.100608,-3182.885551
1158.949023,-1608.800546,-7402.059420,2812.782580
1158.949342,-7048.078582,-9992.780217,15396.283594
1158.949661,-9193.145976,-8364.327145,27535.661042
1158.949979,-13559.890315,-4219.173869,31680.814318
1158.950298,-15704.957709,1332.370696,30200.402434
1158.950617,-11721.261119,7105.977043,29608.237680
1158.950936,-3140.991542,11695.253884,22650.301825
1158.951254,3753.867940,13175.665768,14137.933492
1158.951573,9193.145976,11695.253884,1258.350101
1158.951892,13406.671215,12879.583391,-11029.068536
1158.952211,16088.005458,10658.965565,-15248.242405
1158.952530,16394.443657,-2664.741391,-11769.274478
1158.952848,14096.157163,-8956.491898,-6291.750507
1158.953167,7048.078582,-8142.265362,-6439.791695
1158.953486,2451.505594,-9474.636058,-3627.009116
1158.953805,-2221.676944,-14730.098246,10658.965565
1158.954123,-5286.058936,-14434.015869,23612.569550
1158.954442,-11108.384721,-10732.986159,29238.134709
1158.954761,-13559.890315,-2812.782580,30200.402434
1158.955080,-13866.328514,4737.318029,26647.413912
1158.955398,-6205.373534,11917.315666,29904.320057
1158.955717,459.657299,12213.398043,17764.942608
1158.956036,6588.421283,14063.912898,7179.997637
1158.956355,11031.775171,10066.800811,-4219.173869
1158.956674,15015.471761,7846.182985,-14730.098246
1158.956992,15858.176809,888.247130,-11621.233289
1158.957311,14402.595362,-7994.224174,-8586.388927
1158.957630,8733.488677,-9474.636058,-7402.059420
1158.957949,2757.943793,-9548.656652,-5773.606348
1158.958267,-2145.067394,-10214.842000,2146.597232
1158.958586,-4903.011187,-12287.418637,17616.901420
1158.958905,-10495.508323,-9104.533087,26055.249158
1158.959224,-14325.985813,-7031.956449,30422.464216
1158.959542,-16241.224558,2590.720797,27905.764013
1158.959861,-14632.424012,8586.388927,27535.661042
1158.960180,-7354.516781,5551.544565,28349.887579
1158.960499,-383.047749,10362.883188,15174.221811
1158.960818,5056.230287,18283.086767,2294.638420
1158.961136,9269.755526,8808.450710,-6587.832884
1158.961455,14096.157163,9992.780217,-11251.130318
1158.961774,16854.100956,-2220.617826,-7994.224174
1158.962093,10495.508323,-5255.462188,-9918.759623
1158.962411,5745.716235,-8512.368333,-8660.409521
1158.962730,459.657299,-6661.853478,-740.205942
1158.963049,-3524.039291,-12583.501014,10214.842000
1158.963368,-7124.688131,-9770.718434,20429.683999
1158.963686,-12410.747068,-5107.421000,30496.484810
1158.964005,-15398.519510,-1776.494261,30422.464216
1158.964324,-16164.615008,7179.997637,30052.361245
1158.964643,-9882.631924,8956.491898,27535.661042
1158.964962,-3140.991542,12065.356855,21243.910535
1158.965280,1378.971896,9474.636058,15692.365970
1158.965599,10801.946522,18801.230927,-296.082377
1158.965918,12487.356617,8512.368333,-8734.430116
1158.966237,15858.176809,3034.844362,-10658.965565
1158.966555,16930.710506,-2294.638420,-7772.162391
1158.966874,11261.603821,-7179.997637,-10807.006753
1158.967193,5439.278036,-8734.430116,-6809.894666
1158.967512,2374.896044,-9770.718434,2960.823768
1158.967830,-1532.190996,-10881.027347,16506.592507
1158.968149,-6588.421283,-10140.821405,25981.228564
1158.968468,-11874.480219,-3923.091493,32865.143825
1158.968787,-11721.261119,1702.473667,29904.320057
1158.969106,-12870.404366,6883.915261,32050.917289
1158.969424,-3830.477490,10436.903782,25537.104999
1158.969743,2451.505594,13989.892304,15988.448347
1158.970062,8273.831378,15914.427753,2072.576638
1158.970381,12257.527968,12139.377449,-4737.318029
1158.970699,13789.718964,4219.173869,-9918.759623
1158.971018,17237.148705,-3108.864956,-8956.491898
1158.971337,13023.623466,-9844.739029,-5181.441594
1158.971656,7124.688131,-5773.606348,-7698.141797
1158.971974,2834.553343,-10214.842000,-4145.153275
1158.972293,-1302.362347,-9918.759623,9252.574275
1158.972612,-4596.572988,-11991.336260,22650.301825
1158.972931,-10878.556072,-5773.606348,28423.908173
1158.973250,-13789.718964,-592.164754,29164.114115
1158.973568,-15092.081311,6587.832884,27313.599260
1158.973887,-10189.070123,11103.089130,27387.619854
1158.974206,-3907.087040,11177.109724,21465.972318
1158.974525,1302.362347,13397.727550,11473.192101
1158.974843,8197.221829,12213.398043,-1332.370696
1158.975162,9652.803275,5625.565159,-9104.533087
1158.975481,12793.794817,1998.556043,-11325.150913
1158.975800,12027.699319,-6143.709319,-7772.162391
1158.976118,7354.516781,-10214.842000,-8364.327145
1158.976437,2298.286494,-10510.924376,-8882.471304
1158.976756,-1762.019645,-9992.780217,-74.020594
1158.977075,-6435.202183,-10436.903782,14137.933492
1158.977394,-9652.803275,-11695.253884,26129.269753
1158.977712,-14709.033562,-5847.626942,28794.011144
1158.978031,-17620.196454,1110.308913,29460.196492
1158.978350,-16011.395908,8808.450710,27683.702231
1158.978669,-8120.612279,9992.780217,25463.084405
1158.978987,-2451.505594,15618.345376,18357.107362
1158.979306,6358.592633,12731.542202,7031.956449
1158.979625,11721.261119,13545.768739,-4219.173869
1158.979944,13713.109414,4441.235652,-6883.915261
1158.980262,15704.957709,-1628.453072,-7402.059420
1158.980581,17390.367805,-5921.647536,-8956.491898
1158.980900,9116.536426,-6143.709319,-10066.800811
1158.981219,6205.373534,-7994.224174,-5995.668130
1158.981538,842.705048,-9326.594869,3849.070898
1158.981856,-1762.019645,-13841.851115,20133.601622
1158.982175,-8350.440928,-10288.862594,27165.558071
1158.982494,-14709.033562,-5255.462188,30570.505405
1158.982813,-15475.129060,-1480.411884,32865.143825
1158.983131,-11491.432470,8882.471304,30718.546593
1158.983450,-3217.601092,7254.018232,25389.063811
1158.983769,3294.210641,15618.345376,12953.603985
1158.984088,9576.193725,15174.221811,2960.823768
1158.984406,13023.623466,13915.871710,-9252.574275
1158.984725,16777.491406,2886.803174,-13101.645173
1158.985044,16011.395908,-148.041188,-8660.409521
1158.985363,12257.527968,-7476.080014,-7994.224174
1158.985682,6358.592633,-7402.059420,-9844.739029
1158.986000,2834.553343,-9548.656652,-4071.132681
1158.986319,-4060.306139,-10362.883188,11251.130318
1158.986638,-7737.564530,-14211.954086,24352.775492
1158.986957,-13559.890315,-11991.336260,30496.484810
1158.987275,-16854.100956,-3404.947333,33457.308578
1158.987594,-18233.072852,3627.009116,31236.690752
1158.987913,-10648.727422,8808.450710,29164.114115
1158.988232,-1302.362347,14434.015869,20725.766376
1158.988550,3294.210641,19097.313304,8290.306550
1158.988869,9806.022374,10436.903782,-2812.782580
1158.989188,14019.547613,14804.118840,-13767.830521
1158.989507,17160.539155,3923.091493,-11473.192101
1158.989826,13942.938064,-2220.617826,-9696.697840
1158.990144,9269.755526,-7624.121203,-7698.141797
1158.990463,3907.087040,-9400.615463,-5699.585753
1158.990782,459.657299,-14508.036463,-2294.638420
1158.991101,-6818.249932,-10807.006753,15618.345376
1158.991419,-10495.508323,-15692.365970,27461.640448
1158.991738,-17466.977354,-7105.977043,33161.226202
1158.992057,-17007.320056,-2146.597232,30718.546593
1158.992376,-17696.806004,6661.853478,32939.164419
1158.992694,-5439.278036,10214.842000,32272.979071
1158.993013,-2451.505594,16506.592507,13027.624579
1158.993332,5515.887586,15766.386565,4737.318029
1158.993651,9346.365076,16284.530724,-6291.750507
1158.993970,14019.547613,10436.903782,-12287.418637
1158.994288,15781.567259,-222.061783,-10658.965565
1158.994607,15321.909960,-4071.132681,-3997.112087
1158.994926,8886.707777,-9474.636058,-8660.409521
1158.995245,5362.668486,-10214.842000,-6883.915261
1158.995563,2604.724693,-8734.430116,4811.338623
1158.995882,-3140.991542,-14211.954086,21614.013506
1158.996201,-8810.098227,-11177.109724,28719.990550
1158.996520,-15858.176809,-5107.421000,31088.649564
1158.996838,-16700.881856,1184.329507,33161.226202
1158.997157,-11568.042020,9030.512492,31680.814318
1158.997476,-3447.429741,13545.768739,27091.537477
1158.997795,2987.772442,13323.706956,15322.262999
1158.998114,9193.145976,20429.683999,1998.556043
1158.998432,14172.766713,16284.530724,-5181.441594
1158.998751,17083.929605,3997.112087,-11917.315666
1158.999070,18462.901502,-3478.967927,-8956.491898
1158.999389,14096.157163,-7105.977043,-10584.944971
1158.999707,8810.098227,-8216.285956,-8586.388927
1159.000026,2911.162892,-12213.398043,-3330.926739
1159.000345,-2451.505594,-16284.530724,12065.356855
1159.000664,-7354.516781,-17542.880825,23908.651927
1159.000982,-15015.471761,-12213.398043,28571.949361
1159.001301,-17160.539155,-5033.400406,34049.473332
1159.001620,-16777.491406,4737.318029,30496.484810
1159.001939,-9193.145976,12731.542202,26647.413912
1159.002258,-1915.238745,11917.315666,20651.745782
1159.002576,2298.286494,18283.086767,11103.089130
1159.002895,9422.974625,7994.224174,-2664.741391
1159.003214,12027.699319,13175.665768,-13175.665768
1159.003533,16700.881856,1702.473667,-12139.377449
1159.003851,14172.766713,-8438.347739,-8216.285956
1159.004170,11184.994271,-8956.491898,-9474.636058
1159.004489,4213.525239,-12509.480420,-7328.038826
1159.004808,689.485948,-11769.274478,-1850.514855
1159.005126,-6052.154434,-11325.150913,10510.924376
1159.005445,-8886.707777,-11547.212695,26573.393318
1159.005764,-15704.957709,-7624.121203,28423.908173
1159.006083,-18769.339701,2146.597232,30200.402434
1159.006402,-16777.491406,5773.606348,28423.908173
1159.006720,-9346.365076,8808.450710,29312.155303
1159.007039,-2451.505594,9400.615463,16802.674883
1159.007358,1838.629195,16432.571912,4811.338623
1159.007677,8810.098227,14804.118840,-6291.750507
1159.007995,13713.109414,9770.718434,-12065.356855
1159.008314,16930.710506,-518.144159,-9104.533087
1159.008633,14479.204912,-7328.038826,-7994.224174
1159.008952,9959.241474,-9474.636058,-6735.874072
1159.009270,3983.696590,-9696.697840,-5699.585753
1159.009589,229.828649,-10288.862594,2886.803174
1159.009908,-4596.572988,-15174.221811,21021.848753
1159.010227,-7124.688131,-8438.347739,31384.731941
1159.010546,-15015.471761,-3256.906145,29534.217086
1159.010864,-15628.348159,2960.823768,30792.567187
1159.011183,-12410.747068,12361.439231,30052.361245
1159.011502,-2911.162892,11843.295072,26055.249158
1159.011821,536.266849,16284.530724,12731.542202
1159.012139,6741.640382,14137.933492,6439.791695
1159.012458,11644.651570,8512.368333,-1628.453072
1159.012777,17083.929605,9992.780217,-11621.233289
1159.013096,19995.092498,-5329.482782,-6661.853478
1159.013414,14632.424012,-9622.677246,-5625.565159
1159.013733,9806.022374,-7328.038826,-7994.224174
1159.014052,4136.915689,-6513.812290,-3034.844362
1159.014371,-689.485948,-11843.295072,5551.544565
1159.014690,-5669.106685,-10658.965565,24352.775492
1159.015008,-11874.480219,-9770.718434,29608.237680
1159.015327,-16164.615008,-3552.988522,30792.567187
1159.015646,-17466.977354,4737.318029,27979.784608
1159.015965,-11031.775171,9178.553681,29608.237680
1159.016283,-5592.497135,7624.121203,25389.063811
1159.016602,3907.087040,11917.315666,9918.759623
1159.016921,8886.707777,15840.407159,-3478.967927
1159.017240,12104.308868,14211.954086,-6365.771101
1159.017558,15398.519510,2886.803174,-8290.306550
1159.017877,16164.615008,-2442.679609,-9696.697840
1159.018196,11031.775171,-6883.915261,-10732.986159
1159.018515,5056.230287,-11029.068536,-6513.812290
1159.018834,0.000000,-7846.182985,-1702.473667
1159.019152,-5056.230287,-14063.912898,11991.336260
1159.019471,-11031.775171,-15248.242405,30422.464216
1159.019790,-15015.471761,-2886.803174,30644.525999
1159.020109,-18692.730151,296.082377,31236.690752
1159.020427,-16317.834107,5403.503377,29682.258274
1159.020746,-6205.373534,13767.830521,25167.002028
1159.021065,306.438199,12953.603985,16136.489536
1159.021384,3524.039291,14285.974681,3849.070898
1159.021702,7890.783629,10140.821405,-1924.535449
1159.022021,12947.013916,6513.812290,-11917.315666
1159.022340,14938.862211,-2072.576638,-9178.553681
1159.022659,14709.033562,-5107.421000,-9400.615463
1159.022978,9959.241474,-7179.997637,-13101.645173
1159.023296,5362.668486,-9326.594869,-10807.006753
1159.023615,-306.438199,-9400.615463,2220.617826
1159.023934,-5515.887586,-13767.830521,17024.736666
1159.024253,-10418.898773,-14582.057057,28645.969955
1159.024572,-16624.272307,-4885.359217,32939.164419
1159.024890,-18386.291952,370.102971,33161.226202
1159.025209,-14172.766713,8068.244768,30792.567187
1159.025528,-4673.182538,12509.480420,23686.590144
1159.025847,2221.676944,13249.686362,11695.253884
1159.026166,8044.002729,17764.942608,1036.288319
1159.026485,12410.747068,11917.315666,-9474.636058
1159.026804,18616.120601,6439.791695,-11029.068536
1159.027123,18386.291952,-4145.153275,-8290.306550
1159.027442,16394.443657,-7550.100608,-6365.771101
1159.027761,11108.384721,-9326.594869,-9622.677246
1159.028080,5515.887586,-8882.471304,-8142.265362
1159.028399,1302.362347,-11103.089130,6217.729913
1159.028718,-4903.011187,-13175.665768,21317.931130
1159.029037,-9193.145976,-11325.150913,29534.217086
1159.029356,-17313.758255,-4663.297435,30644.525999
1159.029675,-18386.291952,1924.535449,33087.205607
1159.029994,-13559.890315,7920.203579,33457.308578
1159.030313,-1225.752797,12879.583391,25463.084405
1159.030631,1608.800546,15100.201217,8290.306550
1159.030950,6971.469032,16136.489536,2590.720797
1159.031269,10572.117872,9030.512492,-6883.915261
1159.031588,14709.033562,6069.688724,-12065.356855
1159.031907,15858.176809,-4367.215058,-7031.956449
1159.032226,11797.870669,-7698.141797,-7698.141797
1159.032545,6128.763984,-9178.553681,-7402.059420
1159.032864,0.000000,-8364.327145,-2664.741391
1159.033183,-3064.381992,-10955.047942,9474.636058
1159.033502,-6511.811733,-12509.480420,26499.372724
1159.033821,-12870.404366,-10510.924376,29016.072926
1159.034140,-17160.539155,-1998.556043,29682.258274
1159.034459,-18309.682402,4663.297435,31606.793723
1159.034778,-11491.432470,9696.697840,28868.031738
1159.035097,-4596.572988,8956.491898,20429.683999
1159.035416,2374.896044,15766.386565,7994.224174
1159.035735,7354.516781,14582.057057,148.041188
1159.036053,11491.432470,12509.480420,-9400.615463
1159.036372,15551.738609,5551.544565,-8808.450710
1159.036691,16317.834107,-3775.050304,-8068.244768
1159.037010,9729.412825,-7179.997637,-6587.832884
1159.037329,5898.935335,-7624.121203,-7105.977043
1159.037648,76.609550,-8660.409521,-2072.576638
1159.037967,-2528.115143,-11399.171507,14359.995275
1159.038286,-7967.393179,-11769.274478,25241.022622
1159.038605,-12563.966167,-7846.182985,31014.628970
1159.038924,-16317.834107,-1628.453072,32865.143825
1159.039243,-16241.224558,8512.368333,29386.175897
1159.039562,-8273.831378,10066.800811,24204.734303
1159.039881,1455.581446,13619.789333,19837.519246
1159.040200,5975.544884,18949.272115,7550.100608
1159.040519,8503.660028,9770.718434,-4737.318029
1159.040838,14402.595362,11991.336260,-13693.809927
1159.041157,18539.511052,2590.720797,-9770.718434
1159.041476,16624.272307,-7920.203579,-7328.038826
1159.041794,10418.898773,-11251.130318,-8068.244768
1159.042113,5439.278036,-10288.862594,-2072.576638
1159.042432,2987.772442,-9474.636058,4219.173869
1159.042751,-1225.752797,-10436.903782,15322.262999
1159.043070,-6358.592633,-8068.244768,29312.155303
1159.043389,-12334.137518,-4737.318029,28942.052332
1159.043708,-14632.424012,3404.947333,26203.290347
1159.044027,-12487.356617,9474.636058,22354.219448
1159.044346,-5592.497135,11917.315666,21910.095883
1159.044665,-383.047749,6809.894666,14582.057057
1159.044984,7660.954980,13915.871710,3775.050304
1159.045303,12027.699319,13397.727550,-5107.421000
1159.045622,15321.909960,6365.771101,-12731.542202
1159.045941,15781.567259,-2738.761985,-9178.553681
1159.046260,13713.109414,-7328.038826,-6143.709319
1159.046579,9039.926876,-6735.874072,-9104.533087
1159.046898,2298.286494,-9252.574275,-1406.391290
1159.047216,-2911.162892,-11473.192101,5921.647536
1159.047535,-7814.174080,-13101.645173,21688.034101
1159.047854,-10112.460574,-10436.903782,31754.834912
1159.048173,-16317.834107,-3478.967927,29978.340651
1159.048492,-18156.463303,4811.338623,29016.072926
1159.048811,-14249.376263,8290.306550,24500.816680
1159.049130,-5898.935335,12065.356855,24352.775492
1159.049449,-153.219100,15026.180623,10658.965565
1159.049768,4826.401637,14211.954086,2590.720797
1159.050087,8273.831378,9030.512492,-6439.791695
1159.050406,12793.794817,5329.482782,-10362.883188
1159.050725,15092.081311,-4145.153275,-5551.544565
1159.051044,10955.165621,-9252.574275,-4811.338623
1159.051363,4979.620737,-11029.068536,-6069.688724
1159.051682,1685.410096,-9844.739029,-1406.391290
1159.052001,-1532.190996,-7254.018232,8734.430116
1159.052320,-7584.345430,-10807.006753,23094.425390
1159.052639,-12410.747068,-8512.368333,27905.764013
1159.052957,-15704.957709,-1036.288319,31088.649564
1159.053276,-16394.443657,6957.935855,29312.155303
1159.053595,-9269.755526,12805.562797,23686.590144
1159.053914,-3447.429741,10140.821405,20133.601622
1159.054233,4826.401637,12139.377449,13545.768739
1159.054552,10418.898773,13249.686362,1702.473667
1159.054871,11874.480219,10584.944971,-11325.150913
1159.055190,17466.977354,4219.173869,-14063.912898
1159.055509,16317.834107,-2146.597232,-8142.265362
1159.055828,12717.185267,-9844.739029,-4441.235652
1159.056147,6741.640382,-10955.047942,-4589.276840
1159.056466,2145.067394,-6957.935855,0.000000
1159.056785,-919.314598,-10807.006753,14952.160028
1159.057104,-5898.935335,-10732.986159,28053.805202
1159.057423,-11951.089769,-7254.018232,30570.505405
1159.057742,-15321.909960,1850.514855,29756.278868
1159.058061,-15092.081311,9770.718434,23908.651927
1159.058379,-7124.688131,7920.203579,22650.301825
1159.058698,1072.533697,13841.851115,14285.974681
1159.059017,3907.087040,10436.903782,4515.256246
1159.059336,10035.851024,9844.739029,740.205942
1159.059655,12870.404366,5477.523971,-8290.306550
1159.059974,15934.786358,-74.020594,-9326.594869
1159.060293,13789.718964,-7105.977043,-5625.565159
1159.060612,9729.412825,-7772.162391,-4737.318029
1159.060931,4749.792088,-7105.977043,-5995.668130
1159.061250,0.000000,-4885.359217,-444.123565
1159.061569,-2911.162892,-7994.224174,19023.292709
1159.061888,-9576.193725,-8142.265362,24944.940245
1159.062207,-13406.671215,-4663.297435,29312.155303
1159.062526,-18079.853753,2590.720797,27535.661042
1159.062845,-13866.328514,8956.491898,26647.413912
1159.063164,-8120.612279,8956.491898,22576.281231
1159.063483,229.828649,9844.739029,12361.439231
1159.063802,4060.306139,9474.636058,5181.441594
1159.064120,10112.460574,11843.295072,-4441.235652
1159.064439,12870.404366,5699.585753,-11251.130318
1159.064758,14019.547613,-1406.391290,-10436.903782
1159.065077,12334.137518,-6217.729913,-5921.647536
1159.065396,5439.278036,-7624.121203,-5033.400406
1159.065715,3600.648841,-10140.821405,-1702.473667
1159.066034,-1762.019645,-9252.574275,4737.318029
1159.066353,-7048.078582,-8512.368333,19615.457463
1159.066672,-9806.022374,-9770.718434,32050.917289
1159.066991,-15092.081311,-3108.864956,30274.423028
1159.067310,-16777.491406,3923.091493,26425.352129
1159.067629,-11491.432470,8142.265362,26425.352129
1159.067948,-5592.497135,12805.562797,24574.837274
1159.068267,4136.915689,5033.400406,12805.562797
1159.068586,7890.783629,16580.613101,518.144159
1159.068905,11721.261119,7031.956449,-5107.421000
1159.069224,14709.033562,2664.741391,-8068.244768
1159.069542,14785.643111,-2664.741391,-10288.862594
1159.069861,13483.280765,-7031.956449,-6587.832884
1159.070180,7277.907231,-8660.409521,-7624.121203
1159.070499,3294.210641,-8290.306550,592.164754
1159.070818,-1378.971896,-9696.697840,11029.068536
1159.071137,-5439.278036,-11029.068536,25685.146187
1159.071456,-11644.651570,-9030.512492,31088.649564
1159.071775,-14555.814462,-4071.132681,31754.834912
1159.072094,-14632.424012,3627.009116,28645.969955
1159.072413,-8503.660028,9030.512492,22650.301825
1159.072732,-1838.629195,8882.471304,14285.974681
1159.073051,4826.401637,14211.954086,8734.430116
1159.073370,8886.707777,11473.192101,148.041188
1159.073689,11491.432470,8438.347739,-7772.162391
1159.074008,14019.547613,1480.411884,-8734.430116
1159.074327,13636.499864,-3923.091493,-7031.956449
1159.074646,10878.556072,-8808.450710,-4737.318029
1159.074965,6128.763984,-8882.471304,-2886.803174
1159.075283,2911.162892,-6439.791695,3849.070898
1159.075602,-3294.210641,-9400.615463,8734.430116
1159.075921,-6128.763984,-6735.874072,22058.137072
1159.076240,-10648.727422,-7476.080014,29386.175897
1159.076559,-15934.786358,-148.041188,29460.196492
1159.076878,-13942.938064,6735.874072,25981.228564
1159.077197,-11261.603821,10362.883188,18061.024985
1159.077516,-2374.896044,10436.903782,17320.819043
1159.077835,3294.210641,8512.368333,11325.150913
1159.078154,7507.735880,10214.842000,-3849.070898
1159.078473,10112.460574,5477.523971,-9548.656652
1159.078792,12410.747068,-1480.411884,-8216.285956
1159.079111,11721.261119,-3775.050304,-4589.276840
1159.079430,7354.516781,-9326.594869,-7846.182985
1159.079749,1838.629195,-7031.956449,-3108.864956
1159.080068,229.828649,-8808.450710,6513.812290
1159.080387,-6358.592633,-5921.647536,14730.098246
1159.080705,-9269.755526,-7402.059420,25018.960840
1159.081024,-13483.280765,-3775.050304,31680.814318
1159.081343,-15934.786358,2516.700203,29608.237680
1159.081662,-14019.547613,7179.997637,26055.249158
1159.081981,-6511.811733,11103.089130,22798.343014
1159.082300,-612.876398,12509.480420,12657.521608
1159.082619,7201.297681,8142.265362,9030.512492
1159.082938,10112.460574,7105.977043,-370.102971
1159.083257,13253.452115,3108.864956,-9474.636058
1159.083576,16624.272307,2590.720797,-9030.512492
1159.083895,15398.519510,-5403.503377,-4589.276840
1159.084214,10572.117872,-6365.771101,-3478.967927
1159.084533,5745.716235,-6735.874072,-3849.070898
1159.084852,2987.772442,-4145.153275,5995.668130
1159.085171,-2911.162892,-5847.626942,18135.045579
1159.085490,-6588.421283,-6291.750507,27239.578666
1159.085809,-11721.261119,-5181.441594,28423.908173
1159.086128,-12640.575717,2146.597232,28645.969955
1159.086446,-9806.022374,3108.864956,24722.878463
1159.086765,-7431.126331,5477.523971,19245.354492
1159.087084,2451.505594,3701.029710,11917.315666
1159.087403,5286.058936,14730.098246,2146.597232
1159.087722,9193.145976,7846.182985,-2812.782580
1159.088041,11261.603821,740.205942,-4885.359217
1159.088360,12257.527968,-0.000000,-6291.750507
1159.088679,12717.185267,-5995.668130,-4071.132681
1159.088998,7354.516781,-7846.182985,-3478.967927
1159.089317,2987.772442,-4515.256246,2220.617826
1159.089636,-2451.505594,-7105.977043,9178.553681
1159.089955,-6665.030833,-8290.306550,18431.127956
1159.090274,-10035.851024,-7550.100608,25241.022622
1159.090593,-13942.938064,-740.205942,25167.002028
1159.090912,-12717.185267,6217.729913,23760.610738
1159.091231,-9422.974625,7105.977043,21021.848753
1159.091550,-3294.210641,11177.109724,15544.324782
1159.091869,612.876398,5477.523971,11917.315666
1159.092187,4826.401637,7179.997637,4811.338623
1159.092506,8120.612279,2294.638420,-592.164754
1159.092825,10801.946522,3182.885551,-10732.986159
1159.093144,12027.699319,-1998.556043,-8882.471304
1159.093463,9882.631924,-5995.668130,-3701.029710
1159.093782,6128.763984,-7328.038826,-2886.803174
1159.094101,2757.943793,-5551.544565,4145.153275
1159.094420,-2987.772442,-5403.503377,10510.924376
1159.094739,-6435.202183,-5255.462188,20725.766376
1159.095058,-10648.727422,-3256.906145,26203.290347
1159.095377,-13100.233016,370.102971,27683.702231
1159.095696,-12640.575717,3034.844362,23168.445985
1159.096015,-8044.002729,7920.203579,19467.416275
1159.096334,-3907.087040,7846.182985,14063.912898
1159.096653,3370.820191,3256.906145,7698.141797
1159.096972,7124.688131,8808.450710,518.144159
1159.097291,10035.851024,2738.761985,-2368.659014
1159.097609,10265.679673,-1258.350101,-4219.173869
1159.097928,12257.527968,-444.123565,-4589.276840
1159.098247,9499.584175,-3256.906145,-3182.885551
1159.098566,7048.078582,-3478.967927,888.247130
1159.098885,3830.477490,-3775.050304,7920.203579
1159.099204,-2681.334243,-3701.029710,12953.603985
1159.099523,-4443.353888,-5551.544565,20799.786970
1159.099842,-10342.289223,-3849.070898,24574.837274
1159.100161,-10342.289223,-370.102971,25315.043216
1159.100480,-9193.145976,3775.050304,22872.363608
1159.100799,-4366.744339,6661.853478,16580.613101
1159.101118,766.095498,7698.141797,11251.130318
1159.101437,5515.887586,6513.812290,5847.626942
1159.101756,8350.440928,4885.359217,814.226536
1159.102075,9882.631924,4219.173869,-4367.215058
1159.102394,9422.974625,1036.288319,-5921.647536
1159.102713,9269.755526,-3775.050304,-2738.761985
1159.103032,6588.421283,-6661.853478,2442.679609
1159.103350,4136.915689,-5699.585753,4071.132681
1159.103669,-612.876398,-5477.523971,12139.377449
1159.103988,-3600.648841,-6069.688724,18135.045579
1159.104307,-8273.831378,-3404.947333,20873.807564
1159.104626,-9959.241474,-3404.947333,26425.352129
1159.104945,-10955.165621,4589.276840,24500.816680
1159.105264,-7507.735880,8808.450710,15840.407159
1159.105583,-5209.449386,7402.059420,14063.912898
1159.105902,-229.828649,9992.780217,8734.430116
1159.106221,4749.792088,3997.112087,3404.947333
1159.106540,7354.516781,3256.906145,-3034.844362
1159.106859,9576.193725,518.144159,-1258.350101
1159.107178,8427.050478,-4885.359217,-4959.379811
1159.107497,7354.516781,-4589.276840,-2368.659014
1159.107816,5975.544884,-5403.503377,-592.164754
1159.108135,2298.286494,-4663.297435,4515.256246
1159.108454,-3294.210641,-6957.935855,10362.883188
1159.108772,-6894.859482,-3701.029710,16654.633695
1159.109091,-10035.851024,-2442.679609,23464.528361
1159.109410,-11338.213370,-0.000000,26203.290347
1159.109729,-10035.851024,4589.276840,23242.466579
1159.110048,-6665.030833,8586.388927,14730.098246
1159.110367,-2451.505594,7328.038826,11103.089130
1159.110686,4673.182538,6217.729913,7994.224174
1159.111005,8733.488677,4737.318029,518.144159
1159.111324,10648.727422,1480.411884,-2590.720797
1159.111643,11721.261119,1998.556043,-5699.585753
1159.111962,11414.822920,-4885.359217,-4071.132681
1159.112281,9652.803275,-2442.679609,-2516.700203
1159.112600,5439.278036,-4737.318029,444.123565
1159.112919,766.095498,-6143.709319,7772.162391
1159.113238,-2068.457845,-2220.617826,13989.892304
1159.113557,-6511.811733,-0.000000,18875.251521
1159.113876,-9039.926876,-1554.432478,23686.590144
1159.114195,-9959.241474,2368.659014,25463.084405
1159.114513,-10112.460574,3034.844362,23242.466579
1159.114832,-5286.058936,4515.256246,17987.004391
1159.115151,-2451.505594,7402.059420,10362.883188
1159.115470,3064.381992,3775.050304,7179.997637
1159.115789,6128.763984,5403.503377,1998.556043
1159.116108,8580.269578,3330.926739,-2072.576638
1159.116427,9116.536426,666.185348,-2590.720797
1159.116746,10035.851024,-1776.494261,-3108.864956
1159.117065,7277.907231,-3330.926739,-1110.308913
1159.117384,5592.497135,-6291.750507,3701.029710
1159.117703,-1072.533697,-5403.503377,6883.915261
1159.118022,-2604.724693,-5477.523971,18505.148550
1159.118341,-8580.269578,-3330.926739,20577.725188
1159.118660,-9346.365076,-2516.700203,25167.002028
1159.118979,-11031.775171,3552.988522,26055.249158
1159.119298,-6052.154434,7772.162391,19837.519246
1159.119617,-3217.601092,7328.038826,11695.253884
1159.119935,1762.019645,7328.038826,9770.718434
1159.120254,4826.401637,7846.182985,5033.400406
1159.120573,6894.859482,4589.276840,-1480.411884
1159.120892,9652.803275,148.041188,-1702.473667
1159.121211,9422.974625,-3849.070898,592.164754
1159.121530,7967.393179,-5403.503377,74.020594
1159.121849,6052.154434,-5773.606348,1406.391290
1159.122168,2145.067394,-5033.400406,6883.915261
1159.122487,-1838.629195,-5699.585753,12805.562797
1159.122806,-5975.544884,-740.205942,15766.386565
1159.123125,-7507.735880,444.123565,23168.445985
1159.123444,-9652.803275,1628.453072,25092.981434
1159.123763,-8963.317327,3701.029710,24574.837274
1159.124082,-3830.477490,8290.306550,17542.880825
1159.124401,-1915.238745,5921.647536,10881.027347
1159.124720,3294.210641,2220.617826,7476.080014
1159.125039,5132.839837,2812.782580,-74.020594
1159.125358,8580.269578,-0.000000,-1924.535449
1159.125677,8963.317327,-2590.720797,-2590.720797
1159.125996,7660.954980,-3108.864956,-2146.597232
1159.126315,6741.640382,-3034.844362,592.164754
1159.126634,4903.011187,-3849.070898,3404.947333
1159.126953,0.000000,-3330.926739,8660.409521
1159.127272,-3753.867940,-1702.473667,16210.510130
1159.127591,-6358.592633,-1036.288319,17912.983796
1159.127910,-7507.735880,1776.494261,21391.951724
1159.128229,-8580.269578,3478.967927,22354.219448
1159.128548,-6971.469032,5773.606348,19911.539840
1159.128867,-3677.258390,6883.915261,11769.274478
1159.129186,536.266849,8364.327145,6069.688724
1159.129505,4290.134789,4293.194464,3108.864956
1159.129824,6511.811733,1702.473667,-2516.700203
1159.130143,8120.612279,-0.000000,-1480.411884
1159.130462,8197.221829,-3330.926739,222.061783
1159.130781,7584.345430,-3923.091493,4145.153275
1159.131100,6281.983084,-4145.153275,3849.070898
1159.131419,2681.334243,-3775.050304,6809.894666
1159.131738,-766.095498,-3923.091493,12879.583391
1159.132057,-3447.429741,-3923.091493,17172.777854
1159.132376,-5132.839837,1110.308913,18209.066173
1159.132695,-6971.469032,1702.473667,19615.457463
1159.133014,-6741.640382,4885.359217,19467.416275
1159.133333,-4060.306139,6217.729913,16284.530724
1159.133652,-383.047749,6661.853478,10510.924376
1159.133971,2757.943793,5921.647536,5329.482782
1159.134290,5362.668486,2146.597232,962.267725
1159.134609,6741.640382,-1406.391290,0.000000
1159.134928,6818.249932,-4219.173869,1110.308913
1159.135247,6665.030833,-7105.977043,5773.606348
1159.135566,4060.306139,-7105.977043,5181.441594
1159.135885,2374.896044,-5107.421000,8512.368333
1159.136204,-459.657299,-4071.132681,11917.315666
1159.136523,-3983.696590,-1702.473667,14434.015869
1159.136842,-5439.278036,1184.329507,16876.695478
1159.137161,-7124.688131,5403.503377,18209.066173
1159.137480,-7584.345430,8068.244768,15618.345376
1159.137799,-5822.325785,8956.491898,14211.954086
1159.138118,-3907.087040,7031.956449,11177.109724
1159.138437,-536.266849,4145.153275,6513.812290
1159.138756,2374.896044,2146.597232,1554.432478
1159.139075,5132.839837,-814.226536,-518.144159
1159.139394,5439.278036,-2960.823768,666.185348
1159.139713,5439.278036,-6291.750507,2886.803174
1159.140032,3294.210641,-6735.874072,5477.523971
1159.140351,919.314598,-4441.235652,8586.388927
1159.140670,153.219100,-2442.679609,11843.295072
1159.140989,-2604.724693,296.082377,13471.748144
1159.141308,-2451.505594,2812.782580,18505.148550
1159.141627,-3370.820191,3404.947333,20133.601622
1159.141946,-4060.306139,7476.080014,16580.613101
1159.142265,-2374.896044,7550.100608,14508.036463
1159.142584,0.000000,7328.038826,10584.944971
1159.142903,3294.210641,6365.771101,5847.626942
1159.143222,6281.983084,4145.153275,444.123565
1159.143541,7737.564530,740.205942,-2442.679609
1159.143860,7201.297681,-2664.741391,-1702.473667
1159.144179,6894.859482,-6735.874072,2220.617826
1159.144498,4826.401637,-8512.368333,6587.832884
1159.144817,2374.896044,-8290.306550,11177.109724
1159.145136,-536.266849,-7254.018232,16580.613101
1159.145455,-2604.724693,-5403.503377,19985.560434
1159.145774,-3753.867940,-1184.329507,20281.642811
1159.146093,-4519.963438,3330.926739,19837.519246
1159.146412,-3447.429741,6661.853478,16876.695478
1159.146731,-1455.581446,11103.089130,12435.459826
1159.147050,1378.971896,12435.459826,7105.977043
1159.147369,3524.039291,9992.780217,2960.823768
1159.147688,6205.373534,5995.668130,0.000000
1159.148007,7890.783629,1332.370696,-1776.494261
1159.148326,7354.516781,-3478.967927,-2072.576638
1159.148645,6128.763984,-7254.018232,222.061783
1159.148964,3677.258390,-8956.491898,3775.050304
1159.149283,383.047749,-9474.636058,7994.224174
1159.149602,-3140.991542,-9474.636058,15026.180623
1159.149921,-6052.154434,-7179.997637,19763.498651
1159.150240,-8580.269578,-1924.535449,20503.704593
1159.150559,-9039.926876,1776.494261,22280.198854
1159.150878,-7354.516781,8882.471304,20947.828159
1159.151197,-5209.449386,10214.842000,15248.242405
1159.151516,-1685.410096,13989.892304,9844.739029
1159.151835,2604.724693,12287.418637,3775.050304
1159.152154,5745.716235,9474.636058,-3034.844362
1159.152473,8350.440928,5107.421000,-6439.791695
1159.152792,8273.831378,-148.041188,-6661.853478
1159.153111,6588.421283,-6957.935855,-3330.926739
1159.153430,4213.525239,-10140.821405,1258.350101
1159.153749,-153.219100,-11695.253884,5329.482782
1159.154068,-3600.648841,-12509.480420,12583.501014
1159.154387,-8733.488677,-11103.089130,21243.910535
1159.154706,-11721.261119,-6661.853478,25611.125593
1159.155025,-12180.918418,-1110.308913,28423.908173
1159.155344,-10035.851024,4811.338623,24944.940245
1159.155663,-7354.516781,12657.521608,18135.045579
1159.155982,-2068.457845,11621.233289,15914.427753
1159.156301,3830.477490,11843.295072,9918.759623
1159.156620,9193.145976,11917.315666,0.000000
1159.156939,13713.109414,9474.636058,-8438.347739
1159.157258,15781.567259,2590.720797,-8364.327145
1159.157577,14249.376263,-4441.235652,-7920.203579
1159.157896,11261.603821,-7994.224174,-5625.565159
1159.158215,7277.907231,-8438.347739,-1110.308913
1159.158534,2221.676944,-11029.068536,5403.503377
1159.158853,-2911.162892,-13175.665768,14359.995275
1159.159172,-8273.831378,-11251.130318,25759.166782
1159.159491,-11797.870669,-8734.430116,32346.999665
1159.159810,-13483.280765,-1406.391290,30792.567187
1159.160129,-10572.117872,6291.750507,27239.578666
1159.160448,-5209.449386,10807.006753,19097.313304
1159.160767,-229.828649,16062.468941,15322.262999
1159.161086,5592.497135,11843.295072,7550.100608
1159.161405,10955.165621,14285.974681,-5699.585753
1159.161724,14019.547613,11473.192101,-11917.315666
1159.162043,12717.185267,1110.308913,-11325.150913
1159.162362,10801.946522,-7031.956449,-7476.080014
1159.162681,9652.803275,-10362.883188,-1628.453072
1159.163000,3294.210641,-11843.295072,1036.288319
1159.163319,-1378.971896,-10214.842000,7698.141797
1159.163638,-6205.373534,-13397.727550,18653.189738
1159.163957,-10801.946522,-9178.553681,28053.805202
1159.164276,-14019.547613,-5329.482782,31310.711347
1159.164595,-16241.224558,5107.421000,26869.475695
1159.164914,-9346.365076,11843.295072,25759.166782
1159.165233,-6052.154434,13323.706956,20429.683999
1159.165552,1532.190996,14730.098246,10214.842000
1159.165871,5286.058936,15248.242405,-592.164754
1159.166190,11568.042020,14878.139434,-9400.615463
1159.166509,10418.898773,3182.885551,-13323.706956
1159.166828,12487.356617,-0.000000,-7994.224174
1159.167147,8810.098227,-9474.636058,-5255.462188
1159.167466,5209.449386,-11991.336260,-1850.514855
1159.167785,0.000000,-12361.439231,1036.288319
1159.168104,-2834.553343,-11399.171507,13619.789333
1159.168423,-8427.050478,-15100.201217,24426.796086
1159.168742,-11644.651570,-11251.130318,30570.505405
1159.169061,-16471.053207,-2886.803174,32272.979071
1159.169380,-15015.471761,9252.574275,28275.866984
1159.169699,-9499.584175,14063.912898,21539.992912
1159.170018,-1608.800546,14878.139434,19763.498651
1159.170337,6665.030833,17468.860231,8882.471304
1159.170656,8350.440928,15988.448347,-6365.771101
1159.170975,13866.328514,11621.233289,-10955.047942
1159.171294,14709.033562,296.082377,-12139.377449
1159.171613,15015.471761,-8364.327145,-5699.585753
1159.171932,9269.755526,-15322.262999,-2960.823768
1159.172251,5439.278036,-12065.356855,0.000000
1159.172570,1302.362347,-11029.068536,5181.441594
1159.172889,-2757.943793,-12953.603985,18431.127956
1159.173208,-5209.449386,-12287.418637,31014.628970
1159.173527,-13330.061665,-4885.359217,31902.876100
1159.173846,-10955.165621,4145.153275,31310.711347
1159.174165,-9959.241474,14804.118840,23538.548956
1159.174484,-3677.258390,12287.418637,19097.313304
1159.174803,2068.457845,11843.295072,11695.253884
1159.175122,8580.269578,19171.333898,666.185348
1159.175441,13559.890315,14137.933492,-13249.686362
1159.175760,13942.938064,9030.512492,-18727.210333
1159.176079,14555.814462,-2812.782580,-8364.327145
1159.176398,12487.356617,-10658.965565,-3404.947333
1159.176717,6971.469032,-13693.809927,-3108.864956
1159.177036,842.705048,-12805.562797,2294.638420
1159.177355,-4596.572988,-14804.118840,14359.995275
1159.177674,-7354.516781,-15396.283594,28497.928767
1159.177993,-12870.404366,-10955.047942,35011.741057
1159.178312,-15781.567259,-4145.153275,32939.164419
1159.178631,-14096.157163,9474.636058,24204.734303
1159.178950,-11414.822920,20429.683999,15470.304188
1159.179269,-3140.991542,16654.633695,18579.169144
1159.179588,459.657299,20059.581028,8142.265362
1159.179907,6894.859482,16802.674883,-5255.462188
1159.180226,12563.966167,16580.613101,-13841.851115
1159.180545,13942.938064,4145.153275,-14063.912898
1159.180864,11644.651570,-9030.512492,-6809.894666
1159.181183,8273.831378,-16728.654289,-4811.338623
1159.181502,2374.896044,-17024.736666,-1998.556043
1159.181821,-1762.019645,-17098.757260,5773.606348
1159.182140,-5362.668486,-17542.880825,14730.098246
1159.182459,-8350.440928,-16506.592507,31310.711347
1159.182778,-13330.061665,-7328.038826,31532.773129
1159.183097,-15168.690860,3923.091493,27905.764013
1159.183416,-13253.452115,11029.068536,22354.219448
1159.183735,-5362.668486,18875.251521,18653.189738
1159.184054,76.609550,16580.613101,15914.427753
1159.184373,6205.373534,17394.839637,2738.761985
1159.184692,11721.261119,17542.880825,-8364.327145
1159.185011,14479.204912,8142.265362,-16506.592507
1159.185330,16317.834107,-3997.112087,-11843.295072
1159.185649,13942.938064,-11695.253884,-3849.070898
1159.185968,8580.269578,-16728.654289,-888.247130
1159.186287,2757.943793,-12287.418637,-148.041188
1159.186606,-383.047749,-13027.624579,7105.977043
1159.186925,-3524.039291,-17542.880825,25907.207970
1159.187244,-10112.460574,-14508.036463,34789.679274
1159.187563,-13176.842566,-4071.132681,34197.514520
1159.187882,-13559.890315,7846.182985,26721.434506
1159.188201,-10035.851024,16506.592507,22798.343014
1159.188520,-1608.800546,17172.777854,17987.004391
1159.188839,4290.134789,18653.189738,8660.409521
1159.189158,12104.308868,21317.931130,-1628.453072
1159.189477,14785.643111,16432.571912,-16284.530724
1159.189796,17237.148705,8512.368333,-18061.024985
1159.190115,17160.539155,-4367.215058,-12435.459826
1159.190434,11721.261119,-13323.706956,-4663.297435
1159.190753,5515.887586,-14730.098246,-2146.597232
1159.191072,-612.876398,-13989.892304,4441.235652
1159.191391,-5132.839837,-17616.901420,14211.954086
1159.191710,-10418.898773,-19837.519246,29682.258274
1159.192029,-16164.615008,-12805.562797,38416.688390
1159.192348,-16011.395908,-2442.679609,36492.152941
1159.192667,-16011.395908,11251.130318,21317.931130
1159.192986,-8120.612279,19393.395680,20651.745782
1159.193305,-1685.410096,24056.693115,18875.251521
1159.193624,2604.724693,20577.725188,7254.018232
1159.193943,8197.221829,21539.992912,-4589.276840
1159.194262,12334.137518,19097.313304,-14582.057057
1159.194581,15704.957709,3627.009116,-15914.427753
1159.194900,14172.766713,-7772.162391,-9400.615463
1159.195219,7507.735880,-13989.892304,-1850.514855
1159.195538,2451.505594,-17764.942608,-2072.576638
1159.195857,-1991.848295,-17616.901420,5181.441594
1159.196176,-7201.297681,-15248.242405,19541.436869
1159.196495,-9729.412825,-18949.272115,34641.638086
1159.196814,-16854.100956,-9326.594869,31976.896694
1159.197133,-18233.072852,2590.720797,30496.484810
1159.197452,-14862.252661,10362.883188,23094.425390
1159.197771,-9039.926876,19689.478057,23020.404796
1159.198090,-459.657299,17172.777854,17542.880825
1159.198409,3983.696590,25092.981434,3627.009116
1159.198728,13023.623466,21910.095883,-8512.368333
1159.199047,14785.643111,12213.398043,-18579.169144
1159.199366,17083.929605,888.247130,-14730.098246
1159.199685,15704.957709,-12953.603985,-4737.318029
1159.200004,8273.831378,-13101.645173,-5329.482782
1159.200323,3983.696590,-12583.501014,-3478.967927
1159.200642,-842.705048,-15396.283594,6439.791695
1159.200961,-6511.811733,-19467.416275,24500.816680
1159.201280,-9346.365076,-17987.004391,37454.420665
1159.201599,-16241.224558,-7994.224174,31976.896694
1159.201918,-16471.053207,2886.803174,31162.670158
1159.202237,-10495.508323,13693.809927,25018.960840
1159.202556,-3524.039291,16802.674883,19615.457463
1159.202875,1838.629195,19763.498651,7328.038826
1159.203194,10418.898773,24870.919651,-1258.350101
1159.203513,15934.786358,18579.169144,-15026.180623
1159.203832,19535.435199,9844.739029,-19837.519246
1159.204151,18616.120601,-3404.947333,-12879.583391
1159.204470,14172.766713,-11769.274478,-4737.318029
1159.204789,6052.154434,-12287.418637,-4145.153275
1159.205108,2528.115143,-13249.686362,-1850.514855
1159.205427,-4060.306139,-18875.251521,11399.171507
1159.205746,-8427.050478,-21169.889941,29978.340651
1159.206065,-11721.261119,-18875.251521,35751.946999
1159.206384,-16317.834107,-7846.182985,30866.587781
1159.206703,-16164.615008,444.123565,27387.619854
1159.207022,-14249.376263,11769.274478,21984.116477
1159.207341,-4366.744339,17468.860231,23094.425390
1159.207660,1072.533697,21095.869347,5847.626942
1159.207979,10648.727422,22946.384202,-6661.853478
1159.208298,13942.938064,23390.507767,-14804.118840
1159.208617,15398.519510,11177.109724,-20947.828159
1159.208936,16547.662757,-2812.782580,-12361.439231
1159.209255,8963.317327,-12731.542202,-7402.059420
1159.209574,2757.943793,-13397.727550,-4515.256246
1159.209893,-1915.238745,-19837.519246,4589.276840
1159.210212,-6894.859482,-23760.610738,21391.951724
1159.210531,-8963.317327,-29238.134709,37528.441259
1159.210850,-15321.909960,-13027.624579,33457.308578
1159.211169,-16011.395908,148.041188,30496.484810
1159.211488,-15092.081311,10584.944971,22872.363608
1159.211807,-9039.926876,19393.395680,24278.754898
1159.212126,-2145.067394,18209.066173,20207.622217
1159.212445,3140.991542,26129.269753,1998.556043
1159.212764,10035.851024,26721.434506,-10214.842000
1159.213083,15321.909960,18801.230927,-18727.210333
1159.213402,16471.053207,3330.926739,-17542.880825
1159.213721,14709.033562,-13249.686362,-6143.709319
1159.214040,7354.516781,-17024.736666,-4219.173869
1159.214359,1991.848295,-18135.045579,-1406.391290
1159.214678,-1225.752797,-18283.086767,6587.832884
1159.214997,-5822.325785,-22354.219448,21910.095883
1159.215316,-5209.449386,-17690.922014,37898.544230
1159.215635,-12027.699319,-9252.574275,36418.132346
1159.215954,-13330.061665,2368.659014,29608.237680
1159.216273,-12180.918418,14211.954086,23982.672521
1159.216591,-5515.887586,20133.601622,24944.940245
1159.216910,1608.800546,20281.642811,18801.230927
1159.217229,8963.317327,25759.166782,666.185348
1159.217548,15321.909960,26277.310941,-13989.892304
1159.217867,17466.977354,17394.839637,-21539.992912
1159.218186,18233.072852,-2442.679609,-13767.830521
1159.218505,15551.738609,-11769.274478,-2442.679609
1159.218824,8503.660028,-15322.262999,-2220.617826
1159.219143,3064.381992,-15840.407159,-1628.453072
1159.219462,-1608.800546,-21762.054695,12731.542202
1159.219781,-5056.230287,-23538.548956,31532.773129
1159.220100,-8427.050478,-15766.386565,39971.120868
1159.220419,-12870.404366,-4811.338623,29830.299463
1159.220738,-12180.918418,11103.089130,24870.919651
1159.221057,-10342.289223,18135.045579,19985.560434
1159.221376,-4596.572988,17098.757260,16062.468941
1159.221695,2221.676944,22872.363608,7772.162391
1159.222014,8197.221829,22650.301825,-4663.297435
1159.222333,13942.938064,21836.075289,-16580.613101
1159.222652,14096.157163,8882.471304,-20947.828159
1159.222971,15245.300410,-5181.441594,-10510.924376
1159.223290,9806.022374,-10955.047942,-2886.803174
1159.223609,2068.457845,-18283.086767,-4293.194464
1159.223928,-3983.696590,-20355.663405,2738.761985
1159.224247,-5898.935335,-20503.704593,19319.375086
1159.224566,-7890.783629,-25611.125593,32050.917289
1159.224885,-16011.395908,-15470.304188,35455.864622
1159.225204,-16011.395908,-2664.741391,31532.773129
1159.225523,-15015.471761,12879.583391,23538.548956
1159.225842,-11797.870669,17690.922014,22280.198854
1159.226161,-3753.867940,22354.219448,19837.519246
1159.226480,689.485948,23390.507767,5107.421000
1159.226799,10572.117872,26129.269753,-7550.100608
1159.227118,13330.061665,19837.519246,-19467.416275
1159.227437,14632.424012,5995.668130,-18653.189738
1159.227756,14709.033562,-10658.965565,-8956.491898
1159.228075,7124.688131,-19023.292709,-1702.473667
1159.228394,1532.190996,-19615.457463,1998.556043
1159.228713,-1532.190996,-19393.395680,8068.244768
1159.229032,-7354.516781,-17616.901420,15470.304188
1159.229350,-7737.564530,-21836.075289,34123.493926
1159.229669,-14019.547613,-10807.006753,39452.976709
1159.229988,-14402.595362,666.185348,35455.864622
1159.230307,-13100.233016,13545.768739,20799.786970
1159.230626,-7584.345430,18727.210333,18061.024985
1159.230945,1378.971896,21095.869347,18061.024985
1159.231264,4903.011187,23316.487173,1258.350101
1159.231583,13483.280765,19615.457463,-8364.327145
1159.231902,17160.539155,15174.221811,-21095.869347
1159.232221,20531.359346,2516.700203,-19985.560434
1159.232540,17850.025103,-11695.253884,-6587.832884
1159.232859,9422.974625,-16802.674883,-1628.453072
1159.233178,3983.696590,-17468.860231,-1332.370696
1159.233497,-1072.533697,-18949.272115,7550.100608
1159.233815,-4979.620737,-25018.960840,28719.990550
1159.234134,-11031.775171,-20355.663405,36788.235317
1159.234453,-14402.595362,-8660.409521,36270.091158
1159.234772,-15628.348159,1998.556043,27165.558071
1159.235091,-13559.890315,17912.983796,21095.869347
1159.235410,-4903.011187,9844.739029,21910.095883
1159.235729,919.314598,26129.269753,9918.759623
1159.236048,8273.831378,26721.434506,-1850.514855
1159.236367,15321.909960,19689.478057,-8216.285956
1159.236686,15934.786358,12657.521608,-19245.354492
1159.237005,20148.311597,-2442.679609,-9474.636058
1159.237324,15475.129060,-11991.336260,-4441.235652
1159.237643,5898.935335,-13397.727550,-5551.544565
1159.237961,3140.991542,-15692.365970,-1406.391290
1159.238280,-5362.668486,-16432.571912,9178.553681
1159.238599,-7967.393179,-21243.910535,25759.166782
1159.238918,-14632.424012,-19467.416275,34123.493926
1159.239237,-17390.367805,-8142.265362,35307.823433
1159.239556,-18386.291952,2442.679609,26351.331535
1159.239875,-15704.957709,15174.221811,26499.372724
1159.240194,-4596.572988,21243.910535,26277.310941
1159.240513,153.219100,26573.393318,7328.038826
1159.240832,8197.221829,26203.290347,444.123565
1159.241151,12947.013916,21688.034101,-11177.109724
1159.241470,15781.567259,11473.192101,-22798.343014
1159.241789,16011.395908,-1850.514855,-16284.530724
1159.242108,13406.671215,-10732.986159,-2220.617826
1159.242426,6205.373534,-16580.613101,-3627.009116
1159.242745,612.876398,-16802.674883,-3552.988522
1159.243064,-4979.620737,-18209.066173,10881.027347
1159.243383,-7048.078582,-21317.931130,35307.823433
1159.243702,-13559.890315,-15322.262999,37528.441259
1159.244021,-17160.539155,-4515.256246,32495.040854
1159.244340,-15551.738609,4959.379811,28275.866984
1159.244659,-11338.213370,18135.045579,23242.466579
1159.244978,-2068.457845,13027.624579,25241.022622
1159.245297,4060.306139,20725.766376,7105.977043
1159.245616,11261.603821,26351.331535,-6217.729913
1159.245935,17926.634653,20355.663405,-17838.963202
1159.246254,19688.654299,11843.295072,-20725.766376
1159.246572,18386.291952,-4515.256246,-12213.398043
1159.246891,13023.623466,-11843.295072,-4515.256246
1159.247210,4826.401637,-13101.645173,-5033.400406
1159.247529,995.924147,-18949.272115,3552.988522
1159.247848,-4673.182538,-23094.425390,18653.189738
1159.248167,-8427.050478,-22428.240043,34863.699868
1159.248486,-12104.308868,-15396.283594,40341.223839
1159.248805,-16854.100956,-3997.112087,32865.143825
1159.249124,-15168.690860,6587.832884,29090.093521
1159.249443,-11491.432470,13249.686362,24278.754898
1159.249762,-5132.839837,19393.395680,23686.590144
1159.250081,4979.620737,22354.219448,3627.009116
1159.250400,11338.213370,31532.773129,-11399.171507
1159.250719,15398.519510,16432.571912,-15840.407159
1159.251037,14862.252661,1850.514855,-15100.201217
1159.251356,15628.348159,-12657.521608,-5107.421000
1159.251675,9576.193725,-14211.954086,-3404.947333
1159.251994,3217.601092,-16210.510130,-5625.565159
1159.252313,-995.924147,-19023.292709,7772.162391
1159.252632,-4673.182538,-22502.260637,24278.754898
1159.252951,-9499.584175,-22798.343014,34789.679274
1159.253270,-13176.842566,-9474.636058,35751.946999
1159.253589,-15858.176809,962.267725,27313.599260
1159.253908,-13636.499864,10214.842000,24500.816680
1159.254227,-7660.954980,18579.169144,18801.230927
1159.254546,-1915.238745,17246.798449,14359.995275
1159.254865,6205.373534,21836.075289,-1924.535449
1159.255183,11721.261119,22354.219448,-11695.253884
1159.255502,14479.204912,12879.583391,-22872.363608
1159.255821,16700.881856,1110.308913,-16358.551318
1159.256140,14019.547613,-11991.336260,-8216.285956
1159.256459,6511.811733,-15174.221811,-6587.832884
1159.256778,2528.115143,-14211.954086,-4367.215058
1159.257097,-4979.620737,-24130.713709,8364.327145
1159.257416,-8580.269578,-21465.972318,27091.537477
1159.257735,-10801.946522,-20947.828159,39823.079680
1159.258054,-15168.690860,-6735.874072,35307.823433
1159.258373,-14709.033562,2738.761985,26055.249158
1159.258692,-13253.452115,15692.365970,23316.487173
1159.259011,-4979.620737,10140.821405,20947.828159
1159.259330,2528.115143,25092.981434,9992.780217
1159.259648,9806.022374,26055.249158,-3108.864956
1159.259967,12640.575717,21910.095883,-15470.304188
1159.260286,18079.853753,15840.407159,-19985.560434
1159.260605,18233.072852,2516.700203,-13175.665768
1159.260924,14555.814462,-11769.274478,-2738.761985
1159.261243,4519.963438,-15100.201217,-3849.070898
1159.261562,1378.971896,-18727.210333,0.000000
1159.261881,-4136.915689,-20429.683999,12509.480420
1159.262200,-7507.735880,-24648.857869,33975.452738
1159.262519,-11644.651570,-23908.651927,42043.697506
1159.262838,-13789.718964,-4293.194464,34419.576303
1159.263157,-11568.042020,11399.171507,26795.455100
1159.263476,-6435.202183,16284.530724,24204.734303
1159.263794,-766.095498,21317.931130,16876.695478
1159.264113,6435.202183,27461.640448,5773.606348
1159.264432,10725.336972,28201.846390,-7402.059420
1159.264751,15321.909960,21984.116477,-20429.683999
1159.265070,18386.291952,11251.130318,-21836.075289
1159.265389,15781.567259,-8586.388927,-10732.986159
1159.265708,10035.851024,-21021.848753,1184.329507
1159.266027,2757.943793,-21021.848753,-666.185348
1159.266346,-689.485948,-21984.116477,8438.347739
1159.266665,-6971.469032,-20799.786970,18801.230927
1159.266984,-8427.050478,-21317.931130,38564.729578
1159.267303,-12717.185267,-9474.636058,40711.326810
1159.267622,-14632.424012,3627.009116,30496.484810
1159.267941,-12947.013916,15544.324782,23612.569550
1159.268259,-6358.592633,16284.530724,22798.343014
1159.268578,-766.095498,23390.507767,16654.633695
1159.268897,3294.210641,21910.095883,1998.556043
1159.269216,8273.831378,20429.683999,-8808.450710
1159.269535,13636.499864,12287.418637,-18431.127956
1159.269854,15858.176809,4515.256246,-17320.819043
1159.270173,14019.547613,-11547.212695,-9696.697840
1159.270492,5515.887586,-18949.272115,-3849.070898
1159.270811,1378.971896,-15840.407159,-1036.288319
1159.271130,-5439.278036,-17542.880825,6513.812290
1159.271449,-6894.859482,-19467.416275,23686.590144
1159.271768,-13713.109414,-23390.507767,37972.564825
1159.272087,-17696.806004,-12361.439231,41747.615129
1159.272405,-18769.339701,1184.329507,30348.443622
1159.272724,-16394.443657,14063.912898,22058.137072
1159.273043,-8810.098227,13989.892304,18579.169144
1159.273362,-2068.457845,17468.860231,16062.468941
1159.273681,6128.763984,26499.372724,148.041188
1159.274000,12487.356617,23834.631332,-11029.068536
1159.274319,16241.224558,14952.160028,-16210.510130
1159.274638,19535.435199,666.185348,-15544.324782
1159.274957,17466.977354,-9030.512492,-5107.421000
1159.275276,8733.488677,-17172.777854,-5773.606348
1159.275595,3907.087040,-14730.098246,-4663.297435
1159.275914,76.609550,-19393.395680,6957.935855
1159.276233,-5286.058936,-21317.931130,24130.713709
1159.276552,-7967.393179,-21317.931130,36122.049970
1159.276870,-15858.176809,-11843.295072,33605.349767
1159.277189,-15245.300410,-74.020594,30274.423028
1159.277508,-12410.747068,11843.295072,26869.475695
1159.277827,-2834.553343,22058.137072,22206.178260
1159.278146,3370.820191,23760.610738,12435.459826
1159.278465,9959.241474,26351.331535,3775.050304
1159.278784,18079.853753,23686.590144,-11325.150913
1159.279103,19612.044749,12287.418637,-22206.178260
1159.279422,21910.331243,2960.823768,-18061.024985
1159.279741,17160.539155,-14211.954086,-4589.276840
1159.280060,9193.145976,-19393.395680,-4441.235652
1159.280379,2145.067394,-16284.530724,-3108.864956
1159.280698,-3677.258390,-19171.333898,12287.418637
1159.281016,-9806.022374,-22280.198854,26055.249158
1159.281335,-12104.308868,-16062.468941,39230.914926
1159.281654,-14019.547613,-7031.956449,34345.555709
1159.281973,-14862.252661,6809.894666,25092.981434
1159.282292,-11338.213370,14804.118840,23464.528361
1159.282611,-4060.306139,21243.910535,20355.663405
1159.282930,1302.362347,22058.137072,9992.780217
1159.283249,6741.640382,21614.013506,-3478.967927
1159.283568,12870.404366,20133.601622,-13915.871710
1159.283887,16777.491406,12139.377449,-21243.910535
1159.284206,17083.929605,-1480.411884,-13027.624579
1159.284525,11338.213370,-12361.439231,-3627.009116
1159.284844,4903.011187,-13619.789333,-5255.462188
1159.285163,-153.219100,-16358.551318,-222.061783
1159.285481,-7584.345430,-16950.716072,15544.324782
1159.285800,-8503.660028,-24574.837274,33235.246796
1159.286119,-14249.376263,-15470.304188,39526.997303
1159.286438,-17390.367805,-5625.565159,33383.287984
1159.286757,-17466.977354,7179.997637,25315.043216
1159.287076,-14019.547613,17172.777854,24426.796086
1159.287395,-4519.963438,16432.571912,23760.610738
1159.287714,0.000000,23464.528361,9252.574275
1159.288033,6588.421283,27609.681637,-4885.359217
1159.288352,13866.328514,21539.992912,-11991.336260
1159.288671,16700.881856,8142.265362,-18357.107362
1159.288990,16700.881856,-7476.080014,-5033.400406
1159.289309,12104.308868,-18061.024985,0.000000
1159.289627,4366.744339,-13693.809927,-3923.091493
1159.289946,995.924147,-15174.221811,3108.864956
1159.290265,-3983.696590,-20873.807564,18505.148550
1159.290584,-4060.306139,-22206.178260,34863.699868
1159.290903,-10265.679673,-10066.800811,33383.287984
1159.291222,-12487.356617,1184.329507,32495.040854
1159.291541,-12717.185267,9844.739029,27609.681637
1159.291860,-7814.174080,14285.974681,23316.487173
1159.292179,995.924147,19689.478057,15914.427753
1159.292498,7431.126331,23908.651927,8068.244768
1159.292817,13406.671215,22576.281231,-7698.141797
1159.293136,18616.120601,15988.448347,-15396.283594
1159.293455,20224.921147,3478.967927,-16210.510130
1159.293774,17160.539155,-6587.832884,-8142.265362
1159.294092,12257.527968,-14359.995275,-5033.400406
1159.294411,4519.963438,-12361.439231,-5625.565159
1159.294730,-1532.190996,-16802.674883,3256.906145
1159.295049,-7890.783629,-22872.363608,22872.363608
1159.295368,-10418.898773,-26203.290347,39156.894332
1159.295687,-13789.718964,-11547.212695,36122.049970
1159.296006,-14096.157163,2738.761985,29978.340651
1159.296325,-12487.356617,12139.377449,23390.507767
1159.296644,-7277.907231,17172.777854,22428.240043
1159.296963,1455.581446,12509.480420,14211.954086
1159.297282,5592.497135,30052.361245,-1998.556043
1159.297601,10801.946522,22724.322419,-16062.468941
1159.297920,13253.452115,15174.221811,-20059.581028
1159.298238,15015.471761,-0.000000,-16506.592507
1159.298557,10112.460574,-12879.583391,-2442.679609
1159.298876,5822.325785,-18135.045579,-6365.771101
1159.299195,-2221.676944,-16876.695478,-4737.318029
1159.299514,-5286.058936,-21539.992912,8364.327145
1159.299833,-10648.727422,-24870.919651,31014.628970
1159.300152,-11568.042020,-21021.848753,43228.027013
1159.300471,-15551.738609,-6957.935855,34197.514520
1159.300790,-12410.747068,7772.162391,27313.599260
1159.301109,-11184.994271,15248.242405,19393.395680
1159.301428,-5745.716235,20355.663405,15174.221811
1159.301747,919.314598,17394.839637,7624.121203
1159.302066,5439.278036,31606.793723,-11325.150913
1159.302385,11951.089769,23020.404796,-17468.860231
1159.302703,14709.033562,8734.430116,-17690.922014
1159.303022,16547.662757,-8808.450710,-10955.047942
1159.303341,13483.280765,-17246.798449,-1258.350101
1159.303660,7737.564530,-17987.004391,-2146.597232
1159.303979,6818.249932,-16432.571912,5551.544565
1159.304298,3600.648841,-17987.004391,19171.333898
1159.304617,2068.457845,-16728.654289,38712.770767
1159.304936,-2451.505594,-8882.471304,42931.944636
1159.305255,-4903.011187,9622.677246,26055.249158
1159.305574,-2528.115143,18727.210333,19023.292709
1159.305893,0.000000,23612.569550,11843.295072
1159.306212,8120.612279,23538.548956,9474.636058
1159.306531,11414.822920,25759.166782,-3627.009116
1159.306849,12717.185267,22650.301825,-12879.583391
1159.307168,15398.519510,12435.459826,-18505.148550
1159.307487,15168.690860,740.205942,-14137.933492
1159.307806,12257.527968,-14434.015869,-740.205942
1159.308125,7277.907231,-19393.395680,9696.697840
1159.308444,2145.067394,-16210.510130,6143.709319
1159.308763,-995.924147,-14359.995275,16728.654289
1159.309082,-1762.019645,-12583.501014,33753.390955
1159.309401,-5056.230287,-5995.668130,36788.235317
1159.309720,-4519.963438,4367.215058,33605.349767
1159.310039,-2451.505594,22946.384202,20947.828159
1159.310358,-3140.991542,26573.393318,11547.212695
1159.310677,2528.115143,30052.361245,6365.771101
1159.310996,4136.915689,27017.516883,2072.576638
1159.311314,7048.078582,22354.219448,-6513.812290
1159.311633,6894.859482,14508.036463,-15692.365970
1159.311952,7431.126331,4293.194464,-13249.686362
1159.312271,5515.887586,-9992.780217,-592.164754
1159.312590,153.219100,-22650.301825,7476.080014
1159.312909,-4596.572988,-25981.228564,14434.015869
1159.313228,-3447.429741,-24944.940245,25389.063811
1159.313547,-4826.401637,-14656.077652,32272.979071
1159.313866,-4443.353888,-4293.194464,32717.102636
1159.314185,-3600.648841,10140.821405,36270.091158
1159.314504,153.219100,20799.786970,24500.816680
1159.314823,-1455.581446,32272.979071,8438.347739
1159.315142,4060.306139,32717.102636,3627.009116
1159.315460,3217.601092,28349.887579,-6735.874072
1159.315779,6588.421283,22354.219448,-13767.830521
1159.316098,6971.469032,9400.615463,-12509.480420
1159.316417,6358.592633,-5625.565159,-5921.647536
1159.316736,1455.581446,-15988.448347,-4145.153275
1159.317055,306.438199,-28423.908173,8808.450710
1159.317374,-1915.238745,-34123.493926,21317.931130
1159.317693,536.266849,-24648.857869,33087.205607
1159.318012,1302.362347,-13175.665768,30496.484810
1159.318331,1608.800546,-444.123565,30644.525999
1159.318650,1915.238745,11029.068536,28423.908173
1159.318969,766.095498,23316.487173,18135.045579
1159.319288,2451.505594,30792.567187,5255.462188
1159.319607,4596.572988,32717.102636,-6439.791695
1159.319925,7354.516781,30866.587781,-18949.272115
1159.320244,6358.592633,15618.345376,-20059.581028
1159.320563,6511.811733,-3256.906145,-6365.771101
1159.320882,6128.763984,-19763.498651,4885.359217
1159.321201,2145.067394,-23316.487173,2516.700203
1159.321520,0.000000,-33013.185013,15248.242405
1159.321839,2374.896044,-32124.937883,29682.258274
1159.322158,5439.278036,-19319.375086,33975.452738
1159.322477,3294.210641,-3478.967927,25092.981434
1159.322796,4060.306139,9400.615463,24870.919651
1159.323115,5132.839837,21910.095883,18579.169144
1159.323434,1915.238745,30200.402434,5107.421000
1159.323753,1608.800546,33235.246796,-6143.709319
1159.324071,4443.353888,26055.249158,-10362.883188
1159.324390,3677.258390,20133.601622,-17987.004391
1159.324709,2451.505594,-2368.659014,-12879.583391
1159.325028,3830.477490,-15248.242405,1628.453072
1159.325347,5669.106685,-18209.066173,9104.533087
1159.325666,2221.676944,-19319.375086,11177.109724
1159.325985,4596.572988,-25315.043216,25092.981434
1159.326304,6052.154434,-14359.995275,28719.990550
1159.326623,6511.811733,3775.050304,16284.530724
1159.326942,3830.477490,15692.365970,12805.562797
1159.327261,2298.286494,17616.901420,12657.521608
1159.327580,0.000000,22798.343014,4959.379811
1159.327899,-1455.581446,24278.754898,-4737.318029
1159.328217,-3370.820191,17987.004391,-1628.453072
1159.328536,-4213.525239,7254.018232,444.123565
1159.328855,-2221.676944,-3627.009116,1702.473667
1159.329174,-1915.238745,-9030.512492,5995.668130
1159.329493,1762.019645,-10066.800811,18209.066173
1159.329812,3140.991542,-4441.235652,17024.736666
1159.330131,3753.867940,-2294.638420,15544.324782
1159.330450,7201.297681,666.185348,16728.654289
1159.330769,7660.954980,6957.935855,9548.656652
1159.331088,6435.202183,11177.109724,4219.173869
1159.331406,2221.676944,5403.503377,7624.121203
1159.331725,-2451.505594,2294.638420,9178.553681
1159.332044,-2834.553343,5255.462188,7105.977043
1159.332363,-4136.915689,6143.709319,8882.471304
1159.332682,-3447.429741,3552.988522,12139.377449
1159.333001,-689.485948,1924.535449,11177.109724
1159.333320,2374.896044,6365.771101,7846.182985
1159.333639,4366.744339,5847.626942,11399.171507
1159.333958,6358.592633,4959.379811,13249.686362
1159.334276,6588.421283,1332.370696,13545.768739
1159.334595,6435.202183,-2590.720797,16580.613101
1159.334914,5745.716235,-3330.926739,12287.418637
1159.335233,4596.572988,-4071.132681,9326.594869
1159.335552,4596.572988,-74.020594,6883.915261
1159.335871,3064.381992,7254.018232,5995.668130
1159.336190,1608.800546,7105.977043,5033.400406
1159.336509,0.000000,11251.130318,7920.203579
1159.336828,459.657299,8808.450710,12139.377449
1159.337147,0.000000,8734.430116,12139.377449
1159.337465,919.314598,3775.050304,12213.398043
1159.337784,2681.334243,1776.494261,12509.480420
1159.338103,4673.182538,-3182.885551,14878.139434
1159.338422,6205.373534,-2368.659014,14211.954086
1159.338741,6052.154434,-2590.720797,11177.109724
1159.339060,5898.935335,-3256.906145,8586.388927
1159.339379,6128.763984,1406.391290,4441.235652
1159.339698,6511.811733,7031.956449,1406.391290
1159.340017,5439.278036,10510.924376,222.061783
1159.340336,3294.210641,10362.883188,1702.473667
1159.340654,689.485948,6587.832884,5995.668130
1159.340973,-306.438199,2516.700203,12361.439231
1159.341292,-1915.238745,1702.473667,11769.274478
1159.341611,-1149.143247,-518.144159,13767.830521
1159.341930,-919.314598,-1628.453072,13397.727550
1159.342249,612.876398,-1998.556043,13249.686362
1159.342568,1532.190996,-222.061783,11473.192101
1159.342887,2221.676944,3034.844362,9622.677246
1159.343206,3677.258390,3627.009116,6957.935855
1159.343524,4826.401637,5255.462188,4589.276840
1159.343843,5439.278036,5625.565159,1850.514855
1159.344162,5822.325785,5107.421000,1554.432478
1159.344481,5209.449386,3256.906145,2664.741391
1159.344800,3830.477490,666.185348,5329.482782
1159.345119,1608.800546,-444.123565,7402.059420
1159.345438,-383.047749,-518.144159,9178.553681
1159.345757,-2374.896044,-1110.308913,10732.986159
1159.346076,-2757.943793,-1998.556043,13027.624579
1159.346395,-2834.553343,-1406.391290,14508.036463
1159.346713,-2528.115143,222.061783,13915.871710
1159.347032,-383.047749,2738.761985,14137.933492
1159.347351,2528.115143,3923.091493,11917.315666
1159.347670,4903.011187,3478.967927,9548.656652
1159.347989,7431.126331,2960.823768,5699.585753
1159.348308,9576.193725,2220.617826,5107.421000
1159.348627,10035.851024,1036.288319,3849.070898
1159.348946,10112.460574,1702.473667,2664.741391
1159.349265,9729.412825,3997.112087,2886.803174
1159.349583,7354.516781,4145.153275,4145.153275
1159.349902,3753.867940,3034.844362,7031.956449
1159.350221,153.219100,1998.556043,9474.636058
1159.350540,-2528.115143,962.267725,12139.377449
1159.350859,-3830.477490,1184.329507,13545.768739
1159.351178,-4213.525239,1110.308913,15692.365970
1159.351497,-3524.039291,-296.082377,17690.922014
1159.351816,-1608.800546,-0.000000,17616.901420
1159.352135,0.000000,518.144159,15544.324782
1159.352454,2451.505594,1776.494261,12583.501014
1159.352772,4903.011187,3182.885551,9548.656652
1159.353091,6971.469032,5847.626942,5181.441594
1159.353410,8350.440928,7920.203579,2516.700203
1159.353729,8656.879127,7698.141797,1924.535449
1159.354048,7814.174080,7105.977043,2738.761985
1159.354367,5669.106685,5921.647536,4219.173869
1159.354686,3370.820191,4737.318029,5477.523971
1159.355005,689.485948,3108.864956,8586.388927
1159.355324,-1915.238745,1036.288319,11769.274478
1159.355643,-3830.477490,-296.082377,14878.139434
1159.355961,-4060.306139,-148.041188,17616.901420
1159.356280,-4596.572988,666.185348,18135.045579
1159.356599,-2604.724693,1036.288319,17024.736666
1159.356918,-229.828649,3256.906145,15100.201217
1159.357237,2528.115143,5033.400406,10955.047942
1159.357556,3830.477490,6883.915261,5107.421000
1159.357875,4519.963438,7772.162391,2738.761985
1159.358194,9652.803275,5181.441594,5551.544565
1159.358513,7967.393179,5699.585753,2072.576638
1159.358831,7737.564530,3627.009116,3552.988522
1159.359150,4979.620737,3775.050304,4589.276840
1159.359469,3830.477490,5995.668130,7254.018232
1159.359788,2834.553343,740.205942,9918.759623
1159.360107,-766.095498,518.144159,11917.315666
1159.360426,-1608.800546,-0.000000,15322.262999
1159.360745,-1378.971896,1776.494261,13693.809927
1159.361064,-919.314598,296.082377,14508.036463
1159.361383,-1149.143247,-2516.700203,15396.283594
1159.361702,-842.705048,-1036.288319,11103.089130
1159.362020,-2145.067394,2220.617826,4367.215058
1159.362339,1378.971896,1036.288319,7624.121203
1159.362658,2604.724693,1628.453072,6957.935855
1159.362977,4903.011187,1628.453072,5181.441594
1159.363296,5362.668486,-518.144159,7550.100608
1159.363615,3600.648841,3478.967927,8364.327145
1159.363934,4673.182538,2220.617826,8882.471304
1159.364253,3217.601092,1850.514855,7698.141797
1159.364572,3064.381992,-0.000000,11325.150913
1159.364891,1991.848295,-1332.370696,10658.965565
1159.365209,1915.238745,2294.638420,8956.491898
1159.365528,2834.553343,-444.123565,10288.862594
1159.365847,1455.581446,-2590.720797,10732.986159
1159.366166,0.000000,-2590.720797,9770.718434
1159.366485,-1225.752797,-1406.391290,8438.347739
1159.366804,-1302.362347,-0.000000,8290.306550
1159.367123,-995.924147,814.226536,7698.141797
1159.367442,689.485948,1924.535449,7031.956449
1159.367761,2987.772442,1702.473667,7994.224174
1159.368079,2298.286494,3478.967927,7105.977043
1159.368398,1532.190996,2294.638420,7772.162391
1159.368717,1072.533697,888.247130,9474.636058
1159.369036,306.438199,148.041188,10436.903782
1159.369355,153.219100,296.082377,10214.842000
1159.369674,306.438199,1480.411884,10066.800811
1159.369993,1455.581446,2072.576638,10955.047942
1159.370312,2604.724693,1776.494261,10436.903782
1159.370631,2911.162892,2664.741391,9918.759623
1159.370950,2987.772442,2442.679609,10066.800811
1159.371268,3600.648841,2590.720797,9992.780217
1159.371587,4903.011187,2738.761985,9104.533087
1159.371906,5898.935335,2664.741391,9178.553681
1159.372225,7048.078582,3627.009116,9770.718434
1159.372544,8044.002729,4441.235652,8142.265362
1159.372863,8580.269578,4367.215058,7994.224174
1159.373182,7507.735880,3256.906145,9104.533087
1159.373501,6511.811733,2738.761985,9474.636058
1159.373820,5132.839837,2886.803174,8808.450710
1159.374139,3983.696590,2294.638420,9326.594869
1159.374457,3294.210641,1332.370696,10881.027347
1159.374776,2604.724693,1480.411884,10288.862594
1159.375095,1991.848295,1480.411884,10955.047942
1159.375414,612.876398,1258.350101,11695.253884
1159.375733,-536.266849,1776.494261,12435.459826
1159.376052,-1149.143247,2516.700203,12509.480420
1159.376371,-919.314598,3775.050304,12065.356855
1159.376690,-1149.143247,4885.359217,11843.295072
1159.377009,-76.609550,6513.812290,9548.656652
1159.377327,383.047749,6883.915261,8142.265362
1159.377646,1455.581446,5625.565159,7624.121203
1159.377965,1991.848295,4367.215058,7254.018232
1159.378284,2298.286494,2738.761985,7920.203579
1159.378603,2757.943793,1924.535449,8438.347739
1159.378922,3140.991542,1776.494261,8808.450710
1159.379241,3294.210641,2368.659014,8512.368333
1159.379560,3447.429741,3256.906145,8956.491898
1159.379879,3753.867940,5033.400406,8068.244768
1159.380198,3753.867940,6883.915261,7031.956449
1159.380516,3907.087040,7550.100608,5847.626942
1159.380835,4136.915689,7698.141797,5773.606348
1159.381154,4596.572988,6439.791695,5551.544565
1159.381473,4749.792088,4737.318029,5773.606348
1159.381792,5362.668486,2146.597232,6587.832884
1159.382111,6281.983084,1332.370696,7328.038826
1159.382430,7201.297681,1776.494261,7772.162391
1159.382749,7967.393179,3108.864956,7402.059420
1159.383068,8427.050478,4589.276840,7328.038826
1159.383387,7814.174080,5699.585753,6513.812290
1159.383705,7584.345430,5699.585753,5773.606348
1159.384024,6435.202183,5107.421000,6735.874072
1159.384343,5515.887586,3849.070898,7402.059420
1159.384662,4596.572988,3108.864956,8364.327145
1159.384981,3753.867940,2590.720797,8882.471304
1159.385300,3217.601092,1998.556043,9400.615463
1159.385619,2681.334243,1924.535449,9030.512492
1159.385938,2911.162892,1850.514855,9326.594869
1159.386257,2911.162892,1776.494261,9918.759623
1159.386575,2374.896044,1258.350101,10214.842000
1159.386894,2298.286494,1924.535449,10288.862594
1159.387213,2068.457845,1998.556043,10140.821405
1159.387532,2374.896044,444.123565,10510.924376
1159.387851,842.705048,-370.102971,9622.677246
1159.388170,766.095498,-1850.514855,10288.862594
1159.388489,-459.657299,-1776.494261,10881.027347
1159.388808,-766.095498,-814.226536,11769.274478
1159.389127,-1838.629195,-0.000000,10881.027347
1159.389446,-3064.381992,1628.453072,11103.089130
1159.389764,-2987.772442,2368.659014,10881.027347
1159.390083,-2834.553343,2516.700203,10140.821405
1159.390402,-3294.210641,1110.308913,10436.903782
1159.390721,-2834.553343,-592.164754,11325.150913
1159.391040,-2911.162892,-2072.576638,12361.439231
1159.391359,-1838.629195,-3108.864956,12435.459826
1159.391678,-1532.190996,-4293.194464,13841.851115
1159.391997,-612.876398,-3330.926739,12953.603985
1159.392316,1072.533697,-1480.411884,11917.315666
1159.392635,2068.457845,1924.535449,10362.883188
1159.392953,3753.867940,4663.297435,8660.409521
1159.393272,4366.744339,7550.100608,6587.832884
1159.393591,4979.620737,8660.409521,4959.379811
1159.393910,4519.963438,6883.915261,5255.462188
1159.394229,4290.134789,4145.153275,6217.729913
1159.394548,4213.525239,1628.453072,7179.997637
1159.394867,4443.353888,-666.185348,8512.368333
1159.395186,4213.525239,-1628.453072,10362.883188
1159.395505,4519.963438,-1850.514855,12139.377449
1159.395823,5056.230287,-370.102971,12953.603985
1159.396142,4749.792088,1776.494261,11325.150913
1159.396461,5286.058936,4737.318029,9622.677246
1159.396780,4903.011187,7402.059420,7105.977043
1159.397099,4673.182538,7476.080014,5551.544565
1159.397418,4749.792088,7920.203579,3701.029710
1159.397737,4366.744339,5921.647536,3627.009116
1159.398056,3753.867940,2664.741391,5107.421000
1159.398375,3140.991542,666.185348,6735.874072
1159.398694,2834.553343,222.061783,8438.347739
1159.399012,2681.334243,370.102971,9548.656652
1159.399331,2604.724693,1924.535449,10066.800811
1159.399650,2528.115143,3404.947333,10510.924376
1159.399969,1915.238745,5329.482782,9252.574275
1159.400288,1608.800546,5403.503377,8808.450710
1159.400607,919.314598,4737.318029,7772.162391
1159.400926,76.609550,3108.864956,7402.059420
1159.401245,0.000000,2220.617826,7624.121203
1159.401564,153.219100,962.267725,8882.471304
1159.401883,306.438199,370.102971,9918.759623
1159.402201,612.876398,1406.391290,10066.800811
1159.402520,2221.676944,3923.091493,10584.944971
1159.402839,3983.696590,6069.688724,9696.697840
1159.403158,4290.134789,7105.977043,8290.306550
1159.403477,5439.278036,6217.729913,9474.636058
1159.403796,5439.278036,6217.729913,8734.430116
1159.404115,5822.325785,5403.503377,7105.977043
1159.404434,5439.278036,2960.823768,6587.832884
1159.404753,3294.210641,888.247130,6735.874072
1159.405071,2834.553343,-1554.432478,8438.347739
1159.405390,919.314598,-2368.659014,8808.450710
1159.405709,-306.438199,-2368.659014,11917.315666
1159.406028,-536.266849,-2072.576638,15174.221811
1159.406347,-1149.143247,1628.453072,14656.077652
1159.406666,229.828649,3330.926739,15322.262999
1159.406985,1455.581446,5107.421000,14656.077652
1159.407304,2604.724693,6143.709319,12583.501014
1159.407623,4673.182538,4811.338623,11029.068536
1159.407942,4979.620737,4293.194464,8882.471304
1159.408260,6511.811733,3182.885551,7624.121203
1159.408579,6818.249932,2368.659014,6439.791695
1159.408898,5975.544884,2220.617826,4589.276840
1159.409217,5669.106685,666.185348,4663.297435
1159.409536,3677.258390,296.082377,4589.276840
1159.409855,2145.067394,-1850.514855,8364.327145
1159.410174,153.219100,-2368.659014,11399.171507
1159.410493,-1915.238745,-666.185348,14285.974681
1159.410812,-3294.210641,-222.061783,15988.448347
1159.411131,-3907.087040,962.267725,16062.468941
1159.411449,-2604.724693,1480.411884,16284.530724
1159.411768,-1225.752797,4219.173869,13397.727550
1159.412087,612.876398,5921.647536,10510.924376
1159.412406,3294.210641,7772.162391,7476.080014
1159.412725,5056.230287,9548.656652,4515.256246
1159.413044,6588.421283,9326.594869,1628.453072
1159.413363,7354.516781,7772.162391,518.144159
1159.413682,7201.297681,4959.379811,0.000000
1159.414001,5898.935335,1332.370696,1036.288319
1159.414319,4443.353888,-1258.350101,5477.523971
1159.414638,2604.724693,-3034.844362,9770.718434
1159.414957,842.705048,-3256.906145,14730.098246
1159.415276,-1378.971896,-3034.844362,18135.045579
1159.415595,-1838.629195,-1036.288319,19837.519246
1159.415914,-1302.362347,3256.906145,16506.592507
1159.416233,0.000000,6587.832884,12953.603985
1159.416552,2451.505594,8808.450710,11547.212695
1159.416871,5209.449386,10881.027347,6661.853478
1159.417190,7814.174080,11843.295072,1554.432478
1159.417508,8886.707777,8734.430116,-444.123565
1159.417827,10112.460574,3849.070898,-1036.288319
1159.418146,9346.365076,-1110.308913,-592.164754
1159.418465,7507.735880,-4663.297435,1184.329507
1159.418784,6588.421283,-7105.977043,7846.182985
1159.419103,2451.505594,-5921.647536,11325.150913
1159.419422,1072.533697,-4589.276840,17764.942608
1159.419741,-1838.629195,-1554.432478,21465.972318
1159.420060,-2911.162892,4441.235652,18727.210333
1159.420378,-2604.724693,5329.482782,17690.922014
1159.420697,-2221.676944,9030.512492,15914.427753
1159.421016,153.219100,10288.862594,11843.295072
1159.421335,2298.286494,10732.986159,5477.523971
1159.421654,5209.449386,10436.903782,3182.885551
1159.421973,7277.907231,4441.235652,1258.350101
1159.422292,8120.612279,1184.329507,-1258.350101
1159.422611,7431.126331,-2442.679609,-1258.350101
1159.422930,6052.154434,-4293.194464,-444.123565
1159.423249,3370.820191,-4145.153275,4737.318029
1159.423567,1302.362347,-3627.009116,11177.109724
1159.423886,-1838.629195,-1406.391290,16580.613101
1159.424205,-4290.134789,-814.226536,20503.704593
1159.424524,-6128.763984,1258.350101,21539.992912
1159.424843,-5669.106685,2960.823768,22132.157666
1159.425162,-4366.744339,6513.812290,17764.942608
1159.425481,-2145.067394,5033.400406,13693.809927
1159.425800,1302.362347,10140.821405,11473.192101
1159.426119,3983.696590,7920.203579,5403.503377
1159.426438,7660.954980,7254.018232,-740.205942
1159.426756,10418.898773,5995.668130,-3256.906145
1159.427075,10342.289223,2220.617826,-5033.400406
1159.427394,10112.460574,-1184.329507,-3923.091493
1159.427713,8580.269578,-4219.173869,1998.556043
1159.428032,4519.963438,-4663.297435,8290.306550
1159.428351,1762.019645,-5033.400406,16210.510130
1159.428670,-2834.553343,-3330.926739,20207.622217
1159.428989,-5056.230287,-370.102971,22946.384202
1159.429307,-5286.058936,-0.000000,23316.487173
1159.429626,-4903.011187,6439.791695,17394.839637
1159.429945,-4749.792088,7846.182985,14285.974681
1159.430264,-842.705048,9178.553681,11029.068536
1159.430583,0.000000,9326.594869,5847.626942
1159.430902,5286.058936,8734.430116,3330.926739
1159.431221,7124.688131,7179.997637,-2886.803174
1159.431540,8656.879127,4071.132681,-5995.668130
1159.431858,9652.803275,-3330.926739,-3256.906145
1159.432177,7277.907231,-6809.894666,444.123565
1159.432496,3677.258390,-9326.594869,7031.956449
1159.432815,76.609550,-7179.997637,13545.768739
1159.433134,-3830.477490,-5255.462188,19467.416275
1159.433453,-7354.516781,-3701.029710,21762.054695
1159.433772,-9269.755526,-518.144159,23390.507767
1159.434091,-9806.022374,3849.070898,21539.992912
1159.434410,-8503.660028,4811.338623,16358.551318
1159.434728,-6435.202183,9918.759623,13767.830521
1159.435047,-612.876398,10140.821405,9992.780217
1159.435366,2451.505594,8290.306550,666.185348
1159.435685,6128.763984,4959.379811,-3849.070898
1159.436004,7584.345430,-1702.473667,-4219.173869
1159.436323,7201.297681,-8068.244768,-4811.338623
1159.436642,6052.154434,-13767.830521,-222.061783
1159.436961,2681.334243,-13175.665768,6291.750507
1159.437279,306.438199,-10732.986159,14730.098246
1159.437598,-3140.991542,-7920.203579,18949.272115
1159.437917,-6358.592633,-3701.029710,23020.404796
1159.438236,-7048.078582,666.185348,24796.899057
1159.438555,-8197.221829,3775.050304,21836.075289
1159.438874,-5515.887586,8956.491898,15840.407159
1159.439193,-1685.410096,8882.471304,12805.562797
1159.439512,153.219100,11547.212695,7254.018232
1159.439830,5362.668486,7624.121203,1036.288319
1159.440149,7124.688131,4515.256246,-6069.688724
1159.440468,8886.707777,-2886.803174,-7031.956449
1159.440787,8427.050478,-7920.203579,-4515.256246
1159.441106,8580.269578,-9770.718434,-1184.329507
1159.441425,5132.839837,-11473.192101,4589.276840
1159.441744,919.314598,-10807.006753,10510.924376
1159.442063,-1915.238745,-10362.883188,19393.395680
1159.442382,-4903.011187,-5181.441594,21614.013506
1159.442700,-5745.716235,592.164754,21910.095883
1159.443019,-6358.592633,2960.823768,21317.931130
1159.443338,-6281.983084,7402.059420,16950.716072
1159.443657,-3600.648841,7772.162391,11843.295072
1159.443976,-1608.800546,13249.686362,7624.121203
1159.444295,2451.505594,10066.800811,2590.720797
1159.444614,5515.887586,5921.647536,-4737.318029
1159.444933,7201.297681,3478.967927,-8364.327145
1159.445251,9422.974625,-2072.576638,-6439.791695
1159.445570,9576.193725,-6957.935855,-2072.576638
1159.445889,6894.859482,-12139.377449,3627.009116
1159.446208,2451.505594,-13027.624579,9400.615463
1159.446527,-2451.505594,-11103.089130,16654.633695
1159.446846,-5669.106685,-8808.450710,23390.507767
1159.447165,-7967.393179,-2442.679609,24574.837274
1159.447484,-9269.755526,2664.741391,22650.301825
1159.447802,-7584.345430,10140.821405,17246.798449
1159.448121,-5439.278036,13101.645173,15248.242405
1159.448440,-1838.629195,15100.201217,10881.027347
1159.448759,995.924147,15322.262999,6291.750507
1159.449078,6358.592633,12139.377449,148.041188
1159.449397,8810.098227,9844.739029,-8068.244768
1159.449716,11261.603821,3034.844362,-9252.574275
1159.450035,11568.042020,-5477.523971,-4219.173869
1159.450353,8580.269578,-12213.398043,0.000000
1159.450672,3983.696590,-13767.830521,5847.626942
1159.450991,-536.266849,-11991.336260,13619.789333
1159.451310,-5898.935335,-8734.430116,21391.951724
1159.451629,-9116.536426,-3108.864956,25167.002028
1159.451948,-11338.213370,1924.535449,27017.516883
1159.452267,-11721.261119,5773.606348,24056.693115
1159.452586,-7967.393179,9474.636058,21539.992912
1159.452905,-2451.505594,18283.086767,14952.160028
1159.453223,2374.896044,18061.024985,9992.780217
1159.453542,8120.612279,16210.510130,3108.864956
1159.453861,10495.508323,11695.253884,-6291.750507
1159.454180,12717.185267,3997.112087,-11695.253884
1159.454499,13789.718964,-4811.338623,-8512.368333
1159.454818,10955.165621,-14656.077652,-1554.432478
1159.455137,7814.174080,-17098.757260,5699.585753
1159.455456,2451.505594,-12953.603985,10807.006753
1159.455774,-1685.410096,-9696.697840,19541.436869
1159.456093,-6894.859482,-9400.615463,27165.558071
1159.456412,-9652.803275,-1480.411884,29312.155303
1159.456731,-12104.308868,1702.473667,25389.063811
1159.457050,-10418.898773,7254.018232,23538.548956
1159.457369,-6665.030833,12287.418637,19319.375086
1159.457688,-3447.429741,11843.295072,13323.706956
1159.458007,1225.752797,11843.295072,8808.450710
1159.458325,5592.497135,10955.047942,-666.185348
1159.458644,9193.145976,8438.347739,-8956.491898
1159.458963,10418.898773,-2812.782580,-12435.459826
1159.459282,10342.289223,-10584.944971,-7105.977043
1159.459601,7890.783629,-17468.860231,592.164754
1159.459920,3524.039291,-16950.716072,3997.112087
1159.460239,-1991.848295,-14878.139434,12583.501014
1159.460558,-5439.278036,-13915.871710,24278.754898
1159.460877,-9806.022374,-10140.821405,28794.011144
1159.461195,-11874.480219,-2220.617826,28868.031738
1159.461514,-11951.089769,4515.256246,23834.631332
1159.461833,-8886.707777,11177.109724,18283.086767
1159.462152,-4749.792088,18357.107362,12213.398043
1159.462471,-1762.019645,13619.789333,8808.450710
1159.462790,2374.896044,16654.633695,0.000000
1159.463109,8886.707777,14804.118840,-12213.398043
1159.463428,13023.623466,4515.256246,-15544.324782
1159.463746,11491.432470,-8734.430116,-14285.974681
1159.464065,8656.879127,-24278.754898,-1480.411884
1159.464384,3524.039291,-25241.022622,-296.082377
1159.464703,-689.485948,-21688.034101,9548.656652
1159.465022,-5132.839837,-16876.695478,18283.086767
1159.465341,-10495.508323,-8068.244768,25537.104999
1159.465660,-10342.289223,-3108.864956,30422.464216
1159.465979,-11261.603821,7624.121203,23094.425390
1159.466297,-9652.803275,11991.336260,18801.230927
1159.466616,-3907.087040,14434.015869,15618.345376
1159.466935,-306.438199,17246.798449,13249.686362
1159.467254,3447.429741,16654.633695,4811.338623
1159.467573,8810.098227,16432.571912,-8216.285956
1159.467892,12487.356617,9178.553681,-14582.057057
1159.468211,15398.519510,-4293.194464,-17690.922014
1159.468530,14402.595362,-13397.727550,-11177.109724
1159.468849,9116.536426,-20873.807564,-3108.864956
1159.469167,3447.429741,-21688.034101,7254.018232
1159.469486,-3217.601092,-14952.160028,18357.107362
1159.469805,-7584.345430,-15544.324782,28497.928767
1159.470124,-12257.527968,-9104.533087,35011.741057
1159.470443,-12870.404366,740.205942,33235.246796
1159.470762,-12027.699319,11177.109724,21984.116477
1159.471081,-4366.744339,16506.592507,14434.015869
1159.471400,-76.609550,20873.807564,20577.725188
1159.471718,2298.286494,16580.613101,15174.221811
1159.472037,7048.078582,21465.972318,-296.082377
1159.472356,11414.822920,19911.539840,-14730.098246
1159.472675,12180.918418,7105.977043,-13989.892304
1159.472994,15858.176809,-7772.162391,-10732.986159
1159.473313,11951.089769,-15840.407159,-3330.926739
1159.473632,7890.783629,-20947.828159,518.144159
1159.473951,383.047749,-15988.448347,7031.956449
1159.474269,-3753.867940,-11473.192101,20577.725188
1159.474588,-9269.755526,-14878.139434,31606.793723
1159.474907,-15475.129060,-8808.450710,34493.596897
1159.475226,-16241.224558,2146.597232,28275.866984
1159.475545,-11874.480219,14656.077652,23538.548956
1159.475864,-6665.030833,16728.654289,18209.066173
1159.476183,459.657299,22502.260637,20133.601622
1159.476502,4519.963438,21984.116477,8142.265362
1159.476821,7507.735880,24574.837274,-6291.750507
1159.477139,14249.376263,20799.786970,-16358.551318
1159.477458,15934.786358,4737.318029,-18801.230927
1159.477777,16700.881856,-9844.739029,-9844.739029
1159.478096,9729.412825,-23094.425390,-3478.967927
1159.478415,2451.505594,-20133.601622,888.247130
1159.478734,-919.314598,-22872.363608,14508.036463
1159.479053,-5669.106685,-16950.716072,26203.290347
1159.479372,-10955.165621,-10658.965565,37380.400071
1159.479690,-13866.328514,-740.205942,31014.628970
1159.480009,-14709.033562,10436.903782,23612.569550
1159.480328,-11491.432470,14730.098246,20207.622217
1159.480647,-6128.763984,16950.716072,18653.189738
1159.480966,-4749.792088,17912.983796,11325.150913
1159.481285,3983.696590,23686.590144,2886.803174
1159.481604,7890.783629,19319.375086,-13027.624579
1159.481923,13559.890315,11695.253884,-18579.169144
1159.482241,11338.213370,-9474.636058,-14137.933492
1159.482560,9346.365076,-22798.343014,-4515.256246
1159.482879,1532.190996,-26351.331535,-370.102971
1159.483198,-1072.533697,-24574.837274,5847.626942
1159.483517,-4136.915689,-21021.848753,18801.230927
1159.483836,-9422.974625,-15174.221811,33531.329173
1159.484155,-11184.994271,-13915.871710,42709.882853
1159.484474,-11797.870669,1480.411884,28349.887579
1159.484793,-10878.556072,11621.233289,13693.809927
1159.485111,-4366.744339,13767.830521,18579.169144
1159.485430,-306.438199,17912.983796,22206.178260
1159.485749,3830.477490,20059.581028,2886.803174
1159.486068,8963.317327,21762.054695,-8660.409521
1159.486387,14479.204912,19245.354492,-17468.860231
1159.486706,15475.129060,1850.514855,-23094.425390
1159.487025,14709.033562,-14508.036463,-11103.089130
1159.487344,10801.946522,-26795.455100,-1554.432478
1159.487662,1838.629195,-22650.301825,1258.350101
1159.487981,-2221.676944,-22946.384202,12953.603985
1159.488300,-5669.106685,-20207.622217,26351.331535
1159.488619,-9193.145976,-14730.098246,35751.946999
1159.488938,-11108.384721,-2812.782580,30940.608376
1159.489257,-6894.859482,11177.109724,22946.384202
1159.489576,-6358.592633,15766.386565,15100.201217
1159.489895,612.876398,19911.539840,18579.169144
1159.490213,0.000000,12879.583391,16728.654289
1159.490532,7584.345430,26795.455100,4737.318029
1159.490851,9882.631924,26721.434506,-17764.942608
1159.491170,12104.308868,16506.592507,-23538.548956
1159.491489,17390.367805,-518.144159,-17246.798449
1159.491808,14555.814462,-10881.027347,-10584.944971
1159.492127,5056.230287,-25389.063811,-5033.400406
1159.492446,-1991.848295,-22206.178260,6513.812290
1159.492765,-5515.887586,-26203.290347,23390.507767
1159.493083,-11031.775171,-22946.384202,31236.690752
1159.493402,-14632.424012,-12139.377449,40859.367998
1159.493721,-13406.671215,-518.144159,34863.699868
1159.494040,-10878.556072,14359.995275,17616.901420
1159.494359,-8273.831378,18431.127956,13619.789333
1159.494678,-3217.601092,17394.839637,28423.908173
1159.494997,-306.438199,25685.146187,18505.148550
1159.495316,6435.202183,30644.525999,-3701.029710
1159.495634,10418.898773,30570.505405,-17987.004391
1159.495953,12410.747068,14211.954086,-21836.075289
1159.496272,16394.443657,-6069.688724,-15470.304188
1159.496591,10878.556072,-17542.880825,-7846.182985
1159.496910,1685.410096,-28794.011144,2072.576638
1159.497229,-3983.696590,-22724.322419,15396.283594
1159.497548,-4749.792088,-23834.631332,24796.899057
1159.497867,-11338.213370,-19097.313304,34567.617491
1159.498185,-11184.994271,-4737.318029,41525.553346
1159.498504,-12640.575717,7772.162391,22798.343014
1159.498823,-8580.269578,15026.180623,17024.736666
1159.499142,-3370.820191,18135.045579,25907.207970
1159.499461,612.876398,16284.530724,27979.784608
1159.499780,3370.820191,26943.496289,7328.038826
1159.500099,9576.193725,27979.784608,-13175.665768
1159.500418,12180.918418,17987.004391,-19319.375086
1159.500737,15551.738609,4885.359217,-18949.272115
1159.501055,15934.786358,-9770.718434,-12805.562797
1159.501374,13023.623466,-20429.683999,-2442.679609
1159.501693,3830.477490,-21095.869347,3701.029710
1159.502012,919.314598,-22576.281231,13915.871710
1159.502331,-6052.154434,-19689.478057,26943.496289
1159.502650,-8886.707777,-18727.210333,42783.903448
1159.502969,-12947.013916,-4367.215058,31458.752535
1159.503288,-12717.185267,7402.059420,20947.828159
1159.503606,-8886.707777,12879.583391,19467.416275
1159.503925,-3907.087040,17246.798449,26351.331535
1159.504244,-229.828649,19467.416275,21021.848753
1159.504563,5439.278036,24574.837274,1406.391290
1159.504882,10418.898773,27905.764013,-8364.327145
1159.505201,11031.775171,19541.436869,-24426.796086
1159.505520,13176.842566,2368.659014,-20133.601622
1159.505839,13636.499864,-12805.562797,-9030.512492
1159.506157,7660.954980,-25463.084405,-3849.070898
1159.506476,-3370.820191,-23242.466579,1776.494261
1159.506795,-5362.668486,-28794.011144,20429.683999
1159.507114,-6894.859482,-26129.269753,31236.690752
1159.507433,-12257.527968,-15766.386565,34419.576303
1159.507752,-12027.699319,-1258.350101,31088.649564
1159.508071,-13483.280765,9622.677246,20503.704593
1159.508390,-10265.679673,16506.592507,12435.459826
1159.508708,-4060.306139,14878.139434,31162.670158
1159.509027,306.438199,27609.681637,15100.201217
1159.509346,5209.449386,26795.455100,-8438.347739
1159.509665,15398.519510,29460.196492,-19467.416275
1159.509984,14249.376263,18653.189738,-23612.569550
1159.510303,17390.367805,-6883.915261,-19171.333898
1159.510622,10189.070123,-23168.445985,-9252.574275
1159.510941,4519.963438,-23686.590144,-3478.967927
1159.511260,-3064.381992,-29386.175897,6291.750507
1159.511578,-7124.688131,-22280.198854,19763.498651
1159.511897,-7048.078582,-26129.269753,38934.832549
1159.512216,-11491.432470,-10066.800811,35011.741057
1159.512535,-10801.946522,6587.832884,23094.425390
1159.512854,-9652.803275,16654.633695,21317.931130
1159.513173,-5669.106685,17320.819043,19689.478057
1159.513492,-1149.143247,16210.510130,22132.157666
1159.513811,3830.477490,22946.384202,14211.954086
1159.514129,9882.631924,26721.434506,-8956.491898
1159.514448,15858.176809,27165.558071,-23982.672521
1159.514767,16777.491406,10658.965565,-26573.393318
1159.515086,17773.415554,-10807.006753,-7624.121203
1159.515405,14325.985813,-19911.539840,-4145.153275
1159.515724,4596.572988,-17542.880825,-4811.338623
1159.516043,306.438199,-20725.766376,10807.006753
1159.516362,-5669.106685,-24574.837274,27239.578666
1159.516680,-7431.126331,-24426.796086,40267.203245
1159.516999,-12334.137518,-8290.306550,33161.226202
1159.517318,-12410.747068,7698.141797,26499.372724
1159.517637,-10955.165621,12435.459826,20651.745782
1159.517956,-6818.249932,15840.407159,30792.567187
1159.518275,1762.019645,16654.633695,27831.743419
1159.518594,4979.620737,29756.278868,2368.659014
1159.518913,9193.145976,34715.658680,-17394.839637
1159.519232,12487.356617,24648.857869,-19023.292709
1159.519550,18462.901502,4441.235652,-14285.974681
1159.519869,15245.300410,-11843.295072,-7772.162391
1159.520188,9729.412825,-25463.084405,-1998.556043
1159.520507,306.438199,-18653.189738,3775.050304
1159.520826,-3064.381992,-29238.134709,21095.869347
1159.521145,-6971.469032,-23020.404796,32643.082042
1159.521464,-7814.174080,-15100.201217,41155.450375
1159.521783,-10955.165621,888.247130,28497.928767
1159.522101,-13023.623466,14211.954086,21317.931130
1159.522420,-11644.651570,17542.880825,17764.942608
1159.522739,-4673.182538,13101.645173,29460.196492
1159.523058,-1762.019645,21465.972318,18653.189738
