#time,accel_x,accel_y,accel_z
1435.753774,2145.067394,-1628.453072,5329.482782
1435.754092,1608.800546,-666.185348,5921.647536
1435.754409,1838.629195,-0.000000,5181.441594
1435.754726,1838.629195,592.164754,5255.462188
1435.755044,1608.800546,444.123565,5403.503377
1435.755361,1455.581446,296.082377,5107.421000
1435.755678,1149.143247,-444.123565,4959.379811
1435.755995,1225.752797,-1258.350101,6587.832884
1435.756313,306.438199,-1776.494261,8290.306550
1435.756630,-306.438199,-1628.453072,9178.553681
1435.756947,-1149.143247,-1184.329507,9696.697840
1435.757265,-1915.238745,-222.061783,9918.759623
1435.757582,-1608.800546,444.123565,10362.883188
1435.757899,-1302.362347,1850.514855,9178.553681
1435.758216,-1225.752797,1776.494261,8882.471304
1435.758534,-689.485948,1184.329507,9104.533087
1435.758851,-612.876398,518.144159,10362.883188
1435.759168,0.000000,-666.185348,11103.089130
1435.759486,0.000000,-814.226536,11621.233289
1435.759803,-153.219100,-740.205942,12065.356855
1435.760120,-459.657299,-592.164754,12583.501014
1435.760437,0.000000,-148.041188,13027.624579
1435.760755,-383.047749,1406.391290,12065.356855
1435.761072,0.000000,2146.597232,11991.336260
1435.761389,0.000000,2220.617826,12139.377449
1435.761706,153.219100,1776.494261,12361.439231
1435.762024,-536.266849,1554.432478,12583.501014
1435.762341,0.000000,1776.494261,12879.583391
1435.762658,-229.828649,2146.597232,12657.521608
1435.762976,0.000000,2590.720797,12213.398043
1435.763293,919.314598,3330.926739,11917.315666
1435.763610,536.266849,4145.153275,11769.274478
1435.763927,689.485948,4367.215058,10955.047942
1435.764245,689.485948,4219.173869,10436.903782
1435.764562,306.438199,3701.029710,10214.842000
1435.764879,612.876398,3256.906145,10214.842000
1435.765197,766.095498,2812.782580,10436.903782
1435.765514,383.047749,2664.741391,10140.821405
1435.765831,842.705048,2812.782580,9918.759623
1435.766148,995.924147,3256.906145,9548.656652
1435.766466,1455.581446,3330.926739,9104.533087
1435.766783,1608.800546,3256.906145,8586.388927
1435.767100,1991.848295,3108.864956,8956.491898
1435.767417,1685.410096,2590.720797,8734.430116
1435.767735,1685.410096,2220.617826,9326.594869
1435.768052,1762.019645,1036.288319,9770.718434
1435.768369,1762.019645,518.144159,9770.718434
1435.768687,1915.238745,-0.000000,9844.739029
1435.769004,2068.457845,-518.144159,9770.718434
1435.769321,1838.629195,-962.267725,9696.697840
1435.769638,2451.505594,-1184.329507,9548.656652
1435.769956,2221.676944,-1258.350101,9622.677246
1435.770273,1225.752797,-1406.391290,9992.780217
1435.770590,766.095498,-1702.473667,9992.780217
1435.770908,536.266849,-1850.514855,10214.842000
1435.771225,459.657299,-1628.453072,9918.759623
1435.771542,459.657299,-1850.514855,10288.862594
1435.771859,306.438199,-2146.597232,10140.821405
1435.772177,459.657299,-2442.679609,9696.697840
1435.772494,689.485948,-2886.803174,9992.780217
1435.772811,689.485948,-3182.885551,9770.718434
1435.773129,766.095498,-3108.864956,9474.636058
1435.773446,919.314598,-2738.761985,9252.574275
1435.773763,842.705048,-2442.679609,8586.388927
1435.774080,1225.752797,-1998.556043,8216.285956
1435.774398,919.314598,-1776.494261,7920.203579
1435.774715,536.266849,-1850.514855,7402.059420
1435.775032,459.657299,-1924.535449,7179.997637
1435.775349,-153.219100,-1924.535449,7105.977043
1435.775667,-153.219100,-2590.720797,7179.997637
1435.775984,-153.219100,-3108.864956,7254.018232
1435.776301,-766.095498,-3108.864956,7105.977043
1435.776619,-919.314598,-3034.844362,7254.018232
1435.776936,-842.705048,-2960.823768,7179.997637
1435.777253,-689.485948,-2368.659014,7179.997637
1435.777570,-689.485948,-1776.494261,7105.977043
1435.777888,-919.314598,-1332.370696,6883.915261
1435.778205,-612.876398,-962.267725,6735.874072
1435.778522,-612.876398,-888.247130,7476.080014
1435.778840,76.609550,-740.205942,7550.100608
1435.779157,229.828649,-592.164754,7402.059420
1435.779474,459.657299,-592.164754,7550.100608
1435.779791,919.314598,-518.144159,7846.182985
1435.780109,919.314598,-222.061783,8290.306550
1435.780426,2145.067394,-370.102971,8290.306550
1435.780743,2221.676944,-74.020594,8660.409521
1435.781060,2221.676944,-74.020594,8882.471304
1435.781378,2221.676944,-0.000000,9252.574275
1435.781695,2068.457845,-0.000000,9400.615463
1435.782012,2068.457845,-0.000000,9622.677246
1435.782330,1838.629195,-222.061783,10288.862594
1435.782647,1455.581446,-0.000000,10436.903782
1435.782964,1455.581446,-0.000000,10584.944971
1435.783281,919.314598,370.102971,10584.944971
1435.783599,536.266849,814.226536,10807.006753
1435.783916,383.047749,666.185348,10807.006753
1435.784233,306.438199,1036.288319,11029.068536
1435.784551,76.609550,1258.350101,11251.130318
1435.784868,0.000000,1554.432478,11325.150913
1435.785185,-306.438199,1184.329507,11325.150913
1435.785502,-383.047749,2368.659014,11177.109724
1435.785820,-459.657299,1702.473667,10881.027347
1435.786137,-536.266849,1480.411884,10584.944971
1435.786454,-229.828649,2146.597232,11029.068536
1435.786772,-306.438199,2516.700203,10732.986159
1435.787089,-612.876398,2738.761985,10807.006753
1435.787406,-612.876398,2146.597232,10807.006753
1435.787723,-383.047749,2294.638420,10584.944971
1435.788041,0.000000,2368.659014,10658.965565
1435.788358,0.000000,2294.638420,10658.965565
1435.788675,153.219100,2368.659014,10362.883188
1435.788992,612.876398,1850.514855,10066.800811
1435.789310,612.876398,1924.535449,10214.842000
1435.789627,612.876398,1998.556043,10436.903782
1435.789944,612.876398,1702.473667,10214.842000
1435.790262,536.266849,1406.391290,10362.883188
1435.790579,536.266849,1036.288319,10288.862594
1435.790896,842.705048,1184.329507,10140.821405
1435.791213,919.314598,962.267725,9844.739029
1435.791531,995.924147,592.164754,9918.759623
1435.791848,1149.143247,148.041188,9622.677246
1435.792165,995.924147,-444.123565,9696.697840
1435.792483,1302.362347,-444.123565,9770.718434
1435.792800,1455.581446,-814.226536,9918.759623
1435.793117,1532.190996,-962.267725,10066.800811
1435.793434,1378.971896,-1332.370696,9622.677246
1435.793752,1378.971896,-1480.411884,9474.636058
1435.794069,1532.190996,-1258.350101,9474.636058
1435.794386,1685.410096,-1184.329507,9326.594869
1435.794704,1685.410096,-1332.370696,8808.450710
1435.795021,2068.457845,-1332.370696,8660.409521
1435.795338,2145.067394,-1480.411884,8882.471304
1435.795655,2068.457845,-1554.432478,8512.368333
1435.795973,1685.410096,-1776.494261,8512.368333
1435.796290,1378.971896,-1702.473667,8364.327145
1435.796607,842.705048,-1998.556043,8216.285956
1435.796924,766.095498,-1406.391290,8364.327145
1435.797242,689.485948,-1258.350101,8142.265362
1435.797559,229.828649,-962.267725,8068.244768
1435.797876,0.000000,-1110.308913,7994.224174
1435.798194,-459.657299,-1110.308913,8068.244768
1435.798511,-306.438199,-1332.370696,7920.203579
1435.798828,-153.219100,-1110.308913,7994.224174
1435.799145,-306.438199,-1110.308913,7994.224174
1435.799463,-306.438199,-1184.329507,8142.265362
1435.799780,0.000000,-888.247130,8438.347739
1435.800097,-153.219100,-740.205942,8290.306550
1435.800415,0.000000,-592.164754,8364.327145
1435.800732,76.609550,-444.123565,8586.388927
1435.801049,766.095498,-740.205942,8216.285956
1435.801366,1072.533697,-666.185348,8660.409521
1435.801684,1225.752797,-666.185348,8660.409521
1435.802001,1225.752797,-518.144159,8956.491898
1435.802318,1455.581446,-148.041188,9030.512492
1435.802635,1838.629195,-370.102971,9104.533087
1435.802953,1685.410096,-148.041188,9474.636058
1435.803270,1608.800546,-0.000000,9326.594869
1435.803587,1608.800546,444.123565,9474.636058
1435.803905,1455.581446,444.123565,9622.677246
1435.804222,1455.581446,444.123565,9474.636058
1435.804539,1532.190996,740.205942,9918.759623
1435.804856,1072.533697,1036.288319,9770.718434
1435.805174,1225.752797,1406.391290,10066.800811
1435.805491,995.924147,1702.473667,10214.842000
1435.805808,919.314598,1554.432478,10362.883188
1435.806126,612.876398,1776.494261,10362.883188
1435.806443,766.095498,1924.535449,10288.862594
1435.806761,459.657299,2294.638420,10362.883188
1435.807078,0.000000,2368.659014,10658.965565
1435.807396,229.828649,2442.679609,10288.862594
1435.807713,536.266849,2886.803174,10288.862594
1435.808031,0.000000,3330.926739,10436.903782
1435.808348,536.266849,3034.844362,10362.883188
1435.808666,919.314598,2886.803174,10214.842000
1435.808983,612.876398,2960.823768,10214.842000
1435.809301,536.266849,2664.741391,9992.780217
1435.809618,689.485948,2664.741391,10214.842000
1435.809936,766.095498,2590.720797,10140.821405
1435.810253,766.095498,2368.659014,10288.862594
1435.810571,612.876398,2294.638420,10140.821405
1435.810888,689.485948,2368.659014,10362.883188
1435.811206,612.876398,1998.556043,10066.800811
1435.811523,1149.143247,1628.453072,10436.903782
1435.811841,689.485948,1480.411884,10288.862594
1435.812158,459.657299,1110.308913,10362.883188
1435.812476,612.876398,1036.288319,10584.944971
1435.812793,536.266849,888.247130,10214.842000
1435.813111,612.876398,296.082377,10510.924376
1435.813428,153.219100,-666.185348,10362.883188
1435.813746,0.000000,-518.144159,10362.883188
1435.814063,306.438199,-518.144159,9696.697840
1435.814381,153.219100,-74.020594,9844.739029
1435.814698,383.047749,-740.205942,9918.759623
1435.815016,0.000000,-888.247130,9696.697840
1435.815333,536.266849,-814.226536,9400.615463
1435.815651,842.705048,-518.144159,9474.636058
1435.815968,1225.752797,-666.185348,8808.450710
1435.816286,1072.533697,-518.144159,9104.533087
1435.816603,1455.581446,-666.185348,8438.347739
1435.816921,1762.019645,-444.123565,8142.265362
1435.817238,1991.848295,-296.082377,7846.182985
1435.817556,1915.238745,-370.102971,8216.285956
1435.817873,2145.067394,-740.205942,7550.100608
1435.818191,2374.896044,-592.164754,7254.018232
1435.818508,2221.676944,-740.205942,7179.997637
1435.818826,2374.896044,-740.205942,7476.080014
1435.819143,1991.848295,-888.247130,7550.100608
1435.819461,1608.800546,-222.061783,7105.977043
1435.819778,1532.190996,-814.226536,7476.080014
1435.820096,1149.143247,-592.164754,7254.018232
1435.820413,995.924147,-592.164754,7846.182985
1435.820731,536.266849,-740.205942,7328.038826
1435.821048,229.828649,-814.226536,7920.203579
1435.821366,153.219100,-814.226536,8068.244768
1435.821683,0.000000,-740.205942,8068.244768
1435.822001,0.000000,-666.185348,8660.409521
1435.822318,153.219100,-592.164754,9178.553681
1435.822636,76.609550,-0.000000,8882.471304
1435.822953,76.609550,-148.041188,8882.471304
1435.823271,459.657299,370.102971,9252.574275
1435.823588,766.095498,222.061783,9252.574275
1435.823906,995.924147,-0.000000,9474.636058
1435.824223,1072.533697,370.102971,9548.656652
1435.824541,1072.533697,518.144159,9696.697840
1435.824858,1302.362347,296.082377,9770.718434
1435.825176,1838.629195,666.185348,10066.800811
1435.825493,1378.971896,888.247130,10584.944971
1435.825811,1378.971896,888.247130,10510.924376
1435.826128,1302.362347,888.247130,10362.883188
1435.826446,1378.971896,1406.391290,10881.027347
1435.826763,1149.143247,1406.391290,10955.047942
1435.827081,1302.362347,1332.370696,10584.944971
1435.827398,995.924147,1554.432478,10658.965565
1435.827716,919.314598,1702.473667,10658.965565
1435.828033,766.095498,2072.576638,10658.965565
1435.828351,1149.143247,1924.535449,10584.944971
1435.828668,612.876398,2368.659014,10732.986159
1435.828986,459.657299,2442.679609,10658.965565
1435.829303,536.266849,2442.679609,10584.944971
1435.829621,612.876398,2590.720797,10362.883188
1435.829938,459.657299,2664.741391,10732.986159
1435.830256,536.266849,2442.679609,10362.883188
1435.830573,766.095498,2516.700203,10214.842000
1435.830891,612.876398,2368.659014,10214.842000
1435.831208,919.314598,2442.679609,9844.739029
1435.831526,1072.533697,2368.659014,10066.800811
1435.831843,1149.143247,2442.679609,9844.739029
1435.832161,995.924147,2368.659014,9622.677246
1435.832478,1302.362347,2294.638420,9548.656652
1435.832796,1532.190996,2146.597232,9844.739029
1435.833113,1302.362347,2146.597232,9622.677246
1435.833431,1608.800546,1628.453072,9548.656652
1435.833748,1072.533697,1258.350101,9622.677246
1435.834066,1072.533697,1184.329507,9696.697840
1435.834383,1149.143247,1184.329507,9622.677246
1435.834701,612.876398,444.123565,9548.656652
1435.835018,306.438199,444.123565,9918.759623
1435.835336,306.438199,-0.000000,9844.739029
1435.835653,229.828649,-296.082377,9770.718434
1435.835971,383.047749,-814.226536,9844.739029
1435.836288,-153.219100,-1480.411884,9548.656652
1435.836606,-229.828649,-1480.411884,9844.739029
1435.836923,-306.438199,-1184.329507,10214.842000
1435.837241,-229.828649,-1628.453072,9622.677246
1435.837558,-229.828649,-1554.432478,9474.636058
1435.837876,0.000000,-2072.576638,9844.739029
1435.838193,0.000000,-2220.617826,9326.594869
1435.838511,459.657299,-1924.535449,9474.636058
1435.838828,383.047749,-2368.659014,9252.574275
1435.839146,766.095498,-2294.638420,8438.347739
1435.839463,842.705048,-2368.659014,8438.347739
1435.839781,995.924147,-1850.514855,8364.327145
1435.840098,1378.971896,-2072.576638,7920.203579
1435.840416,1378.971896,-2072.576638,7698.141797
1435.840733,1302.362347,-1480.411884,7476.080014
1435.841051,1072.533697,-1480.411884,7328.038826
1435.841368,1302.362347,-1332.370696,7402.059420
1435.841686,1378.971896,-1184.329507,7328.038826
1435.842003,1302.362347,-1036.288319,7402.059420
1435.842321,1378.971896,-814.226536,7328.038826
1435.842638,1302.362347,-444.123565,7105.977043
1435.842956,1532.190996,-1110.308913,7402.059420
1435.843273,536.266849,-1184.329507,7328.038826
1435.843591,919.314598,-518.144159,7624.121203
1435.843908,612.876398,-592.164754,7624.121203
1435.844226,842.705048,-0.000000,7920.203579
1435.844543,766.095498,-0.000000,7994.224174
1435.844861,536.266849,370.102971,8660.409521
1435.845178,689.485948,-0.000000,8512.368333
1435.845496,689.485948,-0.000000,8882.471304
1435.845813,536.266849,370.102971,8882.471304
1435.846131,766.095498,-0.000000,9474.636058
1435.846448,383.047749,-0.000000,9474.636058
1435.846766,383.047749,-222.061783,9844.739029
1435.847083,766.095498,296.082377,10362.883188
1435.847401,459.657299,222.061783,10288.862594
1435.847719,536.266849,222.061783,10214.842000
1435.848036,689.485948,444.123565,10584.944971
1435.848354,766.095498,740.205942,10881.027347
1435.848671,766.095498,740.205942,11029.068536
1435.848989,766.095498,888.247130,11029.068536
1435.849306,766.095498,1036.288319,10881.027347
1435.849624,842.705048,666.185348,10881.027347
1435.849941,766.095498,1110.308913,10955.047942
1435.850259,612.876398,1036.288319,11473.192101
1435.850576,536.266849,1480.411884,11325.150913
1435.850894,306.438199,1776.494261,11103.089130
1435.851211,612.876398,1924.535449,11399.171507
1435.851529,459.657299,1998.556043,11103.089130
1435.851846,459.657299,1924.535449,10881.027347
1435.852164,153.219100,1702.473667,10807.006753
1435.852481,76.609550,1554.432478,10658.965565
1435.852799,0.000000,1628.453072,10732.986159
1435.853116,76.609550,1850.514855,10658.965565
1435.853434,306.438199,1776.494261,10362.883188
1435.853751,383.047749,1850.514855,10288.862594
1435.854069,1072.533697,1924.535449,9992.780217
1435.854386,612.876398,2146.597232,9844.739029
1435.854704,766.095498,1924.535449,9548.656652
1435.855021,1149.143247,1776.494261,9474.636058
1435.855339,1149.143247,1406.391290,9548.656652
1435.855656,1378.971896,1036.288319,9474.636058
1435.855974,1225.752797,740.205942,9474.636058
1435.856291,1072.533697,518.144159,9474.636058
1435.856609,1149.143247,222.061783,9326.594869
1435.856926,1149.143247,222.061783,9474.636058
1435.857244,1072.533697,-370.102971,9474.636058
1435.857561,1072.533697,-296.082377,9104.533087
1435.857879,689.485948,-444.123565,9326.594869
1435.858196,612.876398,-592.164754,9400.615463
1435.858514,306.438199,-1110.308913,9400.615463
1435.858831,153.219100,-1406.391290,9178.553681
1435.859149,0.000000,-1406.391290,9326.594869
1435.859466,76.609550,-1628.453072,9474.636058
1435.859784,229.828649,-1554.432478,9400.615463
1435.860101,689.485948,-1554.432478,9252.574275
1435.860419,229.828649,-1628.453072,9104.533087
1435.860736,229.828649,-1702.473667,9178.553681
1435.861054,383.047749,-1998.556043,8734.430116
1435.861371,306.438199,-1702.473667,8808.450710
1435.861689,383.047749,-1776.494261,8734.430116
1435.862006,459.657299,-2146.597232,8290.306550
1435.862324,612.876398,-1998.556043,8142.265362
1435.862641,383.047749,-1776.494261,8586.388927
1435.862959,459.657299,-1776.494261,8068.244768
1435.863276,383.047749,-1480.411884,8438.347739
1435.863594,306.438199,-1628.453072,7994.224174
1435.863911,459.657299,-1628.453072,7698.141797
1435.864229,459.657299,-1628.453072,7772.162391
1435.864546,306.438199,-1554.432478,7994.224174
1435.864864,306.438199,-1554.432478,7920.203579
1435.865181,306.438199,-1036.288319,7920.203579
1435.865499,229.828649,-1110.308913,7846.182985
1435.865816,459.657299,-962.267725,7994.224174
1435.866134,612.876398,-518.144159,7994.224174
1435.866451,612.876398,-518.144159,7994.224174
1435.866769,612.876398,-296.082377,8216.285956
1435.867086,919.314598,-74.020594,8216.285956
1435.867404,1072.533697,-0.000000,8290.306550
1435.867721,1608.800546,-74.020594,8586.388927
1435.868039,1072.533697,-0.000000,9030.512492
1435.868356,1149.143247,148.041188,9252.574275
1435.868674,1302.362347,370.102971,9252.574275
1435.868991,1149.143247,296.082377,9326.594869
1435.869309,1149.143247,296.082377,9622.677246
1435.869626,995.924147,666.185348,9696.697840
1435.869944,995.924147,666.185348,9918.759623
1435.870261,1072.533697,814.226536,10214.842000
1435.870579,919.314598,888.247130,10362.883188
1435.870896,919.314598,1184.329507,10362.883188
1435.871214,536.266849,1184.329507,10584.944971
1435.871531,459.657299,1184.329507,10881.027347
1435.871849,766.095498,1258.350101,10807.006753
1435.872166,612.876398,1554.432478,10955.047942
1435.872484,612.876398,1628.453072,11029.068536
1435.872801,536.266849,1554.432478,10881.027347
1435.873119,306.438199,1702.473667,11103.089130
1435.873436,383.047749,1554.432478,11029.068536
1435.873754,689.485948,1628.453072,11325.150913
1435.874071,689.485948,1628.453072,11103.089130
1435.874389,306.438199,1702.473667,10955.047942
1435.874706,229.828649,1924.535449,10807.006753
1435.875024,459.657299,1554.432478,10732.986159
1435.875341,459.657299,1628.453072,10584.944971
1435.875659,689.485948,1776.494261,10584.944971
1435.875976,536.266849,1554.432478,10436.903782
1435.876294,536.266849,1776.494261,10288.862594
1435.876611,766.095498,1628.453072,10214.842000
1435.876929,766.095498,1406.391290,10288.862594
1435.877246,919.314598,1406.391290,10066.800811
1435.877564,1302.362347,1628.453072,9770.718434
1435.877881,995.924147,1332.370696,9696.697840
1435.878199,1532.190996,1702.473667,9474.636058
1435.878516,995.924147,1184.329507,9474.636058
1435.878834,1072.533697,888.247130,9474.636058
1435.879151,1072.533697,666.185348,9104.533087
1435.879469,995.924147,740.205942,9252.574275
1435.879786,1072.533697,296.082377,9326.594869
1435.880104,1072.533697,296.082377,9178.553681
1435.880421,842.705048,-0.000000,9326.594869
1435.880739,766.095498,-222.061783,9252.574275
1435.881056,995.924147,-370.102971,9104.533087
1435.881374,1225.752797,-518.144159,9104.533087
1435.881691,842.705048,-666.185348,8956.491898
1435.882009,1072.533697,-518.144159,8882.471304
1435.882326,1225.752797,-814.226536,8734.430116
1435.882644,1302.362347,-1110.308913,8586.388927
1435.882961,995.924147,-888.247130,8586.388927
1435.883279,1149.143247,-740.205942,8660.409521
1435.883596,995.924147,-962.267725,8512.368333
1435.883914,842.705048,-1036.288319,8438.347739
1435.884231,612.876398,-1184.329507,8438.347739
1435.884549,842.705048,-1036.288319,8586.388927
1435.884866,689.485948,-814.226536,8290.306550
1435.885184,612.876398,-814.226536,8364.327145
1435.885501,306.438199,-962.267725,8142.265362
1435.885819,536.266849,-1110.308913,8438.347739
1435.886136,383.047749,-888.247130,8290.306550
1435.886454,153.219100,-888.247130,8364.327145
1435.886771,229.828649,-740.205942,8512.368333
1435.887089,153.219100,-814.226536,8660.409521
1435.887406,459.657299,-444.123565,8586.388927
1435.887724,306.438199,-296.082377,8956.491898
1435.888041,459.657299,-222.061783,8586.388927
1435.888359,459.657299,-148.041188,8808.450710
1435.888676,459.657299,-74.020594,8734.430116
1435.888994,842.705048,-0.000000,8734.430116
1435.889311,536.266849,-0.000000,8808.450710
1435.889629,766.095498,370.102971,8956.491898
1435.889946,689.485948,296.082377,9030.512492
1435.890264,1149.143247,296.082377,9326.594869
1435.890581,612.876398,370.102971,9548.656652
1435.890899,766.095498,370.102971,9178.553681
1435.891216,919.314598,740.205942,9400.615463
1435.891534,995.924147,592.164754,9548.656652
1435.891851,689.485948,962.267725,9696.697840
1435.892169,1072.533697,1184.329507,9918.759623
1435.892486,842.705048,962.267725,9918.759623
1435.892804,1225.752797,1184.329507,9844.739029
1435.893121,1302.362347,1110.308913,9992.780217
1435.893439,1149.143247,1332.370696,9844.739029
1435.893756,1302.362347,1702.473667,10214.842000
1435.894074,1072.533697,1480.411884,10436.903782
1435.894391,1225.752797,1554.432478,10288.862594
1435.894709,1302.362347,1628.453072,10140.821405
1435.895027,842.705048,1554.432478,10584.944971
1435.895344,766.095498,1850.514855,10362.883188
1435.895662,766.095498,1776.494261,10436.903782
1435.895979,612.876398,1850.514855,10436.903782
1435.896297,689.485948,1850.514855,10436.903782
1435.896614,612.876398,1998.556043,10436.903782
1435.896932,229.828649,1924.535449,10362.883188
1435.897249,383.047749,1850.514855,10288.862594
1435.897567,536.266849,1776.494261,10362.883188
1435.897884,536.266849,1702.473667,10362.883188
1435.898202,612.876398,1628.453072,10436.903782
1435.898519,612.876398,1480.411884,10140.821405
1435.898837,919.314598,1480.411884,10288.862594
1435.899154,766.095498,1332.370696,10214.842000
1435.899472,612.876398,888.247130,10066.800811
1435.899789,919.314598,1184.329507,9992.780217
1435.900107,919.314598,814.226536,9696.697840
1435.900424,1149.143247,666.185348,9844.739029
1435.900742,919.314598,518.144159,9770.718434
1435.901059,1072.533697,222.061783,9622.677246
1435.901377,842.705048,148.041188,9474.636058
1435.901694,919.314598,-0.000000,9400.615463
1435.902012,842.705048,-74.020594,9252.574275
1435.902329,536.266849,-222.061783,9400.615463
1435.902647,1072.533697,-74.020594,9474.636058
1435.902964,995.924147,-370.102971,9178.553681
1435.903282,689.485948,-444.123565,9104.533087
1435.903599,1072.533697,-444.123565,9030.512492
1435.903917,1302.362347,-518.144159,8882.471304
1435.904234,1225.752797,-518.144159,8734.430116
1435.904552,1532.190996,-444.123565,8586.388927
1435.904869,1608.800546,-370.102971,8512.368333
1435.905187,1608.800546,-444.123565,8586.388927
1435.905504,1149.143247,-444.123565,8586.388927
1435.905822,1455.581446,-740.205942,8438.347739
1435.906139,1455.581446,-370.102971,8438.347739
1435.906457,1608.800546,-518.144159,8290.306550
1435.906774,1762.019645,-444.123565,8290.306550
1435.907092,1149.143247,-666.185348,8512.368333
1435.907409,1149.143247,-666.185348,8290.306550
1435.907727,1072.533697,-518.144159,8438.347739
1435.908044,995.924147,-666.185348,8364.327145
1435.908361,1072.533697,-888.247130,8142.265362
1435.908678,766.095498,-444.123565,8512.368333
1435.908996,306.438199,-444.123565,8438.347739
1435.909313,536.266849,-222.061783,8512.368333
1435.909630,536.266849,-148.041188,8512.368333
1435.909947,536.266849,-1258.350101,8734.430116
1435.910265,306.438199,-1036.288319,8734.430116
1435.910582,383.047749,-1110.308913,9030.512492
1435.910899,153.219100,-1184.329507,9178.553681
1435.911216,76.609550,-1406.391290,9326.594869
1435.911534,612.876398,-962.267725,9400.615463
1435.911851,153.219100,-888.247130,9474.636058
1435.912168,306.438199,-666.185348,9178.553681
1435.912485,229.828649,-444.123565,9104.533087
1435.912803,0.000000,-370.102971,8808.450710
1435.913120,229.828649,-444.123565,8734.430116
1435.913437,-459.657299,-740.205942,8956.491898
1435.913754,-536.266849,-1036.288319,9548.656652
1435.914071,-842.705048,-1258.350101,9622.677246
1435.914389,-1225.752797,-1036.288319,9770.718434
1435.914706,-995.924147,-518.144159,9918.759623
1435.915023,-1072.533697,-518.144159,9918.759623
1435.915340,-1378.971896,-222.061783,9918.759623
1435.915658,-1378.971896,-222.061783,9696.697840
1435.915975,-766.095498,-148.041188,9770.718434
1435.916292,-689.485948,-148.041188,9918.759623
1435.916609,-766.095498,-148.041188,10288.862594
1435.916927,-689.485948,-74.020594,9992.780217
1435.917244,-995.924147,-0.000000,9918.759623
1435.917561,-383.047749,-74.020594,10140.821405
1435.917878,-459.657299,-370.102971,10066.800811
1435.918196,0.000000,296.082377,9770.718434
1435.918513,153.219100,296.082377,9770.718434
1435.918830,76.609550,518.144159,10066.800811
1435.919147,306.438199,296.082377,9918.759623
1435.919465,689.485948,222.061783,9844.739029
1435.919782,306.438199,-0.000000,10288.862594
1435.920099,612.876398,222.061783,10436.903782
1435.920416,612.876398,74.020594,10658.965565
1435.920734,689.485948,-0.000000,10362.883188
1435.921051,1225.752797,518.144159,10362.883188
1435.921368,1378.971896,296.082377,9844.739029
1435.921685,1455.581446,740.205942,9696.697840
1435.922003,1378.971896,592.164754,9696.697840
1435.922320,1225.752797,222.061783,9696.697840
1435.922637,1149.143247,296.082377,10066.800811
1435.922954,995.924147,-0.000000,9992.780217
1435.923271,842.705048,148.041188,9992.780217
1435.923589,689.485948,148.041188,10140.821405
1435.923906,612.876398,-0.000000,9918.759623
1435.924223,306.438199,296.082377,9770.718434
1435.924540,229.828649,222.061783,9622.677246
1435.924858,536.266849,296.082377,9548.656652
1435.925175,229.828649,222.061783,9474.636058
1435.925492,-306.438199,222.061783,9548.656652
1435.925809,0.000000,-148.041188,9474.636058
1435.926127,0.000000,-0.000000,9770.718434
1435.926444,0.000000,-518.144159,9400.615463
1435.926761,153.219100,-592.164754,9548.656652
1435.927078,612.876398,-1036.288319,9104.533087
1435.927396,689.485948,-962.267725,8956.491898
1435.927713,1378.971896,-814.226536,8882.471304
1435.928030,1378.971896,-962.267725,8586.388927
1435.928347,1608.800546,-740.205942,8142.265362
1435.928665,1608.800546,-962.267725,8142.265362
1435.928982,1455.581446,-888.247130,8068.244768
1435.929299,1455.581446,-666.185348,8364.327145
1435.929616,1149.143247,-1110.308913,8364.327145
1435.929934,842.705048,-1110.308913,8438.347739
1435.930251,995.924147,-1258.350101,9030.512492
1435.930568,766.095498,-1036.288319,8808.450710
1435.930885,612.876398,-814.226536,8808.450710
1435.931203,383.047749,-740.205942,9178.553681
1435.931520,766.095498,-888.247130,9104.533087
1435.931837,919.314598,-888.247130,9474.636058
1435.932154,536.266849,-444.123565,9400.615463
1435.932472,536.266849,-444.123565,9400.615463
1435.932789,842.705048,-0.000000,9400.615463
1435.933106,842.705048,296.082377,9400.615463
1435.933423,995.924147,296.082377,9326.594869
1435.933740,1149.143247,518.144159,9178.553681
1435.934058,1378.971896,518.144159,8882.471304
1435.934375,1225.752797,444.123565,8808.450710
1435.934692,1685.410096,-74.020594,9178.553681
1435.935009,995.924147,-148.041188,9178.553681
1435.935327,1378.971896,-0.000000,9474.636058
1435.935644,995.924147,-148.041188,9918.759623
1435.935961,536.266849,148.041188,9696.697840
1435.936278,536.266849,-0.000000,9696.697840
1435.936596,689.485948,444.123565,9918.759623
1435.936913,766.095498,592.164754,9770.718434
1435.937230,612.876398,370.102971,9622.677246
1435.937547,766.095498,740.205942,9770.718434
1435.937865,536.266849,592.164754,9696.697840
1435.938182,459.657299,592.164754,9696.697840
1435.938499,919.314598,740.205942,9400.615463
1435.938816,459.657299,666.185348,9548.656652
1435.939134,459.657299,666.185348,9548.656652
1435.939451,0.000000,518.144159,9770.718434
1435.939768,153.219100,1036.288319,9622.677246
1435.940085,0.000000,962.267725,9696.697840
1435.940403,-306.438199,740.205942,9844.739029
1435.940720,-229.828649,518.144159,9844.739029
1435.941037,-459.657299,222.061783,10140.821405
1435.941354,-612.876398,148.041188,10214.842000
1435.941672,-306.438199,296.082377,10214.842000
1435.941989,-459.657299,370.102971,9992.780217
1435.942306,-459.657299,740.205942,9992.780217
1435.942623,-229.828649,592.164754,10066.800811
1435.942940,-229.828649,888.247130,9992.780217
1435.943258,-153.219100,592.164754,9844.739029
1435.943575,76.609550,518.144159,9992.780217
1435.943892,0.000000,296.082377,10288.862594
1435.944209,76.609550,296.082377,10066.800811
1435.944527,229.828649,222.061783,10066.800811
1435.944844,383.047749,148.041188,9844.739029
1435.945161,536.266849,-0.000000,9696.697840
1435.945478,689.485948,-0.000000,9696.697840
1435.945796,536.266849,-148.041188,9400.615463
1435.946113,842.705048,-222.061783,9474.636058
1435.946430,842.705048,-222.061783,9252.574275
1435.946747,689.485948,-444.123565,9400.615463
1435.947065,612.876398,-740.205942,9474.636058
1435.947382,612.876398,-1110.308913,9474.636058
1435.947699,766.095498,-740.205942,9474.636058
1435.948016,995.924147,-518.144159,9326.594869
1435.948334,842.705048,-592.164754,9178.553681
1435.948651,766.095498,-740.205942,8734.430116
1435.948968,842.705048,-370.102971,8882.471304
1435.949285,995.924147,-518.144159,8882.471304
1435.949603,995.924147,-370.102971,8956.491898
1435.949920,919.314598,-592.164754,8808.450710
1435.950237,689.485948,-444.123565,8660.409521
1435.950554,689.485948,-518.144159,8882.471304
1435.950872,842.705048,-518.144159,8660.409521
1435.951189,766.095498,-518.144159,8586.388927
1435.951506,536.266849,-740.205942,8808.450710
1435.951823,459.657299,-370.102971,8586.388927
1435.952141,383.047749,-370.102971,8660.409521
1435.952458,689.485948,-444.123565,8808.450710
1435.952775,459.657299,-444.123565,8956.491898
1435.953092,842.705048,-592.164754,9030.512492
1435.953409,612.876398,-444.123565,9252.574275
1435.953727,919.314598,-148.041188,8956.491898
1435.954044,1149.143247,-148.041188,8956.491898
1435.954361,919.314598,222.061783,9252.574275
1435.954678,1225.752797,296.082377,8660.409521
1435.954996,1302.362347,370.102971,8586.388927
1435.955313,1378.971896,222.061783,8808.450710
1435.955630,1149.143247,148.041188,9030.512492
1435.955947,1225.752797,74.020594,9104.533087
1435.956265,1378.971896,148.041188,9400.615463
1435.956582,1302.362347,222.061783,9400.615463
1435.956899,1072.533697,592.164754,9474.636058
1435.957216,1149.143247,740.205942,9252.574275
1435.957534,995.924147,1258.350101,9474.636058
1435.957851,842.705048,888.247130,9474.636058
1435.958168,766.095498,814.226536,9474.636058
1435.958485,612.876398,814.226536,9548.656652
1435.958803,995.924147,518.144159,9992.780217
1435.959120,383.047749,888.247130,9992.780217
1435.959437,536.266849,1110.308913,10140.821405
1435.959754,536.266849,1258.350101,9992.780217
1435.960072,536.266849,1480.411884,10066.800811
1435.960389,995.924147,1480.411884,9696.697840
1435.960706,842.705048,1406.391290,9992.780217
1435.961023,842.705048,1628.453072,9844.739029
1435.961341,689.485948,1406.391290,9696.697840
1435.961658,766.095498,1406.391290,9770.718434
1435.961975,306.438199,1184.329507,9918.759623
1435.962292,306.438199,1258.350101,9918.759623
1435.962609,383.047749,1110.308913,10140.821405
1435.962927,612.876398,1036.288319,9992.780217
1435.963244,153.219100,1110.308913,10066.800811
1435.963561,383.047749,814.226536,10214.842000
1435.963878,306.438199,962.267725,10066.800811
1435.964196,76.609550,888.247130,10140.821405
1435.964513,306.438199,740.205942,10066.800811
1435.964830,689.485948,888.247130,9992.780217
1435.965147,536.266849,740.205942,9992.780217
1435.965465,612.876398,962.267725,9696.697840
1435.965782,612.876398,1258.350101,9770.718434
1435.966099,689.485948,1184.329507,9474.636058
1435.966416,1455.581446,962.267725,9326.594869
1435.966734,459.657299,962.267725,9474.636058
1435.967051,1072.533697,592.164754,9474.636058
1435.967368,995.924147,148.041188,9326.594869
1435.967685,919.314598,370.102971,9548.656652
1435.968003,995.924147,370.102971,9622.677246
1435.968320,842.705048,222.061783,9548.656652
1435.968637,766.095498,296.082377,9474.636058
1435.968954,919.314598,444.123565,9474.636058
1435.969272,919.314598,370.102971,9252.574275
1435.969589,919.314598,148.041188,9178.553681
1435.969906,1378.971896,222.061783,9252.574275
1435.970223,1072.533697,74.020594,9252.574275
1435.970541,1532.190996,148.041188,9252.574275
1435.970858,1455.581446,-0.000000,9178.553681
1435.971175,1302.362347,222.061783,9178.553681
1435.971492,1685.410096,-0.000000,8882.471304
1435.971810,1762.019645,-0.000000,8734.430116
1435.972127,1455.581446,-222.061783,8512.368333
1435.972444,1532.190996,-148.041188,8734.430116
1435.972761,1685.410096,-296.082377,8586.388927
1435.973078,1302.362347,-222.061783,8660.409521
1435.973396,1378.971896,-518.144159,8808.450710
1435.973713,1225.752797,-592.164754,8808.450710
1435.974030,842.705048,-518.144159,8956.491898
1435.974347,459.657299,-592.164754,8882.471304
1435.974665,536.266849,-296.082377,9178.553681
1435.974982,383.047749,-296.082377,9030.512492
1435.975299,536.266849,-222.061783,8882.471304
1435.975616,383.047749,-0.000000,9178.553681
1435.975934,383.047749,-74.020594,8956.491898
1435.976251,153.219100,-74.020594,9178.553681
1435.976568,306.438199,-0.000000,8882.471304
1435.976885,229.828649,-0.000000,8956.491898
1435.977203,383.047749,74.020594,8882.471304
1435.977520,383.047749,-0.000000,9104.533087
1435.977837,306.438199,296.082377,9030.512492
1435.978154,306.438199,370.102971,8956.491898
1435.978472,229.828649,518.144159,9252.574275
1435.978789,153.219100,222.061783,9252.574275
1435.979106,536.266849,296.082377,9474.636058
1435.979423,919.314598,518.144159,9474.636058
1435.979741,536.266849,666.185348,9474.636058
1435.980058,919.314598,740.205942,9326.594869
1435.980375,919.314598,814.226536,9400.615463
1435.980692,1302.362347,814.226536,9474.636058
1435.981010,1532.190996,888.247130,9474.636058
1435.981327,1762.019645,888.247130,9474.636058
1435.981644,1685.410096,1110.308913,9770.718434
1435.981961,1532.190996,962.267725,9474.636058
1435.982278,1225.752797,1036.288319,9696.697840
1435.982596,1455.581446,1258.350101,9696.697840
1435.982913,1072.533697,1110.308913,9992.780217
1435.983230,1225.752797,962.267725,9992.780217
1435.983547,842.705048,1036.288319,9918.759623
1435.983865,689.485948,888.247130,10066.800811
1435.984182,689.485948,888.247130,10214.842000
1435.984499,459.657299,1110.308913,10066.800811
1435.984816,306.438199,1036.288319,10214.842000
1435.985134,76.609550,1036.288319,10510.924376
1435.985451,383.047749,888.247130,10066.800811
1435.985768,0.000000,814.226536,9992.780217
1435.986085,153.219100,740.205942,9696.697840
1435.986403,153.219100,888.247130,10066.800811
1435.986720,76.609550,962.267725,10140.821405
1435.987037,229.828649,740.205942,9844.739029
1435.987354,229.828649,666.185348,9770.718434
1435.987672,306.438199,740.205942,9696.697840
1435.987989,612.876398,740.205942,9770.718434
1435.988306,612.876398,666.185348,9918.759623
1435.988623,766.095498,666.185348,9622.677246
1435.988941,842.705048,888.247130,9770.718434
1435.989258,689.485948,518.144159,9400.615463
1435.989575,995.924147,740.205942,9400.615463
1435.989892,1532.190996,666.185348,9178.553681
1435.990210,1149.143247,444.123565,9326.594869
1435.990527,1915.238745,518.144159,9178.553681
1435.990844,1608.800546,444.123565,9030.512492
1435.991161,1608.800546,444.123565,9400.615463
1435.991479,1762.019645,370.102971,9104.533087
1435.991796,1608.800546,296.082377,8956.491898
1435.992113,1455.581446,592.164754,9178.553681
1435.992430,1378.971896,222.061783,9178.553681
1435.992747,1378.971896,-0.000000,9030.512492
1435.993065,1149.143247,148.041188,9178.553681
1435.993382,1225.752797,-0.000000,9178.553681
1435.993699,995.924147,-444.123565,9178.553681
1435.994016,995.924147,-0.000000,9104.533087
1435.994334,919.314598,-0.000000,8956.491898
1435.994651,612.876398,-296.082377,9104.533087
1435.994968,1072.533697,-370.102971,9030.512492
1435.995285,842.705048,-518.144159,9252.574275
1435.995603,459.657299,-444.123565,9400.615463
1435.995920,612.876398,-592.164754,9252.574275
1435.996237,995.924147,-296.082377,9104.533087
1435.996554,536.266849,-444.123565,9104.533087
1435.996872,536.266849,-592.164754,9104.533087
1435.997189,383.047749,-222.061783,9178.553681
1435.997506,306.438199,-370.102971,8882.471304
1435.997823,383.047749,-370.102971,9030.512492
1435.998141,306.438199,-888.247130,9030.512492
1435.998458,536.266849,-740.205942,9252.574275
1435.998775,153.219100,-444.123565,9326.594869
1435.999092,536.266849,-222.061783,9326.594869
1435.999410,383.047749,-444.123565,9178.553681
1435.999727,229.828649,-518.144159,9326.594869
1436.000044,383.047749,-222.061783,9178.553681
1436.000361,0.000000,-370.102971,9178.553681
1436.000679,76.609550,-148.041188,9252.574275
1436.000996,459.657299,-222.061783,9252.574275
1436.001313,766.095498,-148.041188,9474.636058
1436.001630,689.485948,-74.020594,9474.636058
1436.001947,229.828649,-0.000000,9474.636058
1436.002265,229.828649,-148.041188,9474.636058
1436.002582,536.266849,-0.000000,9548.656652
1436.002899,383.047749,-74.020594,9918.759623
1436.003216,766.095498,-0.000000,9548.656652
1436.003534,459.657299,-0.000000,9622.677246
1436.003851,536.266849,148.041188,9548.656652
1436.004168,1149.143247,-0.000000,9770.718434
1436.004485,612.876398,-74.020594,9696.697840
1436.004803,842.705048,-0.000000,9696.697840
1436.005120,459.657299,-74.020594,9844.739029
1436.005437,919.314598,-0.000000,9770.718434
1436.005754,919.314598,148.041188,9918.759623
1436.006072,1225.752797,-0.000000,9992.780217
1436.006389,1302.362347,222.061783,9844.739029
1436.006706,1072.533697,296.082377,9844.739029
1436.007023,1149.143247,296.082377,9844.739029
1436.007341,1149.143247,370.102971,9770.718434
1436.007658,1532.190996,592.164754,9992.780217
1436.007975,1378.971896,370.102971,9696.697840
1436.008292,1072.533697,444.123565,9696.697840
1436.008610,766.095498,592.164754,9474.636058
1436.008927,1149.143247,222.061783,9474.636058
1436.009244,842.705048,296.082377,9548.656652
1436.009561,383.047749,222.061783,9696.697840
1436.009879,306.438199,-0.000000,9474.636058
1436.010196,229.828649,370.102971,9622.677246
1436.010514,0.000000,222.061783,9992.780217
1436.010831,153.219100,-0.000000,9770.718434
1436.011148,0.000000,370.102971,9844.739029
1436.011466,229.828649,518.144159,9474.636058
1436.011783,306.438199,444.123565,9622.677246
1436.012101,306.438199,148.041188,9326.594869
1436.012418,612.876398,518.144159,9474.636058
1436.012735,766.095498,740.205942,8956.491898
1436.013053,842.705048,370.102971,8882.471304
1436.013370,842.705048,-0.000000,9178.553681
1436.013688,1302.362347,444.123565,8882.471304
1436.014005,1072.533697,370.102971,8512.368333
1436.014322,919.314598,-0.000000,9178.553681
1436.014640,1149.143247,148.041188,9030.512492
1436.014957,1378.971896,222.061783,8882.471304
1436.015274,1072.533697,296.082377,9030.512492
1436.015592,995.924147,-74.020594,9252.574275
1436.015909,995.924147,-296.082377,9178.553681
1436.016227,1378.971896,-222.061783,8882.471304
1436.016544,995.924147,148.041188,9252.574275
1436.016861,1149.143247,-0.000000,9474.636058
1436.017179,1149.143247,-74.020594,9326.594869
1436.017496,1072.533697,222.061783,9104.533087
1436.017814,1225.752797,-0.000000,8956.491898
1436.018131,1149.143247,-0.000000,9474.636058
1436.018448,1302.362347,-222.061783,8956.491898
1436.018766,995.924147,-0.000000,9252.574275
1436.019083,842.705048,-0.000000,9178.553681
1436.019401,766.095498,148.041188,9400.615463
1436.019718,536.266849,-0.000000,9474.636058
1436.020035,536.266849,-0.000000,9474.636058
1436.020353,229.828649,-0.000000,9474.636058
1436.020670,383.047749,-0.000000,9474.636058
1436.020988,0.000000,-148.041188,9696.697840
1436.021305,0.000000,-296.082377,9770.718434
1436.021622,0.000000,-222.061783,9474.636058
1436.021940,0.000000,-148.041188,9622.677246
1436.022257,0.000000,-222.061783,9844.739029
1436.022574,0.000000,-222.061783,9622.677246
1436.022892,76.609550,-0.000000,9696.697840
1436.023209,153.219100,-0.000000,9844.739029
1436.023527,459.657299,222.061783,9474.636058
1436.023844,612.876398,296.082377,9474.636058
1436.024161,612.876398,296.082377,9178.553681
1436.024479,612.876398,444.123565,9252.574275
1436.024796,766.095498,370.102971,9548.656652
1436.025114,919.314598,296.082377,9252.574275
1436.025431,1072.533697,370.102971,9474.636058
1436.025748,612.876398,-0.000000,9474.636058
1436.026066,766.095498,222.061783,9474.636058
1436.026383,1149.143247,148.041188,9474.636058
1436.026701,1149.143247,-0.000000,9548.656652
1436.027018,919.314598,296.082377,9474.636058
1436.027335,919.314598,296.082377,9474.636058
1436.027653,842.705048,518.144159,9548.656652
1436.027970,919.314598,444.123565,9696.697840
1436.028287,1072.533697,296.082377,9474.636058
1436.028605,689.485948,444.123565,9474.636058
1436.028922,842.705048,296.082377,9696.697840
1436.029240,689.485948,444.123565,9696.697840
1436.029557,919.314598,296.082377,9474.636058
1436.029874,689.485948,370.102971,9474.636058
1436.030192,536.266849,222.061783,9548.656652
1436.030509,919.314598,222.061783,9400.615463
1436.030827,689.485948,-0.000000,9104.533087
1436.031144,306.438199,-0.000000,9400.615463
1436.031461,612.876398,-0.000000,9474.636058
1436.031779,76.609550,-74.020594,9474.636058
1436.032096,306.438199,-0.000000,9474.636058
1436.032414,229.828649,-0.000000,9622.677246
1436.032731,306.438199,-0.000000,9474.636058
1436.033048,383.047749,148.041188,9474.636058
1436.033366,536.266849,296.082377,9252.574275
1436.033683,766.095498,296.082377,9400.615463
1436.034001,919.314598,296.082377,9400.615463
1436.034318,766.095498,370.102971,9326.594869
1436.034635,766.095498,444.123565,9326.594869
1436.034953,1149.143247,-0.000000,9252.574275
1436.035270,689.485948,-0.000000,9252.574275
1436.035587,689.485948,296.082377,9252.574275
1436.035905,919.314598,296.082377,8956.491898
1436.036222,689.485948,296.082377,9178.553681
1436.036540,766.095498,-0.000000,9326.594869
1436.036857,383.047749,-0.000000,9326.594869
1436.037174,1072.533697,148.041188,8956.491898
1436.037492,459.657299,-0.000000,9104.533087
1436.037809,536.266849,-0.000000,9400.615463
1436.038127,0.000000,-0.000000,9474.636058
1436.038444,612.876398,-0.000000,9252.574275
1436.038761,383.047749,-0.000000,9474.636058
1436.039079,612.876398,-74.020594,9326.594869
1436.039396,459.657299,-0.000000,9474.636058
1436.039714,842.705048,-0.000000,9474.636058
1436.040031,1072.533697,222.061783,9178.553681
1436.040348,766.095498,-0.000000,9326.594869
1436.040666,995.924147,296.082377,9400.615463
1436.040983,842.705048,-0.000000,9178.553681
1436.041300,1072.533697,296.082377,9770.718434
1436.041618,1225.752797,518.144159,9474.636058
1436.041935,1302.362347,296.082377,9474.636058
1436.042253,1225.752797,444.123565,9252.574275
1436.042570,1302.362347,370.102971,9474.636058
1436.042887,1762.019645,296.082377,9104.533087
1436.043205,1378.971896,666.185348,9474.636058
1436.043522,995.924147,370.102971,9400.615463
1436.043840,1762.019645,814.226536,9474.636058
1436.044157,1302.362347,740.205942,9474.636058
1436.044474,1532.190996,1036.288319,9548.656652
1436.044792,1455.581446,888.247130,9474.636058
1436.045109,1455.581446,1036.288319,9474.636058
1436.045427,1149.143247,888.247130,9326.594869
1436.045744,842.705048,1110.308913,9474.636058
1436.046061,919.314598,962.267725,9474.636058
1436.046379,536.266849,888.247130,9400.615463
1436.046696,766.095498,888.247130,9252.574275
1436.047014,612.876398,814.226536,9474.636058
1436.047331,76.609550,592.164754,9474.636058
1436.047648,306.438199,814.226536,9548.656652
1436.047966,306.438199,814.226536,9622.677246
1436.048283,229.828649,814.226536,9474.636058
1436.048600,76.609550,518.144159,9474.636058
1436.048918,229.828649,592.164754,9548.656652
1436.049235,0.000000,592.164754,9696.697840
1436.049553,153.219100,592.164754,9474.636058
1436.049870,383.047749,814.226536,9474.636058
1436.050187,306.438199,592.164754,9326.594869
1436.050505,459.657299,888.247130,9252.574275
1436.050822,612.876398,592.164754,9548.656652
1436.051140,306.438199,740.205942,9474.636058
1436.051457,459.657299,592.164754,9474.636058
1436.051774,459.657299,222.061783,9474.636058
1436.052092,689.485948,148.041188,9844.739029
1436.052409,766.095498,740.205942,9548.656652
1436.052727,306.438199,296.082377,9326.594869
1436.053044,0.000000,592.164754,9400.615463
1436.053361,229.828649,-0.000000,9696.697840
1436.053679,-229.828649,-0.000000,9992.780217
1436.053996,-229.828649,-296.082377,10288.862594
1436.054314,-229.828649,-0.000000,9696.697840
1436.054631,-229.828649,-74.020594,10362.883188
1436.054948,306.438199,-74.020594,10288.862594
1436.055266,0.000000,-148.041188,9474.636058
1436.055583,536.266849,518.144159,9474.636058
1436.055900,842.705048,444.123565,9622.677246
1436.056218,1072.533697,222.061783,9696.697840
1436.056535,1762.019645,-74.020594,9548.656652
1436.056853,1302.362347,444.123565,8956.491898
1436.057170,1532.190996,148.041188,9178.553681
1436.057487,1608.800546,-296.082377,9474.636058
1436.057805,1532.190996,-0.000000,9030.512492
1436.058122,1608.800546,-0.000000,9252.574275
1436.058440,1608.800546,-0.000000,9030.512492
1436.058757,1302.362347,-148.041188,9696.697840
1436.059074,1685.410096,-296.082377,9326.594869
1436.059392,1608.800546,-0.000000,8734.430116
1436.059709,1991.848295,-0.000000,9474.636058
1436.060027,1302.362347,-148.041188,9474.636058
1436.060344,1378.971896,222.061783,9104.533087
1436.060661,1455.581446,370.102971,8882.471304
1436.060979,1225.752797,666.185348,9474.636058
1436.061296,1455.581446,148.041188,9326.594869
1436.061613,1915.238745,296.082377,8808.450710
1436.061931,1378.971896,296.082377,8660.409521
1436.062248,1455.581446,222.061783,8882.471304
1436.062566,1302.362347,-0.000000,8882.471304
1436.062883,1149.143247,148.041188,9030.512492
1436.063200,1072.533697,444.123565,8882.471304
1436.063518,689.485948,592.164754,9104.533087
1436.063835,612.876398,-74.020594,9474.636058
1436.064153,383.047749,-0.000000,9252.574275
1436.064470,536.266849,148.041188,9326.594869
1436.064787,76.609550,444.123565,9548.656652
1436.065105,0.000000,222.061783,9548.656652
1436.065422,383.047749,-74.020594,9770.718434
1436.065740,153.219100,-0.000000,9474.636058
1436.066057,229.828649,148.041188,9474.636058
1436.066374,383.047749,148.041188,9696.697840
1436.066692,229.828649,222.061783,9474.636058
1436.067009,459.657299,222.061783,9400.615463
1436.067327,612.876398,740.205942,9548.656652
1436.067644,536.266849,444.123565,9770.718434
1436.067961,689.485948,592.164754,9474.636058
1436.068279,766.095498,1258.350101,9400.615463
1436.068596,689.485948,370.102971,9400.615463
1436.068913,536.266849,666.185348,9474.636058
1436.069231,1072.533697,814.226536,9622.677246
1436.069548,919.314598,666.185348,9622.677246
1436.069866,229.828649,814.226536,9696.697840
1436.070183,919.314598,666.185348,9622.677246
1436.070500,995.924147,444.123565,9548.656652
1436.070818,536.266849,518.144159,9770.718434
1436.071135,612.876398,518.144159,9696.697840
1436.071453,459.657299,518.144159,9548.656652
1436.071770,842.705048,740.205942,9844.739029
1436.072087,995.924147,814.226536,9770.718434
1436.072405,919.314598,740.205942,9770.718434
1436.072722,766.095498,888.247130,9622.677246
1436.073040,842.705048,740.205942,9548.656652
1436.073357,766.095498,518.144159,9622.677246
1436.073674,459.657299,296.082377,9622.677246
1436.073992,919.314598,370.102971,9622.677246
1436.074309,536.266849,-0.000000,9844.739029
1436.074627,842.705048,518.144159,9770.718434
1436.074944,689.485948,-0.000000,9400.615463
1436.075261,919.314598,-0.000000,9474.636058
1436.075579,919.314598,-74.020594,9622.677246
1436.075896,919.314598,-74.020594,9548.656652
1436.076213,689.485948,-0.000000,9844.739029
1436.076531,919.314598,-0.000000,9622.677246
1436.076848,1072.533697,-0.000000,9918.759623
1436.077166,1378.971896,148.041188,9548.656652
1436.077483,1915.238745,-0.000000,9400.615463
1436.077800,1378.971896,-0.000000,9178.553681
1436.078118,1608.800546,148.041188,9104.533087
1436.078435,1762.019645,222.061783,9326.594869
1436.078753,1915.238745,-0.000000,9178.553681
1436.079070,2528.115143,-0.000000,9104.533087
1436.079387,1532.190996,-0.000000,9326.594869
1436.079705,1455.581446,-0.000000,9178.553681
1436.080022,1378.971896,-74.020594,9104.533087
1436.080340,1302.362347,-0.000000,9178.553681
1436.080657,1225.752797,-0.000000,9178.553681
1436.080974,766.095498,-74.020594,9178.553681
1436.081292,536.266849,-222.061783,9252.574275
1436.081609,612.876398,-296.082377,9178.553681
1436.081926,229.828649,-296.082377,9400.615463
1436.082244,0.000000,-518.144159,9474.636058
1436.082561,76.609550,-222.061783,9326.594869
1436.082879,229.828649,-222.061783,9178.553681
1436.083196,0.000000,-222.061783,9252.574275
1436.083513,76.609550,-222.061783,9178.553681
1436.083831,76.609550,-370.102971,9252.574275
1436.084148,0.000000,-74.020594,9030.512492
1436.084466,0.000000,-296.082377,9252.574275
1436.084783,0.000000,-148.041188,9104.533087
1436.085100,76.609550,-0.000000,9178.553681
1436.085418,0.000000,-148.041188,9252.574275
1436.085735,-153.219100,-0.000000,9104.533087
1436.086053,0.000000,-74.020594,9326.594869
1436.086370,0.000000,-0.000000,9474.636058
1436.086687,0.000000,-0.000000,9400.615463
1436.087005,0.000000,-0.000000,9474.636058
1436.087322,0.000000,-74.020594,9474.636058
1436.087640,612.876398,-0.000000,9400.615463
1436.087957,306.438199,222.061783,9474.636058
1436.088274,842.705048,-0.000000,9400.615463
1436.088592,689.485948,222.061783,9474.636058
1436.088909,689.485948,370.102971,9548.656652
1436.089226,766.095498,296.082377,9400.615463
1436.089544,612.876398,222.061783,9400.615463
1436.089861,919.314598,222.061783,9474.636058
1436.090179,612.876398,-0.000000,9548.656652
1436.090496,842.705048,148.041188,9548.656652
1436.090813,612.876398,-0.000000,9622.677246
1436.091131,766.095498,-0.000000,9844.739029
1436.091448,766.095498,148.041188,9918.759623
1436.091766,766.095498,-0.000000,9770.718434
1436.092083,536.266849,-0.000000,9696.697840
1436.092400,842.705048,148.041188,9770.718434
1436.092718,536.266849,-74.020594,9844.739029
1436.093035,612.876398,148.041188,9844.739029
1436.093353,612.876398,-0.000000,9622.677246
1436.093670,1072.533697,148.041188,9770.718434
1436.093987,1149.143247,-0.000000,9770.718434
1436.094305,1532.190996,148.041188,9770.718434
1436.094622,919.314598,444.123565,9770.718434
1436.094939,1149.143247,370.102971,9548.656652
1436.095257,1378.971896,370.102971,9326.594869
1436.095574,1302.362347,370.102971,9326.594869
1436.095892,1455.581446,370.102971,9030.512492
1436.096209,1532.190996,370.102971,9622.677246
1436.096526,919.314598,-0.000000,9696.697840
1436.096844,1378.971896,-0.000000,9252.574275
1436.097161,1378.971896,666.185348,9844.739029
1436.097479,1302.362347,296.082377,9474.636058
1436.097796,1455.581446,370.102971,9252.574275
1436.098113,1149.143247,518.144159,9326.594869
1436.098431,1072.533697,444.123565,9326.594869
1436.098748,919.314598,296.082377,9474.636058
1436.099066,995.924147,370.102971,9104.533087
1436.099383,842.705048,296.082377,9104.533087
1436.099700,919.314598,222.061783,9104.533087
1436.100018,612.876398,666.185348,9474.636058
1436.100335,1072.533697,592.164754,9474.636058
1436.100653,459.657299,296.082377,9178.553681
1436.100970,612.876398,444.123565,9030.512492
1436.101287,612.876398,222.061783,8956.491898
1436.101605,459.657299,148.041188,9030.512492
1436.101922,459.657299,-0.000000,9400.615463
1436.102239,536.266849,148.041188,9252.574275
1436.102557,689.485948,-0.000000,9400.615463
1436.102874,383.047749,-0.000000,9400.615463
1436.103192,383.047749,296.082377,9474.636058
1436.103509,383.047749,370.102971,9770.718434
1436.103826,612.876398,296.082377,9474.636058
1436.104144,536.266849,444.123565,9030.512492
1436.104461,919.314598,444.123565,9178.553681
1436.104779,1302.362347,-148.041188,9178.553681
1436.105096,689.485948,222.061783,9252.574275
1436.105413,842.705048,370.102971,9400.615463
1436.105731,612.876398,370.102971,9474.636058
1436.106048,689.485948,370.102971,9474.636058
1436.106366,536.266849,222.061783,9474.636058
1436.106683,306.438199,148.041188,9548.656652
1436.107000,612.876398,-0.000000,9474.636058
1436.107318,459.657299,-0.000000,9474.636058
1436.107635,459.657299,-0.000000,9696.697840
1436.107952,229.828649,-222.061783,9696.697840
1436.108270,229.828649,-0.000000,9770.718434
1436.108587,383.047749,-0.000000,9844.739029
1436.108904,383.047749,-0.000000,9696.697840
1436.109222,229.828649,-74.020594,9622.677246
1436.109539,459.657299,148.041188,9622.677246
1436.109856,306.438199,-0.000000,9770.718434
1436.110173,842.705048,-0.000000,9474.636058
1436.110491,459.657299,-0.000000,9696.697840
1436.110808,536.266849,-0.000000,9622.677246
1436.111125,689.485948,-0.000000,9844.739029
1436.111443,842.705048,-0.000000,9548.656652
1436.111760,459.657299,-222.061783,9696.697840
1436.112077,689.485948,296.082377,9844.739029
1436.112395,612.876398,148.041188,9696.697840
1436.112712,612.876398,296.082377,9844.739029
1436.113029,1225.752797,444.123565,9326.594869
1436.113346,995.924147,444.123565,9474.636058
1436.113664,1072.533697,296.082377,9326.594869
1436.113981,1072.533697,370.102971,9326.594869
1436.114298,1455.581446,-0.000000,9326.594869
1436.114616,1302.362347,222.061783,9326.594869
1436.114933,1378.971896,444.123565,9474.636058
1436.115250,1302.362347,592.164754,9400.615463
1436.115568,1149.143247,444.123565,9400.615463
1436.115885,1225.752797,740.205942,9326.594869
1436.116202,766.095498,518.144159,9326.594869
1436.116519,842.705048,592.164754,9104.533087
1436.116837,842.705048,444.123565,9104.533087
1436.117154,689.485948,222.061783,9400.615463
1436.117471,383.047749,370.102971,9400.615463
1436.117789,459.657299,222.061783,9474.636058
1436.118106,153.219100,222.061783,9326.594869
1436.118423,306.438199,296.082377,9178.553681
1436.118740,153.219100,296.082377,9252.574275
1436.119058,76.609550,296.082377,9178.553681
1436.119375,383.047749,666.185348,9104.533087
1436.119692,76.609550,296.082377,9326.594869
1436.120010,229.828649,444.123565,9474.636058
1436.120327,459.657299,-0.000000,9030.512492
1436.120644,229.828649,444.123565,9326.594869
1436.120962,306.438199,666.185348,9252.574275
1436.121279,383.047749,666.185348,9252.574275
1436.121596,612.876398,740.205942,9178.553681
1436.121913,459.657299,592.164754,9252.574275
1436.122231,383.047749,518.144159,9252.574275
1436.122548,459.657299,888.247130,9326.594869
1436.122865,766.095498,740.205942,9326.594869
1436.123183,766.095498,666.185348,9474.636058
1436.123500,689.485948,592.164754,9474.636058
1436.123817,689.485948,740.205942,9474.636058
1436.124135,612.876398,814.226536,9400.615463
1436.124452,306.438199,666.185348,9104.533087
1436.124769,995.924147,-0.000000,9326.594869
1436.125086,1149.143247,592.164754,9696.697840
1436.125404,536.266849,222.061783,9474.636058
1436.125721,919.314598,444.123565,9696.697840
1436.126038,689.485948,296.082377,9548.656652
1436.126356,536.266849,370.102971,9770.718434
1436.126673,689.485948,444.123565,9770.718434
1436.126990,842.705048,296.082377,9696.697840
1436.127308,995.924147,296.082377,9844.739029
1436.127625,842.705048,222.061783,9548.656652
1436.127942,1072.533697,296.082377,9474.636058
1436.128259,766.095498,-0.000000,9770.718434
1436.128577,1302.362347,-0.000000,9548.656652
1436.128894,1072.533697,148.041188,9844.739029
1436.129211,1149.143247,222.061783,9844.739029
1436.129529,919.314598,-0.000000,9844.739029
1436.129846,1378.971896,296.082377,9770.718434
1436.130163,1225.752797,370.102971,9622.677246
1436.130480,1378.971896,148.041188,9548.656652
1436.130798,1378.971896,-0.000000,9474.636058
1436.131115,1685.410096,296.082377,9548.656652
1436.131432,1378.971896,148.041188,9474.636058
1436.131750,1302.362347,74.020594,9696.697840
1436.132067,1378.971896,-0.000000,9548.656652
1436.132384,1302.362347,222.061783,9474.636058
1436.132702,1302.362347,296.082377,9474.636058
1436.133019,1378.971896,222.061783,9252.574275
1436.133336,1225.752797,296.082377,9326.594869
1436.133653,1149.143247,148.041188,9474.636058
1436.133971,1072.533697,370.102971,9400.615463
1436.134288,1225.752797,222.061783,9178.553681
1436.134605,689.485948,222.061783,9252.574275
1436.134923,689.485948,-74.020594,9104.533087
1436.135240,1149.143247,-0.000000,9548.656652
1436.135557,383.047749,148.041188,9326.594869
1436.135875,459.657299,74.020594,9104.533087
1436.136192,459.657299,148.041188,8956.491898
1436.136509,536.266849,148.041188,9030.512492
1436.136826,536.266849,-74.020594,9030.512492
1436.137144,383.047749,-0.000000,9030.512492
1436.137461,306.438199,-0.000000,9178.553681
1436.137778,229.828649,-0.000000,9178.553681
1436.138096,0.000000,-0.000000,9252.574275
1436.138413,612.876398,-0.000000,9252.574275
1436.138730,383.047749,370.102971,9474.636058
1436.139047,459.657299,444.123565,9104.533087
1436.139365,306.438199,518.144159,9178.553681
1436.139682,766.095498,370.102971,9104.533087
1436.139999,459.657299,370.102971,9178.553681
1436.140317,612.876398,518.144159,9326.594869
1436.140634,536.266849,-0.000000,9178.553681
1436.140951,383.047749,370.102971,9326.594869
1436.141269,536.266849,444.123565,9400.615463
1436.141586,612.876398,370.102971,9474.636058
1436.141903,536.266849,148.041188,9696.697840
1436.142220,536.266849,296.082377,9178.553681
1436.142538,842.705048,296.082377,9326.594869
1436.142855,919.314598,296.082377,9474.636058
1436.143172,766.095498,-0.000000,9474.636058
1436.143490,689.485948,-0.000000,9474.636058
1436.143807,612.876398,296.082377,9474.636058
1436.144124,612.876398,-0.000000,9622.677246
1436.144442,689.485948,-0.000000,9622.677246
1436.144759,383.047749,-148.041188,9400.615463
1436.145076,766.095498,-0.000000,9474.636058
1436.145393,689.485948,148.041188,9696.697840
1436.145711,536.266849,-0.000000,9622.677246
1436.146028,919.314598,-0.000000,9844.739029
1436.146345,766.095498,-0.000000,9548.656652
1436.146663,919.314598,-0.000000,9770.718434
1436.146980,842.705048,370.102971,9770.718434
1436.147297,842.705048,296.082377,9696.697840
1436.147615,995.924147,740.205942,9770.718434
1436.147932,536.266849,444.123565,9844.739029
1436.148249,1608.800546,740.205942,9622.677246
1436.148566,1378.971896,592.164754,9696.697840
1436.148884,1302.362347,444.123565,9474.636058
1436.149201,1302.362347,-0.000000,9622.677246
1436.149518,1302.362347,370.102971,9474.636058
1436.149836,1378.971896,370.102971,9474.636058
1436.150153,1149.143247,222.061783,9400.615463
1436.150470,1072.533697,370.102971,9474.636058
1436.150787,1225.752797,296.082377,9696.697840
1436.151105,995.924147,222.061783,9400.615463
1436.151422,766.095498,296.082377,9548.656652
1436.151739,766.095498,222.061783,9474.636058
1436.152057,842.705048,296.082377,9400.615463
1436.152374,995.924147,222.061783,9474.636058
1436.152691,766.095498,-0.000000,9474.636058
1436.153009,536.266849,296.082377,9474.636058
1436.153326,689.485948,-0.000000,9252.574275
1436.153643,612.876398,-0.000000,9474.636058
1436.153960,995.924147,-0.000000,9696.697840
1436.154278,842.705048,444.123565,9252.574275
1436.154595,919.314598,444.123565,9474.636058
1436.154912,536.266849,-0.000000,9474.636058
1436.155230,995.924147,148.041188,9252.574275
1436.155547,459.657299,148.041188,9252.574275
1436.155864,689.485948,518.144159,9326.594869
1436.156182,612.876398,222.061783,9400.615463
1436.156499,612.876398,296.082377,9252.574275
1436.156816,689.485948,148.041188,9104.533087
1436.157133,689.485948,148.041188,9252.574275
1436.157451,1072.533697,444.123565,9104.533087
1436.157768,919.314598,148.041188,9326.594869
1436.158085,766.095498,222.061783,9178.553681
1436.158403,536.266849,-0.000000,9474.636058
1436.158720,536.266849,-0.000000,9252.574275
1436.159037,766.095498,-0.000000,9400.615463
1436.159354,689.485948,222.061783,9178.553681
1436.159672,536.266849,148.041188,9400.615463
1436.159989,612.876398,222.061783,9474.636058
1436.160306,383.047749,-222.061783,9548.656652
1436.160624,459.657299,-148.041188,9326.594869
1436.160941,459.657299,-296.082377,9400.615463
1436.161258,306.438199,-148.041188,9474.636058
1436.161576,536.266849,-222.061783,9622.677246
1436.161893,153.219100,-148.041188,9474.636058
1436.162210,153.219100,-296.082377,9400.615463
1436.162527,459.657299,-74.020594,9474.636058
1436.162845,0.000000,-296.082377,9474.636058
1436.163162,383.047749,-222.061783,9770.718434
1436.163479,383.047749,-222.061783,9474.636058
1436.163797,153.219100,-370.102971,9548.656652
1436.164114,383.047749,-148.041188,9918.759623
1436.164431,383.047749,-222.061783,9696.697840
1436.164749,612.876398,-148.041188,9696.697840
1436.165066,919.314598,-0.000000,9696.697840
1436.165383,536.266849,-74.020594,9696.697840
1436.165700,919.314598,-0.000000,9474.636058
1436.166018,689.485948,148.041188,9474.636058
1436.166335,1072.533697,-0.000000,9252.574275
1436.166652,1072.533697,222.061783,9622.677246
1436.166970,1302.362347,222.061783,9474.636058
1436.167287,1149.143247,-0.000000,9474.636058
1436.167604,1072.533697,-0.000000,9252.574275
1436.167921,1072.533697,222.061783,9474.636058
1436.168239,1072.533697,-0.000000,9400.615463
1436.168556,919.314598,296.082377,9474.636058
1436.168873,1149.143247,-0.000000,9400.615463
1436.169191,842.705048,-0.000000,9400.615463
1436.169508,919.314598,-0.000000,9178.553681
1436.169825,612.876398,-0.000000,9474.636058
1436.170143,459.657299,148.041188,9326.594869
1436.170460,383.047749,518.144159,9474.636058
1436.170777,459.657299,296.082377,9326.594869
1436.171094,612.876398,222.061783,9252.574275
1436.171412,383.047749,222.061783,9252.574275
1436.171729,459.657299,222.061783,9178.553681
1436.172046,612.876398,296.082377,9252.574275
1436.172364,766.095498,-0.000000,8956.491898
1436.172681,612.876398,296.082377,9400.615463
1436.172998,153.219100,-0.000000,9104.533087
1436.173316,842.705048,148.041188,9178.553681
1436.173633,383.047749,296.082377,9400.615463
1436.173950,459.657299,370.102971,9252.574275
1436.174267,612.876398,518.144159,9400.615463
1436.174585,536.266849,444.123565,9326.594869
1436.174902,689.485948,592.164754,9474.636058
1436.175219,689.485948,370.102971,9252.574275
1436.175537,536.266849,518.144159,9474.636058
1436.175854,689.485948,592.164754,9474.636058
1436.176171,689.485948,296.082377,9400.615463
1436.176489,842.705048,148.041188,9252.574275
1436.176806,612.876398,518.144159,9548.656652
1436.177123,766.095498,370.102971,9474.636058
1436.177440,766.095498,444.123565,9400.615463
1436.177758,689.485948,296.082377,9548.656652
1436.178075,383.047749,222.061783,9622.677246
1436.178392,536.266849,148.041188,9622.677246
1436.178710,459.657299,74.020594,9548.656652
1436.179027,536.266849,-0.000000,9548.656652
1436.179344,153.219100,148.041188,9770.718434
1436.179661,842.705048,-0.000000,9918.759623
1436.179979,689.485948,148.041188,9918.759623
1436.180296,612.876398,-0.000000,9696.697840
1436.180613,459.657299,-0.000000,9474.636058
1436.180931,766.095498,-296.082377,9622.677246
1436.181248,842.705048,-0.000000,9474.636058
1436.181565,612.876398,-0.000000,9844.739029
1436.181883,612.876398,-0.000000,9474.636058
1436.182200,766.095498,148.041188,9696.697840
1436.182517,995.924147,148.041188,9844.739029
1436.182834,766.095498,-0.000000,9474.636058
1436.183152,1149.143247,222.061783,9474.636058
1436.183469,1302.362347,296.082377,9474.636058
1436.183786,1378.971896,370.102971,9474.636058
1436.184104,995.924147,148.041188,9474.636058
1436.184421,1302.362347,296.082377,9326.594869
1436.184738,1378.971896,444.123565,9400.615463
1436.185056,1225.752797,296.082377,9400.615463
1436.185373,1455.581446,-0.000000,9104.533087
1436.185690,1302.362347,148.041188,9178.553681
1436.186007,1225.752797,222.061783,9326.594869
1436.186325,1378.971896,-0.000000,8956.491898
1436.186642,1072.533697,-0.000000,9178.553681
1436.186959,919.314598,-0.000000,9104.533087
1436.187277,995.924147,222.061783,9474.636058
1436.187594,612.876398,296.082377,9400.615463
1436.187911,536.266849,370.102971,9326.594869
1436.188228,383.047749,148.041188,9400.615463
1436.188546,766.095498,-0.000000,9474.636058
1436.188863,-306.438199,-0.000000,9474.636058
1436.189180,306.438199,444.123565,9548.656652
1436.189498,459.657299,-0.000000,9104.533087
1436.189815,153.219100,148.041188,9178.553681
1436.190132,229.828649,222.061783,9252.574275
1436.190450,229.828649,148.041188,9326.594869
1436.190767,153.219100,370.102971,9252.574275
1436.191084,153.219100,296.082377,9178.553681
1436.191401,306.438199,444.123565,9400.615463
1436.191719,153.219100,518.144159,9474.636058
1436.192036,306.438199,666.185348,9252.574275
1436.192353,153.219100,592.164754,9326.594869
1436.192671,536.266849,592.164754,9400.615463
1436.192988,383.047749,592.164754,9474.636058
1436.193305,306.438199,666.185348,9696.697840
1436.193623,153.219100,444.123565,9400.615463
1436.193940,612.876398,444.123565,9326.594869
1436.194257,536.266849,592.164754,9474.636058
1436.194574,689.485948,592.164754,9326.594869
1436.194892,766.095498,592.164754,9474.636058
1436.195209,459.657299,518.144159,9178.553681
1436.195526,306.438199,444.123565,9548.656652
1436.195844,689.485948,222.061783,9400.615463
1436.196161,689.485948,444.123565,9474.636058
1436.196478,383.047749,-0.000000,9400.615463
1436.196796,306.438199,592.164754,9548.656652
1436.197113,306.438199,370.102971,9474.636058
1436.197430,459.657299,370.102971,9548.656652
1436.197747,536.266849,-0.000000,9696.697840
1436.198065,842.705048,222.061783,9400.615463
1436.198382,536.266849,148.041188,9622.677246
1436.198699,459.657299,-74.020594,9548.656652
1436.199017,689.485948,222.061783,9474.636058
1436.199334,766.095498,296.082377,9622.677246
1436.199651,842.705048,296.082377,9474.636058
1436.199968,766.095498,-0.000000,9696.697840
1436.200286,1149.143247,148.041188,9622.677246
1436.200603,1225.752797,370.102971,9622.677246
1436.200920,1225.752797,296.082377,9844.739029
1436.201238,1072.533697,148.041188,9474.636058
1436.201555,1302.362347,296.082377,9400.615463
1436.201872,1608.800546,222.061783,9474.636058
1436.202190,1378.971896,148.041188,9400.615463
1436.202507,2298.286494,296.082377,9474.636058
1436.202824,1532.190996,-0.000000,9400.615463
1436.203141,1608.800546,444.123565,9474.636058
1436.203459,1532.190996,296.082377,9474.636058
1436.203776,1532.190996,148.041188,9326.594869
1436.204093,1378.971896,-0.000000,9400.615463
1436.204411,1378.971896,-0.000000,9400.615463
1436.204728,1225.752797,-0.000000,9400.615463
1436.205045,1072.533697,-74.020594,9400.615463
1436.205363,1072.533697,222.061783,9474.636058
1436.205680,842.705048,-0.000000,9474.636058
1436.205997,766.095498,148.041188,9474.636058
1436.206314,689.485948,148.041188,9178.553681
1436.206632,689.485948,296.082377,9400.615463
1436.206949,383.047749,-0.000000,9326.594869
1436.207266,689.485948,-0.000000,9252.574275
1436.207584,0.000000,-0.000000,9252.574275
1436.207901,536.266849,222.061783,9326.594869
1436.208218,306.438199,370.102971,9326.594869
1436.208535,459.657299,148.041188,9326.594869
1436.208853,536.266849,148.041188,9252.574275
1436.209170,536.266849,370.102971,9178.553681
1436.209487,536.266849,296.082377,9400.615463
1436.209805,153.219100,444.123565,9326.594869
1436.210122,766.095498,370.102971,9178.553681
1436.210440,689.485948,370.102971,9104.533087
1436.210757,459.657299,518.144159,9178.553681
1436.211074,689.485948,444.123565,9400.615463
1436.211392,689.485948,518.144159,9326.594869
1436.211709,689.485948,444.123565,9178.553681
1436.212026,536.266849,370.102971,9252.574275
1436.212344,536.266849,296.082377,9474.636058
1436.212661,536.266849,296.082377,9326.594869
1436.212978,1225.752797,592.164754,9178.553681
1436.213296,766.095498,518.144159,9474.636058
1436.213613,689.485948,296.082377,9400.615463
1436.213931,459.657299,148.041188,9548.656652
1436.214248,536.266849,296.082377,9548.656652
1436.214565,612.876398,222.061783,9474.636058
1436.214883,612.876398,148.041188,9474.636058
1436.215200,306.438199,296.082377,9548.656652
1436.215517,229.828649,222.061783,9696.697840
1436.215835,306.438199,148.041188,9474.636058
1436.216152,306.438199,222.061783,9548.656652
1436.216469,383.047749,-0.000000,9548.656652
1436.216787,459.657299,296.082377,9622.677246
1436.217104,612.876398,-0.000000,9770.718434
1436.217421,612.876398,148.041188,9474.636058
1436.217739,766.095498,-0.000000,9474.636058
1436.218056,842.705048,444.123565,9770.718434
1436.218374,689.485948,444.123565,9622.677246
1436.218691,1072.533697,296.082377,9474.636058
1436.219008,1149.143247,-0.000000,9400.615463
1436.219326,1072.533697,444.123565,9474.636058
1436.219643,1149.143247,518.144159,9548.656652
1436.219960,995.924147,296.082377,9474.636058
1436.220278,1455.581446,222.061783,9474.636058
1436.220595,1072.533697,-0.000000,9474.636058
1436.220912,1225.752797,74.020594,9474.636058
1436.221230,1149.143247,74.020594,9474.636058
1436.221547,995.924147,296.082377,9474.636058
1436.221865,995.924147,296.082377,9474.636058
1436.222182,1072.533697,222.061783,9474.636058
1436.222499,919.314598,296.082377,9326.594869
1436.222817,919.314598,222.061783,9474.636058
1436.223134,919.314598,370.102971,9252.574275
1436.223451,842.705048,-0.000000,9326.594869
1436.223769,842.705048,-148.041188,9178.553681
1436.224086,612.876398,222.061783,9326.594869
1436.224403,689.485948,-0.000000,9252.574275
1436.224721,689.485948,-0.000000,9474.636058
1436.225038,1225.752797,-0.000000,9474.636058
1436.225356,383.047749,-0.000000,9326.594869
1436.225673,612.876398,148.041188,9400.615463
1436.225990,306.438199,-0.000000,9474.636058
1436.226308,459.657299,-0.000000,9326.594869
1436.226625,383.047749,-0.000000,9474.636058
1436.226942,383.047749,148.041188,9400.615463
1436.227260,383.047749,296.082377,9252.574275
1436.227577,612.876398,-0.000000,9104.533087
1436.227894,612.876398,-0.000000,9252.574275
1436.228212,536.266849,-148.041188,9548.656652
1436.228529,612.876398,-0.000000,9178.553681
1436.228847,459.657299,-0.000000,9326.594869
1436.229164,919.314598,-0.000000,9252.574275
1436.229481,995.924147,-0.000000,9326.594869
1436.229799,229.828649,-0.000000,9252.574275
1436.230116,766.095498,-0.000000,9030.512492
1436.230433,612.876398,-148.041188,9400.615463
1436.230751,766.095498,-0.000000,9400.615463
1436.231068,842.705048,-0.000000,9400.615463
1436.231385,689.485948,-0.000000,9474.636058
1436.231703,612.876398,-0.000000,9400.615463
1436.232020,612.876398,-0.000000,9252.574275
1436.232338,306.438199,-0.000000,9474.636058
1436.232655,689.485948,148.041188,9326.594869
1436.232972,306.438199,-222.061783,9400.615463
1436.233290,842.705048,-0.000000,9326.594869
1436.233607,612.876398,-0.000000,9474.636058
1436.233924,766.095498,-0.000000,9474.636058
1436.234242,612.876398,-148.041188,9696.697840
1436.234559,766.095498,-74.020594,9474.636058
1436.234876,612.876398,-0.000000,9474.636058
1436.235194,995.924147,-0.000000,9622.677246
1436.235511,1378.971896,-0.000000,9474.636058
1436.235828,995.924147,-0.000000,9844.739029
1436.236146,842.705048,148.041188,9548.656652
1436.236463,995.924147,-0.000000,9548.656652
1436.236781,1072.533697,-0.000000,9474.636058
1436.237098,1072.533697,148.041188,9326.594869
1436.237415,1455.581446,148.041188,9326.594869
1436.237733,1378.971896,296.082377,9474.636058
1436.238050,1455.581446,148.041188,9474.636058
1436.238367,1225.752797,-0.000000,9474.636058
1436.238685,1302.362347,370.102971,9548.656652
1436.239002,1532.190996,148.041188,9474.636058
1436.239319,1225.752797,296.082377,9252.574275
1436.239637,919.314598,148.041188,9474.636058
1436.239954,1072.533697,444.123565,9474.636058
1436.240272,766.095498,-0.000000,9474.636058
1436.240589,612.876398,222.061783,9622.677246
1436.240906,536.266849,-0.000000,9474.636058
1436.241224,459.657299,296.082377,9548.656652
1436.241541,536.266849,-0.000000,9474.636058
1436.241858,383.047749,222.061783,9548.656652
1436.242176,459.657299,222.061783,9474.636058
1436.242493,383.047749,444.123565,9400.615463
1436.242810,459.657299,-0.000000,9548.656652
1436.243128,383.047749,-0.000000,9474.636058
1436.243445,383.047749,296.082377,9696.697840
1436.243763,306.438199,222.061783,9326.594869
1436.244080,383.047749,-0.000000,9474.636058
1436.244397,306.438199,296.082377,9474.636058
1436.244715,612.876398,296.082377,9696.697840
1436.245032,459.657299,444.123565,9474.636058
1436.245349,536.266849,222.061783,9400.615463
1436.245667,612.876398,444.123565,9474.636058
1436.245984,536.266849,-0.000000,9400.615463
1436.246301,612.876398,296.082377,9474.636058
1436.246619,766.095498,444.123565,9178.553681
1436.246936,612.876398,-0.000000,9474.636058
1436.247254,536.266849,-0.000000,9252.574275
1436.247571,766.095498,148.041188,9400.615463
1436.247888,689.485948,-0.000000,9474.636058
1436.248206,766.095498,-0.000000,9400.615463
1436.248523,459.657299,-0.000000,9326.594869
1436.248840,459.657299,-0.000000,9252.574275
1436.249158,842.705048,-74.020594,9474.636058
1436.249475,536.266849,-0.000000,9400.615463
1436.249792,306.438199,-148.041188,9474.636058
1436.250110,383.047749,222.061783,9400.615463
1436.250427,536.266849,-0.000000,9326.594869
1436.250744,612.876398,-74.020594,9474.636058
1436.251062,612.876398,-74.020594,9178.553681
1436.251379,383.047749,-0.000000,9326.594869
1436.251697,536.266849,-148.041188,9252.574275
1436.252014,612.876398,-0.000000,9326.594869
1436.252331,766.095498,-148.041188,9474.636058
1436.252649,536.266849,-74.020594,9326.594869
1436.252966,766.095498,-0.000000,9252.574275
1436.253283,842.705048,-0.000000,9474.636058
1436.253601,842.705048,-0.000000,9474.636058
1436.253918,689.485948,-0.000000,9548.656652
1436.254235,995.924147,222.061783,9326.594869
1436.254553,1225.752797,-0.000000,9252.574275
1436.254870,1302.362347,296.082377,9474.636058
1436.255188,1302.362347,148.041188,9178.553681
1436.255505,1455.581446,296.082377,9178.553681
1436.255822,1149.143247,-0.000000,9252.574275
1436.256140,1532.190996,222.061783,9326.594869
1436.256457,1072.533697,222.061783,9252.574275
1436.256774,1072.533697,148.041188,9178.553681
1436.257092,1455.581446,444.123565,9474.636058
1436.257409,1072.533697,370.102971,9326.594869
1436.257726,919.314598,222.061783,9252.574275
1436.258044,842.705048,148.041188,9326.594869
1436.258361,766.095498,296.082377,9400.615463
1436.258679,612.876398,-0.000000,9252.574275
1436.258996,689.485948,518.144159,9474.636058
1436.259313,689.485948,592.164754,9474.636058
1436.259631,536.266849,296.082377,9548.656652
1436.259948,383.047749,222.061783,9400.615463
1436.260265,459.657299,296.082377,9474.636058
1436.260583,76.609550,370.102971,9548.656652
1436.260900,306.438199,296.082377,9400.615463
1436.261217,153.219100,296.082377,9622.677246
1436.261535,0.000000,148.041188,9548.656652
1436.261852,306.438199,444.123565,9844.739029
1436.262170,612.876398,666.185348,9474.636058
1436.262487,383.047749,444.123565,9696.697840
1436.262804,459.657299,592.164754,9474.636058
1436.263122,612.876398,370.102971,9474.636058
1436.263439,536.266849,518.144159,9548.656652
1436.263756,689.485948,444.123565,9474.636058
1436.264074,459.657299,518.144159,9474.636058
1436.264391,842.705048,444.123565,9474.636058
1436.264708,689.485948,222.061783,9474.636058
1436.265026,689.485948,592.164754,9474.636058
1436.265343,229.828649,296.082377,9474.636058
1436.265661,536.266849,370.102971,9326.594869
1436.265978,689.485948,370.102971,9474.636058
1436.266295,842.705048,-0.000000,9474.636058
1436.266613,536.266849,370.102971,9548.656652
1436.266930,459.657299,148.041188,9474.636058
1436.267247,459.657299,370.102971,9622.677246
1436.267565,459.657299,296.082377,9548.656652
1436.267882,459.657299,-0.000000,9474.636058
1436.268199,612.876398,148.041188,9548.656652
1436.268517,383.047749,-0.000000,9474.636058
1436.268834,459.657299,-0.000000,9400.615463
1436.269151,459.657299,-0.000000,9400.615463
1436.269469,459.657299,-0.000000,9326.594869
1436.269786,383.047749,-74.020594,9400.615463
1436.270104,689.485948,-0.000000,9474.636058
1436.270421,842.705048,-0.000000,9400.615463
1436.270738,536.266849,-0.000000,9252.574275
1436.271056,766.095498,-0.000000,9474.636058
1436.271373,995.924147,222.061783,9326.594869
1436.271690,995.924147,-0.000000,9252.574275
1436.272008,1072.533697,296.082377,9252.574275
1436.272325,1149.143247,-0.000000,9474.636058
1436.272642,1302.362347,296.082377,8956.491898
1436.272960,1455.581446,148.041188,9178.553681
1436.273277,1455.581446,-0.000000,9178.553681
1436.273595,1532.190996,370.102971,9104.533087
1436.273912,1838.629195,-0.000000,9030.512492
1436.274229,1378.971896,-0.000000,9030.512492
1436.274547,1225.752797,296.082377,9252.574275
1436.274864,1225.752797,518.144159,9030.512492
1436.275181,1149.143247,370.102971,9030.512492
1436.275499,1378.971896,370.102971,9326.594869
1436.275816,995.924147,148.041188,9252.574275
1436.276133,919.314598,370.102971,9400.615463
1436.276451,842.705048,222.061783,9400.615463
1436.276768,612.876398,-0.000000,9548.656652
1436.277086,612.876398,148.041188,9400.615463
1436.277403,842.705048,518.144159,9400.615463
1436.277720,536.266849,370.102971,9252.574275
1436.278038,536.266849,296.082377,9252.574275
1436.278355,459.657299,222.061783,9474.636058
1436.278672,459.657299,148.041188,9178.553681
1436.278990,383.047749,296.082377,9474.636058
1436.279307,459.657299,148.041188,9474.636058
1436.279624,0.000000,-0.000000,9696.697840
1436.279942,383.047749,296.082377,9474.636058
1436.280259,306.438199,296.082377,9548.656652
1436.280577,153.219100,444.123565,9548.656652
1436.280894,919.314598,518.144159,9326.594869
1436.281211,919.314598,-0.000000,9474.636058
1436.281529,459.657299,296.082377,9474.636058
1436.281846,842.705048,370.102971,9400.615463
1436.282163,612.876398,370.102971,9474.636058
1436.282481,612.876398,370.102971,9622.677246
1436.282798,306.438199,518.144159,9548.656652
1436.283115,842.705048,518.144159,9474.636058
1436.283433,612.876398,814.226536,9696.697840
1436.283750,459.657299,592.164754,9474.636058
1436.284068,459.657299,444.123565,9030.512492
1436.284385,459.657299,444.123565,10214.842000
1436.284702,612.876398,370.102971,9474.636058
1436.285020,536.266849,444.123565,9844.739029
1436.285337,459.657299,518.144159,9918.759623
1436.285654,306.438199,518.144159,9622.677246
1436.285972,536.266849,296.082377,9770.718434
1436.286289,459.657299,444.123565,9548.656652
1436.286606,459.657299,370.102971,9548.656652
1436.286924,766.095498,148.041188,9548.656652
1436.287241,995.924147,222.061783,9696.697840
1436.287558,766.095498,-0.000000,9696.697840
1436.287876,689.485948,74.020594,9548.656652
1436.288193,919.314598,148.041188,9622.677246
1436.288511,919.314598,-0.000000,9622.677246
1436.288828,1225.752797,222.061783,9622.677246
1436.289145,995.924147,222.061783,9474.636058
1436.289463,1225.752797,444.123565,9548.656652
1436.289780,1532.190996,370.102971,9548.656652
1436.290097,1378.971896,222.061783,9252.574275
1436.290415,1608.800546,222.061783,9474.636058
1436.290732,1455.581446,370.102971,9474.636058
1436.291049,1608.800546,296.082377,9474.636058
1436.291367,1378.971896,-0.000000,9326.594869
1436.291684,1225.752797,222.061783,9326.594869
1436.292002,1302.362347,-0.000000,9252.574275
1436.292319,1149.143247,-0.000000,9178.553681
1436.292636,1149.143247,-0.000000,9104.533087
1436.292954,919.314598,-0.000000,9178.553681
1436.293271,689.485948,-0.000000,9326.594869
1436.293588,1149.143247,-0.000000,9326.594869
1436.293906,306.438199,-74.020594,9326.594869
1436.294223,459.657299,-0.000000,9326.594869
1436.294540,612.876398,-148.041188,9400.615463
1436.294858,536.266849,-74.020594,9326.594869
1436.295175,459.657299,370.102971,9104.533087
1436.295493,459.657299,222.061783,9104.533087
1436.295810,459.657299,-0.000000,9104.533087
1436.296127,459.657299,-0.000000,9104.533087
1436.296445,842.705048,296.082377,9030.512492
1436.296762,1072.533697,-74.020594,9178.553681
1436.297079,536.266849,-74.020594,9252.574275
1436.297397,612.876398,148.041188,9326.594869
1436.297714,612.876398,370.102971,9178.553681
1436.298031,612.876398,148.041188,9104.533087
1436.298349,995.924147,518.144159,9326.594869
1436.298666,766.095498,222.061783,9252.574275
1436.298984,919.314598,296.082377,9178.553681
1436.299301,689.485948,148.041188,9326.594869
1436.299618,1225.752797,-74.020594,9474.636058
1436.299936,766.095498,-0.000000,9474.636058
1436.300253,842.705048,148.041188,9474.636058
1436.300570,919.314598,296.082377,9178.553681
1436.300888,689.485948,444.123565,9474.636058
1436.301205,766.095498,370.102971,9326.594869
1436.301522,766.095498,444.123565,9474.636058
1436.301840,536.266849,370.102971,9474.636058
1436.302157,536.266849,148.041188,9474.636058
1436.302475,766.095498,222.061783,9622.677246
1436.302792,459.657299,148.041188,9548.656652
1436.303109,536.266849,222.061783,9844.739029
1436.303427,383.047749,222.061783,9622.677246
1436.303744,383.047749,-0.000000,9474.636058
1436.304061,383.047749,-0.000000,9622.677246
1436.304379,689.485948,-74.020594,9696.697840
1436.304696,612.876398,-0.000000,9696.697840
1436.305013,612.876398,-74.020594,9622.677246
1436.305331,536.266849,-0.000000,9770.718434
1436.305648,612.876398,-0.000000,9844.739029
1436.305965,306.438199,-148.041188,9770.718434
1436.306283,766.095498,370.102971,9844.739029
1436.306600,383.047749,-0.000000,9622.677246
1436.306918,842.705048,370.102971,9622.677246
1436.307235,919.314598,222.061783,9548.656652
1436.307552,995.924147,222.061783,9474.636058
1436.307870,1302.362347,370.102971,9326.594869
1436.308187,1225.752797,370.102971,9400.615463
1436.308504,1225.752797,222.061783,9474.636058
1436.308822,1225.752797,-148.041188,9400.615463
1436.309139,1378.971896,296.082377,9696.697840
1436.309456,995.924147,74.020594,9400.615463
1436.309774,995.924147,518.144159,9474.636058
1436.310091,1072.533697,444.123565,9326.594869
1436.310409,1225.752797,-148.041188,9178.553681
1436.310726,995.924147,222.061783,9326.594869
1436.311043,842.705048,296.082377,9252.574275
1436.311361,842.705048,148.041188,9474.636058
1436.311678,689.485948,296.082377,9326.594869
1436.311995,1149.143247,-0.000000,9474.636058
1436.312313,536.266849,296.082377,9400.615463
1436.312630,689.485948,-0.000000,9326.594869
1436.312947,536.266849,296.082377,9104.533087
1436.313265,612.876398,222.061783,9400.615463
1436.313582,229.828649,-444.123565,9474.636058
1436.313900,306.438199,222.061783,9474.636058
1436.314217,229.828649,-74.020594,9474.636058
1436.314534,229.828649,148.041188,9400.615463
1436.314852,153.219100,296.082377,9474.636058
1436.315169,306.438199,-0.000000,9400.615463
1436.315486,689.485948,518.144159,9400.615463
1436.315804,689.485948,444.123565,9178.553681
1436.316121,383.047749,296.082377,9104.533087
1436.316438,689.485948,296.082377,9252.574275
1436.316756,612.876398,592.164754,9178.553681
1436.317073,919.314598,222.061783,9326.594869
1436.317391,919.314598,222.061783,9104.533087
1436.317708,995.924147,296.082377,9474.636058
1436.318025,842.705048,-0.000000,9326.594869
1436.318343,1149.143247,222.061783,9326.594869
1436.318660,842.705048,296.082377,9474.636058
1436.318977,842.705048,444.123565,9400.615463
1436.319295,689.485948,148.041188,9474.636058
1436.319612,766.095498,148.041188,9474.636058
1436.319929,842.705048,222.061783,9474.636058
1436.320247,612.876398,148.041188,9474.636058
1436.320564,689.485948,-0.000000,9622.677246
1436.320882,536.266849,-0.000000,9992.780217
1436.321199,612.876398,-0.000000,9622.677246
1436.321516,612.876398,-0.000000,9622.677246
1436.321834,383.047749,-0.000000,9696.697840
1436.322151,383.047749,-0.000000,9696.697840
1436.322468,229.828649,296.082377,9696.697840
1436.322786,689.485948,-0.000000,9696.697840
1436.323103,612.876398,-0.000000,9696.697840
1436.323420,766.095498,-0.000000,9474.636058
1436.323738,612.876398,-0.000000,9548.656652
1436.324055,766.095498,-74.020594,9770.718434
1436.324373,766.095498,148.041188,9548.656652
1436.324690,919.314598,148.041188,9400.615463
1436.325007,1149.143247,222.061783,9474.636058
1436.325325,1302.362347,222.061783,9474.636058
1436.325642,1072.533697,-0.000000,9326.594869
1436.325959,842.705048,-0.000000,9252.574275
1436.326277,842.705048,148.041188,9474.636058
1436.326594,995.924147,222.061783,9252.574275
1436.326911,995.924147,370.102971,9474.636058
1436.327229,1149.143247,-0.000000,9474.636058
1436.327546,919.314598,444.123565,9252.574275
1436.327864,1149.143247,740.205942,9252.574275
1436.328181,919.314598,444.123565,9178.553681
1436.328498,1225.752797,444.123565,9252.574275
1436.328816,1072.533697,148.041188,9474.636058
1436.329133,689.485948,148.041188,9326.594869
1436.329450,689.485948,222.061783,9252.574275
1436.329768,306.438199,222.061783,9252.574275
1436.330085,766.095498,148.041188,9252.574275
1436.330402,459.657299,-0.000000,9474.636058
1436.330720,383.047749,148.041188,9474.636058
1436.331037,459.657299,-0.000000,9474.636058
1436.331355,306.438199,-0.000000,9252.574275
1436.331672,306.438199,148.041188,9474.636058
1436.331989,919.314598,-0.000000,9474.636058
1436.332307,459.657299,370.102971,9474.636058
1436.332624,76.609550,444.123565,9400.615463
1436.332941,306.438199,370.102971,9474.636058
1436.333259,306.438199,296.082377,9400.615463
1436.333576,766.095498,518.144159,9474.636058
1436.333894,459.657299,296.082377,9326.594869
1436.334211,536.266849,518.144159,9474.636058
1436.334528,766.095498,-0.000000,9474.636058
1436.334846,689.485948,-0.000000,9400.615463
1436.335163,1072.533697,-74.020594,9474.636058
1436.335480,383.047749,296.082377,9474.636058
1436.335798,689.485948,296.082377,9400.615463
1436.336115,459.657299,444.123565,9474.636058
1436.336432,536.266849,444.123565,9548.656652
1436.336750,306.438199,-0.000000,9474.636058
1436.337067,459.657299,370.102971,9474.636058
1436.337385,689.485948,148.041188,9622.677246
1436.337702,766.095498,222.061783,9548.656652
1436.338019,689.485948,-0.000000,9548.656652
1436.338337,459.657299,-74.020594,9400.615463
1436.338654,919.314598,370.102971,9474.636058
1436.338971,229.828649,296.082377,9400.615463
1436.339289,689.485948,-0.000000,9252.574275
1436.339606,459.657299,296.082377,9400.615463
1436.339923,612.876398,-0.000000,9178.553681
1436.340241,536.266849,-0.000000,9474.636058
1436.340558,612.876398,-74.020594,9548.656652
1436.340876,842.705048,-0.000000,9622.677246
1436.341193,689.485948,-0.000000,9696.697840
1436.341510,459.657299,-0.000000,9770.718434
1436.341828,1072.533697,-0.000000,9696.697840
1436.342145,1149.143247,148.041188,9548.656652
1436.342462,1072.533697,222.061783,9474.636058
1436.342780,1225.752797,296.082377,9326.594869
1436.343097,1455.581446,-0.000000,9474.636058
1436.343414,1302.362347,74.020594,9326.594869
1436.343732,1225.752797,296.082377,9326.594869
1436.344049,1225.752797,296.082377,9252.574275
1436.344367,1378.971896,296.082377,9252.574275
1436.344684,1378.971896,444.123565,9326.594869
1436.345001,1072.533697,296.082377,9400.615463
1436.345319,1149.143247,444.123565,9400.615463
1436.345636,1225.752797,444.123565,9252.574275
1436.345953,1149.143247,222.061783,9326.594869
1436.346271,1225.752797,-0.000000,9326.594869
1436.346588,995.924147,-0.000000,9474.636058
1436.346905,612.876398,444.123565,9474.636058
1436.347223,766.095498,148.041188,9474.636058
1436.347540,383.047749,222.061783,9474.636058
1436.347858,383.047749,370.102971,9400.615463
1436.348175,842.705048,518.144159,9474.636058
1436.348492,766.095498,370.102971,9252.574275
1436.348810,536.266849,370.102971,9326.594869
1436.349127,459.657299,370.102971,9104.533087
1436.349444,536.266849,-0.000000,9252.574275
1436.349762,536.266849,370.102971,9400.615463
1436.350079,459.657299,370.102971,9400.615463
1436.350396,306.438199,518.144159,9474.636058
1436.350714,766.095498,444.123565,9474.636058
1436.351031,459.657299,370.102971,9474.636058
1436.351349,766.095498,592.164754,9400.615463
1436.351666,459.657299,370.102971,9030.512492
1436.351983,766.095498,370.102971,9252.574275
1436.352301,689.485948,296.082377,9400.615463
1436.352618,766.095498,-0.000000,9696.697840
1436.352935,919.314598,444.123565,9548.656652
1436.353253,612.876398,296.082377,9474.636058
1436.353570,842.705048,296.082377,9400.615463
1436.353887,459.657299,74.020594,9474.636058
1436.354205,536.266849,370.102971,9400.615463
1436.354522,383.047749,370.102971,9474.636058
1436.354840,1072.533697,370.102971,9326.594869
1436.355157,612.876398,296.082377,9474.636058
1436.355474,536.266849,222.061783,9474.636058
1436.355792,842.705048,-296.082377,9326.594869
1436.356109,383.047749,-0.000000,9696.697840
1436.356426,383.047749,-0.000000,9400.615463
1436.356744,536.266849,-0.000000,9400.615463
1436.357061,536.266849,222.061783,9474.636058
1436.357378,1072.533697,-370.102971,9326.594869
1436.357696,689.485948,-0.000000,9326.594869
1436.358013,612.876398,-0.000000,9622.677246
1436.358331,612.876398,222.061783,9548.656652
1436.358648,766.095498,-0.000000,9474.636058
1436.358965,919.314598,-0.000000,9548.656652
1436.359283,689.485948,296.082377,9474.636058
1436.359600,766.095498,370.102971,9548.656652
1436.359917,842.705048,296.082377,9474.636058
1436.360235,1072.533697,370.102971,9474.636058
1436.360552,919.314598,148.041188,9178.553681
1436.360869,995.924147,370.102971,9326.594869
1436.361187,995.924147,296.082377,9400.615463
1436.361504,919.314598,222.061783,9326.594869
1436.361822,919.314598,148.041188,9326.594869
1436.362139,995.924147,-0.000000,9474.636058
1436.362456,995.924147,444.123565,9474.636058
1436.362774,1225.752797,444.123565,9474.636058
1436.363091,995.924147,444.123565,9474.636058
1436.363408,995.924147,296.082377,9474.636058
1436.363726,842.705048,296.082377,9474.636058
1436.364043,1072.533697,518.144159,9326.594869
1436.364360,536.266849,370.102971,9400.615463
1436.364678,612.876398,296.082377,9474.636058
1436.364995,689.485948,148.041188,9474.636058
1436.365313,536.266849,296.082377,9400.615463
1436.365630,536.266849,370.102971,9326.594869
1436.365947,459.657299,518.144159,9252.574275
1436.366265,459.657299,370.102971,9326.594869
1436.366582,153.219100,370.102971,9474.636058
1436.366899,766.095498,444.123565,9696.697840
1436.367217,229.828649,-0.000000,9548.656652
1436.367534,229.828649,444.123565,9474.636058
1436.367851,459.657299,296.082377,9548.656652
1436.368169,459.657299,370.102971,9474.636058
1436.368486,612.876398,666.185348,9474.636058
1436.368804,536.266849,518.144159,9474.636058
1436.369121,919.314598,296.082377,9326.594869
1436.369438,689.485948,444.123565,9474.636058
1436.369756,842.705048,148.041188,9400.615463
1436.370073,842.705048,444.123565,9474.636058
1436.370390,1225.752797,370.102971,9326.594869
1436.370708,766.095498,296.082377,9252.574275
1436.371025,919.314598,222.061783,9474.636058
1436.371342,1072.533697,296.082377,9474.636058
1436.371660,1225.752797,370.102971,9474.636058
1436.371977,766.095498,-0.000000,9400.615463
1436.372295,842.705048,148.041188,9474.636058
1436.372612,842.705048,-0.000000,9474.636058
1436.372929,766.095498,222.061783,9844.739029
1436.373247,306.438199,-0.000000,9770.718434
1436.373564,689.485948,-0.000000,9918.759623
1436.373881,612.876398,-0.000000,9622.677246
1436.374199,459.657299,-0.000000,9548.656652
1436.374516,842.705048,-296.082377,9696.697840
1436.374833,612.876398,-0.000000,9548.656652
1436.375151,536.266849,-0.000000,9474.636058
1436.375468,459.657299,-0.000000,9622.677246
1436.375786,842.705048,-148.041188,9474.636058
1436.376103,842.705048,-296.082377,9548.656652
1436.376420,689.485948,-148.041188,9474.636058
1436.376738,306.438199,-0.000000,9474.636058
1436.377055,459.657299,-0.000000,9548.656652
1436.377372,842.705048,-0.000000,9474.636058
1436.377690,689.485948,-148.041188,9326.594869
1436.378007,612.876398,-0.000000,9252.574275
1436.378324,995.924147,-74.020594,9178.553681
1436.378642,766.095498,-74.020594,9326.594869
1436.378959,842.705048,-0.000000,9178.553681
1436.379277,919.314598,-74.020594,9104.533087
1436.379594,995.924147,-0.000000,9326.594869
1436.379911,995.924147,-0.000000,9326.594869
1436.380229,1072.533697,-0.000000,9326.594869
1436.380546,1072.533697,-0.000000,9104.533087
1436.380863,1149.143247,-0.000000,8956.491898
1436.381181,995.924147,148.041188,9252.574275
1436.381498,689.485948,148.041188,9030.512492
1436.381815,612.876398,-0.000000,9030.512492
1436.382133,612.876398,-0.000000,9178.553681
1436.382450,766.095498,-0.000000,9178.553681
1436.382768,766.095498,148.041188,9178.553681
1436.383085,306.438199,-0.000000,9178.553681
1436.383402,306.438199,148.041188,8882.471304
1436.383720,153.219100,-0.000000,8808.450710
1436.384037,-153.219100,-296.082377,9030.512492
1436.384354,0.000000,-518.144159,9474.636058
1436.384672,-612.876398,-666.185348,9622.677246
1436.384989,-612.876398,-444.123565,10214.842000
1436.385307,-612.876398,-592.164754,9770.718434
1436.385624,-306.438199,-666.185348,10510.924376
1436.385941,-306.438199,-296.082377,10362.883188
1436.386259,0.000000,444.123565,9622.677246
1436.386576,536.266849,962.267725,9474.636058
1436.386893,919.314598,666.185348,9252.574275
1436.387211,1455.581446,740.205942,9622.677246
1436.387528,1685.410096,666.185348,9326.594869
1436.387845,1838.629195,888.247130,8956.491898
1436.388163,1915.238745,740.205942,9030.512492
1436.388480,2221.676944,518.144159,9178.553681
1436.388798,1838.629195,962.267725,9030.512492
1436.389115,2221.676944,814.226536,8808.450710
1436.389432,1915.238745,444.123565,8956.491898
1436.389750,1838.629195,222.061783,9548.656652
1436.390067,1455.581446,-0.000000,9252.574275
1436.390384,1608.800546,444.123565,9326.594869
1436.390702,1072.533697,444.123565,9622.677246
1436.391019,612.876398,-0.000000,9770.718434
1436.391336,689.485948,296.082377,9474.636058
1436.391654,842.705048,740.205942,9474.636058
1436.391971,689.485948,740.205942,9474.636058
1436.392289,612.876398,518.144159,9548.656652
1436.392606,766.095498,518.144159,9400.615463
1436.392923,766.095498,296.082377,9326.594869
1436.393241,766.095498,-0.000000,9474.636058
1436.393558,766.095498,-0.000000,9622.677246
1436.393875,689.485948,222.061783,9400.615463
1436.394193,536.266849,592.164754,9474.636058
1436.394510,153.219100,222.061783,9696.697840
1436.394827,459.657299,-0.000000,9622.677246
1436.395145,459.657299,370.102971,9474.636058
1436.395462,229.828649,444.123565,9548.656652
1436.395780,459.657299,370.102971,9474.636058
1436.396097,536.266849,-148.041188,9622.677246
1436.396414,536.266849,-0.000000,9548.656652
1436.396732,612.876398,-0.000000,9548.656652
1436.397049,459.657299,-0.000000,9548.656652
1436.397366,612.876398,-0.000000,9548.656652
1436.397684,1149.143247,-74.020594,9548.656652
1436.398001,1225.752797,666.185348,9474.636058
1436.398318,766.095498,222.061783,9474.636058
1436.398636,919.314598,222.061783,9400.615463
1436.398953,1302.362347,444.123565,9474.636058
1436.399271,842.705048,592.164754,9252.574275
1436.399588,1072.533697,518.144159,9400.615463
1436.399905,919.314598,148.041188,9400.615463
1436.400223,689.485948,-0.000000,9400.615463
1436.400540,689.485948,-0.000000,9474.636058
1436.400857,689.485948,148.041188,9252.574275
1436.401175,842.705048,-74.020594,9474.636058
1436.401492,766.095498,-0.000000,9326.594869
1436.401809,612.876398,-222.061783,9474.636058
1436.402127,766.095498,-296.082377,9474.636058
1436.402444,459.657299,-222.061783,9474.636058
1436.402762,383.047749,296.082377,9400.615463
1436.403079,766.095498,444.123565,9400.615463
1436.403396,766.095498,148.041188,9622.677246
1436.403714,919.314598,296.082377,9178.553681
1436.404031,689.485948,518.144159,9104.533087
1436.404348,689.485948,592.164754,9030.512492
1436.404666,919.314598,592.164754,9326.594869
1436.404983,1225.752797,296.082377,9178.553681
1436.405300,919.314598,-0.000000,9326.594869
1436.405618,1149.143247,-74.020594,9030.512492
1436.405935,842.705048,-0.000000,8956.491898
1436.406253,842.705048,-0.000000,9252.574275
1436.406570,1072.533697,-0.000000,9104.533087
1436.406887,459.657299,-0.000000,9178.553681
1436.407205,306.438199,148.041188,9400.615463
1436.407522,383.047749,148.041188,9474.636058
1436.407839,536.266849,-222.061783,9474.636058
1436.408157,383.047749,-74.020594,9696.697840
1436.408474,306.438199,296.082377,9622.677246
1436.408791,383.047749,222.061783,9474.636058
1436.409109,383.047749,-0.000000,9548.656652
1436.409426,459.657299,148.041188,9474.636058
1436.409744,689.485948,222.061783,9474.636058
1436.410061,459.657299,296.082377,9474.636058
1436.410378,459.657299,148.041188,9400.615463
1436.410696,536.266849,-0.000000,9400.615463
1436.411013,612.876398,-0.000000,9400.615463
1436.411330,842.705048,-0.000000,9548.656652
1436.411648,76.609550,-0.000000,9548.656652
1436.411965,842.705048,-0.000000,9326.594869
1436.412282,536.266849,-0.000000,9474.636058
1436.412600,612.876398,-0.000000,9696.697840
1436.412917,689.485948,-0.000000,9474.636058
1436.413234,766.095498,296.082377,9696.697840
1436.413551,689.485948,518.144159,9622.677246
1436.413868,919.314598,592.164754,9474.636058
1436.414186,1991.848295,296.082377,9474.636058
1436.414503,1302.362347,444.123565,9548.656652
1436.414820,1378.971896,592.164754,9622.677246
1436.415137,1455.581446,888.247130,9178.553681
1436.415454,1378.971896,666.185348,9252.574275
1436.415772,1532.190996,740.205942,9252.574275
1436.416089,1455.581446,666.185348,9178.553681
1436.416406,1302.362347,592.164754,8956.491898
1436.416723,1072.533697,296.082377,9178.553681
1436.417040,842.705048,444.123565,9474.636058
1436.417358,1149.143247,-0.000000,9548.656652
1436.417675,919.314598,-0.000000,9844.739029
1436.417992,383.047749,370.102971,9770.718434
1436.418309,306.438199,296.082377,9474.636058
1436.418626,383.047749,370.102971,9474.636058
1436.418944,612.876398,148.041188,9326.594869
1436.419261,766.095498,-0.000000,9548.656652
1436.419578,612.876398,444.123565,9326.594869
1436.419895,536.266849,592.164754,9474.636058
1436.420212,536.266849,666.185348,9622.677246
1436.420529,919.314598,518.144159,9622.677246
1436.420847,995.924147,592.164754,9400.615463
1436.421164,612.876398,518.144159,9326.594869
1436.421481,766.095498,592.164754,9326.594869
1436.421798,766.095498,370.102971,9326.594869
1436.422115,766.095498,444.123565,9474.636058
1436.422433,842.705048,370.102971,9326.594869
1436.422750,612.876398,296.082377,9326.594869
1436.423067,766.095498,296.082377,9474.636058
1436.423384,766.095498,370.102971,9548.656652
1436.423701,612.876398,296.082377,9548.656652
1436.424019,612.876398,518.144159,9696.697840
1436.424336,766.095498,370.102971,9548.656652
1436.424653,919.314598,444.123565,9474.636058
1436.424970,842.705048,518.144159,9474.636058
1436.425287,842.705048,222.061783,9326.594869
1436.425605,842.705048,518.144159,9474.636058
1436.425922,995.924147,-0.000000,9474.636058
1436.426239,995.924147,-0.000000,9474.636058
1436.426556,766.095498,222.061783,9474.636058
1436.426873,995.924147,-0.000000,9696.697840
1436.427191,766.095498,-0.000000,9622.677246
1436.427508,306.438199,-0.000000,9474.636058
1436.427825,229.828649,-74.020594,9622.677246
1436.428142,306.438199,-74.020594,9474.636058
1436.428459,383.047749,-296.082377,9696.697840
1436.428777,459.657299,-148.041188,9474.636058
1436.429094,536.266849,-296.082377,9474.636058
1436.429411,536.266849,-222.061783,9548.656652
1436.429728,689.485948,-148.041188,9622.677246
1436.430045,919.314598,-0.000000,9844.739029
1436.430362,766.095498,-74.020594,9474.636058
1436.430680,842.705048,-0.000000,9474.636058
1436.430997,919.314598,148.041188,9400.615463
1436.431314,995.924147,222.061783,9326.594869
1436.431631,1072.533697,-0.000000,8882.471304
1436.431948,1378.971896,222.061783,9104.533087
1436.432266,1302.362347,296.082377,9326.594869
1436.432583,1378.971896,296.082377,9178.553681
1436.432900,1762.019645,-0.000000,9474.636058
1436.433217,1072.533697,-0.000000,9252.574275
1436.433534,1225.752797,370.102971,9252.574275
1436.433852,842.705048,74.020594,9252.574275
1436.434169,842.705048,296.082377,9474.636058
1436.434486,689.485948,296.082377,9252.574275
1436.434803,766.095498,370.102971,9326.594869
1436.435120,842.705048,148.041188,9030.512492
1436.435438,995.924147,148.041188,9326.594869
1436.435755,995.924147,296.082377,9252.574275
1436.436072,612.876398,148.041188,9252.574275
1436.436389,766.095498,444.123565,9252.574275
1436.436706,919.314598,296.082377,9252.574275
1436.437024,536.266849,370.102971,9178.553681
1436.437341,459.657299,296.082377,9326.594869
1436.437658,0.000000,296.082377,9474.636058
1436.437975,459.657299,222.061783,9400.615463
1436.438292,383.047749,222.061783,9474.636058
1436.438609,153.219100,148.041188,9548.656652
1436.438927,306.438199,-0.000000,9474.636058
1436.439244,536.266849,-0.000000,9622.677246
1436.439561,459.657299,370.102971,9474.636058
1436.439878,459.657299,296.082377,9844.739029
1436.440195,229.828649,296.082377,9474.636058
1436.440513,459.657299,444.123565,9474.636058
1436.440830,459.657299,592.164754,9622.677246
1436.441147,536.266849,444.123565,9474.636058
1436.441464,536.266849,518.144159,9548.656652
1436.441781,689.485948,444.123565,9400.615463
1436.442099,995.924147,518.144159,9770.718434
1436.442416,919.314598,666.185348,9696.697840
1436.442733,536.266849,444.123565,9622.677246
1436.443050,459.657299,444.123565,9474.636058
1436.443367,612.876398,444.123565,9548.656652
1436.443685,689.485948,444.123565,9548.656652
1436.444002,536.266849,296.082377,9770.718434
1436.444319,536.266849,370.102971,9622.677246
1436.444636,689.485948,370.102971,9770.718434
1436.444953,306.438199,222.061783,9474.636058
1436.445271,612.876398,370.102971,9474.636058
1436.445588,689.485948,-0.000000,9326.594869
1436.445905,689.485948,444.123565,9622.677246
1436.446222,766.095498,-0.000000,9326.594869
1436.446539,842.705048,296.082377,9400.615463
1436.446857,919.314598,-0.000000,10066.800811
1436.447174,689.485948,-0.000000,9474.636058
1436.447491,995.924147,222.061783,9474.636058
1436.447808,766.095498,222.061783,9474.636058
1436.448125,842.705048,296.082377,9474.636058
1436.448442,919.314598,74.020594,9474.636058
1436.448760,842.705048,-0.000000,9400.615463
1436.449077,1149.143247,370.102971,9326.594869
1436.449394,1149.143247,148.041188,9400.615463
1436.449711,842.705048,148.041188,9474.636058
1436.450028,842.705048,-0.000000,9474.636058
1436.450346,842.705048,-0.000000,9252.574275
1436.450663,995.924147,-0.000000,9474.636058
1436.450980,1149.143247,-0.000000,9326.594869
1436.451297,1302.362347,296.082377,9474.636058
1436.451614,1149.143247,296.082377,9252.574275
1436.451932,1072.533697,74.020594,9474.636058
1436.452249,842.705048,370.102971,9326.594869
1436.452566,383.047749,-0.000000,9252.574275
1436.452883,536.266849,222.061783,9400.615463
1436.453200,459.657299,-0.000000,9252.574275
1436.453518,459.657299,-0.000000,9178.553681
1436.453835,0.000000,-0.000000,9326.594869
1436.454152,0.000000,-74.020594,9622.677246
1436.454469,-612.876398,-0.000000,9178.553681
1436.454786,0.000000,-296.082377,9548.656652
1436.455104,0.000000,-222.061783,9844.739029
1436.455421,-383.047749,-962.267725,9992.780217
1436.455738,0.000000,-592.164754,9992.780217
1436.456055,-229.828649,-0.000000,9622.677246
1436.456372,0.000000,222.061783,9844.739029
1436.456690,459.657299,-148.041188,9844.739029
1436.457007,689.485948,370.102971,9548.656652
1436.457324,1225.752797,888.247130,9474.636058
1436.457641,1685.410096,518.144159,9400.615463
1436.457958,1685.410096,518.144159,9104.533087
1436.458275,2145.067394,370.102971,9622.677246
1436.458593,2068.457845,814.226536,8734.430116
1436.458910,2298.286494,148.041188,8660.409521
1436.459227,2298.286494,-0.000000,9400.615463
1436.459544,2068.457845,444.123565,9178.553681
1436.459861,2221.676944,518.144159,8956.491898
1436.460179,1685.410096,148.041188,9104.533087
1436.460496,1532.190996,-74.020594,9548.656652
1436.460813,1378.971896,-74.020594,9474.636058
1436.461130,1225.752797,518.144159,9252.574275
1436.461447,995.924147,296.082377,9474.636058
1436.461765,919.314598,-0.000000,9548.656652
1436.462082,766.095498,-148.041188,9400.615463
1436.462399,306.438199,518.144159,9252.574275
1436.462716,766.095498,518.144159,9474.636058
1436.463033,766.095498,-0.000000,9474.636058
1436.463351,766.095498,-0.000000,9030.512492
1436.463668,459.657299,222.061783,8956.491898
1436.463985,459.657299,222.061783,9252.574275
1436.464302,153.219100,-74.020594,9104.533087
1436.464619,536.266849,-0.000000,9178.553681
1436.464937,76.609550,-0.000000,9252.574275
1436.465254,229.828649,814.226536,9400.615463
1436.465571,536.266849,-0.000000,9326.594869
1436.465888,0.000000,-0.000000,9474.636058
1436.466205,306.438199,444.123565,9252.574275
1436.466523,612.876398,296.082377,9400.615463
1436.466840,229.828649,370.102971,9474.636058
1436.467157,306.438199,-0.000000,9400.615463
1436.467474,383.047749,444.123565,9400.615463
1436.467791,536.266849,370.102971,9400.615463
1436.468108,689.485948,-0.000000,9474.636058
1436.468426,612.876398,296.082377,9548.656652
1436.468743,995.924147,592.164754,9326.594869
1436.469060,612.876398,740.205942,9400.615463
1436.469377,995.924147,518.144159,9622.677246
1436.469694,459.657299,444.123565,9622.677246
1436.470012,919.314598,592.164754,9326.594869
1436.470329,842.705048,592.164754,9474.636058
1436.470646,766.095498,222.061783,9548.656652
1436.470963,842.705048,-0.000000,9548.656652
1436.471280,842.705048,-0.000000,9548.656652
1436.471598,536.266849,222.061783,9770.718434
1436.471915,536.266849,148.041188,9548.656652
1436.472232,766.095498,222.061783,9770.718434
1436.472549,536.266849,148.041188,9548.656652
1436.472866,459.657299,-148.041188,10140.821405
1436.473184,536.266849,-0.000000,9622.677246
1436.473501,383.047749,-0.000000,9696.697840
1436.473818,842.705048,-0.000000,9474.636058
1436.474135,995.924147,370.102971,9622.677246
1436.474452,459.657299,296.082377,9326.594869
1436.474770,766.095498,222.061783,9474.636058
1436.475087,919.314598,296.082377,9474.636058
1436.475404,1072.533697,296.082377,9178.553681
1436.475721,1149.143247,148.041188,9252.574275
1436.476038,1225.752797,-74.020594,9474.636058
1436.476355,766.095498,74.020594,9400.615463
1436.476673,842.705048,296.082377,9104.533087
1436.476990,766.095498,296.082377,9326.594869
1436.477307,766.095498,-0.000000,9474.636058
1436.477624,612.876398,-148.041188,8956.491898
1436.477941,383.047749,148.041188,9474.636058
1436.478259,536.266849,-0.000000,9252.574275
1436.478576,459.657299,-0.000000,9400.615463
1436.478893,-153.219100,-0.000000,9400.615463
1436.479210,612.876398,-74.020594,9400.615463
1436.479527,0.000000,-296.082377,9474.636058
1436.479845,0.000000,-148.041188,9918.759623
1436.480162,153.219100,-148.041188,9548.656652
1436.480479,153.219100,-74.020594,9400.615463
1436.480796,689.485948,-148.041188,9622.677246
1436.481113,229.828649,-592.164754,9400.615463
1436.481431,459.657299,-0.000000,9104.533087
1436.481748,459.657299,296.082377,8882.471304
1436.482065,766.095498,-222.061783,9622.677246
1436.482382,842.705048,-444.123565,9548.656652
1436.482699,842.705048,-148.041188,9696.697840
1436.483017,612.876398,-0.000000,9104.533087
1436.483334,919.314598,-296.082377,9622.677246
1436.483651,1302.362347,-296.082377,9548.656652
1436.483968,1149.143247,148.041188,9326.594869
1436.484285,1378.971896,518.144159,8956.491898
1436.484603,1149.143247,-0.000000,9474.636058
1436.484920,1455.581446,-0.000000,9474.636058
1436.485237,1532.190996,370.102971,9030.512492
1436.485554,1685.410096,518.144159,9474.636058
1436.485871,1455.581446,222.061783,9400.615463
1436.486188,1532.190996,-0.000000,9178.553681
1436.486506,1991.848295,148.041188,8808.450710
1436.486823,1532.190996,962.267725,8808.450710
1436.487140,1455.581446,888.247130,9326.594869
1436.487457,1455.581446,740.205942,8882.471304
1436.487774,1532.190996,444.123565,8882.471304
1436.488092,1302.362347,370.102971,8956.491898
1436.488409,919.314598,222.061783,9252.574275
1436.488726,995.924147,296.082377,9400.615463
1436.489043,689.485948,296.082377,9548.656652
1436.489360,76.609550,666.185348,9104.533087
1436.489678,689.485948,962.267725,9622.677246
1436.489995,306.438199,444.123565,9474.636058
1436.490312,383.047749,370.102971,9400.615463
1436.490629,459.657299,888.247130,9252.574275
1436.490946,0.000000,592.164754,9326.594869
1436.491264,229.828649,370.102971,9474.636058
1436.491581,383.047749,518.144159,9696.697840
1436.491898,459.657299,666.185348,9696.697840
1436.492215,229.828649,444.123565,9474.636058
1436.492532,383.047749,666.185348,9622.677246
1436.492850,306.438199,888.247130,9474.636058
1436.493167,459.657299,740.205942,9696.697840
1436.493484,383.047749,518.144159,9548.656652
1436.493801,306.438199,296.082377,9770.718434
1436.494118,536.266849,370.102971,9474.636058
1436.494436,459.657299,666.185348,9696.697840
1436.494753,306.438199,444.123565,9696.697840
1436.495070,536.266849,296.082377,9770.718434
1436.495387,995.924147,222.061783,10214.842000
1436.495704,612.876398,296.082377,9548.656652
1436.496021,536.266849,370.102971,9548.656652
1436.496339,766.095498,592.164754,9548.656652
1436.496656,842.705048,518.144159,9622.677246
1436.496973,689.485948,148.041188,9770.718434
1436.497290,383.047749,-0.000000,9770.718434
1436.497607,536.266849,222.061783,9548.656652
1436.497925,306.438199,222.061783,9622.677246
1436.498242,459.657299,148.041188,9622.677246
1436.498559,689.485948,222.061783,9918.759623
1436.498876,229.828649,-0.000000,9474.636058
1436.499193,306.438199,-0.000000,9400.615463
1436.499511,153.219100,-74.020594,9400.615463
1436.499828,536.266849,-74.020594,9326.594869
1436.500145,766.095498,-0.000000,9474.636058
1436.500462,1149.143247,-0.000000,9548.656652
1436.500779,842.705048,-0.000000,9252.574275
1436.501097,1225.752797,148.041188,9326.594869
1436.501414,1455.581446,370.102971,9252.574275
1436.501731,1532.190996,222.061783,9178.553681
1436.502048,1685.410096,370.102971,9030.512492
1436.502365,1378.971896,296.082377,8882.471304
1436.502683,1608.800546,-0.000000,9104.533087
1436.503000,1608.800546,-0.000000,9030.512492
1436.503317,1838.629195,-0.000000,9104.533087
1436.503634,1608.800546,-0.000000,9104.533087
1436.503951,1302.362347,-0.000000,9104.533087
1436.504268,1455.581446,-0.000000,9252.574275
1436.504586,1378.971896,148.041188,9178.553681
1436.504903,1072.533697,-0.000000,9326.594869
1436.505220,842.705048,-0.000000,8882.471304
1436.505537,612.876398,148.041188,9104.533087
1436.505854,689.485948,-0.000000,9252.574275
1436.506172,1225.752797,-0.000000,9400.615463
1436.506489,612.876398,-148.041188,9326.594869
1436.506806,766.095498,-0.000000,8956.491898
1436.507123,536.266849,296.082377,9252.574275
1436.507440,153.219100,-0.000000,9252.574275
1436.507758,306.438199,-0.000000,9326.594869
1436.508075,383.047749,-0.000000,9474.636058
1436.508392,536.266849,-0.000000,9326.594869
1436.508709,459.657299,148.041188,9326.594869
1436.509026,536.266849,222.061783,9252.574275
1436.509344,919.314598,148.041188,9474.636058
1436.509661,612.876398,-148.041188,9400.615463
1436.509978,536.266849,666.185348,9178.553681
1436.510295,612.876398,666.185348,9178.553681
1436.510612,612.876398,666.185348,9178.553681
1436.510931,689.485948,518.144159,9770.718434
1436.511248,536.266849,592.164754,9400.615463
1436.511566,842.705048,444.123565,9474.636058
1436.511883,612.876398,518.144159,9474.636058
1436.512200,459.657299,518.144159,9474.636058
1436.512517,229.828649,370.102971,9548.656652
1436.512834,689.485948,666.185348,9622.677246
1436.513152,459.657299,518.144159,9622.677246
1436.513469,459.657299,518.144159,9474.636058
1436.513786,689.485948,740.205942,9696.697840
1436.514103,1072.533697,518.144159,9474.636058
1436.514420,995.924147,592.164754,9770.718434
1436.514738,842.705048,296.082377,9474.636058
1436.515055,459.657299,148.041188,9770.718434
1436.515372,689.485948,370.102971,9844.739029
1436.515689,536.266849,74.020594,9770.718434
1436.516007,612.876398,666.185348,9770.718434
1436.516324,919.314598,222.061783,9474.636058
1436.516641,536.266849,222.061783,9696.697840
1436.516958,842.705048,-0.000000,9548.656652
1436.517275,689.485948,-0.000000,9770.718434
1436.517593,689.485948,-0.000000,9622.677246
1436.517910,536.266849,148.041188,9696.697840
1436.518227,689.485948,148.041188,9770.718434
1436.518544,766.095498,296.082377,9696.697840
1436.518862,689.485948,-0.000000,9696.697840
1436.519179,766.095498,296.082377,9474.636058
1436.519496,1225.752797,370.102971,9474.636058
1436.519813,1225.752797,370.102971,9400.615463
1436.520130,1532.190996,74.020594,9474.636058
1436.520448,1149.143247,148.041188,9178.553681
1436.520765,1072.533697,-0.000000,9326.594869
1436.521082,919.314598,296.082377,9400.615463
1436.521399,842.705048,74.020594,9326.594869
1436.521717,1149.143247,148.041188,9474.636058
1436.522034,842.705048,222.061783,9400.615463
1436.522351,766.095498,296.082377,9326.594869
1436.522668,689.485948,222.061783,9178.553681
1436.522985,612.876398,-0.000000,9252.574275
1436.523303,689.485948,296.082377,9326.594869
1436.523620,612.876398,-0.000000,9252.574275
1436.523937,459.657299,-0.000000,9326.594869
1436.524254,536.266849,222.061783,9178.553681
1436.524572,229.828649,518.144159,9474.636058
1436.524889,689.485948,222.061783,9104.533087
1436.525206,612.876398,222.061783,9178.553681
1436.525523,766.095498,222.061783,8956.491898
1436.525840,842.705048,-0.000000,8882.471304
1436.526158,1225.752797,-0.000000,9178.553681
1436.526475,995.924147,-0.000000,9030.512492
1436.526792,766.095498,-0.000000,9104.533087
1436.527109,612.876398,222.061783,9252.574275
1436.527427,766.095498,222.061783,9178.553681
1436.527744,919.314598,222.061783,9252.574275
1436.528061,919.314598,370.102971,9252.574275
1436.528378,766.095498,222.061783,9104.533087
1436.528695,995.924147,222.061783,9400.615463
1436.529013,1149.143247,370.102971,9400.615463
1436.529330,995.924147,-0.000000,9178.553681
1436.529647,1225.752797,296.082377,9252.574275
1436.529964,1072.533697,296.082377,9400.615463
1436.530281,1072.533697,296.082377,9326.594869
1436.530599,1532.190996,222.061783,9696.697840
1436.530916,1302.362347,370.102971,9400.615463
1436.531233,842.705048,370.102971,9696.697840
1436.531550,1072.533697,296.082377,9622.677246
1436.531868,1225.752797,148.041188,9474.636058
1436.532185,766.095498,296.082377,9844.739029
1436.532502,842.705048,-0.000000,9622.677246
1436.532819,689.485948,-0.000000,9770.718434
1436.533136,612.876398,-0.000000,9770.718434
1436.533454,306.438199,148.041188,9696.697840
1436.533771,459.657299,-0.000000,9918.759623
1436.534088,383.047749,-0.000000,9548.656652
1436.534405,153.219100,-0.000000,9844.739029
1436.534723,229.828649,148.041188,9622.677246
1436.535040,306.438199,-0.000000,9918.759623
1436.535357,153.219100,-0.000000,9770.718434
1436.535674,536.266849,148.041188,9622.677246
1436.535991,153.219100,296.082377,9622.677246
1436.536309,612.876398,370.102971,9622.677246
1436.536626,612.876398,444.123565,9622.677246
1436.536943,383.047749,518.144159,9474.636058
1436.537260,689.485948,518.144159,9400.615463
1436.537578,689.485948,444.123565,9474.636058
1436.537895,766.095498,370.102971,9400.615463
1436.538212,612.876398,148.041188,9252.574275
1436.538529,842.705048,592.164754,9326.594869
1436.538846,842.705048,518.144159,9400.615463
1436.539164,919.314598,518.144159,9326.594869
1436.539481,1302.362347,518.144159,9474.636058
1436.539798,842.705048,370.102971,9178.553681
1436.540115,536.266849,518.144159,9400.615463
1436.540433,689.485948,296.082377,9400.615463
1436.540750,689.485948,370.102971,9326.594869
1436.541067,919.314598,296.082377,9326.594869
1436.541384,612.876398,370.102971,9252.574275
1436.541701,459.657299,296.082377,9400.615463
1436.542019,536.266849,296.082377,9252.574275
1436.542336,459.657299,148.041188,9400.615463
1436.542653,689.485948,148.041188,9474.636058
1436.542970,612.876398,-0.000000,9400.615463
1436.543288,536.266849,-0.000000,9326.594869
1436.543605,612.876398,-0.000000,9326.594869
1436.543922,612.876398,-0.000000,9326.594869
1436.544239,689.485948,-0.000000,9474.636058
1436.544556,383.047749,-0.000000,9474.636058
1436.544874,459.657299,-0.000000,9474.636058
1436.545191,383.047749,-0.000000,9474.636058
1436.545508,459.657299,-0.000000,9326.594869
1436.545825,689.485948,-0.000000,9178.553681
1436.546143,689.485948,148.041188,9400.615463
1436.546460,995.924147,148.041188,9400.615463
1436.546777,842.705048,-0.000000,9400.615463
1436.547094,842.705048,-0.000000,9474.636058
1436.547411,995.924147,-74.020594,9400.615463
1436.547729,919.314598,-0.000000,9252.574275
1436.548046,612.876398,148.041188,9548.656652
1436.548363,995.924147,-0.000000,9030.512492
1436.548680,459.657299,148.041188,9326.594869
1436.548997,689.485948,-148.041188,9474.636058
1436.549315,612.876398,-0.000000,9474.636058
1436.549632,919.314598,-0.000000,9474.636058
1436.549949,536.266849,-0.000000,9548.656652
1436.550266,536.266849,-222.061783,9548.656652
1436.550584,689.485948,-148.041188,8956.491898
1436.550901,459.657299,-0.000000,9326.594869
1436.551218,689.485948,-0.000000,9400.615463
1436.551535,689.485948,-0.000000,9326.594869
1436.551852,689.485948,-0.000000,9400.615463
1436.552170,842.705048,-74.020594,9252.574275
1436.552487,919.314598,-148.041188,9400.615463
1436.552804,842.705048,-0.000000,9400.615463
1436.553121,766.095498,-0.000000,9474.636058
1436.553439,919.314598,148.041188,9474.636058
1436.553756,1149.143247,222.061783,9400.615463
1436.554073,1225.752797,-0.000000,9326.594869
1436.554390,995.924147,296.082377,9474.636058
1436.554707,842.705048,-0.000000,9474.636058
1436.555025,1072.533697,-0.000000,9474.636058
1436.555342,1072.533697,222.061783,9474.636058
1436.555659,842.705048,370.102971,9474.636058
1436.555976,1072.533697,296.082377,9474.636058
1436.556294,995.924147,370.102971,9474.636058
1436.556611,1149.143247,-0.000000,9696.697840
1436.556928,995.924147,370.102971,9548.656652
1436.557245,1455.581446,518.144159,9400.615463
1436.557562,1302.362347,592.164754,9252.574275
1436.557880,919.314598,444.123565,9400.615463
1436.558197,919.314598,296.082377,9474.636058
1436.558514,995.924147,592.164754,9474.636058
1436.558831,766.095498,518.144159,9400.615463
1436.559149,919.314598,518.144159,9474.636058
1436.559466,766.095498,370.102971,9474.636058
1436.559783,689.485948,666.185348,9696.697840
1436.560100,612.876398,148.041188,9548.656652
1436.560417,766.095498,740.205942,9474.636058
1436.560735,459.657299,592.164754,9474.636058
1436.561052,536.266849,370.102971,9474.636058
1436.561369,383.047749,222.061783,9326.594869
1436.561686,383.047749,444.123565,9400.615463
1436.562004,459.657299,370.102971,9400.615463
1436.562321,536.266849,444.123565,9474.636058
1436.562638,842.705048,666.185348,9400.615463
1436.562955,842.705048,740.205942,9474.636058
1436.563272,459.657299,666.185348,9400.615463
1436.563590,995.924147,740.205942,9326.594869
1436.563907,842.705048,444.123565,9178.553681
1436.564224,689.485948,222.061783,9326.594869
1436.564541,766.095498,444.123565,9400.615463
1436.564859,842.705048,444.123565,9474.636058
1436.565176,842.705048,370.102971,9400.615463
1436.565493,995.924147,148.041188,9548.656652
1436.565810,766.095498,518.144159,9548.656652
1436.566127,689.485948,370.102971,9622.677246
1436.566445,995.924147,370.102971,9474.636058
1436.566762,689.485948,518.144159,9474.636058
1436.567079,842.705048,-0.000000,9474.636058
1436.567396,612.876398,-0.000000,9474.636058
1436.567713,689.485948,222.061783,9474.636058
1436.568031,612.876398,-0.000000,9548.656652
1436.568348,229.828649,-0.000000,9474.636058
1436.568665,383.047749,-0.000000,9474.636058
1436.568982,612.876398,-0.000000,9400.615463
1436.569300,612.876398,-74.020594,9474.636058
1436.569617,383.047749,-148.041188,9474.636058
1436.569934,536.266849,-148.041188,9400.615463
1436.570251,306.438199,-0.000000,9548.656652
1436.570568,383.047749,-74.020594,9622.677246
1436.570886,536.266849,-0.000000,9474.636058
1436.571203,612.876398,-0.000000,9474.636058
1436.571520,612.876398,-74.020594,9474.636058
1436.571837,842.705048,-0.000000,9474.636058
1436.572155,919.314598,222.061783,9400.615463
1436.572472,842.705048,222.061783,9326.594869
1436.572789,842.705048,-0.000000,9252.574275
1436.573106,1149.143247,-148.041188,9326.594869
1436.573423,1072.533697,148.041188,9178.553681
1436.573741,1302.362347,222.061783,9104.533087
1436.574058,1302.362347,-0.000000,9252.574275
1436.574375,1378.971896,-0.000000,9326.594869
