#time,accel_x,accel_y,accel_z
2042.243201,689.485948,222.061783,9474.636058
2042.243519,689.485948,-0.000000,9400.615463
2042.243836,842.705048,-0.000000,9622.677246
2042.244154,1302.362347,-74.020594,9548.656652
2042.244471,995.924147,222.061783,9622.677246
2042.244789,766.095498,148.041188,9474.636058
2042.245106,995.924147,-0.000000,9474.636058
2042.245423,842.705048,-0.000000,9474.636058
2042.245741,536.266849,-0.000000,9474.636058
2042.246058,612.876398,296.082377,9474.636058
2042.246376,766.095498,148.041188,9474.636058
2042.246693,766.095498,148.041188,9548.656652
2042.247011,919.314598,-0.000000,9474.636058
2042.247328,842.705048,-0.000000,9474.636058
2042.247645,1149.143247,-0.000000,9252.574275
2042.247963,995.924147,148.041188,9474.636058
2042.248280,766.095498,74.020594,9474.636058
2042.248598,919.314598,-0.000000,9474.636058
2042.248915,919.314598,-0.000000,9400.615463
2042.249233,689.485948,-0.000000,9474.636058
2042.249550,842.705048,-0.000000,9474.636058
2042.249867,842.705048,-0.000000,9474.636058
2042.250185,1072.533697,-0.000000,9474.636058
2042.250502,919.314598,-0.000000,9326.594869
2042.250820,536.266849,-0.000000,9548.656652
2042.251137,842.705048,-74.020594,9400.615463
2042.251455,842.705048,148.041188,9326.594869
2042.251772,842.705048,-74.020594,9104.533087
2042.252089,536.266849,-0.000000,9326.594869
2042.252407,919.314598,-148.041188,9326.594869
2042.252724,612.876398,-0.000000,9178.553681
2042.253042,1149.143247,-370.102971,9252.574275
2042.253359,1455.581446,-0.000000,9474.636058
2042.253677,842.705048,148.041188,9474.636058
2042.253994,612.876398,-0.000000,9178.553681
2042.254311,842.705048,-0.000000,9326.594869
2042.254629,919.314598,-0.000000,9400.615463
2042.254946,842.705048,-0.000000,9474.636058
2042.255264,766.095498,-222.061783,9252.574275
2042.255581,766.095498,-0.000000,9326.594869
2042.255899,766.095498,-74.020594,9400.615463
2042.256216,1149.143247,-296.082377,9030.512492
2042.256533,536.266849,-296.082377,9252.574275
2042.256851,842.705048,-222.061783,9252.574275
2042.257168,689.485948,-74.020594,9178.553681
2042.257486,919.314598,-222.061783,9326.594869
2042.257803,229.828649,-0.000000,9326.594869
2042.258121,766.095498,-74.020594,9474.636058
2042.258438,919.314598,-74.020594,9326.594869
2042.258755,919.314598,-0.000000,9400.615463
2042.259073,689.485948,-0.000000,9400.615463
2042.259390,766.095498,-0.000000,9474.636058
2042.259708,842.705048,-296.082377,9252.574275
2042.260025,766.095498,-148.041188,9178.553681
2042.260343,842.705048,-0.000000,9400.615463
2042.260660,842.705048,-0.000000,9326.594869
2042.260977,306.438199,-0.000000,9844.739029
2042.261295,689.485948,-0.000000,9326.594869
2042.261612,459.657299,-74.020594,9400.615463
2042.261930,919.314598,148.041188,9474.636058
2042.262247,612.876398,-74.020594,9548.656652
2042.262565,842.705048,-74.020594,9474.636058
2042.262882,689.485948,-222.061783,9326.594869
2042.263199,842.705048,222.061783,9474.636058
2042.263517,919.314598,-0.000000,9622.677246
2042.263834,1072.533697,-0.000000,9400.615463
2042.264152,842.705048,222.061783,9474.636058
2042.264469,612.876398,148.041188,9474.636058
2042.264786,459.657299,148.041188,9400.615463
2042.265104,689.485948,296.082377,9474.636058
2042.265421,995.924147,-0.000000,9474.636058
2042.265739,536.266849,148.041188,9474.636058
2042.266056,919.314598,296.082377,9474.636058
2042.266374,612.876398,296.082377,9474.636058
2042.266691,689.485948,-0.000000,9548.656652
2042.267008,536.266849,-0.000000,9548.656652
2042.267326,766.095498,-0.000000,9474.636058
2042.267643,689.485948,222.061783,9548.656652
2042.267961,766.095498,222.061783,9474.636058
2042.268278,919.314598,296.082377,9474.636058
2042.268596,842.705048,148.041188,9474.636058
2042.268913,766.095498,-0.000000,9326.594869
2042.269230,689.485948,-0.000000,9400.615463
2042.269548,919.314598,-0.000000,9548.656652
2042.269865,842.705048,222.061783,9548.656652
2042.270183,1149.143247,-0.000000,9474.636058
2042.270500,536.266849,222.061783,9770.718434
2042.270818,612.876398,-0.000000,9474.636058
2042.271135,459.657299,-0.000000,9400.615463
2042.271452,612.876398,-74.020594,9326.594869
2042.271770,689.485948,370.102971,9622.677246
2042.272087,612.876398,222.061783,9252.574275
2042.272405,919.314598,-148.041188,9474.636058
2042.272722,842.705048,-0.000000,9400.615463
2042.273040,306.438199,148.041188,9548.656652
2042.273357,766.095498,-0.000000,9474.636058
2042.273674,766.095498,-0.000000,9326.594869
2042.273992,689.485948,-0.000000,9400.615463
2042.274309,689.485948,148.041188,9474.636058
2042.274627,689.485948,-0.000000,9548.656652
2042.274944,306.438199,-0.000000,9326.594869
2042.275262,842.705048,148.041188,9548.656652
2042.275579,766.095498,-0.000000,9326.594869
2042.275896,689.485948,-0.000000,9474.636058
2042.276214,536.266849,-0.000000,9252.574275
2042.276531,842.705048,148.041188,9326.594869
2042.276849,766.095498,-0.000000,9474.636058
2042.277166,612.876398,-0.000000,9326.594869
2042.277484,612.876398,-222.061783,9474.636058
2042.277801,689.485948,-0.000000,9400.615463
2042.278118,536.266849,-0.000000,9474.636058
2042.278436,459.657299,-0.000000,9400.615463
2042.278753,689.485948,148.041188,9400.615463
2042.279071,612.876398,296.082377,9474.636058
2042.279388,689.485948,222.061783,9400.615463
2042.279706,689.485948,148.041188,9474.636058
2042.280023,842.705048,148.041188,9474.636058
2042.280340,612.876398,-0.000000,9326.594869
2042.280658,689.485948,-0.000000,9400.615463
2042.280975,612.876398,-0.000000,9326.594869
2042.281293,612.876398,-0.000000,9548.656652
2042.281610,612.876398,-0.000000,9326.594869
2042.281928,536.266849,296.082377,9474.636058
2042.282245,612.876398,370.102971,9326.594869
2042.282562,383.047749,296.082377,9474.636058
2042.282880,612.876398,814.226536,9622.677246
2042.283197,536.266849,666.185348,9400.615463
2042.283515,1455.581446,814.226536,9474.636058
2042.283832,536.266849,740.205942,9548.656652
2042.284150,536.266849,370.102971,9696.697840
2042.284467,459.657299,444.123565,9696.697840
2042.284784,536.266849,666.185348,9770.718434
2042.285102,383.047749,814.226536,9548.656652
2042.285419,383.047749,1184.329507,9696.697840
2042.285737,153.219100,1554.432478,9474.636058
2042.286054,-306.438199,1480.411884,9326.594869
2042.286372,-536.266849,1702.473667,9252.574275
2042.286689,-766.095498,1184.329507,9474.636058
2042.287006,-1378.971896,1036.288319,9696.697840
2042.287324,-1838.629195,1110.308913,10066.800811
2042.287641,-2451.505594,1036.288319,9474.636058
2042.287959,-2911.162892,1036.288319,10214.842000
2042.288276,-2757.943793,1332.370696,10955.047942
2042.288594,-3064.381992,1332.370696,9992.780217
2042.288911,-3217.601092,1998.556043,9992.780217
2042.289228,-3217.601092,2072.576638,9770.718434
2042.289546,-3217.601092,2146.597232,9844.739029
2042.289863,-2911.162892,2368.659014,9548.656652
2042.290181,-3294.210641,2442.679609,9178.553681
2042.290498,-3600.648841,2368.659014,9104.533087
2042.290816,-4060.306139,2294.638420,9178.553681
2042.291133,-4366.744339,2590.720797,8956.491898
2042.291450,-3983.696590,2590.720797,9252.574275
2042.291768,-4290.134789,2812.782580,9104.533087
2042.292085,-4826.401637,3034.844362,8808.450710
2042.292403,-4826.401637,3552.988522,8660.409521
2042.292720,-4673.182538,3923.091493,8364.327145
2042.293038,-4673.182538,4441.235652,8068.244768
2042.293355,-4596.572988,4811.338623,7772.162391
2042.293672,-4749.792088,5181.441594,7698.141797
2042.293990,-4673.182538,5033.400406,7920.203579
2042.294307,-4213.525239,5033.400406,8142.265362
2042.294625,-3830.477490,5699.585753,8216.285956
2042.294942,-3830.477490,6291.750507,8068.244768
2042.295260,-3524.039291,6809.894666,7402.059420
2042.295577,-3217.601092,7031.956449,7328.038826
2042.295894,-2221.676944,7179.997637,7179.997637
2042.296212,-2451.505594,7550.100608,6957.935855
2042.296529,-2068.457845,7550.100608,7031.956449
2042.296847,-1762.019645,7179.997637,7624.121203
2042.297164,-1762.019645,7254.018232,8216.285956
2042.297482,-1991.848295,6735.874072,8956.491898
2042.297799,-2221.676944,6143.709319,9326.594869
2042.298116,-2374.896044,6069.688724,9400.615463
2042.298434,-2298.286494,6143.709319,8882.471304
2042.298751,-1838.629195,6365.771101,8660.409521
2042.299069,-1225.752797,5625.565159,9030.512492
2042.299386,-536.266849,5625.565159,9474.636058
2042.299704,-1225.752797,4737.318029,9400.615463
2042.300021,-2451.505594,3849.070898,9844.739029
2042.300338,-3140.991542,2738.761985,11473.192101
2042.300656,-3294.210641,1924.535449,12805.562797
2042.300973,-3677.258390,1628.453072,12657.521608
2042.301291,-3217.601092,2220.617826,12953.603985
2042.301608,-2681.334243,2146.597232,12805.562797
2042.301926,-1762.019645,2516.700203,12879.583391
2042.302243,-766.095498,2072.576638,12509.480420
2042.302560,-1455.581446,1480.411884,11547.212695
2042.302878,-1608.800546,1184.329507,11843.295072
2042.303195,-1532.190996,-0.000000,13175.665768
2042.303513,-919.314598,-296.082377,13545.768739
2042.303830,-842.705048,-0.000000,12731.542202
2042.304148,-689.485948,814.226536,12509.480420
2042.304465,-306.438199,296.082377,13101.645173
2042.304782,383.047749,-74.020594,12805.562797
2042.305100,689.485948,-74.020594,12065.356855
2042.305417,1608.800546,740.205942,10362.883188
2042.305735,1838.629195,370.102971,10732.986159
2042.306052,2221.676944,666.185348,9474.636058
2042.306370,2451.505594,222.061783,9696.697840
2042.306687,2528.115143,444.123565,10288.862594
2042.307004,995.924147,740.205942,9844.739029
2042.307322,1072.533697,370.102971,10584.944971
2042.307639,459.657299,296.082377,10732.986159
2042.307957,612.876398,296.082377,10288.862594
2042.308274,229.828649,222.061783,9252.574275
2042.308592,229.828649,1184.329507,8438.347739
2042.308909,1225.752797,666.185348,7994.224174
2042.309226,919.314598,1998.556043,5625.565159
2042.309544,842.705048,2368.659014,6217.729913
2042.309861,153.219100,2368.659014,5699.585753
2042.310179,-1378.971896,1850.514855,5847.626942
2042.310496,-2757.943793,1554.432478,5921.647536
2042.310814,-3830.477490,-518.144159,8586.388927
2042.311131,-4673.182538,-0.000000,8734.430116
2042.311448,-4366.744339,-444.123565,8734.430116
2042.311766,-3983.696590,296.082377,6957.935855
2042.312083,-3753.867940,518.144159,6735.874072
2042.312401,-3064.381992,888.247130,7179.997637
2042.312718,-2145.067394,1776.494261,7031.956449
2042.313036,-1838.629195,2664.741391,5847.626942
2042.313353,-2145.067394,3552.988522,5107.421000
2042.313670,-1915.238745,5403.503377,5033.400406
2042.313988,-1762.019645,5181.441594,6439.791695
2042.314305,-1915.238745,3997.112087,6735.874072
2042.314623,-2834.553343,2812.782580,6661.853478
2042.314940,-3753.867940,2516.700203,6957.935855
2042.315258,-3447.429741,888.247130,9622.677246
2042.315575,-2221.676944,1036.288319,9030.512492
2042.315892,-1991.848295,1036.288319,8660.409521
2042.316210,-2145.067394,3256.906145,6809.894666
2042.316527,-2528.115143,3775.050304,7254.018232
2042.316845,-2451.505594,3701.029710,8438.347739
2042.317162,-2911.162892,2886.803174,9030.512492
2042.317480,-4979.620737,3256.906145,8660.409521
2042.317797,-5745.716235,3182.885551,11029.068536
2042.318114,-5439.278036,2886.803174,11177.109724
2042.318432,-4903.011187,2442.679609,11325.150913
2042.318749,-3370.820191,2886.803174,12139.377449
2042.319066,-2604.724693,3775.050304,12139.377449
2042.319383,-1608.800546,4145.153275,11251.130318
2042.319701,766.095498,3923.091493,11029.068536
2042.320018,766.095498,4959.379811,9474.636058
2042.320335,919.314598,5995.668130,9104.533087
2042.320652,842.705048,5699.585753,9844.739029
2042.320970,306.438199,5181.441594,9622.677246
2042.321287,-383.047749,5699.585753,9918.759623
2042.321604,-153.219100,5329.482782,11991.336260
2042.321921,-1302.362347,4515.256246,11399.171507
2042.322239,-1532.190996,3404.947333,11843.295072
2042.322556,-2298.286494,2812.782580,11177.109724
2042.322873,-2451.505594,1924.535449,12509.480420
2042.323190,-1838.629195,1554.432478,13249.686362
2042.323508,-919.314598,2146.597232,14211.954086
2042.323825,-1762.019645,3923.091493,11103.089130
2042.324142,-995.924147,5551.544565,12509.480420
2042.324459,-459.657299,4515.256246,13545.768739
2042.324777,0.000000,3849.070898,13101.645173
2042.325094,-153.219100,4145.153275,12287.418637
2042.325411,383.047749,4367.215058,12287.418637
2042.325728,919.314598,4367.215058,11325.150913
2042.326046,2834.553343,4145.153275,9992.780217
2042.326363,3600.648841,3997.112087,8882.471304
2042.326680,2374.896044,3923.091493,7476.080014
2042.326997,2145.067394,2516.700203,9474.636058
2042.327315,459.657299,2220.617826,8438.347739
2042.327632,-1455.581446,1554.432478,9992.780217
2042.327949,-2528.115143,1776.494261,10807.006753
2042.328266,-4596.572988,1258.350101,12213.398043
2042.328584,-3753.867940,518.144159,12509.480420
2042.328901,-3370.820191,444.123565,11695.253884
2042.329218,-2374.896044,444.123565,11695.253884
2042.329535,-383.047749,444.123565,11991.336260
2042.329853,995.924147,1702.473667,8586.388927
2042.330170,1915.238745,1998.556043,7624.121203
2042.330487,1532.190996,3034.844362,6735.874072
2042.330804,2374.896044,3849.070898,6735.874072
2042.331122,229.828649,3256.906145,3775.050304
2042.331439,-842.705048,2368.659014,5921.647536
2042.331756,-3064.381992,2220.617826,5551.544565
2042.332073,-4596.572988,962.267725,6587.832884
2042.332391,-6205.373534,-2590.720797,9104.533087
2042.332708,-6971.469032,-2664.741391,10584.944971
2042.333025,-6588.421283,-2368.659014,10510.924376
2042.333342,-5745.716235,-1628.453072,9844.739029
2042.333660,-3140.991542,-1554.432478,11251.130318
2042.333977,-1762.019645,-1184.329507,9992.780217
2042.334294,612.876398,518.144159,8290.306550
2042.334611,1455.581446,2220.617826,5699.585753
2042.334929,3447.429741,1850.514855,7328.038826
2042.335246,3753.867940,2368.659014,4737.318029
2042.335563,3217.601092,2220.617826,3775.050304
2042.335880,3217.601092,2072.576638,3775.050304
2042.336198,1991.848295,962.267725,5181.441594
2042.336515,2987.772442,-222.061783,5403.503377
2042.336832,919.314598,-2368.659014,6957.935855
2042.337149,0.000000,-2516.700203,9844.739029
2042.337467,-383.047749,-2368.659014,10066.800811
2042.337784,229.828649,-1332.370696,11251.130318
2042.338101,919.314598,-1998.556043,10881.027347
2042.338418,-459.657299,-74.020594,9992.780217
2042.338736,1608.800546,814.226536,11473.192101
2042.339053,2987.772442,1850.514855,11621.233289
2042.339370,4290.134789,2294.638420,8660.409521
2042.339687,4903.011187,2960.823768,7105.977043
2042.340005,5669.106685,1850.514855,8956.491898
2042.340322,6205.373534,962.267725,9326.594869
2042.340639,6511.811733,-74.020594,7920.203579
2042.340956,4749.792088,592.164754,6957.935855
2042.341273,4596.572988,1036.288319,8438.347739
2042.341591,3600.648841,444.123565,8586.388927
2042.341908,766.095498,-888.247130,10732.986159
2042.342225,842.705048,-1628.453072,13619.789333
2042.342542,-919.314598,-0.000000,11621.233289
2042.342860,-2298.286494,-666.185348,13545.768739
2042.343177,-766.095498,-2368.659014,17024.736666
2042.343494,76.609550,-962.267725,13841.851115
2042.343811,1532.190996,370.102971,10955.047942
2042.344129,2145.067394,888.247130,10288.862594
2042.344446,3600.648841,296.082377,10288.862594
2042.344763,4673.182538,1036.288319,9474.636058
2042.345080,4213.525239,1776.494261,7328.038826
2042.345398,1838.629195,1184.329507,8216.285956
2042.345715,383.047749,-0.000000,10881.027347
2042.346032,-1072.533697,444.123565,10362.883188
2042.346349,-2145.067394,-1258.350101,12509.480420
2042.346667,-2834.553343,-1258.350101,14434.015869
2042.346984,-2528.115143,-592.164754,14508.036463
2042.347301,-1915.238745,-962.267725,12731.542202
2042.347618,0.000000,-74.020594,12583.501014
2042.347936,2145.067394,1258.350101,11473.192101
2042.348253,2451.505594,2368.659014,8216.285956
2042.348570,3907.087040,2664.741391,7402.059420
2042.348887,3600.648841,3404.947333,6587.832884
2042.349205,2834.553343,4515.256246,5921.647536
2042.349522,1072.533697,3330.926739,5773.606348
2042.349839,-842.705048,1258.350101,8586.388927
2042.350156,-2221.676944,-0.000000,9474.636058
2042.350474,-2604.724693,518.144159,9178.553681
2042.350791,-2451.505594,-1110.308913,11177.109724
2042.351108,-1302.362347,-1776.494261,13175.665768
2042.351425,-306.438199,-74.020594,10584.944971
2042.351743,1149.143247,592.164754,9474.636058
2042.352060,1991.848295,444.123565,9474.636058
2042.352377,2757.943793,1850.514855,9030.512492
2042.352694,3524.039291,3404.947333,6883.915261
2042.353012,3677.258390,3849.070898,4959.379811
2042.353329,2374.896044,4219.173869,4293.194464
2042.353646,919.314598,2220.617826,5329.482782
2042.353963,-689.485948,444.123565,6735.874072
2042.354281,-1378.971896,-2442.679609,8290.306550
2042.354598,-2298.286494,-1850.514855,7402.059420
2042.354915,-1685.410096,-2294.638420,8364.327145
2042.355232,-1225.752797,-2590.720797,10436.903782
2042.355550,-383.047749,-2442.679609,10288.862594
2042.355867,306.438199,-1850.514855,10066.800811
2042.356184,306.438199,-1036.288319,10807.006753
2042.356501,995.924147,-0.000000,10140.821405
2042.356819,1991.848295,814.226536,8882.471304
2042.357136,3140.991542,1628.453072,8586.388927
2042.357453,3524.039291,2146.597232,7772.162391
2042.357770,4366.744339,2220.617826,6513.812290
2042.358088,3294.210641,2146.597232,5403.503377
2042.358405,2528.115143,1184.329507,5773.606348
2042.358722,1762.019645,-666.185348,6883.915261
2042.359039,306.438199,-1628.453072,8586.388927
2042.359357,-1072.533697,-2516.700203,9474.636058
2042.359674,-1838.629195,-2812.782580,11695.253884
2042.359991,-1608.800546,-3182.885551,12509.480420
2042.360308,-995.924147,-3034.844362,13693.809927
2042.360626,-229.828649,-2294.638420,14211.954086
2042.360943,766.095498,-740.205942,13101.645173
2042.361260,2604.724693,-370.102971,12139.377449
2042.361577,4673.182538,740.205942,10510.924376
2042.361895,7201.297681,1924.535449,7476.080014
2042.362212,6894.859482,2960.823768,5033.400406
2042.362529,5592.497135,2442.679609,5107.421000
2042.362846,4749.792088,1998.556043,5773.606348
2042.363164,2298.286494,1480.411884,6587.832884
2042.363481,0.000000,296.082377,7624.121203
2042.363798,-3064.381992,-1110.308913,10584.944971
2042.364115,-4366.744339,-3330.926739,15692.365970
2042.364433,-4213.525239,-4441.235652,16580.613101
2042.364750,-3677.258390,-3997.112087,15840.407159
2042.365067,-1915.238745,-2368.659014,15914.427753
2042.365384,1149.143247,-370.102971,13915.871710
2042.365702,4366.744339,1258.350101,10658.965565
2042.366019,7124.688131,1850.514855,9326.594869
2042.366336,8120.612279,5033.400406,5477.523971
2042.366653,7354.516781,6957.935855,2590.720797
2042.366971,5745.716235,5403.503377,2886.803174
2042.367288,2681.334243,3256.906145,4811.338623
2042.367605,-766.095498,1332.370696,7402.059420
2042.367922,-4443.353888,-1332.370696,9696.697840
2042.368240,-5975.544884,-3108.864956,13693.809927
2042.368557,-5822.325785,-4589.276840,16728.654289
2042.368874,-4826.401637,-2886.803174,15174.221811
2042.369191,-2451.505594,-2590.720797,14508.036463
2042.369509,-689.485948,-2368.659014,14952.160028
2042.369826,2221.676944,-518.144159,12657.521608
2042.370143,5592.497135,962.267725,9252.574275
2042.370460,7354.516781,3552.988522,6883.915261
2042.370778,7890.783629,5107.421000,4663.297435
2042.371095,6741.640382,5773.606348,1702.473667
2042.371412,3447.429741,5033.400406,1776.494261
2042.371729,612.876398,2294.638420,4959.379811
2042.372047,-3140.991542,-148.041188,7105.977043
2042.372364,-4826.401637,-3182.885551,9474.636058
2042.372681,-5592.497135,-4219.173869,10881.027347
2042.372998,-6818.249932,-5403.503377,14730.098246
2042.373316,-5592.497135,-5773.606348,16210.510130
2042.373633,-3983.696590,-3330.926739,14952.160028
2042.373950,-1915.238745,-814.226536,13323.706956
2042.374267,229.828649,1184.329507,11547.212695
2042.374584,2987.772442,3404.947333,10288.862594
2042.374902,5745.716235,5107.421000,6661.853478
2042.375219,7967.393179,6735.874072,2220.617826
2042.375536,7584.345430,8068.244768,-1184.329507
2042.375853,5745.716235,6661.853478,-1332.370696
2042.376171,2528.115143,3256.906145,0.000000
2042.376488,-612.876398,-814.226536,4145.153275
2042.376805,-3600.648841,-3108.864956,7402.059420
2042.377122,-6281.983084,-4959.379811,10436.903782
2042.377440,-7507.735880,-5995.668130,14434.015869
2042.377757,-7814.174080,-5847.626942,17024.736666
2042.378074,-6205.373534,-3182.885551,17987.004391
2042.378391,-3830.477490,-1184.329507,16580.613101
2042.378709,-1608.800546,1110.308913,14211.954086
2042.379026,3370.820191,2738.761985,12731.542202
2042.379343,8197.221829,5847.626942,7698.141797
2042.379660,11108.384721,7105.977043,2368.659014
2042.379978,11874.480219,7624.121203,-1332.370696
2042.380295,11261.603821,7105.977043,-2072.576638
2042.380612,7048.078582,4737.318029,-1184.329507
2042.380929,3677.258390,-148.041188,4367.215058
2042.381247,-1378.971896,-3182.885551,5477.523971
2042.381564,-4290.134789,-7254.018232,14508.036463
2042.381881,-8427.050478,-8290.306550,16506.592507
2042.382198,-8273.831378,-8808.450710,22354.219448
2042.382516,-7124.688131,-6291.750507,20799.786970
2042.382833,-3600.648841,-3034.844362,20281.642811
2042.383150,-383.047749,-1480.411884,18579.169144
2042.383467,4366.744339,1776.494261,14211.954086
2042.383785,9499.584175,5255.462188,9548.656652
2042.384102,13406.671215,7328.038826,2886.803174
2042.384419,12640.575717,8660.409521,-2368.659014
2042.384736,9193.145976,7920.203579,-3404.947333
2042.385054,5362.668486,4145.153275,222.061783
2042.385371,0.000000,-666.185348,5699.585753
2042.385688,-2374.896044,-4959.379811,9252.574275
2042.386005,-7507.735880,-6587.832884,11177.109724
2042.386323,-9806.022374,-7105.977043,18949.272115
2042.386640,-9039.926876,-9474.636058,22502.260637
2042.386957,-8963.317327,-8660.409521,21614.013506
2042.387274,-5975.544884,-6809.894666,21539.992912
2042.387592,-2528.115143,-370.102971,17987.004391
2042.387909,2451.505594,2442.679609,13841.851115
2042.388226,9576.193725,5329.482782,9770.718434
2042.388543,11951.089769,8290.306550,2960.823768
2042.388861,11491.432470,10658.965565,-1776.494261
2042.389178,8810.098227,9326.594869,-5107.421000
2042.389495,3447.429741,4811.338623,-4367.215058
2042.389812,383.047749,-1850.514855,3552.988522
2042.390130,-3064.381992,-4885.359217,5921.647536
2042.390447,-6435.202183,-6291.750507,9474.636058
2042.390764,-7737.564530,-9252.574275,16580.613101
2042.391081,-8886.707777,-10436.903782,18875.251521
2042.391399,-7201.297681,-9548.656652,22132.157666
2042.391716,-6818.249932,-4737.318029,18431.127956
2042.392033,-3447.429741,-1998.556043,19097.313304
2042.392350,842.705048,1480.411884,14582.057057
2042.392668,7737.564530,6957.935855,9400.615463
2042.392985,12257.527968,9918.759623,2368.659014
2042.393302,13866.328514,10362.883188,-4293.194464
2042.393619,11644.651570,10066.800811,-6957.935855
2042.393937,7507.735880,4811.338623,-7105.977043
2042.394254,2451.505594,-222.061783,-1110.308913
2042.394571,-766.095498,-3997.112087,1480.411884
2042.394888,-3830.477490,-4737.318029,7328.038826
2042.395206,-8120.612279,-8660.409521,12361.439231
2042.395523,-9346.365076,-9770.718434,20503.704593
2042.395840,-9729.412825,-9474.636058,23686.590144
2042.396157,-8350.440928,-5773.606348,20873.807564
2042.396475,-5745.716235,-2886.803174,23094.425390
2042.396792,-689.485948,-0.000000,17690.922014
2042.397109,6052.154434,5107.421000,11325.150913
2042.397426,13713.109414,8586.388927,4441.235652
2042.397744,15858.176809,9696.697840,-4367.215058
2042.398061,15092.081311,13323.706956,-10288.862594
2042.398378,10955.165621,9400.615463,-10362.883188
2042.398695,5592.497135,2590.720797,-3849.070898
2042.399013,-1762.019645,-2738.761985,-1258.350101
2042.399330,-6435.202183,-6291.750507,6513.812290
2042.399647,-12257.527968,-10584.944971,13471.748144
2042.399964,-13023.623466,-13175.665768,24574.837274
2042.400282,-12870.404366,-15544.324782,26943.496289
2042.400599,-12257.527968,-9400.615463,25611.125593
2042.400916,-8656.879127,-4663.297435,26129.269753
2042.401233,-5439.278036,2146.597232,21243.910535
2042.401551,4749.792088,4737.318029,15840.407159
2042.401868,11184.994271,10214.842000,8216.285956
2042.402185,17160.539155,13175.665768,-1036.288319
2042.402502,18233.072852,17690.922014,-7846.182985
2042.402820,15321.909960,15322.262999,-10510.924376
2042.403137,9576.193725,6513.812290,-4959.379811
2042.403454,3140.991542,-2886.803174,0.000000
2042.403771,-2528.115143,-4811.338623,5033.400406
2042.404089,-9959.241474,-9992.780217,12879.583391
2042.404406,-11797.870669,-13841.851115,22354.219448
2042.404723,-11874.480219,-12213.398043,29608.237680
2042.405040,-10648.727422,-10066.800811,26425.352129
2042.405358,-9576.193725,-2960.823768,21317.931130
2042.405675,-6818.249932,-740.205942,23020.404796
2042.405992,-229.828649,3923.091493,19541.436869
2042.406309,9039.926876,4737.318029,13841.851115
2042.406627,13866.328514,8512.368333,6883.915261
2042.406944,17160.539155,14211.954086,-3404.947333
2042.407261,17237.148705,16432.571912,-9252.574275
2042.407578,13176.842566,11991.336260,-11843.295072
2042.407896,8810.098227,2738.761985,-1924.535449
2042.408213,3294.210641,-3256.906145,518.144159
2042.408530,-5975.544884,-5477.523971,3552.988522
2042.408847,-10342.289223,-12657.521608,15322.262999
2042.409164,-11874.480219,-14063.912898,26277.310941
2042.409482,-11951.089769,-15470.304188,30200.402434
2042.409799,-11108.384721,-9622.677246,25611.125593
2042.410116,-10801.946522,-4959.379811,22724.322419
2042.410433,-7201.297681,-1480.411884,19097.313304
2042.410751,2681.334243,5699.585753,13323.706956
2042.411068,11184.994271,8734.430116,7031.956449
2042.411385,15628.348159,10881.027347,962.267725
2042.411702,16624.272307,14211.954086,-7550.100608
2042.412020,14709.033562,14137.933492,-16210.510130
2042.412337,11184.994271,7994.224174,-12065.356855
2042.412654,5592.497135,-222.061783,-2886.803174
2042.412971,229.828649,-4071.132681,1036.288319
2042.413289,-7431.126331,-10066.800811,5329.482782
2042.413606,-12257.527968,-14211.954086,21095.869347
2042.413923,-12104.308868,-18653.189738,31680.814318
2042.414240,-13713.109414,-12509.480420,21762.054695
2042.414558,-11184.994271,-9104.533087,22650.301825
2042.414875,-10342.289223,-3997.112087,25018.960840
2042.415192,-5362.668486,6957.935855,17246.798449
2042.415509,7890.783629,9326.594869,12139.377449
2042.415827,15245.300410,10658.965565,6735.874072
2042.416144,16088.005458,13545.768739,-3775.050304
2042.416461,18692.730151,15840.407159,-13027.624579
2042.416778,16317.834107,13249.686362,-15174.221811
2042.417096,9193.145976,2812.782580,-6291.750507
2042.417413,4136.915689,-4959.379811,-1554.432478
2042.417730,-5132.839837,-9030.512492,2368.659014
2042.418047,-9499.584175,-13323.706956,15766.386565
2042.418365,-13023.623466,-18949.272115,28423.908173
2042.418682,-12717.185267,-16654.633695,29534.217086
2042.418999,-14479.204912,-10807.006753,24796.899057
2042.419316,-12257.527968,-7920.203579,24500.816680
2042.419634,-11338.213370,814.226536,18357.107362
2042.419951,0.000000,8882.471304,14285.974681
2042.420269,11261.603821,9696.697840,12065.356855
2042.420586,14402.595362,15322.262999,-962.267725
2042.420903,20531.359346,16802.674883,-3849.070898
2042.421221,18845.949251,18209.066173,-16580.613101
2042.421538,14632.424012,10066.800811,-8734.430116
2042.421856,6281.983084,-1036.288319,1776.494261
2042.422173,-995.924147,-5773.606348,814.226536
2042.422491,-5975.544884,-11769.274478,10436.903782
2042.422808,-11721.261119,-14211.954086,21614.013506
2042.423125,-11491.432470,-21539.992912,36048.029375
2042.423443,-14249.376263,-11843.295072,25092.981434
2042.423760,-12027.699319,-9474.636058,23538.548956
2042.424078,-11261.603821,-1702.473667,24796.899057
2042.424395,-7354.516781,8290.306550,19319.375086
2042.424713,5056.230287,7105.977043,12657.521608
2042.425030,12947.013916,12953.603985,8142.265362
2042.425348,16241.224558,17912.983796,-5329.482782
2042.425665,19612.044749,18579.169144,-8956.491898
2042.425982,16930.710506,14211.954086,-16654.633695
2042.426300,11491.432470,592.164754,-2368.659014
2042.426617,5286.058936,-6365.771101,4737.318029
2042.426935,-3753.867940,-7550.100608,3775.050304
2042.427252,-6894.859482,-13101.645173,13397.727550
2042.427570,-8044.002729,-19541.436869,30644.525999
2042.427887,-10878.556072,-18875.251521,32865.143825
2042.428204,-12027.699319,-10732.986159,23982.672521
2042.428522,-12870.404366,-2738.761985,19467.416275
2042.428839,-11874.480219,-148.041188,19763.498651
2042.429157,-1149.143247,11103.089130,16210.510130
2042.429474,9422.974625,13471.748144,9622.677246
2042.429792,15245.300410,18727.210333,1036.288319
2042.430109,17926.634653,19763.498651,-7476.080014
2042.430427,19612.044749,17987.004391,-16654.633695
2042.430744,15245.300410,5847.626942,-12953.603985
2042.431061,8044.002729,-5255.462188,4663.297435
2042.431379,-229.828649,-5551.544565,-1776.494261
2042.431696,-3524.039291,-9696.697840,2812.782580
2042.432014,-8963.317327,-19615.457463,22132.157666
2042.432331,-11031.775171,-21317.931130,35455.864622
2042.432649,-13406.671215,-16876.695478,27091.537477
2042.432966,-15858.176809,-10140.821405,18949.272115
2042.433283,-16471.053207,-9474.636058,25981.228564
2042.433601,-12563.966167,7476.080014,19837.519246
2042.433918,3294.210641,11103.089130,13471.748144
2042.434236,11491.432470,14137.933492,3775.050304
2042.434553,15781.567259,19541.436869,-4145.153275
2042.434871,20914.407095,19023.292709,-7550.100608
2042.435188,21833.721693,17468.860231,-20725.766376
2042.435506,14938.862211,740.205942,-8808.450710
2042.435823,6665.030833,-9474.636058,4885.359217
2042.436140,-2298.286494,-10584.944971,-962.267725
2042.436458,-4673.182538,-11251.130318,5551.544565
2042.436775,-8120.612279,-21762.054695,31088.649564
2042.437093,-9806.022374,-23020.404796,32421.020260
2042.437410,-13100.233016,-12065.356855,24056.693115
2042.437728,-16394.443657,-6069.688724,17987.004391
2042.438045,-15015.471761,-1702.473667,23834.631332
2042.438362,-6894.859482,8216.285956,19615.457463
2042.438680,7967.393179,14730.098246,9474.636058
2042.438997,11644.651570,18949.272115,-2220.617826
2042.439315,17850.025103,22354.219448,-3997.112087
2042.439632,21450.673944,19097.313304,-13101.645173
2042.439950,20378.140247,12953.603985,-19319.375086
2042.440267,12257.527968,-5921.647536,3849.070898
2042.440585,1532.190996,-9474.636058,1924.535449
2042.440902,-3983.696590,-10066.800811,-222.061783
2042.441219,-4673.182538,-16062.468941,20577.725188
2042.441537,-9422.974625,-24278.754898,36640.194129
2042.441854,-11951.089769,-18135.045579,25907.207970
2042.442172,-12257.527968,-7031.956449,16802.674883
2042.442489,-15551.738609,-2590.720797,22280.198854
2042.442807,-13253.452115,4737.318029,21762.054695
2042.443124,-1532.190996,13249.686362,14063.912898
2042.443441,10112.460574,13619.789333,7254.018232
2042.443759,11031.775171,18653.189738,0.000000
2042.444076,16547.662757,17320.819043,-5625.565159
2042.444394,19612.044749,17098.757260,-19319.375086
2042.444711,17543.586904,1998.556043,-3478.967927
2042.445029,6818.249932,-8290.306550,9252.574275
2042.445346,-1685.410096,-10881.027347,-814.226536
2042.445664,-5286.058936,-11103.089130,4737.318029
2042.445981,-9652.803275,-17542.880825,26573.393318
2042.446298,-9039.926876,-24648.857869,39156.894332
2042.446616,-13636.499864,-10584.944971,22058.137072
2042.446933,-14325.985813,-4441.235652,17616.901420
2042.447251,-15934.786358,666.185348,23316.487173
2042.447568,-11951.089769,10658.965565,20355.663405
2042.447886,5669.106685,16802.674883,11843.295072
2042.448203,11491.432470,17912.983796,2516.700203
2042.448520,13483.280765,23760.610738,-4515.256246
2042.448838,20531.359346,18875.251521,-8216.285956
2042.449155,20684.578446,19615.457463,-22132.157666
2042.449473,16930.710506,-3849.070898,8956.491898
2042.449790,6205.373534,-9548.656652,5625.565159
2042.450108,-6281.983084,-7105.977043,-6439.791695
2042.450425,-3983.696590,-14211.954086,15322.262999
2042.450743,-10035.851024,-21095.869347,36122.049970
2042.451060,-9499.584175,-19023.292709,34049.473332
2042.451377,-12410.747068,-5181.441594,18875.251521
2042.451695,-16088.005458,370.102971,17468.860231
2042.452012,-15934.786358,5773.606348,22724.322419
2042.452330,-4136.915689,14211.954086,18061.024985
2042.452647,9116.536426,12583.501014,6217.729913
2042.452965,9499.584175,19319.375086,-1776.494261
2042.453282,15168.690860,18801.230927,-888.247130
2042.453599,19612.044749,19689.478057,-14804.118840
2042.453917,19458.825649,4885.359217,-7994.224174
2042.454234,12027.699319,-9474.636058,8290.306550
2042.454552,612.876398,-7328.038826,666.185348
2042.454869,-1608.800546,-7994.224174,2886.803174
2042.455187,-6358.592633,-15692.365970,19245.354492
2042.455504,-7660.954980,-23908.651927,37306.379477
2042.455821,-10572.117872,-12065.356855,27091.537477
2042.456139,-9882.631924,-1776.494261,14137.933492
2042.456456,-14555.814462,2368.659014,13693.809927
2042.456774,-12793.794817,7550.100608,18505.148550
2042.457091,383.047749,10584.944971,13989.892304
2042.457409,6971.469032,12213.398043,4885.359217
2042.457726,14096.157163,17987.004391,-1110.308913
2042.458044,15858.176809,12065.356855,-3478.967927
2042.458361,16930.710506,12435.459826,-18949.272115
2042.458678,17390.367805,-2072.576638,3330.926739
2042.458996,6358.592633,-7328.038826,4589.276840
2042.459313,-306.438199,-8216.285956,-2368.659014
2042.459631,-2757.943793,-7624.121203,5921.647536
2042.459948,-9269.755526,-16432.571912,26055.249158
2042.460266,-9193.145976,-21465.972318,33827.411549
2042.460583,-12717.185267,-10955.047942,21910.095883
2042.460900,-14938.862211,-5921.647536,16950.716072
2042.461218,-15551.738609,-2072.576638,23686.590144
2042.461535,-10495.508323,10362.883188,20281.642811
2042.461853,6128.763984,16136.489536,7920.203579
2042.462170,12180.918418,15026.180623,2368.659014
2042.462488,11261.603821,16876.695478,-2368.659014
2042.462805,19075.777900,11843.295072,-7476.080014
2042.463123,17237.148705,10955.047942,-18727.210333
2042.463440,14402.595362,-6513.812290,5329.482782
2042.463757,3217.601092,-8216.285956,2738.761985
2042.464075,-2298.286494,-9474.636058,-74.020594
2042.464392,-4596.572988,-13545.768739,11843.295072
2042.464710,-7890.783629,-19319.375086,35899.988187
2042.465027,-9193.145976,-18283.086767,30496.484810
2042.465345,-11874.480219,-6291.750507,16802.674883
2042.465662,-14632.424012,-2072.576638,18653.189738
2042.465979,-14862.252661,2442.679609,20725.766376
2042.466297,-1532.190996,12805.562797,13767.830521
2042.466614,9576.193725,13323.706956,2886.803174
2042.466932,14019.547613,18801.230927,-1850.514855
2042.467249,16547.662757,16284.530724,-1110.308913
2042.467567,18233.072852,15914.427753,-15026.180623
2042.467884,17696.806004,1110.308913,-4959.379811
2042.468202,10495.508323,-9030.512492,10066.800811
2042.468519,1991.848295,-7328.038826,-518.144159
2042.468836,-2221.676944,-5847.626942,1628.453072
2042.469154,-5592.497135,-13619.789333,19097.313304
2042.469471,-7354.516781,-17912.983796,35751.946999
2042.469789,-7660.954980,-10510.924376,25537.104999
2042.470106,-12334.137518,-3775.050304,12509.480420
2042.470424,-14172.766713,-2812.782580,18579.169144
2042.470741,-10878.556072,7328.038826,19097.313304
2042.471058,4596.572988,12953.603985,10732.986159
2042.471376,11108.384721,14211.954086,1628.453072
2042.471693,14096.157163,19393.395680,-6365.771101
2042.472011,17926.634653,13989.892304,-2368.659014
2042.472328,17773.415554,14730.098246,-18209.066173
2042.472646,14249.376263,-2738.761985,518.144159
2042.472963,4826.401637,-9400.615463,3775.050304
2042.473281,-2681.334243,-7550.100608,1702.473667
2042.473598,-4673.182538,-8808.450710,12953.603985
2042.473915,-10035.851024,-17987.004391,29460.196492
2042.474233,-10878.556072,-19615.457463,34123.493926
2042.474550,-14785.643111,-6069.688724,19467.416275
2042.474868,-17083.929605,740.205942,15396.283594
2042.475185,-14479.204912,814.226536,24574.837274
2042.475503,-9346.365076,13989.892304,16210.510130
2042.475820,5745.716235,17468.860231,7476.080014
2042.476137,9806.022374,18357.107362,666.185348
2042.476455,14555.814462,14804.118840,-2368.659014
2042.476772,18233.072852,14582.057057,-8290.306550
2042.477090,15551.738609,11029.068536,-11843.295072
2042.477407,10035.851024,-5033.400406,6365.771101
2042.477725,1991.848295,-5033.400406,1184.329507
2042.478042,-2451.505594,-8512.368333,3330.926739
2042.478360,-7660.954980,-13545.768739,16284.530724
2042.478677,-11261.603821,-20873.807564,33457.308578
2042.478994,-12104.308868,-16358.551318,30052.361245
2042.479312,-16394.443657,-3552.988522,15988.448347
2042.479629,-15704.957709,-518.144159,19689.478057
2042.479947,-14325.985813,4219.173869,22354.219448
2042.480264,-3140.991542,17320.819043,13915.871710
2042.480582,7737.564530,16580.613101,1924.535449
2042.480899,13253.452115,16136.489536,666.185348
2042.481216,15781.567259,15322.262999,-2146.597232
2042.481534,19458.825649,11991.336260,-8142.265362
2042.481851,15551.738609,2146.597232,-5699.585753
2042.482169,9652.803275,-8512.368333,4959.379811
2042.482486,2834.553343,-8734.430116,1924.535449
2042.482804,-1302.362347,-9770.718434,8142.265362
2042.483121,-5975.544884,-14359.995275,17320.819043
2042.483439,-9882.631924,-18135.045579,35974.008781
2042.483756,-10112.460574,-13027.624579,29682.258274
2042.484073,-14479.204912,-222.061783,9622.677246
2042.484391,-10955.165621,2146.597232,17024.736666
2042.484708,-6971.469032,4737.318029,19837.519246
2042.485026,3140.991542,15544.324782,10807.006753
2042.485343,13406.671215,15174.221811,296.082377
2042.485661,18616.120601,14656.077652,-3997.112087
2042.485978,19228.997000,8290.306550,888.247130
2042.486295,18692.730151,6587.832884,-14211.954086
2042.486613,15015.471761,-4589.276840,-740.205942
2042.486930,8503.660028,-8512.368333,3404.947333
2042.487248,995.924147,-9474.636058,3627.009116
2042.487565,-2604.724693,-7698.141797,9326.594869
2042.487883,-7737.564530,-14063.912898,28423.908173
2042.488200,-6894.859482,-16950.716072,35529.885216
2042.488518,-12180.918418,-5995.668130,14211.954086
2042.488835,-12793.794817,-0.000000,12509.480420
2042.489152,-9806.022374,2442.679609,25167.002028
2042.489470,-5362.668486,12139.377449,11843.295072
2042.489787,8963.317327,11991.336260,5625.565159
2042.490105,13330.061665,15470.304188,1924.535449
2042.490422,14709.033562,9622.677246,-2146.597232
2042.490740,18233.072852,7328.038826,-8068.244768
2042.491057,14709.033562,1110.308913,-10955.047942
2042.491374,9269.755526,-7846.182985,2146.597232
2042.491692,1915.238745,-7254.018232,-1924.535449
2042.492009,-1915.238745,-9622.677246,4293.194464
2042.492327,-7584.345430,-13841.851115,15618.345376
2042.492644,-8733.488677,-16506.592507,36196.070564
2042.492962,-12257.527968,-13101.645173,25241.022622
2042.493279,-17466.977354,-4885.359217,14434.015869
2042.493597,-15015.471761,-1554.432478,16876.695478
2042.493914,-12947.013916,6365.771101,20799.786970
2042.494231,-1608.800546,16506.592507,11991.336260
2042.494549,7737.564530,16136.489536,666.185348
2042.494866,13559.890315,15396.283594,-3997.112087
2042.495184,15092.081311,9548.656652,1258.350101
2042.495501,15934.786358,10807.006753,-10362.883188
2042.495819,12104.308868,-3404.947333,-1850.514855
2042.496136,5286.058936,-9474.636058,4219.173869
2042.496453,-1532.190996,-8734.430116,3330.926739
2042.496771,-6358.592633,-9622.677246,9474.636058
2042.497088,-7890.783629,-16432.571912,26351.331535
2042.497406,-10801.946522,-19023.292709,33013.185013
2042.497723,-16164.615008,-5551.544565,18727.210333
2042.498041,-15781.567259,2442.679609,15692.365970
2042.498358,-13789.718964,7402.059420,18875.251521
2042.498676,-7660.954980,14804.118840,13693.809927
2042.498993,6588.421283,16284.530724,8956.491898
2042.499310,11108.384721,17320.819043,-666.185348
2042.499628,14862.252661,11991.336260,-3478.967927
2042.499945,20761.187996,8364.327145,518.144159
2042.500263,15628.348159,6143.709319,-11177.109724
2042.500580,13866.328514,-7550.100608,6143.709319
2042.500898,4366.744339,-7179.997637,2368.659014
2042.501215,-2221.676944,-7550.100608,2442.679609
2042.501532,-6894.859482,-9326.594869,14878.139434
2042.501850,-8503.660028,-13767.830521,32569.061448
2042.502167,-8350.440928,-11695.253884,32421.020260
2042.502485,-15934.786358,888.247130,13989.892304
2042.502802,-13023.623466,1702.473667,17468.860231
2042.503120,-12640.575717,4219.173869,23390.507767
2042.503437,-2911.162892,12509.480420,13841.851115
2042.503755,11414.822920,12509.480420,3775.050304
2042.504072,14709.033562,16062.468941,-518.144159
2042.504389,18156.463303,10584.944971,0.000000
2042.504707,20837.797546,11103.089130,-7994.224174
2042.505024,17466.977354,370.102971,-5699.585753
2042.505342,11414.822920,-8216.285956,4885.359217
2042.505659,1838.629195,-4959.379811,-2072.576638
2042.505977,-383.047749,-7846.182985,7846.182985
2042.506294,-9346.365076,-11103.089130,17468.860231
2042.506611,-9576.193725,-16284.530724,38490.708984
2042.506929,-10189.070123,-9844.739029,28423.908173
2042.507246,-15321.909960,1406.391290,8660.409521
2042.507564,-12870.404366,-1776.494261,21169.889941
2042.507881,-10801.946522,4811.338623,23168.445985
2042.508199,995.924147,14359.995275,11325.150913
2042.508516,9346.365076,12731.542202,1480.411884
2042.508834,14862.252661,12657.521608,370.102971
2042.509151,16700.881856,4219.173869,1406.391290
2042.509468,18616.120601,7920.203579,-13767.830521
2042.509786,15934.786358,-4959.379811,0.000000
2042.510103,9806.022374,-10510.924376,2886.803174
2042.510421,2987.772442,-8290.306550,444.123565
2042.510738,-306.438199,-7624.121203,6661.853478
2042.511056,-6894.859482,-11917.315666,21984.116477
2042.511373,-6971.469032,-16802.674883,33753.390955
2042.511690,-13253.452115,-8290.306550,16580.613101
2042.512008,-15781.567259,-2220.617826,12657.521608
2042.512325,-15015.471761,-2886.803174,20799.786970
2042.512643,-9882.631924,8142.265362,14285.974681
2042.512960,5132.839837,9918.759623,7105.977043
2042.513278,9882.631924,12361.439231,3108.864956
2042.513595,12257.527968,9696.697840,-5847.626942
2042.513912,14709.033562,4737.318029,-4737.318029
2042.514230,14632.424012,592.164754,-4515.256246
2042.514547,10648.727422,-7254.018232,2146.597232
2042.514865,4826.401637,-6957.935855,-2368.659014
2042.515182,0.000000,-7328.038826,3182.885551
2042.515500,-5515.887586,-8808.450710,12731.542202
2042.515817,-9193.145976,-13471.748144,28868.031738
2042.516135,-7737.564530,-13471.748144,28423.908173
2042.516452,-18233.072852,-3034.844362,11991.336260
2042.516769,-15092.081311,-1628.453072,17246.798449
2042.517087,-12027.699319,5107.421000,18949.272115
2042.517404,-2757.943793,16210.510130,7772.162391
2042.517722,10189.070123,15026.180623,3256.906145
2042.518039,11721.261119,14656.077652,-814.226536
2042.518357,16317.834107,6957.935855,74.020594
2042.518674,18462.901502,7994.224174,-13767.830521
2042.518991,14709.033562,-2812.782580,-1702.473667
2042.519309,7048.078582,-10510.924376,6439.791695
2042.519626,2068.457845,-9992.780217,5625.565159
2042.519944,-2298.286494,-8364.327145,4441.235652
2042.520261,-8044.002729,-10658.965565,21391.951724
2042.520579,-7584.345430,-17838.963202,35529.885216
2042.520896,-12104.308868,-7698.141797,18135.045579
2042.521214,-15321.909960,-2368.659014,16136.489536
2042.521531,-14479.204912,592.164754,21317.931130
2042.521848,-11338.213370,12065.356855,11843.295072
2042.522166,5975.544884,16506.592507,8512.368333
2042.522483,14096.157163,19541.436869,4737.318029
2042.522801,14555.814462,16358.551318,-3330.926739
2042.523118,21067.626195,9474.636058,-888.247130
2042.523436,18539.511052,9548.656652,-10807.006753
2042.523753,14019.547613,-3849.070898,3775.050304
2042.524071,5362.668486,-7846.182985,4293.194464
2042.524388,-842.705048,-8956.491898,8512.368333
2042.524706,-5975.544884,-7402.059420,9770.718434
2042.525023,-7584.345430,-10214.842000,29682.258274
2042.525340,-9499.584175,-9992.780217,31606.793723
2042.525658,-14785.643111,-518.144159,16284.530724
2042.525975,-14172.766713,2220.617826,18505.148550
2042.526293,-14555.814462,5773.606348,19985.560434
2042.526610,-10342.289223,14804.118840,11177.109724
2042.526928,5669.106685,12805.562797,8882.471304
2042.527245,11184.994271,15840.407159,2442.679609
2042.527563,15168.690860,10436.903782,-2664.741391
2042.527880,18156.463303,10955.047942,-2442.679609
2042.528198,15321.909960,2738.761985,-3256.906145
2042.528515,11644.651570,-9548.656652,5551.544565
2042.528832,4749.792088,-9030.512492,6365.771101
2042.529150,-3294.210641,-10214.842000,5921.647536
2042.529467,-7814.174080,-10362.883188,15322.262999
2042.529785,-5975.544884,-14656.077652,33531.329173
2042.530102,-8273.831378,-12805.562797,29830.299463
2042.530420,-17773.415554,-4367.215058,12583.501014
2042.530737,-14938.862211,-296.082377,19023.292709
2042.531055,-13636.499864,7328.038826,18061.024985
2042.531372,-2451.505594,13693.809927,9326.594869
2042.531690,10035.851024,16580.613101,4811.338623
2042.532007,12027.699319,13619.789333,-1998.556043
2042.532324,17850.025103,7698.141797,-814.226536
2042.532642,18386.291952,5847.626942,-11843.295072
2042.532959,15781.567259,-6291.750507,-888.247130
2042.533277,7737.564530,-12805.562797,4811.338623
2042.533594,2451.505594,-12065.356855,6587.832884
2042.533912,-1915.238745,-10584.944971,4811.338623
2042.534229,-6588.421283,-9104.533087,21317.931130
2042.534547,-7277.907231,-15692.365970,30940.608376
2042.534864,-12717.185267,-5403.503377,13545.768739
2042.535182,-15551.738609,-370.102971,10362.883188
2042.535499,-14249.376263,-0.000000,22058.137072
2042.535816,-11721.261119,13397.727550,10584.944971
2042.536134,3140.991542,14063.912898,4367.215058
2042.536451,12487.356617,13767.830521,4515.256246
2042.536769,11797.870669,9918.759623,-1628.453072
2042.537086,15934.786358,5403.503377,-3108.864956
2042.537404,16317.834107,-592.164754,-2960.823768
2042.537721,11568.042020,-12287.418637,4737.318029
2042.538039,5209.449386,-12139.377449,3034.844362
2042.538356,-1302.362347,-13249.686362,3330.926739
2042.538674,-5362.668486,-10510.924376,10510.924376
2042.538991,-5056.230287,-14063.912898,29386.175897
2042.539308,-7201.297681,-11251.130318,26351.331535
2042.539626,-12334.137518,-2220.617826,9548.656652
2042.539943,-13100.233016,2368.659014,12139.377449
2042.540261,-12563.966167,6957.935855,15988.448347
2042.540578,-3217.601092,14211.954086,6809.894666
2042.540896,8733.488677,11103.089130,5107.421000
2042.541213,13253.452115,12953.603985,-370.102971
2042.541531,14709.033562,8808.450710,-4293.194464
2042.541848,17926.634653,6661.853478,-7179.997637
2042.542166,14325.985813,-5181.441594,2516.700203
2042.542483,6281.983084,-13027.624579,7402.059420
2042.542801,2604.724693,-12731.542202,6217.729913
2042.543118,-4519.963438,-7550.100608,6365.771101
2042.543435,-6894.859482,-7772.162391,22280.198854
2042.543753,-7507.735880,-8734.430116,29608.237680
2042.544070,-7660.954980,-2294.638420,21688.034101
2042.544388,-13406.671215,6291.750507,12435.459826
2042.544705,-11261.603821,6587.832884,18579.169144
2042.545023,-10418.898773,13619.789333,10732.986159
2042.545340,2987.772442,15988.448347,5921.647536
2042.545658,11031.775171,12657.521608,4367.215058
2042.545975,12717.185267,10807.006753,1998.556043
2042.546293,15781.567259,2960.823768,1036.288319
2042.546610,14555.814462,3552.988522,-7179.997637
2042.546927,11414.822920,-9918.759623,9178.553681
2042.547245,3217.601092,-11917.315666,7698.141797
2042.547562,-536.266849,-13323.706956,7772.162391
2042.547880,-6588.421283,-7550.100608,9326.594869
2042.548197,-8580.269578,-8882.471304,26499.372724
2042.548515,-8963.317327,-7550.100608,29238.134709
2042.548832,-12487.356617,-1184.329507,17542.880825
2042.549150,-13866.328514,1702.473667,18135.045579
2042.549467,-13636.499864,6217.729913,16950.716072
2042.549785,-8886.707777,10362.883188,13915.871710
2042.550102,5132.839837,11917.315666,9178.553681
2042.550419,12104.308868,14508.036463,2886.803174
2042.550737,15934.786358,8290.306550,814.226536
2042.551054,17160.539155,7772.162391,-1924.535449
2042.551372,15168.690860,-222.061783,-1998.556043
2042.551689,10495.508323,-8142.265362,592.164754
2042.552007,5056.230287,-9252.574275,4885.359217
2042.552324,-536.266849,-8586.388927,9178.553681
2042.552642,-5286.058936,-6735.874072,13841.851115
2042.552959,-8810.098227,-4219.173869,24278.754898
2042.553277,-7124.688131,-5773.606348,29534.217086
2042.553594,-13406.671215,3701.029710,12953.603985
2042.553911,-11184.994271,3404.947333,16210.510130
2042.554229,-9422.974625,5847.626942,15840.407159
2042.554546,-4903.011187,12509.480420,7105.977043
2042.554864,8580.269578,10140.821405,5847.626942
2042.555181,14862.252661,10584.944971,1628.453072
2042.555499,16164.615008,3997.112087,740.205942
2042.555816,17390.367805,3108.864956,-3775.050304
2042.556134,13559.890315,-5847.626942,1702.473667
2042.556451,7660.954980,-9770.718434,-148.041188
2042.556769,3524.039291,-11251.130318,6143.709319
2042.557086,-1302.362347,-9400.615463,8364.327145
2042.557403,-6588.421283,-7328.038826,14359.995275
2042.557721,-6818.249932,-9030.512492,25685.146187
2042.558038,-8120.612279,-4071.132681,19615.457463
2042.558356,-14096.157163,518.144159,10066.800811
2042.558673,-11721.261119,-3034.844362,19467.416275
2042.558991,-9959.241474,5921.647536,11621.233289
2042.559308,1149.143247,11399.171507,6513.812290
2042.559626,11568.042020,14063.912898,3404.947333
2042.559943,15934.786358,10140.821405,444.123565
2042.560261,14938.862211,4071.132681,-1110.308913
2042.560578,14709.033562,-2664.741391,-1850.514855
2042.560895,9269.755526,-10362.883188,-148.041188
2042.561213,3217.601092,-9548.656652,1110.308913
2042.561530,306.438199,-8956.491898,10510.924376
2042.561848,-6741.640382,-5329.482782,10584.944971
2042.562165,-8044.002729,-5773.606348,23834.631332
2042.562483,-7814.174080,-5625.565159,28053.805202
2042.562800,-16011.395908,1110.308913,9252.574275
2042.563118,-13100.233016,-2516.700203,19541.436869
2042.563435,-13559.890315,1406.391290,19097.313304
2042.563753,-8044.002729,10140.821405,6809.894666
2042.564070,4366.744339,10658.965565,7179.997637
2042.564387,12487.356617,10288.862594,4145.153275
2042.564705,15245.300410,3923.091493,1406.391290
2042.565022,16547.662757,5403.503377,-1480.411884
2042.565340,16547.662757,-4293.194464,3034.844362
2042.565657,8044.002729,-8512.368333,-518.144159
2042.565975,2757.943793,-9992.780217,4663.297435
2042.566292,-3294.210641,-8364.327145,10066.800811
2042.566610,-5439.278036,-8882.471304,18579.169144
2042.566927,-8427.050478,-5477.523971,24056.693115
2042.567245,-8656.879127,-3701.029710,23242.466579
2042.567562,-15628.348159,2146.597232,11547.212695
2042.567879,-12640.575717,814.226536,19023.292709
2042.568197,-11261.603821,5773.606348,14582.057057
2042.568514,-2834.553343,12213.398043,10584.944971
2042.568832,9652.803275,10732.986159,8290.306550
2042.569149,15475.129060,10066.800811,222.061783
2042.569467,17850.025103,7402.059420,1480.411884
2042.569784,16854.100956,2294.638420,-1776.494261
2042.570102,15092.081311,-6661.853478,5921.647536
2042.570419,6511.811733,-7920.203579,740.205942
2042.570737,383.047749,-4811.338623,7624.121203
2042.571054,-4366.744339,-5107.421000,12805.562797
2042.571371,-5132.839837,-4589.276840,22428.240043
2042.571689,-5745.716235,-2960.823768,24796.899057
2042.572006,-10265.679673,1850.514855,19023.292709
2042.572324,-11951.089769,4145.153275,14137.933492
2042.572641,-7814.174080,8290.306550,15914.427753
2042.572959,-4673.182538,8068.244768,10362.883188
2042.573276,4596.572988,7698.141797,8882.471304
2042.573594,13100.233016,9992.780217,9474.636058
2042.573911,17926.634653,4145.153275,888.247130
2042.574229,17773.415554,4145.153275,-3404.947333
2042.574546,15628.348159,-5773.606348,3182.885551
2042.574863,9193.145976,-9252.574275,3330.926739
2042.575181,2451.505594,-7994.224174,814.226536
2042.575498,-842.705048,-7179.997637,10066.800811
2042.575816,-8427.050478,-5403.503377,13619.789333
2042.576133,-6741.640382,-4885.359217,24130.713709
2042.576451,-6511.811733,-7624.121203,25315.043216
2042.576768,-17773.415554,-592.164754,7920.203579
2042.577086,-13942.938064,-1554.432478,20355.663405
2042.577403,-13866.328514,6809.894666,14508.036463
2042.577721,-4366.744339,11473.192101,6365.771101
2042.578038,7507.735880,15322.262999,5551.544565
2042.578355,12334.137518,11769.274478,4145.153275
2042.578673,14096.157163,5921.647536,0.000000
2042.578990,15321.909960,4441.235652,-3701.029710
2042.579308,12180.918418,-6291.750507,1998.556043
2042.579625,4826.401637,-9474.636058,-2368.659014
2042.579943,842.705048,-9622.677246,5181.441594
2042.580260,-7584.345430,-7920.203579,8290.306550
2042.580578,-7277.907231,-9104.533087,22724.322419
2042.580895,-8120.612279,-9252.574275,25092.981434
2042.581213,-12947.013916,888.247130,13101.645173
2042.581530,-15092.081311,666.185348,14730.098246
2042.581847,-13559.890315,3256.906145,16654.633695
2042.582165,-9269.755526,12361.439231,5329.482782
2042.582482,2298.286494,10510.924376,5477.523971
2042.582800,10189.070123,10288.862594,5255.462188
2042.583117,14709.033562,3997.112087,444.123565
2042.583435,18156.463303,5551.544565,-3108.864956
2042.583752,18616.120601,-4663.297435,5255.462188
2042.584070,11108.384721,-9918.759623,1406.391290
2042.584387,5669.106685,-11695.253884,-518.144159
2042.584705,-459.657299,-8808.450710,6365.771101
2042.585022,-6741.640382,-7920.203579,14063.912898
2042.585339,-8886.707777,-4293.194464,21836.075289
2042.585657,-6358.592633,-4441.235652,26573.393318
2042.585974,-15628.348159,4737.318029,9992.780217
2042.586292,-13176.842566,3701.029710,15544.324782
2042.586609,-12180.918418,5033.400406,15248.242405
2042.586927,-5362.668486,12805.562797,8734.430116
2042.587244,6818.249932,9252.574275,7031.956449
2042.587562,12947.013916,11621.233289,5033.400406
2042.587879,15321.909960,3849.070898,2294.638420
2042.588197,14785.643111,3330.926739,-1776.494261
2042.588514,14096.157163,-5847.626942,8216.285956
2042.588831,5822.325785,-6439.791695,2220.617826
2042.589149,2987.772442,-7179.997637,5107.421000
2042.589466,-2451.505594,-4737.318029,8290.306550
2042.589784,-4749.792088,-4515.256246,21095.869347
2042.590101,-6971.469032,-1110.308913,23316.487173
2042.590419,-7660.954980,-518.144159,21317.931130
2042.590736,-10418.898773,4663.297435,16210.510130
2042.591054,-8580.269578,7698.141797,15544.324782
2042.591371,-5286.058936,5699.585753,8586.388927
2042.591689,2834.553343,9326.594869,7698.141797
2042.592006,12640.575717,10362.883188,9252.574275
2042.592324,17160.539155,4367.215058,4367.215058
2042.592641,17543.586904,370.102971,-370.102971
2042.592958,14249.376263,-1998.556043,-1776.494261
2042.593276,10265.679673,-8512.368333,5995.668130
2042.593593,4060.306139,-9622.677246,4515.256246
2042.593911,1762.019645,-9622.677246,10436.903782
2042.594228,-4290.134789,-4515.256246,14063.912898
2042.594546,-6894.859482,-3552.988522,20651.745782
2042.594863,-5669.106685,-4219.173869,25463.084405
2042.595181,-10725.336972,1480.411884,14285.974681
2042.595498,-10418.898773,518.144159,17246.798449
2042.595816,-8427.050478,6217.729913,17172.777854
2042.596133,-4213.525239,11251.130318,6513.812290
2042.596450,8197.221829,11473.192101,5329.482782
2042.596768,15475.129060,11917.315666,2664.741391
2042.597085,14785.643111,4367.215058,-1480.411884
2042.597403,15628.348159,814.226536,-2738.761985
2042.597720,12180.918418,-6735.874072,4589.276840
2042.598038,4673.182538,-9696.697840,2368.659014
2042.598355,2451.505594,-9474.636058,0.000000
2042.598673,-1991.848295,-5551.544565,7550.100608
2042.598990,-8886.707777,-5033.400406,17542.880825
2042.599308,-9193.145976,-6883.915261,23760.610738
2042.599625,-10725.336972,-1554.432478,14952.160028
2042.599942,-16394.443657,2812.782580,11991.336260
2042.600260,-12870.404366,-2146.597232,22058.137072
2042.600577,-11721.261119,7476.080014,9474.636058
2042.600895,0.000000,13175.665768,1110.308913
2042.601212,7814.174080,11917.315666,4293.194464
2042.601530,12410.747068,6661.853478,2886.803174
2042.601847,15015.471761,2738.761985,-2368.659014
2042.602165,14325.985813,-296.082377,-888.247130
2042.602482,9882.631924,-9918.759623,3034.844362
2042.602800,4060.306139,-9992.780217,-1998.556043
2042.603117,1991.848295,-10362.883188,8660.409521
2042.603434,-6205.373534,-7476.080014,9474.636058
2042.603752,-7814.174080,-8142.265362,20503.704593
2042.604069,-6894.859482,-3923.091493,23390.507767
2042.604387,-14249.376263,2368.659014,9622.677246
2042.604704,-12717.185267,3849.070898,16802.674883
2042.605022,-11108.384721,6661.853478,17394.839637
2042.605339,-5056.230287,14063.912898,6587.832884
2042.605657,6052.154434,10732.986159,4885.359217
2042.605974,12027.699319,10140.821405,6217.729913
2042.606292,15704.957709,3256.906145,1480.411884
2042.606609,16241.224558,4663.297435,-4145.153275
2042.606926,15321.909960,-6143.709319,7254.018232
2042.607244,5898.935335,-6291.750507,3108.864956
2042.607561,3830.477490,-7476.080014,5329.482782
2042.607879,-2834.553343,-4737.318029,9622.677246
2042.608196,-8044.002729,-3849.070898,21243.910535
2042.608514,-9346.365076,-4145.153275,24574.837274
2042.608831,-10342.289223,592.164754,21836.075289
2042.609149,-13866.328514,3997.112087,16432.571912
2042.609466,-10418.898773,3849.070898,20873.807564
2042.609784,-8044.002729,4959.379811,10881.027347
2042.610101,2068.457845,11547.212695,6513.812290
2042.610418,10418.898773,9548.656652,8068.244768
2042.610736,16394.443657,7402.059420,3997.112087
2042.611053,18309.682402,3701.029710,444.123565
2042.611371,15858.176809,-666.185348,518.144159
2042.611688,8810.098227,-6661.853478,5181.441594
2042.612006,4903.011187,-7846.182985,3478.967927
2042.612323,229.828649,-7624.121203,8438.347739
2042.612641,-3600.648841,-6069.688724,16580.613101
2042.612958,-8197.221829,-1702.473667,19319.375086
2042.613276,-6128.763984,1036.288319,22132.157666
2042.613593,-10265.679673,3256.906145,17024.736666
2042.613910,-11874.480219,4145.153275,15840.407159
2042.614228,-6894.859482,6661.853478,16580.613101
2042.614545,-5669.106685,12213.398043,7105.977043
2042.614863,4366.744339,10362.883188,8808.450710
2042.615180,12180.918418,9992.780217,6957.935855
2042.615498,16777.491406,3404.947333,2220.617826
2042.615815,16011.395908,1554.432478,-1036.288319
2042.616133,12257.527968,-5033.400406,6069.688724
2042.616450,7507.735880,-9030.512492,4293.194464
2042.616768,2681.334243,-5773.606348,-1258.350101
2042.617085,1455.581446,-6957.935855,12287.418637
2042.617402,-4443.353888,-3404.947333,16654.633695
2042.617720,-6435.202183,-2812.782580,17024.736666
2042.618037,-7584.345430,-296.082377,17690.922014
2042.618355,-13866.328514,3404.947333,10807.006753
2042.618672,-10955.165621,1998.556043,18727.210333
2042.618990,-10035.851024,3330.926739,10140.821405
2042.619307,-1532.190996,7624.121203,7402.059420
2042.619625,5822.325785,7105.977043,7994.224174
2042.619942,13406.671215,4219.173869,3923.091493
2042.620260,14632.424012,-3478.967927,370.102971
2042.620577,13176.842566,-7328.038826,4367.215058
2042.620894,8656.879127,-10436.903782,3849.070898
2042.621212,4673.182538,-7920.203579,-2442.679609
2042.621529,3140.991542,-8290.306550,5477.523971
2042.621847,-5209.449386,-4367.215058,11843.295072
2042.622164,-7124.688131,-4515.256246,17764.942608
2042.622482,-7277.907231,-370.102971,20207.622217
2042.622799,-14096.157163,3182.885551,8586.388927
2042.623117,-11644.651570,-0.000000,17542.880825
2042.623434,-10418.898773,3478.967927,13249.686362
2042.623752,-5056.230287,7476.080014,7105.977043
2042.624069,5209.449386,9178.553681,2664.741391
2042.624387,13483.280765,7920.203579,5477.523971
2042.624704,15015.471761,-592.164754,740.205942
2042.625021,16317.834107,888.247130,-1110.308913
2042.625339,12793.794817,-4589.276840,4885.359217
2042.625656,5132.839837,-7105.977043,74.020594
2042.625974,2451.505594,-8068.244768,4663.297435
2042.626291,-2451.505594,-6661.853478,13767.830521
2042.626609,-7814.174080,-4071.132681,15914.427753
2042.626926,-8197.221829,-962.267725,20947.828159
2042.627244,-10495.508323,666.185348,12435.459826
2042.627561,-12410.747068,5403.503377,10288.862594
2042.627879,-7814.174080,3627.009116,17468.860231
2042.628196,-5515.887586,8734.430116,7920.203579
2042.628513,1762.019645,11917.315666,4367.215058
2042.628831,10035.851024,8586.388927,7031.956449
2042.629148,13483.280765,148.041188,5255.462188
2042.629466,15475.129060,-1258.350101,4811.338623
2042.629783,13330.061665,-4589.276840,7624.121203
2042.630101,6894.859482,-6291.750507,3256.906145
2042.630418,3370.820191,-3552.988522,1110.308913
2042.630736,1991.848295,-5625.565159,13323.706956
2042.631053,-5439.278036,-2442.679609,11769.274478
2042.631371,-8350.440928,-1850.514855,16950.716072
2042.631688,-9806.022374,2220.617826,19393.395680
2042.632005,-13789.718964,4737.318029,17098.757260
2042.632323,-9882.631924,4737.318029,18431.127956
2042.632640,-7967.393179,6365.771101,11917.315666
2042.632958,-3753.867940,11029.068536,9474.636058
2042.633275,3983.696590,12065.356855,8364.327145
2042.633593,12487.356617,6735.874072,7994.224174
2042.633910,15475.129060,518.144159,6513.812290
2042.634228,12870.404366,518.144159,2590.720797
2042.634545,11644.651570,-2812.782580,8290.306550
2042.634863,4519.963438,-1480.411884,370.102971
2042.635180,4213.525239,-6069.688724,4959.379811
2042.635498,-2374.896044,-6957.935855,13693.809927
2042.635815,-9039.926876,-2886.803174,17616.901420
2042.636132,-8733.488677,-518.144159,22576.281231
2042.636450,-11338.213370,1998.556043,16876.695478
2042.636767,-11338.213370,2146.597232,16210.510130
2042.637085,-7354.516781,5033.400406,17912.983796
2042.637402,-4903.011187,6291.750507,11917.315666
2042.637720,3294.210641,9104.533087,4959.379811
2042.638037,10955.165621,6809.894666,5921.647536
2042.638355,16394.443657,-1110.308913,6069.688724
2042.638672,16854.100956,-1702.473667,3478.967927
2042.638990,15934.786358,-4441.235652,9178.553681
2042.639307,8350.440928,-6217.729913,0.000000
2042.639624,4519.963438,-5329.482782,-1924.535449
2042.639942,2145.067394,-6143.709319,10140.821405
2042.640259,-6435.202183,-3849.070898,16062.468941
2042.640577,-7431.126331,-4219.173869,17468.860231
2042.640894,-8656.879127,222.061783,15840.407159
2042.641212,-13636.499864,2294.638420,12435.459826
2042.641529,-9346.365076,296.082377,22724.322419
2042.641847,-8273.831378,2294.638420,12361.439231
2042.642164,-1838.629195,8142.265362,4515.256246
2042.642482,6205.373534,9548.656652,5181.441594
2042.642799,11184.994271,3182.885551,5181.441594
2042.643116,13330.061665,-2812.782580,2886.803174
2042.643434,14172.766713,-3552.988522,4663.297435
2042.643751,9499.584175,-3701.029710,1110.308913
2042.644069,6052.154434,-3256.906145,-3923.091493
2042.644386,3064.381992,-5921.647536,888.247130
2042.644704,-3830.477490,-5551.544565,10140.821405
2042.645021,-6435.202183,-6735.874072,17838.963202
2042.645339,-7814.174080,-2368.659014,17394.839637
2042.645656,-12717.185267,740.205942,9104.533087
2042.645974,-9039.926876,962.267725,15914.427753
2042.646291,-6052.154434,2516.700203,13175.665768
2042.646609,-1302.362347,6291.750507,5847.626942
2042.646926,4366.744339,6809.894666,1628.453072
2042.647243,10878.556072,4441.235652,4737.318029
2042.647561,12334.137518,-3701.029710,2812.782580
2042.647878,11721.261119,-3034.844362,1924.535449
2042.648196,9806.022374,-7179.997637,8290.306550
2042.648513,2451.505594,-6069.688724,1036.288319
2042.648831,1685.410096,-6217.729913,3997.112087
2042.649148,-2451.505594,-6587.832884,12657.521608
2042.649466,-7201.297681,-5255.462188,17320.819043
2042.649783,-9116.536426,-1998.556043,19615.457463
2042.650101,-11491.432470,1406.391290,11621.233289
2042.650418,-10648.727422,3849.070898,15692.365970
2042.650735,-6818.249932,4441.235652,18949.272115
2042.651053,-1991.848295,8364.327145,7772.162391
2042.651370,3830.477490,12879.583391,-148.041188
2042.651688,10189.070123,9104.533087,4737.318029
2042.652005,11874.480219,-296.082377,5847.626942
2042.652323,12640.575717,-3108.864956,5181.441594
2042.652640,10955.165621,-6883.915261,11399.171507
2042.652958,2987.772442,-2072.576638,518.144159
2042.653275,1532.190996,-2812.782580,962.267725
2042.653593,306.438199,-5107.421000,13545.768739
2042.653910,-7890.783629,-4441.235652,18209.066173
2042.654228,-8503.660028,-3552.988522,21984.116477
2042.654545,-11108.384721,370.102971,16654.633695
2042.654862,-12257.527968,3775.050304,15618.345376
2042.655180,-7814.174080,2738.761985,23686.590144
2042.655497,-5669.106685,5773.606348,14952.160028
2042.655815,1608.800546,11473.192101,4885.359217
2042.656132,7967.393179,9770.718434,2738.761985
2042.656450,13713.109414,3997.112087,5477.523971
2042.656767,16547.662757,518.144159,4885.359217
2042.657085,13330.061665,-962.267725,3849.070898
2042.657402,8963.317327,-3478.967927,5477.523971
2042.657720,2451.505594,-3552.988522,2294.638420
2042.658037,306.438199,-5255.462188,6217.729913
2042.658354,-3140.991542,-7179.997637,18135.045579
2042.658672,-7277.907231,-4589.276840,21539.992912
2042.658989,-8963.317327,740.205942,21169.889941
2042.659307,-12563.966167,4663.297435,11621.233289
2042.659624,-8120.612279,4811.338623,20059.581028
2042.659942,-5132.839837,4367.215058,17098.757260
2042.660259,0.000000,9548.656652,6513.812290
2042.660577,4979.620737,9770.718434,148.041188
2042.660894,11491.432470,8142.265362,2664.741391
2042.661212,13866.328514,-888.247130,3849.070898
2042.661529,13176.842566,-2886.803174,2516.700203
2042.661846,9422.974625,-6661.853478,10140.821405
2042.662164,2298.286494,-2960.823768,2960.823768
2042.662481,2604.724693,-6661.853478,4959.379811
2042.662799,-3064.381992,-5477.523971,14211.954086
2042.663116,-5975.544884,-5181.441594,20207.622217
2042.663434,-7814.174080,1036.288319,16802.674883
2042.663751,-9729.412825,2294.638420,7624.121203
2042.664069,-7584.345430,2294.638420,14434.015869
2042.664386,-4673.182538,3330.926739,16210.510130
2042.664704,-1532.190996,6439.791695,6661.853478
2042.665021,4290.134789,7698.141797,740.205942
2042.665339,8580.269578,4737.318029,2294.638420
2042.665656,9729.412825,-2960.823768,1628.453072
2042.665973,10035.851024,-4515.256246,4885.359217
2042.666291,7660.954980,-8216.285956,11621.233289
2042.666608,1149.143247,-6365.771101,1702.473667
2042.666926,459.657299,-6735.874072,3034.844362
2042.667243,-1072.533697,-6735.874072,12731.542202
2042.667561,-4136.915689,-7846.182985,19837.519246
2042.667878,-7660.954980,-2368.659014,15618.345376
2042.668196,-9039.926876,814.226536,8512.368333
2042.668513,-9269.755526,4811.338623,12287.418637
2042.668831,-5669.106685,3775.050304,18431.127956
2042.669148,-1225.752797,7254.018232,5995.668130
2042.669465,4749.792088,11769.274478,-1480.411884
2042.669783,10265.679673,9548.656652,1554.432478
2042.670100,11184.994271,148.041188,1702.473667
2042.670418,11721.261119,-4071.132681,2812.782580
2042.670735,9729.412825,-8216.285956,11843.295072
2042.671053,2068.457845,-5033.400406,2812.782580
2042.671370,1608.800546,-4959.379811,4293.194464
2042.671688,-459.657299,-6883.915261,13693.809927
2042.672005,-6818.249932,-4959.379811,17690.922014
2042.672323,-6281.983084,-3997.112087,21169.889941
2042.672640,-10418.898773,1998.556043,11029.068536
2042.672957,-10112.460574,3404.947333,10510.924376
2042.673275,-7507.735880,4071.132681,18727.210333
2042.673592,-4519.963438,7105.977043,11621.233289
2042.673910,3064.381992,10658.965565,3849.070898
2042.674227,7507.735880,11325.150913,1036.288319
2042.674545,11414.822920,4441.235652,0.000000
2042.674862,11721.261119,-1406.391290,3108.864956
2042.675180,9576.193725,-7254.018232,11917.315666
2042.675497,2987.772442,-8882.471304,8956.491898
2042.675815,1149.143247,-7402.059420,7772.162391
2042.676132,-2528.115143,-7476.080014,13915.871710
2042.676450,-5362.668486,-5329.482782,18431.127956
2042.676767,-5439.278036,-1776.494261,21169.889941
2042.677084,-6128.763984,5107.421000,13397.727550
2042.677402,-7737.564530,6587.832884,10510.924376
2042.677719,-5592.497135,8586.388927,15174.221811
2042.678037,-2221.676944,6883.915261,13841.851115
2042.678354,3600.648841,9252.574275,5255.462188
2042.678672,8656.879127,8956.491898,-1036.288319
2042.678989,12027.699319,4737.318029,1702.473667
2042.679307,11721.261119,-1776.494261,2960.823768
2042.679624,11414.822920,-5329.482782,9252.574275
2042.679942,6205.373534,-8364.327145,12213.398043
2042.680259,0.000000,-4737.318029,9178.553681
2042.680576,153.219100,-6365.771101,13989.892304
2042.680894,-3983.696590,-4293.194464,17987.004391
2042.681211,-4673.182538,-2516.700203,22132.157666
2042.681529,-5209.449386,4737.318029,15174.221811
2042.681846,-5362.668486,7550.100608,7920.203579
2042.682164,-2987.772442,7920.203579,13249.686362
2042.682481,76.609550,7328.038826,14285.974681
2042.682799,4290.134789,7105.977043,4811.338623
2042.683116,6281.983084,7624.121203,-1258.350101
2042.683434,10572.117872,4441.235652,2664.741391
2042.683751,11184.994271,-3997.112087,444.123565
2042.684069,8427.050478,-5181.441594,4441.235652
2042.684386,4443.353888,-10288.862594,10881.027347
2042.684703,-2221.676944,-8438.347739,6513.812290
2042.685021,-2374.896044,-7402.059420,10288.862594
2042.685338,-4903.011187,-8512.368333,16580.613101
2042.685656,-7124.688131,-5773.606348,17542.880825
2042.685973,-7431.126331,444.123565,16358.551318
2042.686291,-8350.440928,2738.761985,6661.853478
2042.686608,-8273.831378,4811.338623,14434.015869
2042.686926,-3830.477490,4515.256246,15544.324782
2042.687243,1378.971896,9474.636058,3478.967927
2042.687561,7354.516781,10436.903782,222.061783
2042.687878,9806.022374,5403.503377,1258.350101
2042.688195,10725.336972,-1406.391290,-1998.556043
2042.688513,9422.974625,-4959.379811,2442.679609
2042.688830,7354.516781,-9548.656652,11325.150913
2042.689148,1532.190996,-8438.347739,7105.977043
2042.689465,536.266849,-7624.121203,6957.935855
2042.689783,-3600.648841,-5625.565159,12213.398043
2042.690100,-4366.744339,-5329.482782,19467.416275
2042.690418,-6971.469032,1110.308913,15692.365970
2042.690735,-6128.763984,4515.256246,8956.491898
2042.691053,-5822.325785,7698.141797,9400.615463
2042.691370,-3524.039291,6587.832884,15174.221811
2042.691687,2374.896044,6883.915261,5847.626942
2042.692005,6205.373534,7846.182985,888.247130
2042.692322,9959.241474,3849.070898,2738.761985
2042.692640,9346.365076,-814.226536,592.164754
2042.692957,7967.393179,-4367.215058,5403.503377
2042.693275,6665.030833,-8882.471304,11843.295072
2042.693592,383.047749,-7476.080014,7624.121203
2042.693910,-3064.381992,-8216.285956,10362.883188
2042.694227,-4826.401637,-5107.421000,15914.427753
2042.694545,-6971.469032,-4293.194464,18209.066173
2042.694862,-5439.278036,1924.535449,17616.901420
2042.695180,-5286.058936,4219.173869,12139.377449
2042.695497,-6588.421283,7254.018232,11029.068536
2042.695814,-2681.334243,5329.482782,14952.160028
2042.696132,1762.019645,7328.038826,7328.038826
2042.696449,6052.154434,7105.977043,3627.009116
2042.696767,10648.727422,3478.967927,4737.318029
2042.697084,11108.384721,1924.535449,1184.329507
2042.697402,9806.022374,-3182.885551,4737.318029
2042.697719,8197.221829,-6883.915261,10510.924376
2042.698037,2757.943793,-5773.606348,6291.750507
2042.698354,-1455.581446,-4811.338623,10362.883188
2042.698672,-2145.067394,-4441.235652,16432.571912
2042.698989,-5745.716235,370.102971,15248.242405
2042.699306,-4443.353888,4515.256246,18801.230927
2042.699624,-5056.230287,6957.935855,12805.562797
2042.699941,-3983.696590,7994.224174,12139.377449
2042.700259,-1915.238745,7698.141797,14508.036463
2042.700576,2068.457845,6735.874072,10732.986159
2042.700894,5898.935335,4663.297435,7254.018232
2042.701211,9269.755526,2886.803174,7254.018232
2042.701529,13559.890315,1554.432478,4367.215058
2042.701846,12334.137518,-962.267725,3478.967927
2042.702164,9729.412825,-2738.761985,6513.812290
2042.702481,5669.106685,-3775.050304,5033.400406
2042.702798,-1149.143247,-2368.659014,6587.832884
2042.703116,-3677.258390,-3775.050304,14211.954086
2042.703433,-6205.373534,-1036.288319,14508.036463
2042.703751,-8503.660028,1776.494261,17320.819043
2042.704068,-7890.783629,4811.338623,14063.912898
2042.704386,-8273.831378,6069.688724,10510.924376
2042.704703,-6818.249932,4515.256246,14063.912898
2042.705021,-3677.258390,2146.597232,14582.057057
2042.705338,-766.095498,4441.235652,7994.224174
2042.705656,2068.457845,3627.009116,3627.009116
2042.705973,5286.058936,1702.473667,4737.318029
2042.706291,5592.497135,-2220.617826,3552.988522
2042.706608,3907.087040,-740.205942,6957.935855
2042.706925,1685.410096,-4293.194464,4737.318029
2042.707243,-5056.230287,-2590.720797,1184.329507
2042.707560,-7277.907231,-4811.338623,12213.398043
2042.707878,-10112.460574,-4737.318029,18579.169144
2042.708195,-10801.946522,-4071.132681,17912.983796
2042.708513,-9806.022374,2220.617826,12139.377449
2042.708830,-9346.365076,4293.194464,9326.594869
2042.709148,-4213.525239,3256.906145,14656.077652
2042.709465,-766.095498,5181.441594,9918.759623
2042.709783,4903.011187,3775.050304,7846.182985
2042.710100,6894.859482,2960.823768,3627.009116
2042.710417,11951.089769,222.061783,5773.606348
2042.710735,12257.527968,-1110.308913,3775.050304
2042.711052,13023.623466,-2516.700203,6661.853478
2042.711370,10035.851024,-3775.050304,888.247130
2042.711687,5132.839837,-2664.741391,2516.700203
2042.712005,2374.896044,-5403.503377,11843.295072
2042.712322,-2987.772442,-3108.864956,13841.851115
2042.712640,-919.314598,-148.041188,16728.654289
2042.712957,-1762.019645,5255.462188,12213.398043
2042.713275,-842.705048,4737.318029,12731.542202
2042.713592,153.219100,3997.112087,10140.821405
2042.713910,2911.162892,3404.947333,7698.141797
2042.714227,5975.544884,1998.556043,8956.491898
2042.714544,7048.078582,-2294.638420,6291.750507
2042.714862,10955.165621,-1184.329507,5551.544565
2042.715179,11951.089769,-1776.494261,4367.215058
2042.715497,10112.460574,-3701.029710,5329.482782
2042.715814,4903.011187,-3849.070898,814.226536
2042.716132,995.924147,-3404.947333,5921.647536
2042.716449,-3983.696590,-2442.679609,10807.006753
2042.716767,-6128.763984,-1110.308913,14434.015869
2042.717084,-7814.174080,1628.453072,16728.654289
2042.717402,-6435.202183,3775.050304,16580.613101
2042.717719,-4903.011187,2220.617826,13619.789333
2042.718036,-5439.278036,1406.391290,10584.944971
2042.718354,-2145.067394,-1332.370696,13693.809927
2042.718671,383.047749,1110.308913,9844.739029
2042.718989,4826.401637,2146.597232,7105.977043
2042.719306,9499.584175,370.102971,6587.832884
2042.719624,10725.336972,-1036.288319,5329.482782
2042.719941,9116.536426,-888.247130,2738.761985
2042.720259,6665.030833,-1776.494261,740.205942
2042.720576,995.924147,-2738.761985,2664.741391
2042.720894,-1532.190996,-3923.091493,9030.512492
2042.721211,-7354.516781,-3404.947333,12287.418637
2042.721528,-8886.707777,-3330.926739,21539.992912
2042.721846,-8580.269578,444.123565,20133.601622
2042.722163,-6358.592633,1480.411884,14211.954086
2042.722481,-5132.839837,3404.947333,11251.130318
2042.722798,-919.314598,2664.741391,14211.954086
2042.723116,2221.676944,4811.338623,10436.903782
2042.723433,4596.572988,1924.535449,8586.388927
2042.723751,9269.755526,-0.000000,7994.224174
2042.724068,10342.289223,-0.000000,5107.421000
2042.724386,10342.289223,3478.967927,3997.112087
2042.724703,9193.145976,1258.350101,2146.597232
2042.725021,3830.477490,222.061783,0.000000
2042.725338,-2145.067394,-1480.411884,6735.874072
2042.725656,-5592.497135,-3775.050304,14359.995275
2042.725973,-8886.707777,-3108.864956,18727.210333
2042.726291,-9576.193725,592.164754,18653.189738
2042.726608,-6511.811733,2146.597232,15100.201217
2042.726926,-4903.011187,5477.523971,11473.192101
2042.727243,-612.876398,2368.659014,13619.789333
2042.727561,1455.581446,1998.556043,9326.594869
2042.727878,3830.477490,2368.659014,6439.791695
2042.728195,8580.269578,1480.411884,7698.141797
2042.728513,10495.508323,888.247130,3849.070898
2042.728830,9806.022374,2146.597232,962.267725
2042.729148,8427.050478,148.041188,0.000000
2042.729465,2298.286494,814.226536,0.000000
2042.729783,-1149.143247,-2886.803174,8216.285956
2042.730100,-7048.078582,-3256.906145,13249.686362
2042.730418,-9652.803275,-2516.700203,18283.086767
2042.730735,-10495.508323,1258.350101,17690.922014
2042.731053,-7124.688131,3330.926739,16580.613101
2042.731370,-4749.792088,3849.070898,11251.130318
2042.731688,-1685.410096,4663.297435,9622.677246
2042.732005,2221.676944,5329.482782,9252.574275
2042.732323,4826.401637,3404.947333,7402.059420
2042.732640,7507.735880,666.185348,9104.533087
2042.732958,10265.679673,-592.164754,8734.430116
2042.733275,9806.022374,518.144159,4737.318029
2042.733593,9806.022374,2220.617826,1258.350101
2042.733910,5669.106685,1184.329507,0.000000
2042.734227,1532.190996,444.123565,5329.482782
2042.734545,-2834.553343,-1776.494261,14730.098246
2042.734862,-7890.783629,-1776.494261,16062.468941
2042.735180,-9269.755526,-148.041188,18135.045579
2042.735497,-7201.297681,518.144159,18283.086767
2042.735815,-5439.278036,2368.659014,13027.624579
2042.736132,-1915.238745,2738.761985,10955.047942
2042.736450,229.828649,3404.947333,9474.636058
2042.736767,2987.772442,2294.638420,9178.553681
2042.737085,6894.859482,-1258.350101,8142.265362
2042.737402,9806.022374,-4071.132681,7105.977043
2042.737720,9806.022374,-1480.411884,5625.565159
2042.738037,9729.412825,-74.020594,3997.112087
2042.738355,7048.078582,296.082377,-2294.638420
2042.738672,1455.581446,-296.082377,1628.453072
2042.738990,-3524.039291,-4071.132681,14211.954086
2042.739307,-8427.050478,-3256.906145,16432.571912
2042.739625,-11414.822920,-1850.514855,16432.571912
2042.739942,-9193.145976,-592.164754,16802.674883
2042.740259,-10418.898773,2812.782580,10510.924376
2042.740577,-2451.505594,1258.350101,12657.521608
2042.740894,-1072.533697,1924.535449,10140.821405
2042.741212,1762.019645,-740.205942,9696.697840
2042.741529,5209.449386,-3182.885551,8364.327145
2042.741847,9729.412825,-2960.823768,9104.533087
2042.742164,9576.193725,-3997.112087,9918.759623
2042.742482,9269.755526,-2368.659014,5033.400406
2042.742799,5898.935335,4367.215058,-4663.297435
2042.743117,2528.115143,4071.132681,1924.535449
2042.743434,153.219100,-444.123565,11695.253884
2042.743752,-6665.030833,-444.123565,14656.077652
2042.744069,-7431.126331,296.082377,15914.427753
2042.744387,-8503.660028,1628.453072,14656.077652
2042.744704,-5132.839837,1702.473667,13989.892304
2042.745022,-1762.019645,814.226536,11843.295072
2042.745339,1378.971896,2590.720797,8512.368333
2042.745657,4903.011187,2146.597232,6439.791695
2042.745974,7201.297681,-1480.411884,8660.409521
2042.746291,10725.336972,-5921.647536,10066.800811
2042.746609,10878.556072,-4145.153275,7105.977043
2042.746926,9806.022374,-1480.411884,4293.194464
2042.747244,6511.811733,2368.659014,-2072.576638
2042.747561,2298.286494,1924.535449,2368.659014
2042.747879,-2681.334243,-2146.597232,9696.697840
2042.748196,-8120.612279,-370.102971,13693.809927
2042.748514,-10572.117872,444.123565,14285.974681
2042.748831,-8580.269578,-222.061783,15174.221811
2042.749149,-9422.974625,666.185348,12805.562797
2042.749466,-6894.859482,-74.020594,13397.727550
2042.749784,-3294.210641,-74.020594,10955.047942
2042.750101,-229.828649,2442.679609,7994.224174
2042.750419,4903.011187,-2960.823768,11843.295072
2042.750736,8273.831378,-4145.153275,11473.192101
2042.751054,10725.336972,-2368.659014,8216.285956
2042.751371,12334.137518,1184.329507,7698.141797
2042.751689,9729.412825,3923.091493,-2368.659014
2042.752006,6358.592633,4663.297435,-4663.297435
2042.752323,1532.190996,1850.514855,4885.359217
2042.752641,-6435.202183,814.226536,10436.903782
2042.752958,-8886.707777,-0.000000,14878.139434
2042.753276,-10572.117872,2368.659014,15174.221811
2042.753593,-9806.022374,1258.350101,13915.871710
2042.753911,-8197.221829,518.144159,12879.583391
2042.754228,-3217.601092,-444.123565,15100.201217
2042.754546,-766.095498,444.123565,11103.089130
2042.754863,5209.449386,-1110.308913,11621.233289
2042.755181,11338.213370,-3108.864956,13397.727550
2042.755498,14402.595362,-5847.626942,11473.192101
2042.755816,15015.471761,-1258.350101,7846.182985
2042.756133,13483.280765,2368.659014,-592.164754
2042.756451,11108.384721,6291.750507,-2220.617826
2042.756768,5592.497135,7105.977043,1702.473667
2042.757086,306.438199,5403.503377,5329.482782
2042.757403,-5669.106685,5773.606348,8290.306550
2042.757721,-8886.707777,4589.276840,11251.130318
2042.758038,-8963.317327,-666.185348,17394.839637
2042.758356,-9499.584175,-2072.576638,13471.748144
2042.758673,-6128.763984,-4737.318029,16062.468941
2042.758990,-4903.011187,-4219.173869,14211.954086
2042.759308,-229.828649,-6439.791695,15174.221811
2042.759625,5286.058936,-7550.100608,16284.530724
2042.759943,7890.783629,-5329.482782,12509.480420
2042.760260,9729.412825,-1850.514855,9326.594869
2042.760578,8810.098227,2220.617826,3701.029710
2042.760895,5822.325785,7179.997637,-1184.329507
2042.761213,3370.820191,6439.791695,1480.411884
2042.761530,-2987.772442,6217.729913,6217.729913
2042.761848,-7431.126331,4219.173869,8956.491898
2042.762165,-9959.241474,4589.276840,11251.130318
2042.762483,-9346.365076,1184.329507,13471.748144
2042.762800,-10648.727422,-0.000000,10584.944971
2042.763118,-6894.859482,-3108.864956,16580.613101
2042.763435,-5592.497135,-4145.153275,15322.262999
2042.763753,-1225.752797,-5181.441594,14508.036463
2042.764070,4903.011187,-6439.791695,17616.901420
2042.764388,8656.879127,-7772.162391,16136.489536
2042.764705,12334.137518,-5255.462188,11621.233289
2042.765022,13330.061665,-444.123565,4737.318029
2042.765340,12334.137518,5625.565159,-3627.009116
2042.765657,9346.365076,6883.915261,-3256.906145
2042.765975,4903.011187,7105.977043,1702.473667
2042.766292,-2068.457845,7105.977043,3997.112087
2042.766610,-4596.572988,7550.100608,6069.688724
2042.766927,-5898.935335,4071.132681,12361.439231
2042.767245,-7354.516781,148.041188,14211.954086
2042.767562,-6128.763984,-4367.215058,13471.748144
2042.767880,-5515.887586,-5699.585753,14137.933492
2042.768197,-3753.867940,-6661.853478,16506.592507
2042.768515,3217.601092,-10584.944971,19837.519246
2042.768832,9422.974625,-10214.842000,17542.880825
2042.769150,12334.137518,-4219.173869,10510.924376
2042.769467,13866.328514,-0.000000,4441.235652
2042.769785,12487.356617,5107.421000,-2960.823768
2042.770102,8963.317327,6661.853478,-2664.741391
2042.770420,3370.820191,7920.203579,-1554.432478
2042.770737,-3064.381992,7476.080014,2294.638420
2042.771054,-8580.269578,7994.224174,6069.688724
2042.771372,-9882.631924,4737.318029,12953.603985
2042.771689,-9729.412825,-296.082377,13767.830521
2042.772007,-10725.336972,-3478.967927,9104.533087
2042.772324,-8197.221829,-8734.430116,18061.024985
2042.772642,-8427.050478,-7550.100608,16728.654289
2042.772959,-1532.190996,-7031.956449,17616.901420
2042.773277,6818.249932,-7920.203579,18505.148550
2042.773594,11031.775171,-6957.935855,14582.057057
2042.773912,14019.547613,-1554.432478,7624.121203
2042.774229,14402.595362,4959.379811,518.144159
2042.774547,13713.109414,9474.636058,-5995.668130
2042.774864,9806.022374,8438.347739,-2442.679609
2042.775182,3830.477490,8290.306550,2220.617826
2042.775499,-4596.572988,7550.100608,3923.091493
2042.775817,-8427.050478,7994.224174,6069.688724
2042.776134,-8427.050478,3182.885551,13101.645173
2042.776452,-8733.488677,-888.247130,13323.706956
2042.776769,-7660.954980,-5255.462188,11843.295072
2042.777086,-7967.393179,-5921.647536,15914.427753
2042.777404,-6818.249932,-11029.068536,21391.951724
2042.777721,-612.876398,-12435.459826,23612.569550
2042.778039,5286.058936,-10807.006753,21317.931130
2042.778356,9346.365076,-4071.132681,14211.954086
2042.778674,12180.918418,2590.720797,5033.400406
2042.778991,13023.623466,7328.038826,-962.267725
2042.779309,9882.631924,10066.800811,-2146.597232
2042.779626,4673.182538,11547.212695,-888.247130
2042.779944,-2911.162892,11177.109724,-814.226536
2042.780261,-5975.544884,10584.944971,4071.132681
2042.780579,-8273.831378,5921.647536,9548.656652
2042.780896,-9269.755526,2590.720797,11843.295072
2042.781214,-8886.707777,-3775.050304,13101.645173
2042.781531,-10265.679673,-6439.791695,14582.057057
2042.781849,-9116.536426,-11843.295072,21317.931130
2042.782166,-5362.668486,-12287.418637,23834.631332
2042.782484,2298.286494,-12657.521608,24056.693115
2042.782801,8963.317327,-7031.956449,18727.210333
2042.783118,12563.966167,-2220.617826,9474.636058
2042.783436,14785.643111,5255.462188,2960.823768
2042.783753,15704.957709,10066.800811,-4811.338623
2042.784071,11184.994271,13841.851115,-5625.565159
2042.784388,4749.792088,14211.954086,-2960.823768
2042.784706,-2681.334243,12287.418637,444.123565
2042.785023,-5362.668486,8956.491898,6587.832884
2042.785341,-7354.516781,3256.906145,10658.965565
2042.785658,-8120.612279,-1332.370696,12361.439231
2042.785976,-6281.983084,-6143.709319,13989.892304
2042.786293,-7584.345430,-9252.574275,16950.716072
2042.786611,-5286.058936,-15248.242405,24426.796086
2042.786928,-612.876398,-16580.613101,25389.063811
2042.787246,7584.345430,-13915.871710,22946.384202
2042.787563,12027.699319,-4441.235652,11547.212695
2042.787881,15551.738609,3775.050304,4663.297435
2042.788198,16088.005458,10362.883188,-3256.906145
2042.788516,13176.842566,15766.386565,-6735.874072
2042.788833,8733.488677,15544.324782,-3404.947333
2042.789151,-3677.258390,14952.160028,-5329.482782
2042.789468,-6205.373534,9548.656652,3849.070898
2042.789785,-8273.831378,7179.997637,7994.224174
2042.790103,-9346.365076,1332.370696,10066.800811
2042.790420,-8273.831378,-7105.977043,12361.439231
2042.790738,-9959.241474,-9918.759623,15914.427753
2042.791055,-8273.831378,-15692.365970,24574.837274
2042.791373,-6205.373534,-15100.201217,23612.569550
2042.791690,229.828649,-14656.077652,22354.219448
2042.792008,6818.249932,-9696.697840,19615.457463
2042.792325,10648.727422,-2664.741391,9252.574275
2042.792643,14555.814462,4737.318029,2294.638420
2042.792960,15551.738609,12361.439231,-5477.523971
2042.793278,11261.603821,17024.736666,-6217.729913
2042.793595,6511.811733,17320.819043,-7550.100608
2042.793913,-2911.162892,11991.336260,-5773.606348
2042.794230,-5515.887586,4885.359217,7105.977043
2042.794548,-8733.488677,-148.041188,9548.656652
2042.794865,-11338.213370,-2664.741391,10066.800811
2042.795183,-8197.221829,-9992.780217,16654.633695
2042.795500,-10572.117872,-11769.274478,18949.272115
2042.795817,-7354.516781,-15174.221811,26351.331535
2042.796135,-3907.087040,-17098.757260,27757.722825
2042.796452,2068.457845,-14656.077652,22354.219448
2042.796770,8656.879127,-5699.585753,14359.995275
2042.797087,13636.499864,3256.906145,5033.400406
2042.797405,17160.539155,10807.006753,740.205942
2042.797722,15934.786358,17394.839637,-7328.038826
2042.798040,10112.460574,18875.251521,-8364.327145
2042.798357,1302.362347,17172.777854,-8290.306550
2042.798675,-3524.039291,9400.615463,2368.659014
2042.798992,-6435.202183,4885.359217,10288.862594
2042.799310,-10418.898773,888.247130,10510.924376
2042.799627,-10801.946522,-4367.215058,12805.562797
2042.799945,-9193.145976,-11251.130318,21317.931130
2042.800262,-8886.707777,-15692.365970,28127.825796
2042.800580,-6281.983084,-18505.148550,28053.805202
2042.800897,-2068.457845,-15618.345376,23464.528361
2042.801215,6205.373534,-8956.491898,19837.519246
2042.801532,12487.356617,-370.102971,11843.295072
2042.801849,15551.738609,6587.832884,1628.453072
2042.802167,15858.176809,13471.748144,-6439.791695
2042.802484,12104.308868,20725.766376,-9400.615463
2042.802802,5745.716235,18357.107362,-7846.182985
2042.803119,-2604.724693,12361.439231,-2368.659014
2042.803437,-5056.230287,5033.400406,7698.141797
2042.803754,-8503.660028,3330.926739,7698.141797
2042.804072,-9193.145976,-296.082377,9178.553681
2042.804389,-7354.516781,-9474.636058,17690.922014
2042.804707,-7048.078582,-14211.954086,21984.116477
2042.805024,-5362.668486,-15248.242405,25981.228564
2042.805342,-1685.410096,-12657.521608,24722.878463
2042.805659,3753.867940,-12139.377449,23908.651927
2042.805977,9499.584175,-5995.668130,16432.571912
2042.806294,14938.862211,4219.173869,6735.874072
2042.806612,17313.758255,13397.727550,-3552.988522
2042.806929,15092.081311,16654.633695,-7328.038826
2042.807247,9346.365076,17690.922014,-7105.977043
2042.807564,2987.772442,17394.839637,-7476.080014
2042.807881,-3830.477490,12731.542202,-2368.659014
2042.808199,-6128.763984,3034.844362,8660.409521
2042.808516,-10418.898773,-444.123565,10658.965565
2042.808834,-9193.145976,-2738.761985,11769.274478
2042.809151,-8886.707777,-11325.150913,18653.189738
2042.809469,-9116.536426,-17246.798449,27461.640448
2042.809786,-8197.221829,-19393.395680,29904.320057
2042.810104,-5056.230287,-12953.603985,24722.878463
2042.810421,995.924147,-10732.986159,21169.889941
2042.810739,8886.707777,-3775.050304,14582.057057
2042.811056,12947.013916,4515.256246,5107.421000
2042.811374,15475.129060,15248.242405,-4071.132681
2042.811691,13176.842566,18727.210333,-11547.212695
2042.812009,6205.373534,17542.880825,-8660.409521
2042.812326,689.485948,11251.130318,-1998.556043
2042.812644,-5822.325785,9400.615463,148.041188
2042.812961,-8886.707777,2368.659014,5551.544565
2042.813279,-10801.946522,-4589.276840,12731.542202
2042.813596,-9882.631924,-7698.141797,17246.798449
2042.813913,-10572.117872,-12065.356855,19023.292709
2042.814231,-9652.803275,-16062.468941,28423.908173
2042.814548,-5439.278036,-18209.066173,27831.743419
2042.814866,-2681.334243,-13619.789333,20873.807564
2042.815183,5362.668486,-10362.883188,19097.313304
2042.815501,12563.966167,740.205942,11769.274478
2042.815818,16854.100956,10214.842000,0.000000
2042.816136,17543.586904,20281.642811,-8808.450710
2042.816453,12180.918418,22946.384202,-13101.645173
2042.816771,4903.011187,17912.983796,-6291.750507
2042.817088,-842.705048,10584.944971,888.247130
2042.817406,-3983.696590,5329.482782,4515.256246
2042.817723,-7431.126331,444.123565,6735.874072
2042.818041,-7507.735880,-5847.626942,13989.892304
2042.818358,-5898.935335,-10288.862594,19319.375086
2042.818676,-5669.106685,-15692.365970,22502.260637
2042.818993,-3830.477490,-18949.272115,26943.496289
2042.819311,-153.219100,-18061.024985,25463.084405
2042.819628,4290.134789,-10140.821405,18949.272115
2042.819945,10112.460574,-2664.741391,14952.160028
2042.820263,14938.862211,2960.823768,7402.059420
2042.820580,16394.443657,14434.015869,-4515.256246
2042.820898,12640.575717,22206.178260,-9696.697840
2042.821215,5898.935335,19097.313304,-8956.491898
2042.821533,0.000000,11399.171507,-3627.009116
2042.821850,-4290.134789,5995.668130,4367.215058
2042.822168,-6665.030833,3034.844362,4959.379811
2042.822485,-10112.460574,-4367.215058,11547.212695
2042.822803,-8044.002729,-10288.862594,19319.375086
2042.823120,-7890.783629,-13767.830521,22576.281231
2042.823437,-8197.221829,-15322.262999,23020.404796
2042.823755,-4749.792088,-19245.354492,28868.031738
2042.824072,-2145.067394,-16062.468941,23242.466579
2042.824389,4443.353888,-6735.874072,16580.613101
2042.824707,11951.089769,3182.885551,10955.047942
2042.825024,16164.615008,10362.883188,2664.741391
2042.825341,16011.395908,19023.292709,-7994.224174
2042.825659,9576.193725,22280.198854,-14063.912898
2042.825976,5362.668486,15618.345376,-5255.462188
2042.826293,-689.485948,8882.471304,1110.308913
2042.826610,-4826.401637,3701.029710,3256.906145
2042.826928,-7660.954980,-1258.350101,9400.615463
2042.827245,-7814.174080,-4441.235652,14952.160028
2042.827562,-7277.907231,-8734.430116,19245.354492
2042.827880,-7967.393179,-14434.015869,22058.137072
2042.828197,-6358.592633,-17764.942608,28349.887579
2042.828514,-3677.258390,-16580.613101,25315.043216
2042.828832,689.485948,-11695.253884,20429.683999
2042.829149,8197.221829,-5033.400406,18135.045579
2042.829466,14479.204912,3182.885551,7920.203579
2042.829783,16700.881856,16062.468941,-5107.421000
2042.830101,13330.061665,22058.137072,-15248.242405
2042.830418,7354.516781,18801.230927,-10955.047942
2042.830735,1302.362347,12435.459826,-3701.029710
2042.831053,-6128.763984,8290.306550,-2590.720797
2042.831370,-9652.803275,2146.597232,5107.421000
2042.831687,-11951.089769,-5995.668130,14582.057057
2042.832005,-11414.822920,-8660.409521,18505.148550
2042.832322,-10725.336972,-11917.315666,21021.848753
2042.832639,-9882.631924,-16358.551318,27239.578666
2042.832957,-6205.373534,-16950.716072,30200.402434
2042.833274,-2528.115143,-12953.603985,24870.919651
2042.833591,3064.381992,-5921.647536,16284.530724
2042.833908,11184.994271,2368.659014,12879.583391
2042.834226,16317.834107,10214.842000,1702.473667
2042.834543,17390.367805,20281.642811,-7994.224174
2042.834860,11797.870669,24130.713709,-16210.510130
2042.835178,6511.811733,18653.189738,-9474.636058
2042.835495,-383.047749,8808.450710,-3849.070898
2042.835812,-4060.306139,3923.091493,5625.565159
2042.836130,-9422.974625,-2146.597232,7179.997637
2042.836447,-10265.679673,-7846.182985,12213.398043
2042.836764,-8120.612279,-12361.439231,19911.539840
2042.837082,-7967.393179,-14285.974681,24204.734303
2042.837399,-6665.030833,-19541.436869,27757.722825
2042.837716,-3064.381992,-16358.551318,25241.022622
2042.838033,229.828649,-10436.903782,19541.436869
2042.838351,6511.811733,-3923.091493,17764.942608
2042.838668,13023.623466,4441.235652,10510.924376
2042.838985,15934.786358,13323.706956,-1628.453072
2042.839303,13713.109414,22650.301825,-12361.439231
2042.839620,9959.241474,21762.054695,-11547.212695
2042.839937,5362.668486,14211.954086,-5107.421000
2042.840255,0.000000,7328.038826,-962.267725
2042.840572,-6205.373534,2368.659014,3849.070898
2042.840889,-8427.050478,-5477.523971,10881.027347
2042.841206,-8044.002729,-10066.800811,19319.375086
2042.841524,-8503.660028,-14285.974681,22798.343014
2042.841841,-8427.050478,-16950.716072,28053.805202
2042.842158,-4596.572988,-19097.313304,29460.196492
2042.842476,-1608.800546,-14285.974681,23020.404796
2042.842793,3830.477490,-6143.709319,20429.683999
2042.843110,11568.042020,-1184.329507,13545.768739
2042.843428,16471.053207,6883.915261,1110.308913
2042.843745,18003.244203,18209.066173,-9252.574275
2042.844062,13100.233016,19911.539840,-12509.480420
2042.844380,8733.488677,17172.777854,-10658.965565
2042.844697,3064.381992,12731.542202,-5847.626942
2042.845014,-2757.943793,6883.915261,-1332.370696
2042.845331,-7507.735880,-2294.638420,6883.915261
2042.845649,-9729.412825,-8364.327145,16654.633695
2042.845966,-12257.527968,-12139.377449,18579.169144
2042.846283,-11414.822920,-18357.107362,24352.775492
2042.846601,-9193.145976,-19837.519246,30052.361245
2042.846918,-6818.249932,-19393.395680,28497.928767
2042.847235,-3064.381992,-13027.624579,21688.034101
2042.847553,4903.011187,-4737.318029,17394.839637
2042.847870,14096.157163,4811.338623,10881.027347
2042.848187,15015.471761,12213.398043,-444.123565
2042.848505,14172.766713,20873.807564,-11917.315666
2042.848822,9806.022374,21836.075289,-14804.118840
2042.849139,3370.820191,17024.736666,-9326.594869
2042.849456,-2145.067394,8882.471304,-5403.503377
2042.849774,-7507.735880,4515.256246,-444.123565
2042.850091,-10418.898773,-5403.503377,8956.491898
2042.850408,-12257.527968,-10140.821405,18283.086767
2042.850726,-12334.137518,-15396.283594,23390.507767
2042.851043,-13100.233016,-18505.148550,26277.310941
2042.851360,-8733.488677,-21539.992912,36492.152941
2042.851678,-7890.783629,-15766.386565,26129.269753
2042.851995,-1378.971896,-7179.997637,18061.024985
2042.852312,10342.289223,-1554.432478,16358.551318
2042.852630,17007.320056,9104.533087,6513.812290
2042.852947,17466.977354,15988.448347,-7179.997637
2042.853264,16394.443657,24574.837274,-14211.954086
2042.853581,11414.822920,20873.807564,-12287.418637
2042.853899,5515.887586,15248.242405,-12805.562797
2042.854216,1225.752797,5773.606348,-1258.350101
2042.854533,-5056.230287,1998.556043,2072.576638
2042.854851,-9959.241474,-7179.997637,8660.409521
2042.855168,-10572.117872,-14285.974681,20133.601622
2042.855485,-11491.432470,-17394.839637,29460.196492
2042.855803,-9882.631924,-19615.457463,31310.711347
2042.856120,-8503.660028,-18283.086767,28423.908173
2042.856437,-3907.087040,-13767.830521,25018.960840
2042.856754,3524.039291,-7328.038826,20947.828159
2042.857072,12563.966167,-888.247130,15914.427753
2042.857389,20531.359346,10214.842000,3775.050304
2042.857706,20684.578446,21391.951724,-7476.080014
2042.858024,18233.072852,26869.475695,-17690.922014
2042.858341,11644.651570,22132.157666,-14656.077652
2042.858658,3753.867940,13175.665768,-7402.059420
2042.858976,-1762.019645,5921.647536,-518.144159
2042.859293,-9959.241474,1480.411884,1258.350101
2042.859610,-12717.185267,-8512.368333,11621.233289
2042.859928,-13100.233016,-15100.201217,27091.537477
2042.860245,-12793.794817,-20503.704593,31976.896694
2042.860562,-13483.280765,-18357.107362,27609.681637
2042.860879,-10725.336972,-19467.416275,31976.896694
2042.861197,-7354.516781,-14211.954086,27905.764013
2042.861514,3217.601092,-5107.421000,21836.075289
2042.861831,14709.033562,6217.729913,15544.324782
2042.862149,20761.187996,12805.562797,3627.009116
2042.862466,21986.940793,24352.775492,-8290.306550
2042.862783,18233.072852,28423.908173,-13989.892304
2042.863101,14172.766713,23686.590144,-18431.127956
2042.863418,7660.954980,11843.295072,-9548.656652
2042.863735,229.828649,4959.379811,74.020594
2042.864053,-7048.078582,-1184.329507,3627.009116
2042.864370,-11721.261119,-11843.295072,9474.636058
2042.864687,-13789.718964,-17912.983796,24574.837274
2042.865004,-11951.089769,-22946.384202,34419.576303
2042.865322,-14479.204912,-20059.581028,21984.116477
2042.865639,-11184.994271,-22206.178260,28423.908173
2042.865956,-8197.221829,-15618.345376,28868.031738
2042.866274,1149.143247,-5699.585753,19615.457463
2042.866591,11721.261119,4515.256246,11991.336260
2042.866908,17083.929605,11843.295072,6809.894666
2042.867226,17313.758255,21539.992912,-7698.141797
2042.867543,13483.280765,25241.022622,-17098.757260
2042.867860,8810.098227,19763.498651,-16580.613101
2042.868177,1762.019645,9252.574275,-5625.565159
2042.868495,-4060.306139,3923.091493,-148.041188
2042.868812,-11414.822920,-2664.741391,3182.885551
2042.869129,-15245.300410,-9918.759623,13767.830521
2042.869447,-15168.690860,-14878.139434,24500.816680
2042.869764,-13253.452115,-19763.498651,27461.640448
2042.870081,-12257.527968,-19097.313304,27313.599260
2042.870399,-11644.651570,-19245.354492,29830.299463
2042.870716,-3524.039291,-12287.418637,26203.290347
2042.871033,6818.249932,-2442.679609,18949.272115
2042.871351,15398.519510,4885.359217,12953.603985
2042.871668,19995.092498,11473.192101,2590.720797
2042.871985,20761.187996,22502.260637,-7994.224174
2042.872302,17007.320056,26573.393318,-16506.592507
2042.872620,13023.623466,21910.095883,-19319.375086
2042.872937,6894.859482,9992.780217,-5255.462188
2042.873254,-459.657299,5699.585753,444.123565
2042.873572,-6588.421283,-296.082377,3256.906145
2042.873889,-10035.851024,-8290.306550,13323.706956
2042.874206,-10801.946522,-15470.304188,26203.290347
2042.874524,-9116.536426,-14878.139434,24130.713709
2042.874841,-9193.145976,-17172.777854,26277.310941
2042.875158,-7354.516781,-19393.395680,31828.855506
2042.875476,-1762.019645,-12509.480420,24426.796086
2042.875793,11031.775171,-1406.391290,19171.333898
2042.876110,18616.120601,4293.194464,12435.459826
2042.876427,21067.626195,13249.686362,1110.308913
2042.876745,19458.825649,24130.713709,-12657.521608
2042.877062,14172.766713,26203.290347,-17690.922014
2042.877379,9039.926876,18209.066173,-13989.892304
2042.877697,306.438199,9844.739029,-3404.947333
2042.878014,-8120.612279,3552.988522,2146.597232
2042.878331,-12563.966167,-444.123565,6957.935855
2042.878649,-14709.033562,-8068.244768,15544.324782
2042.878966,-14479.204912,-15914.427753,25537.104999
2042.879283,-11338.213370,-20429.683999,31902.876100
2042.879600,-13559.890315,-18061.024985,25833.187376
2042.879918,-10418.898773,-16580.613101,28275.866984
2042.880235,766.095498,-11695.253884,26573.393318
2042.880552,6971.469032,-2146.597232,16284.530724
2042.880870,15398.519510,3552.988522,10807.006753
2042.881187,19612.044749,14656.077652,1776.494261
2042.881504,18309.682402,23686.590144,-12805.562797
2042.881822,15934.786358,25018.960840,-14211.954086
2042.882139,11031.775171,17394.839637,-13101.645173
2042.882456,-536.266849,11029.068536,-8808.450710
2042.882774,-7737.564530,1110.308913,1110.308913
2042.883091,-11721.261119,-3627.009116,10214.842000
2042.883408,-14632.424012,-9992.780217,17098.757260
2042.883725,-12717.185267,-17320.819043,25167.002028
2042.884043,-11261.603821,-12213.398043,28423.908173
2042.884360,-10112.460574,-13397.727550,26277.310941
2042.884677,-7431.126331,-14434.015869,28497.928767
2042.884995,2068.457845,-14656.077652,28127.825796
2042.885312,6511.811733,-5699.585753,18949.272115
2042.885629,12947.013916,3256.906145,8216.285956
2042.885947,19305.606550,15914.427753,0.000000
2042.886264,19535.435199,25463.084405,-11843.295072
2042.886581,14709.033562,25907.207970,-16432.571912
2042.886899,7354.516781,21021.848753,-17394.839637
2042.887216,-1685.410096,12879.583391,-6957.935855
2042.887533,-9422.974625,1628.453072,3627.009116
2042.887850,-14172.766713,-4441.235652,10658.965565
2042.888168,-16241.224558,-10732.986159,16876.695478
2042.888485,-15704.957709,-18135.045579,24574.837274
2042.888802,-11491.432470,-20725.766376,34789.679274
2042.889120,-12563.966167,-18875.251521,29830.299463
2042.889437,-7048.078582,-14508.036463,27313.599260
2042.889754,6052.154434,-9400.615463,25241.022622
2042.890072,11108.384721,-2960.823768,15618.345376
2042.890389,16624.272307,5847.626942,8364.327145
2042.890706,20914.407095,16358.551318,-1998.556043
2042.891023,20301.530697,27239.578666,-16728.654289
2042.891341,18309.682402,27313.599260,-16728.654289
2042.891658,13023.623466,21021.848753,-14804.118840
2042.891975,1608.800546,12657.521608,-9548.656652
2042.892293,-5592.497135,3108.864956,2146.597232
2042.892610,-10418.898773,-4811.338623,8882.471304
2042.892927,-13636.499864,-11695.253884,18061.024985
2042.893245,-11797.870669,-22280.198854,27387.619854
2042.893562,-7967.393179,-21762.054695,35011.741057
2042.893879,-12104.308868,-18801.230927,24204.734303
2042.894197,-3983.696590,-13619.789333,23686.590144
2042.894514,8273.831378,-10584.944971,23760.610738
2042.894831,10572.117872,-962.267725,14508.036463
2042.895148,15781.567259,4515.256246,10066.800811
2042.895466,18156.463303,19023.292709,-4145.153275
2042.895783,17160.539155,27683.702231,-14359.995275
2042.896100,16011.395908,26351.331535,-12657.521608
2042.896418,7124.688131,18579.169144,-11325.150913
2042.896735,-2221.676944,10510.924376,-7179.997637
2042.897052,-7507.735880,1776.494261,3404.947333
2042.897370,-12793.794817,-7550.100608,11917.315666
2042.897687,-14555.814462,-13915.871710,21614.013506
2042.898004,-11338.213370,-19763.498651,29978.340651
2042.898322,-10342.289223,-18801.230927,30052.361245
2042.898639,-10725.336972,-17468.860231,27387.619854
2042.898956,-5286.058936,-15618.345376,27757.722825
2042.899273,6128.763984,-10436.903782,23982.672521
2042.899591,10648.727422,-2368.659014,11843.295072
2042.899908,16241.224558,9400.615463,8364.327145
2042.900225,17926.634653,19985.560434,-5107.421000
2042.900543,16700.881856,28794.011144,-19319.375086
2042.900860,13023.623466,24130.713709,-18061.024985
2042.901177,3677.258390,14434.015869,-10658.965565
2042.901495,-4443.353888,8956.491898,-3108.864956
2042.901812,-11568.042020,-0.000000,-814.226536
2042.902129,-16011.395908,-9400.615463,15174.221811
2042.902447,-16088.005458,-19171.333898,28794.011144
2042.902764,-13866.328514,-19023.292709,30866.587781
2042.903081,-15168.690860,-18727.210333,27313.599260
2042.903398,-10878.556072,-17320.819043,33531.329173
2042.903716,-2068.457845,-12953.603985,27683.702231
2042.904033,7048.078582,-888.247130,17024.736666
2042.904350,14172.766713,4663.297435,13915.871710
2042.904668,19305.606550,13323.706956,5995.668130
2042.904985,19228.997000,25092.981434,-8956.491898
2042.905302,18462.901502,28868.031738,-16802.674883
2042.905620,14862.252661,23908.651927,-15988.448347
2042.905937,7354.516781,15914.427753,-9104.533087
2042.906254,-1608.800546,4885.359217,-1036.288319
2042.906571,-6205.373534,-4219.173869,5921.647536
2042.906889,-11031.775171,-9326.594869,14656.077652
2042.907206,-11491.432470,-16950.716072,24500.816680
2042.907523,-6894.859482,-21688.034101,32643.082042
2042.907841,-6435.202183,-17320.819043,26721.434506
2042.908158,-5056.230287,-16136.489536,23242.466579
2042.908475,2451.505594,-14359.995275,23316.487173
2042.908793,10265.679673,-5255.462188,17542.880825
2042.909110,13100.233016,518.144159,9104.533087
2042.909427,14632.424012,12065.356855,2442.679609
2042.909745,15321.909960,22280.198854,-12213.398043
2042.910062,11568.042020,24426.796086,-15100.201217
2042.910379,8886.707777,13027.624579,-3108.864956
2042.910696,1915.238745,5477.523971,5107.421000
2042.911014,-1302.362347,-222.061783,4811.338623
2042.911331,-4749.792088,-7476.080014,8068.244768
2042.911648,-5056.230287,-15100.201217,24056.693115
2042.911966,766.095498,-18653.189738,28942.052332
2042.912283,1608.800546,-16432.571912,16284.530724
2042.912600,2451.505594,-15766.386565,16284.530724
2042.912918,5286.058936,-16580.613101,18505.148550
2042.913235,7431.126331,-13471.748144,13619.789333
2042.913552,9116.536426,-1184.329507,7624.121203
2042.913870,13559.890315,4515.256246,10658.965565
2042.914187,8963.317327,14359.995275,-7920.203579
2042.914504,8503.660028,14063.912898,-7624.121203
2042.914821,6205.373534,4219.173869,4293.194464
2042.915139,2145.067394,-2072.576638,6957.935855
2042.915456,2604.724693,-814.226536,962.267725
2042.915773,3600.648841,-5107.421000,7994.224174
2042.916091,4519.963438,-10510.924376,19023.292709
2042.916408,3753.867940,-7920.203579,13397.727550
2042.916725,2528.115143,-7105.977043,10658.965565
2042.917043,2068.457845,-12065.356855,14211.954086
2042.917360,0.000000,-12065.356855,18061.024985
2042.917677,842.705048,-7846.182985,14285.974681
2042.917994,3677.258390,-1406.391290,10955.047942
2042.918312,6358.592633,3330.926739,5847.626942
2042.918629,5362.668486,2738.761985,3627.009116
2042.918946,2911.162892,-0.000000,2738.761985
2042.919264,3753.867940,888.247130,6365.771101
2042.919581,919.314598,1554.432478,222.061783
2042.919898,3983.696590,-222.061783,5773.606348
2042.920216,5515.887586,-814.226536,8364.327145
2042.920533,2528.115143,-0.000000,3627.009116
2042.920850,-766.095498,-2886.803174,5477.523971
2042.921168,-3753.867940,-7328.038826,12879.583391
2042.921485,-6741.640382,-10955.047942,16062.468941
2042.921802,-5898.935335,-10362.883188,17764.942608
2042.922120,-3830.477490,-7031.956449,17394.839637
2042.922437,76.609550,-4293.194464,14804.118840
2042.922754,4903.011187,-3627.009116,10066.800811
2042.923072,7660.954980,-518.144159,7105.977043
2042.923389,9959.241474,962.267725,4737.318029
2042.923706,9882.631924,7105.977043,0.000000
2042.924024,8427.050478,9992.780217,-518.144159
2042.924341,6818.249932,8068.244768,5625.565159
2042.924658,3830.477490,4589.276840,4515.256246
2042.924976,-1455.581446,1924.535449,3997.112087
2042.925293,-4979.620737,-2664.741391,9770.718434
2042.925610,-5439.278036,-7846.182985,18209.066173
2042.925928,-3983.696590,-8882.471304,20947.828159
2042.926245,-1149.143247,-8956.491898,19837.519246
2042.926562,306.438199,-7624.121203,18283.086767
2042.926880,3830.477490,-4959.379811,15396.283594
2042.927197,7354.516781,-1776.494261,11103.089130
2042.927515,10725.336972,2812.782580,7698.141797
2042.927832,10189.070123,7179.997637,3404.947333
2042.928149,8963.317327,14508.036463,0.000000
2042.928467,6741.640382,14508.036463,518.144159
2042.928784,4749.792088,8586.388927,4441.235652
2042.929101,1378.971896,370.102971,7624.121203
2042.929419,-1225.752797,-4959.379811,11399.171507
2042.929736,-2451.505594,-8734.430116,13767.830521
2042.930053,-842.705048,-11991.336260,16654.633695
2042.930371,1378.971896,-13471.748144,19319.375086
2042.930688,2757.943793,-9474.636058,17246.798449
2042.931005,3524.039291,-3701.029710,14285.974681
2042.931323,3677.258390,2072.576638,10214.842000
2042.931640,4290.134789,4737.318029,7179.997637
2042.931957,5209.449386,8364.327145,7550.100608
2042.932275,2911.162892,8364.327145,5995.668130
2042.932592,842.705048,8216.285956,5699.585753
2042.932909,-306.438199,4071.132681,5329.482782
2042.933227,1149.143247,-1850.514855,9400.615463
2042.933544,2757.943793,-7476.080014,10955.047942
2042.933861,3600.648841,-10955.047942,12435.459826
2042.934179,5515.887586,-13693.809927,13175.665768
2042.934496,5975.544884,-11029.068536,12953.603985
2042.934814,6741.640382,-7402.059420,12435.459826
2042.935131,5975.544884,-3404.947333,11769.274478
2042.935448,4366.744339,2960.823768,9992.780217
2042.935766,1838.629195,4589.276840,5847.626942
2042.936083,459.657299,5921.647536,5847.626942
2042.936400,612.876398,4441.235652,8290.306550
2042.936718,2298.286494,740.205942,9844.739029
2042.937035,2834.553343,-2072.576638,7328.038826
2042.937352,3294.210641,-5921.647536,6661.853478
2042.937670,4213.525239,-9030.512492,7920.203579
2042.937987,5439.278036,-12805.562797,10436.903782
2042.938304,5975.544884,-12361.439231,10436.903782
2042.938622,5745.716235,-8512.368333,9696.697840
2042.938939,4443.353888,-3108.864956,10362.883188
2042.939256,2681.334243,-148.041188,9474.636058
2042.939574,1762.019645,740.205942,8512.368333
2042.939891,306.438199,1332.370696,8142.265362
2042.940208,-536.266849,1776.494261,6143.709319
2042.940526,612.876398,-0.000000,6439.791695
2042.940843,2221.676944,-1110.308913,6365.771101
2042.941161,4519.963438,-4589.276840,7328.038826
2042.941478,4979.620737,-5847.626942,6587.832884
2042.941795,4596.572988,-7550.100608,6365.771101
2042.942113,3370.820191,-9474.636058,8364.327145
2042.942430,2374.896044,-8734.430116,9474.636058
2042.942747,1762.019645,-5995.668130,10140.821405
2042.943065,1838.629195,-3108.864956,10881.027347
2042.943382,766.095498,-1332.370696,10584.944971
2042.943699,1225.752797,-518.144159,9474.636058
2042.944017,1455.581446,-74.020594,8956.491898
2042.944334,2451.505594,-148.041188,7846.182985
2042.944651,3524.039291,296.082377,7105.977043
2042.944969,3907.087040,592.164754,6439.791695
2042.945286,4903.011187,-296.082377,6957.935855
2042.945603,4519.963438,-592.164754,7624.121203
2042.945921,4060.306139,-1702.473667,8364.327145
2042.946238,3830.477490,-3552.988522,9622.677246
2042.946555,3217.601092,-3775.050304,9622.677246
2042.946873,2987.772442,-4367.215058,10066.800811
2042.947190,2528.115143,-3478.967927,9992.780217
2042.947508,2911.162892,-2886.803174,11399.171507
2042.947825,3753.867940,-2368.659014,11103.089130
2042.948142,3294.210641,-444.123565,10510.924376
2042.948460,3294.210641,-148.041188,10510.924376
2042.948777,3294.210641,1184.329507,10436.903782
2042.949094,3217.601092,2368.659014,10214.842000
2042.949412,2681.334243,2812.782580,9400.615463
2042.949729,1915.238745,2220.617826,9770.718434
2042.950046,1149.143247,1036.288319,9844.739029
2042.950364,1302.362347,-0.000000,9844.739029
2042.950681,2451.505594,-1480.411884,9548.656652
2042.950998,2451.505594,-3256.906145,9474.636058
2042.951316,2911.162892,-3849.070898,9696.697840
2042.951633,2451.505594,-3330.926739,9696.697840
2042.951950,2221.676944,-2516.700203,10584.944971
2042.952268,1225.752797,-1702.473667,11695.253884
2042.952585,689.485948,-1258.350101,13175.665768
2042.952902,306.438199,-0.000000,13249.686362
2042.953220,-306.438199,962.267725,12731.542202
2042.953537,0.000000,2294.638420,12213.398043
2042.953854,1225.752797,2072.576638,10807.006753
2042.954172,1915.238745,2442.679609,8438.347739
2042.954489,2145.067394,2442.679609,7031.956449
2042.954807,3983.696590,592.164754,6957.935855
2042.955124,5209.449386,-1998.556043,7698.141797
2042.955441,5515.887586,-4589.276840,8808.450710
2042.955759,3907.087040,-4885.359217,9178.553681
2042.956076,2911.162892,-3849.070898,9844.739029
2042.956393,2451.505594,-2960.823768,10288.862594
2042.956711,1455.581446,-3478.967927,11843.295072
2042.957028,995.924147,-3034.844362,12805.562797
2042.957345,919.314598,-962.267725,12509.480420
2042.957663,1608.800546,518.144159,11029.068536
2042.957980,2374.896044,962.267725,9474.636058
2042.958297,995.924147,2072.576638,6587.832884
2042.958615,3140.991542,1628.453072,6587.832884
2042.958932,2145.067394,1554.432478,4589.276840
2042.959249,2681.334243,-1406.391290,6217.729913
2042.959567,2757.943793,-3404.947333,7031.956449
2042.959884,2834.553343,-4737.318029,9400.615463
2042.960201,1838.629195,-5477.523971,9696.697840
2042.960519,459.657299,-7624.121203,11103.089130
2042.960836,229.828649,-6735.874072,11843.295072
2042.961154,306.438199,-4589.276840,11621.233289
2042.961471,842.705048,-1850.514855,9030.512492
2042.961788,842.705048,1850.514855,7328.038826
2042.962106,4136.915689,3182.885551,7105.977043
2042.962423,3830.477490,4589.276840,4367.215058
2042.962740,3907.087040,1554.432478,5181.441594
2042.963058,2528.115143,-814.226536,5033.400406
2042.963375,1455.581446,-1998.556043,5995.668130
2042.963692,1378.971896,-3701.029710,6809.894666
2042.964010,459.657299,-4811.338623,7994.224174
2042.964327,459.657299,-5625.565159,9548.656652
2042.964644,76.609550,-5403.503377,10140.821405
2042.964962,229.828649,-4589.276840,10362.883188
2042.965279,306.438199,-3923.091493,11843.295072
2042.965596,76.609550,-2072.576638,10510.924376
2042.965914,1532.190996,148.041188,9178.553681
2042.966231,2145.067394,1554.432478,8808.450710
2042.966548,3830.477490,1924.535449,8364.327145
2042.966866,5975.544884,2072.576638,7402.059420
2042.967183,6971.469032,1998.556043,6365.771101
2042.967500,8044.002729,592.164754,7328.038826
2042.967818,8120.612279,-74.020594,7550.100608
2042.968135,7431.126331,-888.247130,7550.100608
2042.968453,6588.421283,-1998.556043,8438.347739
2042.968770,5362.668486,-2590.720797,9844.739029
2042.969087,4826.401637,-1924.535449,9770.718434
2042.969405,4596.572988,-1776.494261,10658.965565
2042.969722,3217.601092,-1628.453072,10732.986159
2042.970039,2298.286494,-1998.556043,11473.192101
2042.970357,1378.971896,-2368.659014,11843.295072
2042.970674,919.314598,-2738.761985,11917.315666
2042.970991,1072.533697,-2812.782580,12361.439231
2042.971309,1378.971896,-2590.720797,13471.748144
2042.971626,1685.410096,-2886.803174,13471.748144
2042.971943,2604.724693,-2738.761985,12953.603985
2042.972261,3600.648841,-1998.556043,13027.624579
2042.972578,4136.915689,-1480.411884,12287.418637
2042.972895,4903.011187,-962.267725,11621.233289
2042.973213,5056.230287,-1110.308913,10732.986159
2042.973530,5362.668486,-1406.391290,10214.842000
2042.973847,5286.058936,-1850.514855,10362.883188
2042.974165,4979.620737,-3034.844362,10436.903782
2042.974482,4366.744339,-4293.194464,10510.924376
2042.974800,3600.648841,-4959.379811,11251.130318
2042.975117,2451.505594,-5699.585753,11843.295072
2042.975434,2068.457845,-5921.647536,12287.418637
2042.975752,1762.019645,-5699.585753,12805.562797
2042.976069,1455.581446,-5181.441594,12805.562797
2042.976386,2145.067394,-4885.359217,13101.645173
2042.976704,2221.676944,-3552.988522,11695.253884
2042.977021,2757.943793,-2516.700203,10584.944971
2042.977338,4213.525239,-2072.576638,10362.883188
2042.977656,4749.792088,-1554.432478,9030.512492
2042.977973,5669.106685,-1480.411884,8142.265362
2042.978290,5898.935335,-1332.370696,7550.100608
2042.978608,6281.983084,-1924.535449,7105.977043
2042.978925,6052.154434,-3182.885551,6809.894666
2042.979242,5362.668486,-4293.194464,6957.935855
2042.979560,4673.182538,-4515.256246,7550.100608
2042.979877,3830.477490,-4737.318029,7994.224174
2042.980194,3140.991542,-4589.276840,7772.162391
2042.980512,3217.601092,-4071.132681,8290.306550
2042.980829,2604.724693,-2886.803174,7846.182985
2042.981146,1762.019645,-2220.617826,6735.874072
2042.981464,1532.190996,-1702.473667,6809.894666
2042.981781,1302.362347,-1332.370696,6365.771101
2042.982099,1685.410096,-1332.370696,6957.935855
2042.982416,1302.362347,-962.267725,6291.750507
2042.982733,1532.190996,-888.247130,6439.791695
2042.983051,1532.190996,-1406.391290,6143.709319
2042.983368,919.314598,-1924.535449,6217.729913
2042.983685,919.314598,-2812.782580,6883.915261
2042.984003,459.657299,-2960.823768,6661.853478
2042.984320,229.828649,-2664.741391,7031.956449
2042.984637,153.219100,-2072.576638,7105.977043
2042.984955,-229.828649,-1406.391290,7105.977043
2042.985272,-612.876398,-1628.453072,7698.141797
2042.985589,-919.314598,-1480.411884,8438.347739
2042.985907,-1149.143247,-1110.308913,9178.553681
2042.986224,-1149.143247,-814.226536,9474.636058
2042.986541,-459.657299,-296.082377,9474.636058
2042.986859,306.438199,-74.020594,9696.697840
2042.987176,995.924147,-296.082377,9622.677246
2042.987493,1762.019645,-1036.288319,9992.780217
2042.987811,2528.115143,-1184.329507,10288.862594
2042.988128,4519.963438,-888.247130,10362.883188
2042.988446,5209.449386,222.061783,9770.718434
2042.988763,5592.497135,666.185348,9770.718434
2042.989080,5515.887586,666.185348,9696.697840
2042.989398,4826.401637,1332.370696,9696.697840
2042.989715,6052.154434,1406.391290,10362.883188
2042.990032,4903.011187,1924.535449,9844.739029
2042.990350,4596.572988,1332.370696,10955.047942
2042.990667,3753.867940,1998.556043,11029.068536
2042.990984,2987.772442,1332.370696,11473.192101
2042.991302,2757.943793,-222.061783,12065.356855
2042.991619,2221.676944,-888.247130,12731.542202
2042.991936,1991.848295,-592.164754,13249.686362
2042.992254,1915.238745,-666.185348,13397.727550
2042.992571,1838.629195,-1110.308913,13619.789333
2042.992888,2681.334243,-1924.535449,14508.036463
2042.993206,3524.039291,-814.226536,13249.686362
2042.993523,3907.087040,-0.000000,12361.439231
2042.993840,4979.620737,518.144159,11695.253884
2042.994158,5669.106685,1036.288319,10510.924376
2042.994475,6435.202183,962.267725,10362.883188
2042.994792,5669.106685,1110.308913,9400.615463
2042.995110,5209.449386,-148.041188,9252.574275
2042.995427,4136.915689,-666.185348,9400.615463
2042.995745,3753.867940,-1258.350101,10807.006753
2042.996062,2987.772442,-370.102971,9400.615463
2042.996379,2604.724693,-1258.350101,9844.739029
2042.996697,2451.505594,-2146.597232,10807.006753
2042.997014,1838.629195,-3404.947333,10732.986159
2042.997331,766.095498,-3997.112087,11103.089130
2042.997649,76.609550,-2960.823768,10881.027347
2042.997966,383.047749,-2738.761985,10288.862594
2042.998283,842.705048,-2072.576638,10732.986159
2042.998601,1149.143247,-1924.535449,10288.862594
2042.998918,1072.533697,-1110.308913,8142.265362
2042.999235,2221.676944,-1776.494261,9844.739029
2042.999553,2681.334243,-2812.782580,10214.842000
2042.999870,4290.134789,-3034.844362,8660.409521
2043.000187,4979.620737,-1628.453072,5699.585753
2043.000505,5669.106685,-2072.576638,4959.379811
2043.000822,5975.544884,-3404.947333,5847.626942
2043.001139,5592.497135,-2886.803174,4737.318029
2043.001457,5669.106685,-3182.885551,4885.359217
2043.001774,3830.477490,-2738.761985,5921.647536
2043.002092,3217.601092,-2886.803174,7254.018232
2043.002409,2298.286494,-3256.906145,7550.100608
2043.002726,1455.581446,-3849.070898,7846.182985
2043.003044,612.876398,-5329.482782,9548.656652
2043.003361,995.924147,-6143.709319,9622.677246
2043.003678,2987.772442,-5255.462188,9400.615463
2043.003996,3983.696590,-4959.379811,9030.512492
2043.004313,4673.182538,-3997.112087,7846.182985
2043.004630,6281.983084,-3849.070898,7105.977043
2043.004948,6205.373534,-4219.173869,6069.688724
2043.005265,5515.887586,-3256.906145,5921.647536
2043.005582,5209.449386,-2368.659014,5403.503377
2043.005900,5745.716235,-2072.576638,5625.565159
2043.006217,4749.792088,-2220.617826,6661.853478
2043.006534,3983.696590,-1628.453072,6957.935855
2043.006852,3064.381992,-3182.885551,7179.997637
2043.007169,2145.067394,-4811.338623,9178.553681
2043.007486,1532.190996,-5995.668130,11029.068536
2043.007804,689.485948,-4885.359217,10807.006753
2043.008121,1991.848295,-4145.153275,12065.356855
2043.008438,2221.676944,-3108.864956,12065.356855
2043.008756,2834.553343,-2220.617826,10955.047942
2043.009073,3370.820191,-1110.308913,9622.677246
2043.009391,4290.134789,-592.164754,9770.718434
2043.009708,4903.011187,-222.061783,9178.553681
2043.010025,5592.497135,962.267725,8734.430116
