#time,accel_x,accel_y,accel_z
1597.365403,689.485948,296.082377,9252.574275
1597.365720,689.485948,370.102971,9400.615463
1597.366037,766.095498,296.082377,9474.636058
1597.366354,919.314598,296.082377,9548.656652
1597.366672,995.924147,-74.020594,9696.697840
1597.366989,689.485948,296.082377,9474.636058
1597.367306,689.485948,518.144159,9474.636058
1597.367623,842.705048,370.102971,9474.636058
1597.367941,842.705048,296.082377,9474.636058
1597.368258,766.095498,296.082377,9474.636058
1597.368575,842.705048,148.041188,9326.594869
1597.368892,689.485948,222.061783,9326.594869
1597.369209,766.095498,148.041188,9548.656652
1597.369527,536.266849,-0.000000,9474.636058
1597.369844,919.314598,-0.000000,9326.594869
1597.370161,689.485948,222.061783,9400.615463
1597.370478,766.095498,222.061783,9474.636058
1597.370795,536.266849,518.144159,9474.636058
1597.371113,766.095498,222.061783,9622.677246
1597.371430,919.314598,222.061783,9400.615463
1597.371747,766.095498,296.082377,9622.677246
1597.372064,842.705048,222.061783,9400.615463
1597.372382,766.095498,222.061783,9400.615463
1597.372699,612.876398,-0.000000,9326.594869
1597.373016,689.485948,222.061783,9326.594869
1597.373333,689.485948,148.041188,9252.574275
1597.373650,842.705048,370.102971,9474.636058
1597.373968,919.314598,222.061783,9548.656652
1597.374285,612.876398,-0.000000,9252.574275
1597.374602,766.095498,-0.000000,9252.574275
1597.374919,612.876398,296.082377,9474.636058
1597.375236,689.485948,148.041188,9400.615463
1597.375554,612.876398,222.061783,9326.594869
1597.375871,689.485948,-0.000000,9622.677246
1597.376188,689.485948,222.061783,9252.574275
1597.376505,842.705048,296.082377,9400.615463
1597.376823,612.876398,370.102971,9548.656652
1597.377140,766.095498,222.061783,9474.636058
1597.377457,689.485948,148.041188,9252.574275
1597.377774,689.485948,-0.000000,9474.636058
1597.378091,1072.533697,370.102971,9400.615463
1597.378409,766.095498,296.082377,9326.594869
1597.378726,766.095498,296.082377,9474.636058
1597.379043,612.876398,370.102971,9474.636058
1597.379360,766.095498,148.041188,9400.615463
1597.379677,536.266849,222.061783,9474.636058
1597.379995,689.485948,370.102971,9474.636058
1597.380312,459.657299,370.102971,9474.636058
1597.380629,1149.143247,148.041188,9474.636058
1597.380946,536.266849,74.020594,9474.636058
1597.381264,689.485948,444.123565,9474.636058
1597.381581,612.876398,-0.000000,9474.636058
1597.381898,919.314598,-0.000000,9400.615463
1597.382215,995.924147,148.041188,9474.636058
1597.382532,766.095498,296.082377,9474.636058
1597.382850,612.876398,222.061783,9400.615463
1597.383167,919.314598,222.061783,9400.615463
1597.383484,995.924147,-0.000000,9400.615463
1597.383801,842.705048,222.061783,9326.594869
1597.384119,459.657299,148.041188,9474.636058
1597.384436,536.266849,296.082377,9474.636058
1597.384753,612.876398,444.123565,9326.594869
1597.385070,229.828649,296.082377,9474.636058
1597.385387,766.095498,148.041188,9622.677246
1597.385705,612.876398,296.082377,9548.656652
1597.386022,766.095498,296.082377,9474.636058
1597.386339,612.876398,370.102971,9474.636058
1597.386656,689.485948,222.061783,9474.636058
1597.386973,842.705048,-0.000000,9400.615463
1597.387291,536.266849,148.041188,9548.656652
1597.387608,689.485948,296.082377,9400.615463
1597.387925,842.705048,370.102971,9548.656652
1597.388242,842.705048,-148.041188,9696.697840
1597.388560,689.485948,222.061783,9474.636058
1597.388877,536.266849,-0.000000,9474.636058
1597.389194,766.095498,148.041188,9474.636058
1597.389511,995.924147,148.041188,9326.594869
1597.389828,766.095498,814.226536,9918.759623
1597.390146,766.095498,370.102971,9400.615463
1597.390463,612.876398,74.020594,9474.636058
1597.390780,919.314598,296.082377,9474.636058
1597.391097,612.876398,-0.000000,9474.636058
1597.391414,689.485948,74.020594,9252.574275
1597.391732,689.485948,148.041188,9474.636058
1597.392049,536.266849,148.041188,9474.636058
1597.392366,766.095498,-0.000000,9252.574275
1597.392683,689.485948,-0.000000,9622.677246
1597.393001,459.657299,666.185348,9622.677246
1597.393318,459.657299,148.041188,9326.594869
1597.393635,612.876398,222.061783,9696.697840
1597.393952,766.095498,222.061783,9474.636058
1597.394269,536.266849,-0.000000,9400.615463
1597.394587,536.266849,-0.000000,9178.553681
1597.394904,383.047749,-222.061783,9178.553681
1597.395221,536.266849,-370.102971,9326.594869
1597.395538,612.876398,-592.164754,9400.615463
1597.395855,229.828649,-518.144159,9252.574275
1597.396173,-153.219100,-740.205942,9252.574275
1597.396490,0.000000,-666.185348,9622.677246
1597.396807,0.000000,-740.205942,9326.594869
1597.397124,-383.047749,-666.185348,9104.533087
1597.397442,-1149.143247,-740.205942,9104.533087
1597.397759,-1072.533697,-962.267725,8734.430116
1597.398076,-919.314598,-962.267725,8808.450710
1597.398393,-1378.971896,-1554.432478,9252.574275
1597.398710,-1762.019645,-1850.514855,9474.636058
1597.399028,-1608.800546,-1998.556043,9400.615463
1597.399345,-1378.971896,-1554.432478,9474.636058
1597.399662,-1149.143247,-1110.308913,9178.553681
1597.399979,-1302.362347,-1036.288319,8956.491898
1597.400296,-1302.362347,-740.205942,8438.347739
1597.400614,-1302.362347,-1036.288319,8290.306550
1597.400931,-1225.752797,-1110.308913,8364.327145
1597.401248,-995.924147,-1924.535449,8734.430116
1597.401565,-1302.362347,-2368.659014,9548.656652
1597.401883,-1302.362347,-2368.659014,10066.800811
1597.402200,-1302.362347,-2886.803174,9918.759623
1597.402517,-1149.143247,-2590.720797,9992.780217
1597.402834,-1072.533697,-1998.556043,9474.636058
1597.403151,-689.485948,-1480.411884,9104.533087
1597.403469,-766.095498,-1628.453072,8956.491898
1597.403786,-919.314598,-1924.535449,8956.491898
1597.404103,-919.314598,-2442.679609,9030.512492
1597.404420,-1149.143247,-3552.988522,9770.718434
1597.404737,-1378.971896,-4367.215058,10214.842000
1597.405055,-1915.238745,-5033.400406,10658.965565
1597.405372,-2298.286494,-4737.318029,10732.986159
1597.405689,-2145.067394,-4293.194464,10140.821405
1597.406006,-2221.676944,-3849.070898,9918.759623
1597.406324,-2451.505594,-3849.070898,9696.697840
1597.406641,-2604.724693,-3256.906145,9474.636058
1597.406958,-2757.943793,-3256.906145,9622.677246
1597.407275,-3217.601092,-3775.050304,10066.800811
1597.407592,-3907.087040,-4219.173869,9992.780217
1597.407910,-4290.134789,-3997.112087,9844.739029
1597.408227,-4903.011187,-4145.153275,9622.677246
1597.408544,-5132.839837,-4367.215058,10288.862594
1597.408861,-4903.011187,-3849.070898,10362.883188
1597.409179,-4979.620737,-3775.050304,10584.944971
1597.409496,-4903.011187,-3701.029710,11103.089130
1597.409813,-4826.401637,-3330.926739,11103.089130
1597.410130,-4673.182538,-3108.864956,11103.089130
1597.410447,-4290.134789,-2294.638420,9992.780217
1597.410765,-4673.182538,-1554.432478,9696.697840
1597.411082,-3830.477490,-1406.391290,9178.553681
1597.411399,-3753.867940,-1554.432478,8882.471304
1597.411716,-3370.820191,-2146.597232,8956.491898
1597.412033,-3064.381992,-2886.803174,9548.656652
1597.412351,-3294.210641,-3478.967927,11029.068536
1597.412668,-2604.724693,-3997.112087,10436.903782
1597.412985,-1991.848295,-3552.988522,10140.821405
1597.413302,-995.924147,-2960.823768,9992.780217
1597.413620,-153.219100,-2220.617826,8586.388927
1597.413937,0.000000,-1332.370696,7476.080014
1597.414254,1302.362347,-1184.329507,7624.121203
1597.414571,1455.581446,-814.226536,7328.038826
1597.414888,1532.190996,-2072.576638,7994.224174
1597.415206,1302.362347,-2368.659014,8660.409521
1597.415523,842.705048,-2442.679609,8512.368333
1597.415840,536.266849,-2368.659014,8438.347739
1597.416157,536.266849,-2146.597232,8734.430116
1597.416474,306.438199,-2294.638420,9030.512492
1597.416792,536.266849,-1850.514855,9474.636058
1597.417109,153.219100,-1850.514855,9474.636058
1597.417426,76.609550,-2072.576638,10510.924376
1597.417743,0.000000,-2146.597232,10510.924376
1597.418061,-153.219100,-1628.453072,10214.842000
1597.418378,383.047749,-1480.411884,9992.780217
1597.418695,153.219100,-1332.370696,10288.862594
1597.419012,459.657299,-592.164754,10436.903782
1597.419329,536.266849,-74.020594,9104.533087
1597.419647,1072.533697,-0.000000,9326.594869
1597.419964,1532.190996,-0.000000,8364.327145
1597.420281,1608.800546,148.041188,7846.182985
1597.420598,1302.362347,-370.102971,8512.368333
1597.420915,1072.533697,-1184.329507,9030.512492
1597.421233,459.657299,-1184.329507,9474.636058
1597.421550,306.438199,-222.061783,9992.780217
1597.421867,229.828649,-0.000000,9992.780217
1597.422184,-383.047749,740.205942,9474.636058
1597.422502,-612.876398,1184.329507,9030.512492
1597.422819,-1762.019645,1258.350101,8438.347739
1597.423136,-2451.505594,1184.329507,8512.368333
1597.423453,-3140.991542,1258.350101,8216.285956
1597.423770,-3524.039291,148.041188,8956.491898
1597.424088,-4290.134789,-962.267725,9918.759623
1597.424405,-4749.792088,-2146.597232,11177.109724
1597.424722,-5286.058936,-2738.761985,11547.212695
1597.425039,-5745.716235,-2220.617826,12065.356855
1597.425356,-4979.620737,-1628.453072,11769.274478
1597.425674,-4749.792088,-666.185348,11843.295072
1597.425991,-4519.963438,-222.061783,10955.047942
1597.426308,-3983.696590,74.020594,9992.780217
1597.426625,-3907.087040,-0.000000,9326.594869
1597.426943,-3140.991542,-148.041188,9474.636058
1597.427260,-2911.162892,-814.226536,9474.636058
1597.427577,-2757.943793,-1850.514855,9474.636058
1597.427894,-2528.115143,-2738.761985,9548.656652
1597.428211,-2604.724693,-3182.885551,9918.759623
1597.428529,-2374.896044,-3701.029710,10881.027347
1597.428846,-2221.676944,-3775.050304,10140.821405
1597.429163,-2834.553343,-3627.009116,9918.759623
1597.429480,-2834.553343,-3923.091493,9770.718434
1597.429798,-2681.334243,-4515.256246,11473.192101
1597.430115,-2604.724693,-4367.215058,11621.233289
1597.430432,-2221.676944,-4293.194464,12139.377449
1597.430749,-1838.629195,-3552.988522,12509.480420
1597.431066,-995.924147,-2812.782580,12657.521608
1597.431384,612.876398,-2146.597232,11843.295072
1597.431701,2757.943793,-962.267725,10584.944971
1597.432018,4673.182538,-296.082377,9622.677246
1597.432335,6052.154434,-148.041188,8808.450710
1597.432652,7201.297681,-370.102971,7254.018232
1597.432970,7967.393179,-814.226536,6291.750507
1597.433287,8197.221829,-1702.473667,6587.832884
1597.433604,6894.859482,-2368.659014,6587.832884
1597.433921,6128.763984,-2368.659014,6217.729913
1597.434239,5592.497135,-2220.617826,6365.771101
1597.434556,4060.306139,-3182.885551,6809.894666
1597.434873,3140.991542,-3701.029710,8660.409521
1597.435190,2451.505594,-3256.906145,9548.656652
1597.435507,1915.238745,-1850.514855,9178.553681
1597.435825,2068.457845,-1036.288319,9252.574275
1597.436142,2221.676944,-962.267725,10214.842000
1597.436460,2298.286494,370.102971,9178.553681
1597.436777,3140.991542,1628.453072,8068.244768
1597.437095,3600.648841,1702.473667,7328.038826
1597.437412,3370.820191,1258.350101,7179.997637
1597.437730,3677.258390,1258.350101,7254.018232
1597.438047,3370.820191,1258.350101,6217.729913
1597.438364,2528.115143,962.267725,6069.688724
1597.438682,1608.800546,370.102971,6217.729913
1597.438999,689.485948,518.144159,6661.853478
1597.439317,-306.438199,1184.329507,5773.606348
1597.439634,-1608.800546,-0.000000,6365.771101
1597.439952,-3140.991542,-1036.288319,8364.327145
1597.440269,-4213.525239,-1554.432478,9770.718434
1597.440587,-5362.668486,-1406.391290,9992.780217
1597.440904,-5898.935335,-1776.494261,10955.047942
1597.441222,-6128.763984,-1628.453072,11991.336260
1597.441539,-5669.106685,-444.123565,11843.295072
1597.441856,-4596.572988,888.247130,11473.192101
1597.442174,-3600.648841,2072.576638,10584.944971
1597.442491,-1532.190996,2442.679609,10066.800811
1597.442809,-766.095498,3478.967927,9474.636058
1597.443126,0.000000,4441.235652,9104.533087
1597.443444,459.657299,3849.070898,8808.450710
1597.443761,383.047749,2812.782580,8882.471304
1597.444079,76.609550,2812.782580,9252.574275
1597.444396,-536.266849,2738.761985,9104.533087
1597.444714,-766.095498,1850.514855,9326.594869
1597.445031,-1302.362347,888.247130,10436.903782
1597.445349,-1532.190996,518.144159,11621.233289
1597.445666,-1378.971896,370.102971,11991.336260
1597.445983,-995.924147,-0.000000,12287.418637
1597.446301,-459.657299,-592.164754,13175.665768
1597.446618,0.000000,222.061783,11917.315666
1597.446936,383.047749,1850.514855,11991.336260
1597.447253,2221.676944,2590.720797,11029.068536
1597.447571,3217.601092,3256.906145,10436.903782
1597.447888,4060.306139,2516.700203,10881.027347
1597.448206,4519.963438,2738.761985,10658.965565
1597.448523,4443.353888,2516.700203,9622.677246
1597.448841,4826.401637,1776.494261,9548.656652
1597.449158,4749.792088,814.226536,9992.780217
1597.449475,3753.867940,740.205942,9178.553681
1597.449793,3907.087040,814.226536,9400.615463
1597.450110,2757.943793,-740.205942,9696.697840
1597.450428,2374.896044,-1258.350101,11251.130318
1597.450745,1991.848295,-1258.350101,11695.253884
1597.451063,919.314598,-1332.370696,11399.171507
1597.451380,689.485948,-1998.556043,12287.418637
1597.451698,459.657299,-2368.659014,12731.542202
1597.452015,766.095498,-1998.556043,11695.253884
1597.452333,1225.752797,-0.000000,10140.821405
1597.452650,2834.553343,-74.020594,9770.718434
1597.452967,3294.210641,-222.061783,8956.491898
1597.453285,3830.477490,-148.041188,8142.265362
1597.453602,3753.867940,518.144159,7698.141797
1597.453920,3140.991542,222.061783,6809.894666
1597.454237,2834.553343,-666.185348,6809.894666
1597.454555,2221.676944,-0.000000,7105.977043
1597.454872,1149.143247,-0.000000,6365.771101
1597.455190,612.876398,-370.102971,6883.915261
1597.455507,229.828649,-1258.350101,7920.203579
1597.455825,-612.876398,-1554.432478,8512.368333
1597.456142,-995.924147,-1480.411884,8364.327145
1597.456459,-2221.676944,-1850.514855,8216.285956
1597.456777,-2221.676944,-2146.597232,8956.491898
1597.457094,-1991.848295,-1776.494261,9326.594869
1597.457412,-1455.581446,-1036.288319,7994.224174
1597.457729,-766.095498,-740.205942,8216.285956
1597.458047,-1149.143247,-1036.288319,8364.327145
1597.458364,-689.485948,-814.226536,7994.224174
1597.458682,-383.047749,-74.020594,7328.038826
1597.458999,-229.828649,-74.020594,7179.997637
1597.459317,-383.047749,-518.144159,6513.812290
1597.459634,-306.438199,-0.000000,6587.832884
1597.459951,-229.828649,1036.288319,6661.853478
1597.460269,-383.047749,296.082377,6365.771101
1597.460586,-919.314598,-888.247130,7402.059420
1597.460904,-1072.533697,-1406.391290,9030.512492
1597.461221,-1302.362347,-740.205942,9474.636058
1597.461539,-1838.629195,-740.205942,9844.739029
1597.461856,-1608.800546,-888.247130,10732.986159
1597.462174,-1302.362347,-296.082377,10881.027347
1597.462491,-306.438199,1036.288319,10584.944971
1597.462809,153.219100,1628.453072,9770.718434
1597.463126,842.705048,962.267725,10584.944971
1597.463443,1225.752797,1036.288319,10436.903782
1597.463761,1608.800546,1554.432478,10066.800811
1597.464078,2068.457845,2220.617826,9548.656652
1597.464396,2068.457845,1776.494261,10066.800811
1597.464713,2068.457845,1554.432478,9770.718434
1597.465031,2068.457845,2368.659014,9474.636058
1597.465348,2374.896044,2664.741391,9178.553681
1597.465666,2604.724693,1480.411884,9400.615463
1597.465983,2681.334243,888.247130,10732.986159
1597.466301,2451.505594,370.102971,11103.089130
1597.466618,2834.553343,666.185348,10955.047942
1597.466936,2374.896044,148.041188,11399.171507
1597.467253,2604.724693,1332.370696,12139.377449
1597.467570,2911.162892,2812.782580,11547.212695
1597.467888,3294.210641,4219.173869,10436.903782
1597.468205,4443.353888,3701.029710,11103.089130
1597.468523,4060.306139,3478.967927,11399.171507
1597.468840,4136.915689,3997.112087,10807.006753
1597.469158,4213.525239,3701.029710,9770.718434
1597.469475,3294.210641,2516.700203,9992.780217
1597.469793,2681.334243,2146.597232,10436.903782
1597.470110,2451.505594,2442.679609,9696.697840
1597.470428,2068.457845,2886.803174,8808.450710
1597.470745,1149.143247,1850.514855,9326.594869
1597.471062,689.485948,962.267725,10288.862594
1597.471380,459.657299,1110.308913,10214.842000
1597.471697,-76.609550,1110.308913,10140.821405
1597.472015,-1072.533697,296.082377,10510.924376
1597.472332,-1378.971896,444.123565,10732.986159
1597.472650,-612.876398,1480.411884,10288.862594
1597.472967,-842.705048,1924.535449,9696.697840
1597.473285,-383.047749,1406.391290,9474.636058
1597.473602,-153.219100,1776.494261,9696.697840
1597.473920,229.828649,2146.597232,9474.636058
1597.474237,229.828649,2368.659014,8290.306550
1597.474554,0.000000,1924.535449,8068.244768
1597.474872,-229.828649,1480.411884,8216.285956
1597.475189,-306.438199,1924.535449,7846.182985
1597.475507,-536.266849,2146.597232,6587.832884
1597.475824,-995.924147,1110.308913,6735.874072
1597.476142,-919.314598,-296.082377,8512.368333
1597.476459,-1225.752797,-962.267725,8956.491898
1597.476777,-1378.971896,-1184.329507,9030.512492
1597.477094,-1685.410096,-1406.391290,9030.512492
1597.477412,-1378.971896,-1480.411884,9548.656652
1597.477729,-842.705048,-296.082377,9326.594869
1597.478046,-229.828649,370.102971,8660.409521
1597.478364,919.314598,-0.000000,8956.491898
1597.478681,1225.752797,296.082377,9252.574275
1597.478999,1838.629195,1110.308913,8512.368333
1597.479316,2298.286494,740.205942,7994.224174
1597.479634,2528.115143,-0.000000,7772.162391
1597.479951,2604.724693,-370.102971,7550.100608
1597.480269,2221.676944,-592.164754,7920.203579
1597.480586,2145.067394,-0.000000,8068.244768
1597.480904,2068.457845,-444.123565,7920.203579
1597.481221,1991.848295,-592.164754,8512.368333
1597.481538,1532.190996,-1406.391290,10510.924376
1597.481856,1378.971896,-1850.514855,10436.903782
1597.482173,766.095498,-1998.556043,10510.924376
1597.482491,995.924147,-2368.659014,11695.253884
1597.482808,766.095498,-1702.473667,11547.212695
1597.483126,1608.800546,-1036.288319,10955.047942
1597.483443,2221.676944,-296.082377,9992.780217
1597.483761,2834.553343,-666.185348,10362.883188
1597.484078,2987.772442,-444.123565,10584.944971
1597.484396,3370.820191,222.061783,9548.656652
1597.484713,2911.162892,-0.000000,8216.285956
1597.485031,2987.772442,-814.226536,8586.388927
1597.485348,2987.772442,-296.082377,8364.327145
1597.485665,2987.772442,-0.000000,7476.080014
1597.485983,2451.505594,-74.020594,7476.080014
1597.486300,1762.019645,-666.185348,8586.388927
1597.486618,1149.143247,-666.185348,9548.656652
1597.486935,612.876398,-0.000000,9992.780217
1597.487253,-229.828649,-0.000000,10140.821405
1597.487570,-1149.143247,-148.041188,11325.150913
1597.487888,-995.924147,-0.000000,11695.253884
1597.488205,-536.266849,1480.411884,10362.883188
1597.488523,-229.828649,1998.556043,9844.739029
1597.488840,229.828649,1554.432478,10288.862594
1597.489157,842.705048,1776.494261,9696.697840
1597.489475,1762.019645,1850.514855,8808.450710
1597.489792,1608.800546,2220.617826,8216.285956
1597.490110,1072.533697,1850.514855,7920.203579
1597.490427,1072.533697,1850.514855,7624.121203
1597.490745,842.705048,2516.700203,7179.997637
1597.491062,766.095498,2294.638420,7105.977043
1597.491380,0.000000,1258.350101,8290.306550
1597.491697,-306.438199,148.041188,9474.636058
1597.492015,-766.095498,-0.000000,10214.842000
1597.492332,-1455.581446,222.061783,9992.780217
1597.492649,-1838.629195,-222.061783,10658.965565
1597.492967,-2145.067394,222.061783,11695.253884
1597.493284,-1225.752797,1184.329507,11251.130318
1597.493602,-1072.533697,2220.617826,9992.780217
1597.493919,-1072.533697,1628.453072,10732.986159
1597.494237,-383.047749,1628.453072,10807.006753
1597.494554,383.047749,2072.576638,9918.759623
1597.494872,919.314598,2072.576638,9178.553681
1597.495189,689.485948,1480.411884,8438.347739
1597.495507,1225.752797,1184.329507,9326.594869
1597.495824,1149.143247,888.247130,8586.388927
1597.496141,1149.143247,962.267725,7624.121203
1597.496459,536.266849,-0.000000,8438.347739
1597.496776,-153.219100,-814.226536,9844.739029
1597.497094,-383.047749,-888.247130,10510.924376
1597.497411,-536.266849,-592.164754,9770.718434
1597.497729,-229.828649,-1258.350101,11177.109724
1597.498046,-995.924147,-740.205942,11769.274478
1597.498364,-459.657299,-0.000000,11325.150913
1597.498681,536.266849,740.205942,10140.821405
1597.498999,842.705048,962.267725,9918.759623
1597.499316,1608.800546,444.123565,10584.944971
1597.499633,2145.067394,740.205942,10140.821405
1597.499951,2374.896044,592.164754,9474.636058
1597.500268,2451.505594,222.061783,8808.450710
1597.500586,2068.457845,-518.144159,9252.574275
1597.500903,2604.724693,-296.082377,9030.512492
1597.501221,2145.067394,-148.041188,7772.162391
1597.501538,1685.410096,-740.205942,7772.162391
1597.501856,1532.190996,-1924.535449,9474.636058
1597.502173,919.314598,-1924.535449,9548.656652
1597.502491,1072.533697,-1924.535449,9474.636058
1597.502808,459.657299,-3182.885551,10214.842000
1597.503125,-153.219100,-3108.864956,10955.047942
1597.503443,383.047749,-2516.700203,10955.047942
1597.503760,766.095498,-1480.411884,9770.718434
1597.504078,919.314598,-1628.453072,9696.697840
1597.504395,1762.019645,-1184.329507,9696.697840
1597.504713,2145.067394,-740.205942,9474.636058
1597.505030,2451.505594,148.041188,8586.388927
1597.505348,3064.381992,-0.000000,7105.977043
1597.505665,2374.896044,-592.164754,7772.162391
1597.505983,2221.676944,-222.061783,7772.162391
1597.506300,2221.676944,-0.000000,6809.894666
1597.506618,1685.410096,-444.123565,6883.915261
1597.506935,919.314598,-1702.473667,8660.409521
1597.507252,153.219100,-2220.617826,9474.636058
1597.507570,-229.828649,-1998.556043,9474.636058
1597.507887,-1225.752797,-2220.617826,9400.615463
1597.508205,-1685.410096,-2220.617826,10362.883188
1597.508522,-1378.971896,-1258.350101,9918.759623
1597.508840,-766.095498,-592.164754,9400.615463
1597.509157,-459.657299,-296.082377,9326.594869
1597.509475,-153.219100,-444.123565,9474.636058
1597.509792,536.266849,-0.000000,9474.636058
1597.510110,1225.752797,518.144159,8882.471304
1597.510427,1608.800546,740.205942,8216.285956
1597.510744,1455.581446,666.185348,8068.244768
1597.511062,1608.800546,740.205942,7402.059420
1597.511379,1455.581446,1702.473667,7476.080014
1597.511697,1149.143247,1628.453072,7179.997637
1597.512014,842.705048,1036.288319,7920.203579
1597.512332,0.000000,-0.000000,9178.553681
1597.512649,-306.438199,-0.000000,9548.656652
1597.512967,-1149.143247,-592.164754,9992.780217
1597.513284,-1762.019645,-740.205942,10807.006753
1597.513602,-2298.286494,-444.123565,11251.130318
1597.513919,-1762.019645,370.102971,10807.006753
1597.514236,-1762.019645,740.205942,10584.944971
1597.514554,-995.924147,888.247130,11029.068536
1597.514871,-612.876398,1110.308913,11251.130318
1597.515189,76.609550,1554.432478,10584.944971
1597.515506,536.266849,1480.411884,9770.718434
1597.515824,689.485948,1110.308913,9844.739029
1597.516141,689.485948,962.267725,9696.697840
1597.516459,1455.581446,1406.391290,9030.512492
1597.516776,1991.848295,1258.350101,8216.285956
1597.517094,1302.362347,1258.350101,8808.450710
1597.517411,995.924147,148.041188,9548.656652
1597.517728,1072.533697,-0.000000,9918.759623
1597.518046,689.485948,-370.102971,9992.780217
1597.518363,76.609550,-1036.288319,11103.089130
1597.518681,-689.485948,-518.144159,11177.109724
1597.518998,-306.438199,222.061783,11103.089130
1597.519316,-306.438199,814.226536,10436.903782
1597.519633,229.828649,370.102971,10658.965565
1597.519951,536.266849,-0.000000,10955.047942
1597.520268,766.095498,666.185348,10584.944971
1597.520586,1455.581446,518.144159,9918.759623
1597.520903,1608.800546,-0.000000,9252.574275
1597.521220,1915.238745,-444.123565,9474.636058
1597.521538,1838.629195,-0.000000,9400.615463
1597.521855,2221.676944,-0.000000,8216.285956
1597.522173,2068.457845,-0.000000,7846.182985
1597.522490,1762.019645,-814.226536,9030.512492
1597.522808,1532.190996,-518.144159,9178.553681
1597.523125,1302.362347,-740.205942,8956.491898
1597.523443,1302.362347,-1406.391290,9474.636058
1597.523760,689.485948,-1776.494261,9918.759623
1597.524078,689.485948,-1036.288319,9918.759623
1597.524395,1072.533697,-0.000000,9252.574275
1597.524712,919.314598,-0.000000,9326.594869
1597.525030,689.485948,-222.061783,9844.739029
1597.525347,1149.143247,-0.000000,10066.800811
1597.525665,1915.238745,444.123565,8882.471304
1597.525982,1762.019645,222.061783,8290.306550
1597.526300,1072.533697,-518.144159,8734.430116
1597.526617,1302.362347,-148.041188,8586.388927
1597.526935,1072.533697,222.061783,7105.977043
1597.527252,919.314598,-518.144159,7105.977043
1597.527570,689.485948,-1480.411884,8586.388927
1597.527887,229.828649,-1406.391290,9104.533087
1597.528205,76.609550,-814.226536,8734.430116
1597.528522,0.000000,-1258.350101,8882.471304
1597.528839,-229.828649,-1258.350101,9696.697840
1597.529157,0.000000,-592.164754,9622.677246
1597.529474,383.047749,296.082377,8586.388927
1597.529792,383.047749,296.082377,8734.430116
1597.530109,536.266849,-0.000000,9548.656652
1597.530427,1225.752797,296.082377,9548.656652
1597.530744,1608.800546,740.205942,9252.574275
1597.531062,1608.800546,814.226536,7994.224174
1597.531379,842.705048,444.123565,8660.409521
1597.531697,1225.752797,666.185348,8660.409521
1597.532014,612.876398,1258.350101,7920.203579
1597.532331,459.657299,1110.308913,7846.182985
1597.532649,-459.657299,74.020594,8882.471304
1597.532966,-306.438199,-148.041188,9992.780217
1597.533284,-459.657299,148.041188,10066.800811
1597.533601,-689.485948,-0.000000,10214.842000
1597.533919,-919.314598,-222.061783,11103.089130
1597.534236,-766.095498,-0.000000,11325.150913
1597.534554,0.000000,1036.288319,10807.006753
1597.534871,612.876398,1036.288319,10214.842000
1597.535188,1072.533697,1332.370696,9992.780217
1597.535506,2145.067394,1702.473667,10140.821405
1597.535823,2451.505594,2146.597232,9178.553681
1597.536140,2681.334243,1924.535449,8734.430116
1597.536458,2451.505594,1776.494261,8586.388927
1597.536775,2298.286494,1924.535449,8956.491898
1597.537093,1991.848295,1998.556043,8882.471304
1597.537410,1072.533697,1554.432478,8660.409521
1597.537727,229.828649,888.247130,9696.697840
1597.538045,76.609550,666.185348,11399.171507
1597.538362,-919.314598,1036.288319,11177.109724
1597.538680,-459.657299,518.144159,10584.944971
1597.538997,-1225.752797,518.144159,11399.171507
1597.539314,-842.705048,-148.041188,12287.418637
1597.539632,-842.705048,814.226536,11177.109724
1597.539949,-306.438199,888.247130,10510.924376
1597.540267,0.000000,888.247130,10436.903782
1597.540584,766.095498,370.102971,11029.068536
1597.540901,1685.410096,148.041188,10732.986159
1597.541219,1685.410096,444.123565,9400.615463
1597.541536,1608.800546,-0.000000,8882.471304
1597.541854,1838.629195,444.123565,8808.450710
1597.542171,1991.848295,592.164754,8364.327145
1597.542488,2068.457845,518.144159,7994.224174
1597.542806,1225.752797,296.082377,8142.265362
1597.543123,766.095498,-222.061783,9474.636058
1597.543441,612.876398,-666.185348,10362.883188
1597.543758,459.657299,-814.226536,10140.821405
1597.544075,0.000000,-1036.288319,10584.944971
1597.544393,0.000000,-592.164754,11325.150913
1597.544710,536.266849,-0.000000,10362.883188
1597.545028,842.705048,740.205942,9474.636058
1597.545345,1608.800546,1036.288319,9400.615463
1597.545662,1532.190996,1036.288319,8660.409521
1597.545980,2298.286494,1184.329507,9104.533087
1597.546297,2604.724693,222.061783,8364.327145
1597.546615,2451.505594,-0.000000,7698.141797
1597.546932,1991.848295,-74.020594,7698.141797
1597.547249,1608.800546,-148.041188,7994.224174
1597.547567,1455.581446,296.082377,7031.956449
1597.547884,1072.533697,-148.041188,7031.956449
1597.548202,842.705048,-592.164754,8290.306550
1597.548519,612.876398,-1406.391290,9252.574275
1597.548836,459.657299,-518.144159,8512.368333
1597.549154,-229.828649,-666.185348,8808.450710
1597.549471,0.000000,-222.061783,9622.677246
1597.549789,0.000000,592.164754,9252.574275
1597.550106,995.924147,1332.370696,8512.368333
1597.550423,1072.533697,1924.535449,8068.244768
1597.550741,1608.800546,1702.473667,8808.450710
1597.551058,1991.848295,1480.411884,8808.450710
1597.551376,1378.971896,2072.576638,7698.141797
1597.551693,1838.629195,1184.329507,7254.018232
1597.552010,1685.410096,1628.453072,7550.100608
1597.552328,995.924147,1406.391290,7846.182985
1597.552645,612.876398,1628.453072,7476.080014
1597.552963,229.828649,962.267725,7994.224174
1597.553280,-612.876398,296.082377,9326.594869
1597.553597,-689.485948,-518.144159,10362.883188
1597.553915,-1072.533697,-592.164754,10658.965565
1597.554232,-1762.019645,-740.205942,10881.027347
1597.554550,-1455.581446,-1184.329507,11325.150913
1597.554867,-1225.752797,-148.041188,11547.212695
1597.555184,-383.047749,888.247130,10732.986159
1597.555502,383.047749,1628.453072,10140.821405
1597.555819,842.705048,1554.432478,10288.862594
1597.556137,1915.238745,1406.391290,10955.047942
1597.556454,1915.238745,2146.597232,9770.718434
1597.556771,2145.067394,2516.700203,8956.491898
1597.557089,1685.410096,1628.453072,9622.677246
1597.557406,1225.752797,1406.391290,10140.821405
1597.557723,1378.971896,1036.288319,9770.718434
1597.558041,842.705048,1406.391290,9474.636058
1597.558358,689.485948,888.247130,10510.924376
1597.558676,306.438199,-0.000000,11547.212695
1597.558993,153.219100,-222.061783,11325.150913
1597.559310,0.000000,-888.247130,11621.233289
1597.559628,0.000000,-740.205942,11917.315666
1597.559945,919.314598,222.061783,11991.336260
1597.560263,1838.629195,962.267725,10807.006753
1597.560580,3064.381992,2146.597232,9844.739029
1597.560897,3140.991542,1776.494261,9548.656652
1597.561215,3983.696590,1702.473667,9918.759623
1597.561532,4749.792088,1924.535449,9326.594869
1597.561850,4596.572988,1702.473667,8734.430116
1597.562167,4060.306139,1776.494261,7846.182985
1597.562484,3830.477490,1998.556043,8660.409521
1597.562802,3064.381992,1998.556043,7624.121203
1597.563119,1991.848295,2146.597232,7402.059420
1597.563437,995.924147,666.185348,9178.553681
1597.563754,229.828649,-222.061783,9918.759623
1597.564071,0.000000,296.082377,10881.027347
1597.564389,-1072.533697,-296.082377,10214.842000
1597.564706,-1378.971896,-888.247130,10658.965565
1597.565024,-1225.752797,-518.144159,11251.130318
1597.565341,-306.438199,592.164754,10288.862594
1597.565658,-459.657299,1110.308913,7920.203579
1597.565976,229.828649,1184.329507,8586.388927
1597.566293,842.705048,518.144159,8882.471304
1597.566611,1838.629195,-222.061783,8956.491898
1597.566928,1608.800546,-148.041188,8216.285956
1597.567245,919.314598,-296.082377,6883.915261
1597.567563,689.485948,-74.020594,7476.080014
1597.567880,1455.581446,444.123565,7105.977043
1597.568198,306.438199,-0.000000,6291.750507
1597.568515,-459.657299,-1258.350101,7328.038826
1597.568832,-1685.410096,-1702.473667,8734.430116
1597.569150,-1762.019645,-2072.576638,10214.842000
1597.569467,-1991.848295,-1406.391290,9844.739029
1597.569785,-2451.505594,-1110.308913,10362.883188
1597.570102,-2528.115143,-1332.370696,10955.047942
1597.570419,-2145.067394,-814.226536,10362.883188
1597.570737,-995.924147,-814.226536,9844.739029
1597.571054,-536.266849,-1110.308913,10140.821405
1597.571372,536.266849,-74.020594,9622.677246
1597.571689,1915.238745,-0.000000,8512.368333
1597.572006,2145.067394,-0.000000,7846.182985
1597.572324,2834.553343,-444.123565,7328.038826
1597.572641,2834.553343,-444.123565,7031.956449
1597.572959,3140.991542,222.061783,7328.038826
1597.573276,3370.820191,592.164754,7031.956449
1597.573593,2834.553343,296.082377,6217.729913
1597.573911,2374.896044,-518.144159,8586.388927
1597.574228,2068.457845,-1406.391290,9622.677246
1597.574546,1762.019645,-592.164754,9548.656652
1597.574863,1455.581446,-814.226536,9770.718434
1597.575180,1072.533697,-444.123565,10807.006753
1597.575498,1072.533697,-666.185348,11473.192101
1597.575815,1225.752797,296.082377,10584.944971
1597.576133,1608.800546,148.041188,10362.883188
1597.576450,1378.971896,444.123565,10881.027347
1597.576767,1991.848295,814.226536,11325.150913
1597.577085,2757.943793,814.226536,10066.800811
1597.577402,2834.553343,814.226536,8512.368333
1597.577720,2528.115143,592.164754,9326.594869
1597.578037,2451.505594,296.082377,8512.368333
1597.578354,2681.334243,740.205942,7105.977043
1597.578672,3064.381992,888.247130,7624.121203
1597.578989,1685.410096,370.102971,8216.285956
1597.579306,1072.533697,-0.000000,9400.615463
1597.579624,229.828649,-444.123565,10214.842000
1597.579941,-842.705048,-740.205942,10584.944971
1597.580259,-1532.190996,-740.205942,11769.274478
1597.580576,-1685.410096,-370.102971,11769.274478
1597.580893,-1838.629195,222.061783,11695.253884
1597.581211,-1762.019645,370.102971,11695.253884
1597.581528,-1532.190996,740.205942,11325.150913
1597.581846,-1378.971896,814.226536,11103.089130
1597.582163,-995.924147,962.267725,10732.986159
1597.582480,-766.095498,1258.350101,9474.636058
1597.582798,-995.924147,1258.350101,9400.615463
1597.583115,-1455.581446,814.226536,10066.800811
1597.583433,-1149.143247,666.185348,8956.491898
1597.583750,-1225.752797,1332.370696,8364.327145
1597.584067,-1072.533697,148.041188,9326.594869
1597.584385,-1225.752797,-370.102971,9918.759623
1597.584702,-612.876398,-888.247130,10362.883188
1597.585020,-842.705048,-370.102971,9400.615463
1597.585337,-306.438199,-740.205942,9992.780217
1597.585654,-536.266849,148.041188,10140.821405
1597.585972,689.485948,296.082377,10955.047942
1597.586289,766.095498,1036.288319,9178.553681
1597.586607,919.314598,1628.453072,9178.553681
1597.586924,2221.676944,1332.370696,8882.471304
1597.587241,2068.457845,1554.432478,9030.512492
1597.587559,2681.334243,222.061783,9622.677246
1597.587876,2681.334243,370.102971,8734.430116
1597.588194,2221.676944,148.041188,8808.450710
1597.588511,2145.067394,962.267725,8660.409521
1597.588828,2298.286494,666.185348,7624.121203
1597.589146,2834.553343,740.205942,7920.203579
1597.589463,1225.752797,-0.000000,8586.388927
1597.589781,842.705048,-1258.350101,9474.636058
1597.590098,612.876398,-1332.370696,10362.883188
1597.590415,612.876398,-1702.473667,11251.130318
1597.590733,306.438199,-1110.308913,10510.924376
1597.591050,995.924147,-0.000000,9400.615463
1597.591368,1225.752797,814.226536,8438.347739
1597.591685,2068.457845,-0.000000,8438.347739
1597.592002,2987.772442,888.247130,8068.244768
1597.592320,2987.772442,-148.041188,8364.327145
1597.592637,1838.629195,-666.185348,8068.244768
1597.592955,2068.457845,-222.061783,8734.430116
1597.593272,1455.581446,-296.082377,8142.265362
1597.593589,919.314598,-444.123565,8290.306550
1597.593907,0.000000,-888.247130,7846.182985
1597.594224,-1149.143247,-1184.329507,8808.450710
1597.594542,-842.705048,-2368.659014,11399.171507
1597.594859,-612.876398,-2146.597232,10732.986159
1597.595176,-1149.143247,-2516.700203,10066.800811
1597.595494,-1532.190996,-2072.576638,10214.842000
1597.595811,-1149.143247,-1628.453072,10140.821405
1597.596129,-536.266849,-740.205942,9474.636058
1597.596446,0.000000,-148.041188,9178.553681
1597.596763,-229.828649,518.144159,8586.388927
1597.597081,-306.438199,666.185348,9104.533087
1597.597398,1378.971896,-740.205942,10362.883188
1597.597716,1149.143247,-1258.350101,9696.697840
1597.598033,1685.410096,-1258.350101,9030.512492
1597.598350,1072.533697,-148.041188,7846.182985
1597.598668,1762.019645,814.226536,8438.347739
1597.598985,2604.724693,666.185348,8364.327145
1597.599302,1532.190996,592.164754,7994.224174
1597.599620,306.438199,-148.041188,8956.491898
1597.599937,0.000000,-0.000000,11103.089130
1597.600255,306.438199,-0.000000,10140.821405
1597.600572,-229.828649,740.205942,10436.903782
1597.600889,-306.438199,-370.102971,10584.944971
1597.601207,-459.657299,-370.102971,11547.212695
1597.601524,-306.438199,-370.102971,9770.718434
1597.601842,1072.533697,-1110.308913,11547.212695
1597.602159,766.095498,-740.205942,9548.656652
1597.602476,1991.848295,1258.350101,9992.780217
1597.602794,2451.505594,1406.391290,9252.574275
1597.603111,2068.457845,1554.432478,7772.162391
1597.603429,612.876398,1702.473667,7624.121203
1597.603746,1225.752797,740.205942,9696.697840
1597.604063,459.657299,1258.350101,8882.471304
1597.604381,995.924147,1332.370696,7772.162391
1597.604698,229.828649,1258.350101,8660.409521
1597.605016,229.828649,-148.041188,9548.656652
1597.605333,536.266849,148.041188,9622.677246
1597.605650,612.876398,-814.226536,8734.430116
1597.605968,-383.047749,-740.205942,9844.739029
1597.606285,-995.924147,-296.082377,10140.821405
1597.606603,-766.095498,1036.288319,10510.924376
1597.606920,-536.266849,296.082377,10066.800811
1597.607237,-919.314598,1036.288319,10140.821405
1597.607555,-919.314598,666.185348,10510.924376
1597.607872,-306.438199,814.226536,10955.047942
1597.608190,919.314598,444.123565,9844.739029
1597.608507,1455.581446,296.082377,8956.491898
1597.608824,2145.067394,370.102971,9326.594869
1597.609142,1225.752797,1258.350101,8290.306550
1597.609459,1915.238745,740.205942,7846.182985
1597.609777,2221.676944,444.123565,7920.203579
1597.610094,1762.019645,-0.000000,9326.594869
1597.610411,1608.800546,-0.000000,10362.883188
1597.610729,1149.143247,-148.041188,9548.656652
1597.611046,1608.800546,148.041188,9548.656652
1597.611364,1685.410096,296.082377,9918.759623
1597.611681,1685.410096,740.205942,9696.697840
1597.611998,2298.286494,148.041188,8364.327145
1597.612316,2221.676944,814.226536,8512.368333
1597.612633,2068.457845,666.185348,9696.697840
1597.612951,1991.848295,740.205942,9844.739029
1597.613268,1685.410096,370.102971,8660.409521
1597.613585,1149.143247,592.164754,8734.430116
1597.613903,153.219100,222.061783,9696.697840
1597.614220,-383.047749,-0.000000,9474.636058
1597.614538,-689.485948,444.123565,8882.471304
1597.614855,-612.876398,296.082377,9400.615463
1597.615172,0.000000,518.144159,10288.862594
1597.615490,229.828649,222.061783,9474.636058
1597.615807,0.000000,296.082377,9030.512492
1597.616125,-459.657299,-0.000000,9474.636058
1597.616442,0.000000,1036.288319,9918.759623
1597.616759,0.000000,1554.432478,10214.842000
1597.617077,0.000000,1924.535449,8956.491898
1597.617394,-1072.533697,1702.473667,7550.100608
1597.617712,-612.876398,888.247130,9696.697840
1597.618029,153.219100,-148.041188,11399.171507
1597.618346,842.705048,740.205942,9474.636058
1597.618664,612.876398,1036.288319,9104.533087
1597.618981,536.266849,1036.288319,8216.285956
1597.619299,612.876398,814.226536,9030.512492
1597.619616,1455.581446,-222.061783,8882.471304
1597.619933,0.000000,-962.267725,9400.615463
1597.620251,-612.876398,-518.144159,10881.027347
1597.620568,-306.438199,296.082377,10955.047942
1597.620885,-229.828649,518.144159,10214.842000
1597.621203,459.657299,74.020594,10955.047942
1597.621520,-459.657299,-148.041188,10658.965565
1597.621838,153.219100,-0.000000,10140.821405
1597.622155,1532.190996,888.247130,9992.780217
1597.622472,3447.429741,740.205942,9992.780217
1597.622790,3677.258390,1332.370696,9252.574275
1597.623107,3677.258390,592.164754,9474.636058
1597.623425,3294.210641,-666.185348,9622.677246
1597.623742,2987.772442,-1110.308913,9252.574275
1597.624059,2451.505594,-222.061783,8956.491898
1597.624377,1838.629195,370.102971,10510.924376
1597.624694,1532.190996,1850.514855,8808.450710
1597.625012,1991.848295,1850.514855,7624.121203
1597.625329,1225.752797,222.061783,9474.636058
1597.625646,1302.362347,-888.247130,10584.944971
1597.625964,1302.362347,-814.226536,9696.697840
1597.626281,1378.971896,-888.247130,9474.636058
1597.626599,1225.752797,-666.185348,9992.780217
1597.626916,1072.533697,-148.041188,10436.903782
1597.627233,1378.971896,444.123565,10066.800811
1597.627551,1608.800546,666.185348,9104.533087
1597.627868,1302.362347,1776.494261,8660.409521
1597.628186,2298.286494,2294.638420,8734.430116
1597.628503,2681.334243,1554.432478,7772.162391
1597.628820,2451.505594,1332.370696,6883.915261
1597.629138,1915.238745,592.164754,6957.935855
1597.629455,1149.143247,888.247130,6883.915261
1597.629773,612.876398,962.267725,7105.977043
1597.630090,766.095498,444.123565,7550.100608
1597.630407,-383.047749,-0.000000,8512.368333
1597.630725,-1378.971896,-296.082377,10214.842000
1597.631042,-2298.286494,-1184.329507,10658.965565
1597.631360,-2451.505594,-1702.473667,10436.903782
1597.631677,-2451.505594,-888.247130,11325.150913
1597.631994,-2068.457845,222.061783,10658.965565
1597.632312,-1149.143247,1184.329507,9474.636058
1597.632629,229.828649,1332.370696,9400.615463
1597.632947,383.047749,1184.329507,9326.594869
1597.633264,1302.362347,888.247130,9104.533087
1597.633581,1225.752797,148.041188,9030.512492
1597.633899,1072.533697,148.041188,9696.697840
1597.634216,919.314598,-74.020594,9178.553681
1597.634534,919.314598,-148.041188,8586.388927
1597.634851,306.438199,296.082377,8956.491898
1597.635168,306.438199,518.144159,9030.512492
1597.635486,229.828649,-222.061783,8956.491898
1597.635803,-306.438199,-74.020594,9992.780217
1597.636120,-766.095498,-666.185348,10510.924376
1597.636438,-1149.143247,-518.144159,10807.006753
1597.636755,-919.314598,-0.000000,11251.130318
1597.637072,-766.095498,-0.000000,11695.253884
1597.637389,-766.095498,962.267725,10658.965565
1597.637707,-383.047749,1184.329507,10288.862594
1597.638024,0.000000,1628.453072,9622.677246
1597.638341,1608.800546,1702.473667,10214.842000
1597.638659,1685.410096,2146.597232,9474.636058
1597.638976,1455.581446,1184.329507,8956.491898
1597.639293,1991.848295,1332.370696,8660.409521
1597.639610,1915.238745,370.102971,8364.327145
1597.639928,2068.457845,222.061783,9252.574275
1597.640245,1455.581446,222.061783,8734.430116
1597.640562,689.485948,1036.288319,8438.347739
1597.640880,1072.533697,444.123565,9918.759623
1597.641197,995.924147,370.102971,10214.842000
1597.641514,1225.752797,148.041188,9696.697840
1597.641831,995.924147,1036.288319,9622.677246
1597.642149,1378.971896,962.267725,9770.718434
1597.642466,2451.505594,1480.411884,9326.594869
1597.642783,2911.162892,1480.411884,9622.677246
1597.643100,2987.772442,1036.288319,8956.491898
1597.643418,2834.553343,1110.308913,8882.471304
1597.643735,4136.915689,666.185348,9696.697840
1597.644052,3370.820191,518.144159,9474.636058
1597.644370,3370.820191,1184.329507,8586.388927
1597.644687,2987.772442,1110.308913,8734.430116
1597.645004,3217.601092,888.247130,8660.409521
1597.645321,2298.286494,666.185348,8290.306550
1597.645639,1685.410096,-370.102971,8808.450710
1597.645956,919.314598,-0.000000,9474.636058
1597.646273,842.705048,-592.164754,10436.903782
1597.646591,766.095498,-666.185348,10881.027347
1597.646908,0.000000,-1036.288319,10362.883188
1597.647225,0.000000,-1036.288319,11029.068536
1597.647542,0.000000,-888.247130,10732.986159
1597.647860,229.828649,-0.000000,9622.677246
1597.648177,306.438199,222.061783,9474.636058
1597.648494,842.705048,962.267725,8660.409521
1597.648811,1455.581446,1184.329507,9030.512492
1597.649129,1225.752797,1036.288319,8216.285956
1597.649446,842.705048,370.102971,7624.121203
1597.649763,153.219100,592.164754,7328.038826
1597.650081,229.828649,888.247130,8512.368333
1597.650398,-459.657299,-74.020594,8586.388927
1597.650715,-1455.581446,-222.061783,8586.388927
1597.651032,-1685.410096,-888.247130,9622.677246
1597.651350,-1915.238745,-1406.391290,10214.842000
1597.651667,-1608.800546,-1480.411884,10658.965565
1597.651984,-995.924147,-1110.308913,10362.883188
1597.652302,-1149.143247,-0.000000,9844.739029
1597.652619,-612.876398,518.144159,10214.842000
1597.652936,76.609550,814.226536,10140.821405
1597.653253,536.266849,1258.350101,8660.409521
1597.653571,1072.533697,1554.432478,8512.368333
1597.653888,1455.581446,1628.453072,8734.430116
1597.654205,1762.019645,740.205942,8734.430116
1597.654523,1685.410096,148.041188,8586.388927
1597.654840,1225.752797,-0.000000,8068.244768
1597.655157,919.314598,-296.082377,8882.471304
1597.655474,612.876398,-296.082377,8882.471304
1597.655792,383.047749,-1036.288319,9252.574275
1597.656109,-229.828649,-1184.329507,9770.718434
1597.656426,-459.657299,-1628.453072,11177.109724
1597.656743,-612.876398,-1702.473667,11325.150913
1597.657061,-689.485948,-1110.308913,11029.068536
1597.657378,-306.438199,-888.247130,11103.089130
1597.657695,229.828649,-296.082377,11325.150913
1597.658013,919.314598,-74.020594,11103.089130
1597.658330,2451.505594,-148.041188,9918.759623
1597.658647,2834.553343,148.041188,9326.594869
1597.658964,3140.991542,-0.000000,9474.636058
1597.659282,4136.915689,-148.041188,9696.697840
1597.659599,3600.648841,-296.082377,8438.347739
1597.659916,3830.477490,296.082377,8512.368333
1597.660234,2604.724693,518.144159,7994.224174
1597.660551,2145.067394,592.164754,8068.244768
1597.660868,1455.581446,-0.000000,8068.244768
1597.661185,459.657299,-518.144159,8512.368333
1597.661503,-153.219100,-1406.391290,9770.718434
1597.661820,-766.095498,-1850.514855,10955.047942
1597.662137,-689.485948,-1776.494261,10955.047942
1597.662455,-995.924147,-888.247130,10658.965565
1597.662772,-536.266849,-148.041188,10658.965565
1597.663089,0.000000,814.226536,9548.656652
1597.663406,842.705048,1258.350101,9178.553681
1597.663724,1685.410096,1628.453072,8512.368333
1597.664041,2298.286494,1628.453072,8660.409521
1597.664358,2451.505594,1554.432478,8364.327145
1597.664675,2451.505594,962.267725,7994.224174
1597.664993,1991.848295,962.267725,7031.956449
1597.665310,1302.362347,666.185348,7105.977043
1597.665627,1072.533697,-148.041188,8438.347739
1597.665945,0.000000,74.020594,7994.224174
1597.666262,-306.438199,-592.164754,8734.430116
1597.666579,-1302.362347,-666.185348,9104.533087
1597.666896,-1608.800546,-592.164754,10510.924376
1597.667214,-1455.581446,-1036.288319,10510.924376
1597.667531,-2374.896044,-740.205942,9844.739029
1597.667848,-1685.410096,296.082377,10288.862594
1597.668166,-1378.971896,814.226536,9992.780217
1597.668483,-536.266849,592.164754,10214.842000
1597.668800,0.000000,444.123565,9844.739029
1597.669117,306.438199,740.205942,9548.656652
1597.669435,1225.752797,1036.288319,9770.718434
1597.669752,1378.971896,518.144159,9548.656652
1597.670069,2068.457845,814.226536,8142.265362
1597.670387,1762.019645,740.205942,8512.368333
1597.670704,1608.800546,296.082377,8512.368333
1597.671021,995.924147,-592.164754,9474.636058
1597.671338,459.657299,-1110.308913,9030.512492
1597.671656,153.219100,-666.185348,9474.636058
1597.671973,76.609550,-1258.350101,10807.006753
1597.672290,306.438199,-1776.494261,11251.130318
1597.672607,0.000000,-1110.308913,10658.965565
1597.672925,306.438199,-148.041188,10436.903782
1597.673242,689.485948,666.185348,10214.842000
1597.673559,1302.362347,666.185348,9474.636058
1597.673877,1915.238745,1184.329507,8956.491898
1597.674194,1608.800546,1184.329507,9104.533087
1597.674511,1991.848295,740.205942,9622.677246
1597.674828,2068.457845,-0.000000,9474.636058
1597.675146,2374.896044,-148.041188,9622.677246
1597.675463,2221.676944,-518.144159,9326.594869
1597.675780,1838.629195,-0.000000,9474.636058
1597.676098,1762.019645,-0.000000,9178.553681
1597.676415,2374.896044,222.061783,8512.368333
1597.676732,2145.067394,518.144159,8586.388927
1597.677049,2145.067394,296.082377,9104.533087
1597.677367,2068.457845,-0.000000,9178.553681
1597.677684,1608.800546,-148.041188,8808.450710
1597.678001,1378.971896,148.041188,9252.574275
1597.678318,612.876398,370.102971,9770.718434
1597.678636,766.095498,148.041188,9770.718434
1597.678953,919.314598,222.061783,9474.636058
1597.679270,689.485948,370.102971,9326.594869
1597.679588,766.095498,222.061783,9622.677246
1597.679905,1149.143247,-74.020594,9474.636058
1597.680222,459.657299,296.082377,8660.409521
1597.680539,229.828649,518.144159,8586.388927
1597.680857,-383.047749,1184.329507,8512.368333
1597.681174,-1072.533697,1110.308913,8734.430116
1597.681491,-1762.019645,-0.000000,9178.553681
1597.681809,-1685.410096,-0.000000,9696.697840
1597.682126,-2068.457845,-148.041188,10584.944971
1597.682443,-1685.410096,-962.267725,11103.089130
1597.682760,-1302.362347,-1036.288319,11103.089130
1597.683078,-689.485948,-888.247130,9992.780217
1597.683395,-153.219100,296.082377,9548.656652
1597.683712,383.047749,740.205942,8808.450710
1597.684030,1072.533697,444.123565,8734.430116
1597.684347,459.657299,592.164754,8586.388927
1597.684664,1072.533697,888.247130,8882.471304
1597.684981,1149.143247,370.102971,9104.533087
1597.685299,383.047749,-0.000000,9030.512492
1597.685616,76.609550,-148.041188,8586.388927
1597.685933,-306.438199,-148.041188,8808.450710
1597.686250,0.000000,148.041188,9030.512492
1597.686568,0.000000,-0.000000,8660.409521
1597.686885,-153.219100,-444.123565,9474.636058
1597.687202,-383.047749,-592.164754,10214.842000
1597.687520,-306.438199,-1110.308913,10881.027347
1597.687837,-612.876398,-1036.288319,11029.068536
1597.688154,-766.095498,-444.123565,11029.068536
1597.688471,-612.876398,444.123565,11177.109724
1597.688789,76.609550,1110.308913,10584.944971
1597.689106,1149.143247,1184.329507,9844.739029
1597.689423,2528.115143,1480.411884,9326.594869
1597.689741,3370.820191,1184.329507,8438.347739
1597.690058,3907.087040,814.226536,8586.388927
1597.690375,4213.525239,-0.000000,8660.409521
1597.690692,3524.039291,-148.041188,7920.203579
1597.691010,2911.162892,-222.061783,8364.327145
1597.691327,2528.115143,444.123565,8734.430116
1597.691644,1991.848295,222.061783,9104.533087
1597.691962,1149.143247,-0.000000,9030.512492
1597.692279,612.876398,592.164754,9770.718434
1597.692596,306.438199,-0.000000,10584.944971
1597.692913,383.047749,-518.144159,11103.089130
1597.693231,383.047749,-814.226536,11029.068536
1597.693548,153.219100,-148.041188,10732.986159
1597.693865,383.047749,740.205942,10658.965565
1597.694182,995.924147,444.123565,10658.965565
1597.694500,1072.533697,518.144159,9844.739029
1597.694817,2145.067394,592.164754,9992.780217
1597.695134,1915.238745,1110.308913,9474.636058
1597.695452,2451.505594,666.185348,9252.574275
1597.695769,2451.505594,518.144159,8512.368333
1597.696086,2528.115143,740.205942,7624.121203
1597.696403,2221.676944,592.164754,7328.038826
1597.696721,1838.629195,148.041188,7476.080014
1597.697038,1532.190996,-222.061783,7550.100608
1597.697355,919.314598,-444.123565,8660.409521
1597.697673,76.609550,-814.226536,9992.780217
1597.697990,-459.657299,-1184.329507,9770.718434
1597.698307,-1072.533697,-592.164754,9918.759623
1597.698624,-1378.971896,-0.000000,10214.842000
1597.698942,-1302.362347,592.164754,10214.842000
1597.699259,-1225.752797,814.226536,10066.800811
1597.699576,-1149.143247,888.247130,9622.677246
1597.699894,-842.705048,1258.350101,9548.656652
1597.700211,0.000000,1554.432478,9326.594869
1597.700528,536.266849,1406.391290,9400.615463
1597.700845,153.219100,1258.350101,8438.347739
1597.701163,612.876398,1406.391290,8586.388927
1597.701480,229.828649,1258.350101,8216.285956
1597.701797,919.314598,1702.473667,7846.182985
1597.702114,306.438199,1258.350101,7772.162391
1597.702432,459.657299,518.144159,9030.512492
1597.702749,-153.219100,-148.041188,8956.491898
1597.703066,153.219100,-740.205942,9696.697840
1597.703384,-229.828649,-518.144159,9918.759623
1597.703701,-306.438199,-0.000000,9770.718434
1597.704018,536.266849,888.247130,9696.697840
1597.704335,766.095498,1406.391290,9474.636058
1597.704653,612.876398,1480.411884,9400.615463
1597.704970,1225.752797,1628.453072,9400.615463
1597.705287,1762.019645,1998.556043,9326.594869
1597.705605,1838.629195,1406.391290,9622.677246
1597.705922,1608.800546,1406.391290,9770.718434
1597.706239,1532.190996,1184.329507,9252.574275
1597.706556,1378.971896,888.247130,9548.656652
1597.706874,1149.143247,444.123565,9844.739029
1597.707191,1302.362347,148.041188,10140.821405
1597.707508,1149.143247,222.061783,9770.718434
1597.707825,1378.971896,-0.000000,10288.862594
1597.708143,1608.800546,-148.041188,10881.027347
1597.708460,1608.800546,-444.123565,10658.965565
1597.708777,1302.362347,148.041188,10214.842000
1597.709095,1532.190996,518.144159,9770.718434
1597.709412,1991.848295,888.247130,9844.739029
1597.709729,2298.286494,666.185348,9400.615463
1597.710046,2145.067394,888.247130,9104.533087
1597.710364,2298.286494,148.041188,9548.656652
1597.710681,2145.067394,-0.000000,9474.636058
1597.710998,1608.800546,-444.123565,9622.677246
1597.711316,1072.533697,-0.000000,9326.594869
1597.711633,306.438199,-296.082377,9548.656652
1597.711950,-153.219100,-296.082377,9770.718434
1597.712267,-612.876398,-740.205942,10288.862594
1597.712585,-1149.143247,-296.082377,10214.842000
1597.712902,-766.095498,-296.082377,11177.109724
1597.713219,-689.485948,-1184.329507,11547.212695
1597.713537,-689.485948,-888.247130,10955.047942
1597.713854,0.000000,-222.061783,9548.656652
1597.714171,459.657299,888.247130,9030.512492
1597.714488,1685.410096,814.226536,8290.306550
1597.714806,1838.629195,962.267725,8068.244768
1597.715123,2604.724693,1110.308913,7179.997637
1597.715440,2451.505594,1406.391290,6661.853478
1597.715757,2911.162892,222.061783,7772.162391
1597.716075,2451.505594,-296.082377,8290.306550
1597.716392,995.924147,-222.061783,7476.080014
1597.716709,306.438199,-0.000000,7846.182985
1597.717027,-383.047749,-74.020594,8660.409521
1597.717344,-995.924147,-222.061783,9178.553681
1597.717661,-1225.752797,148.041188,9252.574275
1597.717978,-1608.800546,-0.000000,9400.615463
1597.718296,-1608.800546,-370.102971,10732.986159
1597.718613,-1225.752797,-814.226536,11103.089130
1597.718930,-1149.143247,-0.000000,10955.047942
1597.719248,-459.657299,518.144159,10288.862594
1597.719565,-306.438199,814.226536,10066.800811
1597.719882,919.314598,1184.329507,9326.594869
1597.720199,1838.629195,1554.432478,8512.368333
1597.720517,2298.286494,1480.411884,7846.182985
1597.720834,2604.724693,1258.350101,8068.244768
1597.721151,2757.943793,370.102971,8068.244768
1597.721469,2604.724693,-0.000000,7624.121203
1597.721786,2068.457845,-222.061783,7476.080014
1597.722103,1378.971896,-740.205942,8660.409521
1597.722420,689.485948,-888.247130,8882.471304
1597.722738,-306.438199,-814.226536,9178.553681
1597.723055,-536.266849,-296.082377,9918.759623
1597.723372,-612.876398,-222.061783,10881.027347
1597.723689,0.000000,-518.144159,11695.253884
1597.724007,-612.876398,-296.082377,11547.212695
1597.724324,-306.438199,370.102971,11029.068536
1597.724641,459.657299,1184.329507,10955.047942
1597.724959,919.314598,1406.391290,10362.883188
1597.725276,1762.019645,1702.473667,10288.862594
1597.725593,2451.505594,2294.638420,9400.615463
1597.725910,2604.724693,1776.494261,9474.636058
1597.726228,3064.381992,1036.288319,9474.636058
1597.726545,2528.115143,1110.308913,8882.471304
1597.726862,2911.162892,1850.514855,7402.059420
1597.727180,2911.162892,1406.391290,7698.141797
1597.727497,2528.115143,370.102971,8364.327145
1597.727814,1915.238745,-74.020594,8734.430116
1597.728131,1378.971896,-296.082377,8734.430116
1597.728449,689.485948,-0.000000,9474.636058
1597.728766,536.266849,-592.164754,10658.965565
1597.729083,0.000000,-148.041188,10881.027347
1597.729401,76.609550,888.247130,10214.842000
1597.729718,536.266849,1258.350101,10288.862594
1597.730035,229.828649,1332.370696,11325.150913
1597.730352,842.705048,1258.350101,10955.047942
1597.730670,1378.971896,1924.535449,9548.656652
1597.730987,1915.238745,1258.350101,10214.842000
1597.731304,1685.410096,444.123565,10510.924376
1597.731621,1532.190996,74.020594,9548.656652
1597.731939,1762.019645,666.185348,8734.430116
1597.732256,1532.190996,1036.288319,7994.224174
1597.732573,1455.581446,-0.000000,8512.368333
1597.732891,536.266849,-962.267725,8364.327145
1597.733208,76.609550,-1184.329507,8586.388927
1597.733525,-612.876398,-1332.370696,9030.512492
1597.733842,-995.924147,-1850.514855,10066.800811
1597.734160,-766.095498,-2368.659014,10214.842000
1597.734477,-995.924147,-740.205942,9770.718434
1597.734794,-919.314598,222.061783,9696.697840
1597.735112,-766.095498,222.061783,9918.759623
1597.735429,-536.266849,444.123565,10066.800811
1597.735746,383.047749,666.185348,9030.512492
1597.736063,76.609550,962.267725,8808.450710
1597.736381,153.219100,222.061783,9696.697840
1597.736698,-229.828649,-518.144159,9992.780217
1597.737015,153.219100,-370.102971,9178.553681
1597.737330,-229.828649,-222.061783,8364.327145
1597.737647,-153.219100,-666.185348,9030.512492
1597.737965,229.828649,-888.247130,8734.430116
1597.738282,459.657299,-1036.288319,8216.285956
1597.738599,459.657299,-740.205942,8142.265362
1597.738917,612.876398,-1628.453072,9400.615463
1597.739234,766.095498,-1628.453072,9474.636058
1597.739552,689.485948,-1110.308913,8956.491898
1597.739869,1072.533697,-74.020594,8586.388927
1597.740186,1072.533697,-0.000000,9178.553681
1597.740504,1762.019645,148.041188,9178.553681
1597.740821,2298.286494,888.247130,8660.409521
1597.741138,2834.553343,1184.329507,8438.347739
1597.741456,3217.601092,592.164754,8586.388927
1597.741773,2834.553343,-0.000000,9178.553681
1597.742091,2604.724693,222.061783,9030.512492
1597.742408,2145.067394,518.144159,8290.306550
1597.742725,1225.752797,-0.000000,8956.491898
1597.743043,919.314598,-296.082377,10066.800811
1597.743360,306.438199,-0.000000,10140.821405
1597.743677,383.047749,-0.000000,9918.759623
1597.743995,383.047749,-518.144159,10881.027347
1597.744312,612.876398,-518.144159,10658.965565
1597.744630,1225.752797,-296.082377,9474.636058
1597.744947,1838.629195,592.164754,9178.553681
1597.745264,1685.410096,962.267725,9326.594869
1597.745582,1838.629195,740.205942,8586.388927
1597.745899,1762.019645,1036.288319,8364.327145
1597.746216,1991.848295,1554.432478,8512.368333
1597.746534,1838.629195,1406.391290,8882.471304
1597.746851,1225.752797,-0.000000,9696.697840
1597.747169,383.047749,-444.123565,9696.697840
1597.747486,-383.047749,222.061783,9178.553681
1597.747803,-919.314598,-0.000000,9474.636058
1597.748121,-1455.581446,-1184.329507,10214.842000
1597.748438,-2604.724693,-1184.329507,10436.903782
1597.748755,-2757.943793,-296.082377,10214.842000
1597.749073,-3064.381992,-370.102971,10955.047942
1597.749390,-2757.943793,-888.247130,12509.480420
1597.749707,-2298.286494,-888.247130,12065.356855
1597.750025,-2068.457845,296.082377,10955.047942
1597.750342,-995.924147,888.247130,10807.006753
1597.750660,-306.438199,814.226536,10732.986159
1597.750977,1378.971896,444.123565,9400.615463
1597.751294,2604.724693,1258.350101,8290.306550
1597.751612,2987.772442,1258.350101,8216.285956
1597.751929,3370.820191,222.061783,8290.306550
1597.752246,3370.820191,-444.123565,8142.265362
1597.752564,2987.772442,666.185348,7179.997637
1597.752881,1915.238745,1036.288319,7402.059420
1597.753199,1225.752797,740.205942,8586.388927
1597.753516,383.047749,444.123565,8882.471304
1597.753833,0.000000,296.082377,9400.615463
1597.754151,-229.828649,-0.000000,10658.965565
1597.754468,0.000000,-814.226536,11843.295072
1597.754785,0.000000,-1332.370696,11991.336260
1597.755103,536.266849,-222.061783,11547.212695
1597.755420,842.705048,962.267725,11399.171507
1597.755738,1532.190996,1998.556043,10584.944971
1597.756055,2374.896044,2442.679609,9474.636058
1597.756372,2987.772442,3182.885551,7994.224174
1597.756690,3983.696590,2664.741391,8068.244768
1597.757007,3983.696590,1480.411884,7846.182985
1597.757324,3907.087040,444.123565,7476.080014
1597.757642,3140.991542,444.123565,6809.894666
1597.757959,2604.724693,296.082377,7105.977043
1597.758277,1915.238745,-222.061783,7254.018232
1597.758594,1302.362347,-444.123565,7698.141797
1597.758911,306.438199,-370.102971,8660.409521
1597.759229,-689.485948,-370.102971,9326.594869
1597.759546,-1302.362347,-592.164754,10584.944971
1597.759863,-1991.848295,-888.247130,10807.006753
1597.760181,-2298.286494,-592.164754,11325.150913
1597.760498,-2451.505594,666.185348,10584.944971
1597.760815,-1762.019645,740.205942,10807.006753
1597.761133,-1072.533697,962.267725,10436.903782
1597.761450,-689.485948,1258.350101,9844.739029
1597.761768,766.095498,1480.411884,9474.636058
1597.762085,1225.752797,888.247130,9548.656652
1597.762402,1762.019645,-0.000000,9548.656652
1597.762720,1685.410096,-0.000000,8660.409521
1597.763037,1225.752797,296.082377,8290.306550
1597.763354,842.705048,-222.061783,8364.327145
1597.763672,306.438199,-592.164754,8512.368333
1597.763989,0.000000,-888.247130,8882.471304
1597.764307,-842.705048,-1110.308913,9474.636058
1597.764624,-383.047749,-1628.453072,10732.986159
1597.764941,-536.266849,-2146.597232,11325.150913
1597.765259,-766.095498,-1480.411884,11103.089130
1597.765576,-229.828649,-666.185348,10510.924376
1597.765893,229.828649,148.041188,10510.924376
1597.766211,1149.143247,370.102971,10362.883188
1597.766528,1762.019645,814.226536,10288.862594
1597.766846,2528.115143,1628.453072,9622.677246
1597.767163,3294.210641,1110.308913,10066.800811
1597.767480,3294.210641,-0.000000,9844.739029
1597.767798,3064.381992,-0.000000,9178.553681
1597.768115,3447.429741,592.164754,8290.306550
1597.768432,3064.381992,-0.000000,7846.182985
1597.768750,3217.601092,-444.123565,8956.491898
1597.769067,2451.505594,-74.020594,8142.265362
1597.769385,2145.067394,-0.000000,8068.244768
1597.769702,1608.800546,-222.061783,9400.615463
1597.770019,919.314598,-888.247130,10140.821405
1597.770337,536.266849,-370.102971,9326.594869
1597.770654,0.000000,296.082377,9252.574275
1597.770971,-306.438199,-0.000000,9474.636058
1597.771289,-306.438199,-222.061783,9918.759623
1597.771606,0.000000,-0.000000,9474.636058
1597.771923,-306.438199,592.164754,8438.347739
1597.772241,229.828649,740.205942,9252.574275
1597.772558,153.219100,592.164754,9104.533087
1597.772876,153.219100,592.164754,8882.471304
1597.773193,-459.657299,962.267725,8586.388927
1597.773510,-766.095498,814.226536,8364.327145
1597.773828,-1455.581446,444.123565,8882.471304
1597.774145,-842.705048,148.041188,9622.677246
1597.774462,-1455.581446,-148.041188,9474.636058
1597.774780,-1608.800546,-444.123565,10140.821405
1597.775097,-1532.190996,-1184.329507,10510.924376
1597.775415,-1149.143247,-814.226536,10288.862594
1597.775732,-153.219100,-0.000000,9622.677246
1597.776049,459.657299,888.247130,9400.615463
1597.776367,689.485948,296.082377,9696.697840
1597.776684,459.657299,888.247130,8808.450710
1597.777001,1378.971896,1628.453072,8290.306550
1597.777319,2298.286494,1406.391290,8586.388927
1597.777636,1455.581446,814.226536,9104.533087
1597.777954,1149.143247,666.185348,8956.491898
1597.778271,1302.362347,888.247130,8364.327145
1597.778588,995.924147,518.144159,8438.347739
1597.778906,919.314598,148.041188,9400.615463
1597.779223,306.438199,148.041188,9474.636058
1597.779540,306.438199,1036.288319,9622.677246
1597.779858,229.828649,518.144159,10362.883188
1597.780175,0.000000,-74.020594,11325.150913
1597.780492,383.047749,-0.000000,11251.130318
1597.780810,842.705048,814.226536,10510.924376
1597.781127,1455.581446,1332.370696,10288.862594
1597.781445,1991.848295,1110.308913,10436.903782
1597.781762,2451.505594,1480.411884,9622.677246
1597.782079,2757.943793,1924.535449,8438.347739
1597.782397,3524.039291,1628.453072,8438.347739
1597.782714,3524.039291,814.226536,8734.430116
1597.783031,3524.039291,666.185348,8586.388927
1597.783349,2757.943793,740.205942,7994.224174
1597.783666,2221.676944,444.123565,8290.306550
1597.783984,1608.800546,148.041188,8956.491898
1597.784301,995.924147,-296.082377,9178.553681
1597.784618,0.000000,-222.061783,9326.594869
1597.784936,0.000000,-222.061783,10140.821405
1597.785253,153.219100,-888.247130,11177.109724
1597.785570,-229.828649,-518.144159,11843.295072
1597.785888,0.000000,-0.000000,11325.150913
1597.786205,689.485948,518.144159,11029.068536
1597.786523,995.924147,666.185348,10140.821405
1597.786840,1378.971896,740.205942,10881.027347
1597.787157,1762.019645,1554.432478,9104.533087
1597.787475,2757.943793,1924.535449,8956.491898
1597.787792,2834.553343,1258.350101,8660.409521
1597.788109,3217.601092,666.185348,8734.430116
1597.788427,2298.286494,148.041188,7846.182985
1597.788744,1149.143247,148.041188,7402.059420
1597.789062,919.314598,-444.123565,8142.265362
1597.789379,-229.828649,-1036.288319,8734.430116
1597.789696,-1225.752797,-814.226536,9252.574275
1597.790014,-1455.581446,-518.144159,9326.594869
1597.790331,-2298.286494,-1036.288319,10436.903782
1597.790648,-2451.505594,-1110.308913,11695.253884
1597.790966,-2528.115143,-1036.288319,11251.130318
1597.791283,-2451.505594,-0.000000,10807.006753
1597.791600,-1838.629195,222.061783,11325.150913
1597.791918,-1762.019645,962.267725,10436.903782
1597.792235,-689.485948,1776.494261,9844.739029
1597.792553,229.828649,2294.638420,8734.430116
1597.792870,995.924147,1628.453072,8660.409521
1597.793187,1532.190996,1110.308913,8512.368333
1597.793505,1608.800546,666.185348,8142.265362
1597.793822,1455.581446,370.102971,7476.080014
1597.794139,1455.581446,-148.041188,7846.182985
1597.794457,306.438199,-888.247130,8438.347739
1597.794774,-229.828649,-444.123565,8216.285956
1597.795092,0.000000,-222.061783,8586.388927
1597.795409,0.000000,-370.102971,9326.594869
1597.795726,-383.047749,-1110.308913,10362.883188
1597.796044,-153.219100,-592.164754,9992.780217
1597.796361,-76.609550,-0.000000,10214.842000
1597.796678,766.095498,222.061783,10510.924376
1597.796996,1302.362347,296.082377,10140.821405
1597.797313,1532.190996,1110.308913,8956.491898
1597.797631,2451.505594,1924.535449,9178.553681
1597.797948,3600.648841,1258.350101,8364.327145
1597.798265,3907.087040,592.164754,9548.656652
1597.798583,3524.039291,-0.000000,8808.450710
1597.798900,3294.210641,370.102971,8438.347739
1597.799217,3370.820191,-0.000000,8142.265362
1597.799535,3140.991542,-592.164754,9104.533087
1597.799852,2451.505594,-296.082377,8438.347739
1597.800170,1608.800546,-0.000000,8586.388927
1597.800487,1762.019645,-592.164754,9178.553681
1597.800804,1455.581446,-1258.350101,11177.109724
1597.801122,995.924147,-1332.370696,10732.986159
1597.801439,689.485948,-962.267725,10510.924376
1597.801756,383.047749,-0.000000,9696.697840
1597.802074,1455.581446,-814.226536,11177.109724
1597.802391,1149.143247,148.041188,9696.697840
1597.802708,1915.238745,888.247130,9326.594869
1597.803026,1991.848295,962.267725,8956.491898
1597.803343,1991.848295,444.123565,9474.636058
1597.803661,1608.800546,1036.288319,8586.388927
1597.803978,1455.581446,1036.288319,8290.306550
1597.804295,383.047749,1258.350101,8290.306550
1597.804613,306.438199,296.082377,8882.471304
1597.804930,-229.828649,-0.000000,8882.471304
1597.805247,-995.924147,-370.102971,9400.615463
1597.805565,-1532.190996,-370.102971,10214.842000
1597.805882,-1378.971896,-518.144159,10881.027347
1597.806200,-995.924147,-444.123565,10510.924376
1597.806517,-842.705048,296.082377,9844.739029
1597.806834,-842.705048,1480.411884,9696.697840
1597.807152,0.000000,962.267725,9770.718434
1597.807469,76.609550,888.247130,8882.471304
1597.807786,536.266849,1702.473667,8512.368333
1597.808104,536.266849,1554.432478,8660.409521
1597.808421,459.657299,1110.308913,8660.409521
1597.808739,995.924147,666.185348,9178.553681
1597.809056,1149.143247,1332.370696,8586.388927
1597.809373,383.047749,1702.473667,7550.100608
1597.809691,459.657299,1184.329507,8734.430116
1597.810008,229.828649,296.082377,9474.636058
1597.810325,0.000000,296.082377,9326.594869
1597.810643,-153.219100,-74.020594,9918.759623
1597.810960,-919.314598,-222.061783,10807.006753
1597.811277,0.000000,-444.123565,11399.171507
1597.811595,536.266849,-148.041188,11177.109724
1597.811912,689.485948,592.164754,10732.986159
1597.812230,1302.362347,370.102971,10584.944971
1597.812547,1532.190996,-0.000000,10140.821405
1597.812864,2528.115143,814.226536,8882.471304
1597.813182,2987.772442,962.267725,9104.533087
1597.813499,2834.553343,222.061783,9178.553681
1597.813816,2681.334243,-222.061783,9178.553681
1597.814134,2221.676944,-148.041188,8808.450710
1597.814451,1991.848295,-0.000000,8734.430116
1597.814769,689.485948,-222.061783,8882.471304
1597.815086,-229.828649,-740.205942,9400.615463
1597.815403,-919.314598,-888.247130,10140.821405
1597.815721,-842.705048,-518.144159,9474.636058
1597.816038,-1225.752797,-962.267725,10732.986159
1597.816355,-1378.971896,-1258.350101,11251.130318
1597.816673,-1225.752797,-666.185348,11325.150913
1597.816990,-919.314598,296.082377,10881.027347
1597.817308,-153.219100,518.144159,10362.883188
1597.817625,0.000000,518.144159,10510.924376
1597.817942,1072.533697,1110.308913,9844.739029
1597.818260,2068.457845,1110.308913,8808.450710
1597.818577,2374.896044,444.123565,8808.450710
1597.818894,2374.896044,-74.020594,8734.430116
1597.819212,2221.676944,666.185348,7476.080014
1597.819529,2451.505594,1850.514855,6365.771101
1597.819847,1685.410096,1702.473667,5921.647536
1597.820164,766.095498,-148.041188,7624.121203
1597.820481,-612.876398,-814.226536,7994.224174
1597.820799,-383.047749,-1258.350101,9252.574275
1597.821116,-612.876398,-1702.473667,9992.780217
1597.821433,-1302.362347,-2294.638420,11177.109724
1597.821751,-1608.800546,-2886.803174,11843.295072
1597.822068,-1072.533697,-1036.288319,10807.006753
1597.822385,-153.219100,592.164754,10584.944971
1597.822703,229.828649,370.102971,10066.800811
1597.823020,536.266849,740.205942,9400.615463
1597.823338,1608.800546,1480.411884,9326.594869
1597.823655,2604.724693,1628.453072,9474.636058
1597.823972,2987.772442,-222.061783,9622.677246
1597.824290,1838.629195,-0.000000,9030.512492
1597.824607,2834.553343,-0.000000,8364.327145
1597.824924,2757.943793,740.205942,7550.100608
1597.825242,2834.553343,-962.267725,7920.203579
1597.825559,1685.410096,-2368.659014,8882.471304
1597.825877,612.876398,-2368.659014,8808.450710
1597.826194,459.657299,-1628.453072,9030.512492
1597.826511,612.876398,-2146.597232,10881.027347
1597.826829,-536.266849,-2368.659014,11103.089130
1597.827146,-1149.143247,-888.247130,10584.944971
1597.827463,-1455.581446,-518.144159,10288.862594
1597.827781,-229.828649,518.144159,10140.821405
1597.828098,153.219100,-0.000000,11029.068536
1597.828416,383.047749,1258.350101,10288.862594
1597.828733,1302.362347,1924.535449,8882.471304
1597.829050,1838.629195,1850.514855,9326.594869
1597.829368,1838.629195,-222.061783,9474.636058
1597.829685,2068.457845,814.226536,8956.491898
1597.830002,1685.410096,1480.411884,8216.285956
1597.830320,1608.800546,1702.473667,8216.285956
1597.830637,1072.533697,1332.370696,7179.997637
1597.830955,766.095498,1036.288319,7994.224174
1597.831272,383.047749,740.205942,7772.162391
1597.831589,689.485948,296.082377,8808.450710
1597.831907,229.828649,-666.185348,8956.491898
1597.832224,229.828649,-592.164754,10362.883188
1597.832541,-995.924147,888.247130,8808.450710
1597.832859,0.000000,518.144159,10140.821405
1597.833176,0.000000,962.267725,10288.862594
1597.833493,536.266849,1702.473667,9474.636058
1597.833811,229.828649,2886.803174,8586.388927
1597.834128,1149.143247,2072.576638,9548.656652
1597.834446,1225.752797,1702.473667,9474.636058
1597.834763,1762.019645,1406.391290,9474.636058
1597.835080,1608.800546,1998.556043,8956.491898
1597.835398,1378.971896,1998.556043,7846.182985
1597.835715,1455.581446,962.267725,8956.491898
1597.836032,1149.143247,518.144159,8808.450710
1597.836350,995.924147,1184.329507,9178.553681
1597.836667,0.000000,370.102971,9918.759623
1597.836985,0.000000,-1036.288319,10955.047942
1597.837302,-153.219100,-444.123565,10658.965565
1597.837619,0.000000,-222.061783,10436.903782
1597.837937,-306.438199,-0.000000,10288.862594
1597.838254,0.000000,-444.123565,10807.006753
1597.838571,383.047749,-222.061783,10288.862594
1597.838889,1225.752797,222.061783,9844.739029
1597.839206,1149.143247,740.205942,10140.821405
1597.839523,1915.238745,-74.020594,10881.027347
1597.839841,1915.238745,518.144159,9844.739029
1597.840158,1532.190996,666.185348,8660.409521
1597.840475,689.485948,666.185348,8882.471304
1597.840793,612.876398,-0.000000,10140.821405
1597.841110,306.438199,148.041188,10066.800811
1597.841427,766.095498,592.164754,9844.739029
1597.841745,383.047749,-148.041188,9918.759623
1597.842062,0.000000,-740.205942,10140.821405
1597.842379,612.876398,-814.226536,10214.842000
1597.842697,995.924147,-296.082377,9474.636058
1597.843014,1302.362347,-296.082377,9104.533087
1597.843331,842.705048,296.082377,8882.471304
1597.843649,1302.362347,-74.020594,10510.924376
1597.843966,1378.971896,370.102971,8512.368333
1597.844283,1532.190996,814.226536,9178.553681
1597.844601,1532.190996,-0.000000,8142.265362
1597.844918,766.095498,-0.000000,8290.306550
1597.845235,1302.362347,-148.041188,8142.265362
1597.845553,1072.533697,-296.082377,9030.512492
1597.845870,536.266849,-1258.350101,9178.553681
1597.846187,459.657299,-740.205942,10510.924376
1597.846505,0.000000,-0.000000,8142.265362
1597.846822,-306.438199,518.144159,9622.677246
1597.847139,-459.657299,-444.123565,9844.739029
1597.847457,-1225.752797,-1628.453072,11177.109724
1597.847774,-1532.190996,-0.000000,9474.636058
1597.848091,0.000000,-0.000000,10510.924376
1597.848409,-459.657299,592.164754,8660.409521
1597.848726,1685.410096,-370.102971,10066.800811
1597.849043,1378.971896,-0.000000,7624.121203
1597.849361,1838.629195,-740.205942,8364.327145
1597.849678,1532.190996,-740.205942,8216.285956
1597.849995,2068.457845,-1110.308913,9252.574275
1597.850313,1915.238745,296.082377,7920.203579
1597.850630,2834.553343,1258.350101,7920.203579
1597.850947,612.876398,1184.329507,7105.977043
1597.851265,842.705048,222.061783,8216.285956
1597.851582,459.657299,296.082377,7328.038826
1597.851899,766.095498,444.123565,9474.636058
1597.852217,383.047749,-370.102971,9474.636058
1597.852534,-153.219100,-592.164754,10214.842000
1597.852851,-536.266849,-0.000000,10066.800811
1597.853169,459.657299,1036.288319,9918.759623
1597.853486,-306.438199,740.205942,9178.553681
1597.853803,766.095498,888.247130,11251.130318
1597.854121,306.438199,666.185348,9770.718434
1597.854438,1149.143247,1554.432478,8808.450710
1597.854755,1608.800546,-0.000000,10436.903782
1597.855073,2068.457845,-0.000000,10881.027347
1597.855390,2681.334243,1332.370696,8216.285956
1597.855707,2451.505594,1702.473667,7105.977043
1597.856025,2604.724693,888.247130,8956.491898
1597.856342,2528.115143,1036.288319,7328.038826
1597.856659,2451.505594,1258.350101,8512.368333
1597.856977,1685.410096,1332.370696,8808.450710
1597.857294,76.609550,740.205942,9400.615463
1597.857611,0.000000,-370.102971,10510.924376
1597.857929,-153.219100,-0.000000,11917.315666
1597.858246,0.000000,-0.000000,9474.636058
1597.858563,-919.314598,370.102971,10732.986159
1597.858880,-689.485948,-1110.308913,11695.253884
1597.859198,0.000000,-666.185348,12657.521608
1597.859515,919.314598,296.082377,10436.903782
1597.859832,1072.533697,444.123565,11621.233289
1597.860150,76.609550,1850.514855,9178.553681
1597.860467,1225.752797,2516.700203,10362.883188
1597.860784,1072.533697,2146.597232,8290.306550
1597.861102,995.924147,1702.473667,9104.533087
1597.861419,0.000000,148.041188,9326.594869
1597.861736,919.314598,-666.185348,10288.862594
1597.862054,1149.143247,1702.473667,7994.224174
1597.862371,2911.162892,-666.185348,9622.677246
1597.862688,229.828649,-1554.432478,8734.430116
1597.863006,459.657299,-1406.391290,9844.739029
1597.863323,536.266849,148.041188,7920.203579
1597.863640,1225.752797,148.041188,9548.656652
1597.863958,536.266849,962.267725,10214.842000
1597.864275,459.657299,962.267725,10584.944971
1597.864592,-153.219100,2072.576638,9030.512492
1597.864910,995.924147,1406.391290,9622.677246
1597.865227,383.047749,-0.000000,10807.006753
1597.865544,1225.752797,-0.000000,10732.986159
1597.865862,842.705048,1628.453072,7698.141797
1597.866179,1072.533697,1554.432478,7476.080014
1597.866496,459.657299,-0.000000,8956.491898
1597.866814,153.219100,-74.020594,9696.697840
1597.867131,306.438199,-74.020594,8882.471304
1597.867448,-459.657299,740.205942,8216.285956
1597.867766,-383.047749,-592.164754,9622.677246
1597.868083,-383.047749,-1036.288319,10658.965565
1597.868400,842.705048,-814.226536,9992.780217
1597.868718,612.876398,518.144159,8142.265362
1597.869035,919.314598,-0.000000,7550.100608
1597.869352,1838.629195,-0.000000,9400.615463
1597.869670,1685.410096,888.247130,6735.874072
1597.869987,2834.553343,-0.000000,7698.141797
1597.870304,1072.533697,-222.061783,9474.636058
1597.870622,536.266849,-592.164754,10362.883188
1597.870939,766.095498,888.247130,8956.491898
1597.871256,536.266849,1776.494261,8216.285956
1597.871574,306.438199,-74.020594,9326.594869
1597.871891,76.609550,-666.185348,10510.924376
1597.872208,536.266849,-518.144159,9992.780217
1597.872526,766.095498,-74.020594,9030.512492
1597.872843,919.314598,-0.000000,9474.636058
1597.873160,1072.533697,-888.247130,10807.006753
1597.873478,1838.629195,-0.000000,9918.759623
1597.873795,1685.410096,1480.411884,8068.244768
1597.874112,536.266849,740.205942,8956.491898
1597.874430,383.047749,222.061783,9918.759623
1597.874747,1915.238745,1036.288319,8290.306550
1597.875064,2145.067394,962.267725,8068.244768
1597.875382,1302.362347,-1480.411884,9474.636058
1597.875699,306.438199,-2146.597232,9252.574275
1597.876016,919.314598,-1628.453072,9104.533087
1597.876334,1608.800546,-814.226536,9104.533087
1597.876651,459.657299,-148.041188,9474.636058
1597.876968,-842.705048,-888.247130,10288.862594
1597.877286,-1149.143247,-592.164754,10288.862594
1597.877603,-1455.581446,370.102971,9696.697840
1597.877920,-1302.362347,-0.000000,11991.336260
1597.878238,-995.924147,-444.123565,12731.542202
1597.878555,-919.314598,444.123565,10955.047942
1597.878872,-612.876398,1110.308913,9844.739029
1597.879190,842.705048,-148.041188,10510.924376
1597.879507,1149.143247,-740.205942,10510.924376
1597.879824,1991.848295,-444.123565,9992.780217
1597.880142,2834.553343,1184.329507,7402.059420
1597.880459,2757.943793,1480.411884,7476.080014
1597.880776,2221.676944,-0.000000,9252.574275
1597.881094,2068.457845,-666.185348,9252.574275
1597.881411,1149.143247,148.041188,7402.059420
1597.881728,919.314598,222.061783,7920.203579
1597.882046,536.266849,-0.000000,9030.512492
1597.882363,536.266849,1110.308913,8438.347739
1597.882680,1302.362347,518.144159,8882.471304
1597.882998,689.485948,-0.000000,9400.615463
1597.883315,383.047749,-814.226536,10584.944971
1597.883632,536.266849,-74.020594,10807.006753
1597.883950,1149.143247,1406.391290,10214.842000
1597.884267,1149.143247,2294.638420,9992.780217
1597.884584,1072.533697,1332.370696,11177.109724
1597.884902,1378.971896,1036.288319,10732.986159
1597.885219,1685.410096,2590.720797,8364.327145
1597.885536,2757.943793,2146.597232,9030.512492
1597.885854,2834.553343,1110.308913,8512.368333
1597.886171,2451.505594,814.226536,8068.244768
1597.886488,1685.410096,814.226536,7105.977043
1597.886805,1685.410096,740.205942,7328.038826
1597.887123,766.095498,-370.102971,7920.203579
1597.887440,459.657299,-1110.308913,8734.430116
1597.887757,-459.657299,-74.020594,8438.347739
1597.888075,-383.047749,-888.247130,9474.636058
1597.888392,-1455.581446,-1554.432478,11325.150913
1597.888709,-1762.019645,-1554.432478,11251.130318
1597.889027,-1685.410096,-0.000000,10881.027347
1597.889344,-536.266849,1258.350101,10288.862594
1597.889661,229.828649,1184.329507,9992.780217
1597.889979,612.876398,1036.288319,10140.821405
1597.890296,1302.362347,1110.308913,10214.842000
1597.890613,1532.190996,1628.453072,9326.594869
1597.890931,1072.533697,592.164754,9844.739029
1597.891248,1302.362347,-296.082377,10658.965565
1597.891565,842.705048,518.144159,8364.327145
1597.891883,995.924147,296.082377,8142.265362
1597.892200,995.924147,-888.247130,9400.615463
1597.892517,536.266849,-1480.411884,8882.471304
1597.892835,842.705048,-370.102971,8512.368333
1597.893152,612.876398,-222.061783,8290.306550
1597.893469,459.657299,-740.205942,9622.677246
1597.893787,0.000000,-1998.556043,10362.883188
1597.894104,0.000000,-1110.308913,10436.903782
1597.894421,-306.438199,666.185348,9548.656652
1597.894739,689.485948,1702.473667,10140.821405
1597.895056,766.095498,1184.329507,10288.862594
1597.895373,1302.362347,1406.391290,9770.718434
1597.895691,1302.362347,814.226536,9474.636058
1597.896008,1685.410096,74.020594,9918.759623
1597.896325,2298.286494,-148.041188,10214.842000
1597.896643,2374.896044,370.102971,9326.594869
1597.896960,2451.505594,1332.370696,8586.388927
1597.897277,1608.800546,592.164754,8586.388927
1597.897595,1302.362347,-222.061783,9326.594869
1597.897912,1532.190996,-0.000000,9030.512492
1597.898229,1532.190996,370.102971,8586.388927
1597.898547,1685.410096,-666.185348,9400.615463
1597.898864,689.485948,-1776.494261,9992.780217
1597.899181,306.438199,-1110.308913,9104.533087
1597.899499,536.266849,-814.226536,8586.388927
1597.899816,306.438199,-666.185348,9474.636058
1597.900133,766.095498,-1332.370696,9918.759623
1597.900451,612.876398,-296.082377,9252.574275
1597.900768,766.095498,444.123565,9474.636058
1597.901085,229.828649,222.061783,9918.759623
1597.901403,229.828649,-370.102971,10362.883188
1597.901720,689.485948,370.102971,9844.739029
1597.902037,612.876398,1406.391290,8586.388927
1597.902355,689.485948,1036.288319,8660.409521
1597.902672,689.485948,296.082377,9178.553681
1597.902989,612.876398,-74.020594,9474.636058
1597.903307,995.924147,-222.061783,9400.615463
1597.903624,306.438199,-666.185348,9474.636058
1597.903941,229.828649,-962.267725,10140.821405
1597.904259,306.438199,-814.226536,9474.636058
1597.904576,383.047749,666.185348,8142.265362
1597.904893,306.438199,370.102971,8216.285956
1597.905211,76.609550,-296.082377,9104.533087
1597.905528,536.266849,-888.247130,9030.512492
1597.905845,459.657299,148.041188,8438.347739
1597.906163,612.876398,-74.020594,9770.718434
1597.906480,229.828649,-370.102971,9252.574275
1597.906797,459.657299,-0.000000,9030.512492
1597.907115,0.000000,962.267725,8586.388927
1597.907432,229.828649,1036.288319,8956.491898
1597.907749,-306.438199,592.164754,9474.636058
1597.908067,0.000000,1110.308913,9474.636058
1597.908384,612.876398,1332.370696,9548.656652
1597.908701,383.047749,1332.370696,9548.656652
1597.909019,689.485948,666.185348,10362.883188
1597.909336,766.095498,740.205942,9770.718434
1597.909653,1685.410096,1776.494261,9104.533087
1597.909971,2221.676944,1702.473667,9030.512492
1597.910288,1608.800546,1110.308913,9474.636058
1597.910605,2068.457845,666.185348,8882.471304
1597.910923,1838.629195,1258.350101,8586.388927
1597.911240,1838.629195,814.226536,8808.450710
1597.911557,1302.362347,-0.000000,9548.656652
1597.911875,842.705048,-0.000000,9400.615463
1597.912192,306.438199,1036.288319,8438.347739
1597.912509,306.438199,666.185348,8808.450710
1597.912827,-383.047749,-518.144159,9770.718434
1597.913144,-459.657299,-814.226536,10436.903782
1597.913461,-229.828649,370.102971,10066.800811
1597.913779,-536.266849,592.164754,10214.842000
1597.914096,-842.705048,-222.061783,11547.212695
1597.914413,-459.657299,-296.082377,12287.418637
1597.914730,-383.047749,1480.411884,10732.986159
1597.915048,383.047749,1554.432478,10288.862594
1597.915365,536.266849,518.144159,10658.965565
1597.915682,842.705048,-0.000000,10584.944971
1597.916000,1685.410096,1110.308913,9400.615463
1597.916317,2145.067394,1406.391290,8956.491898
1597.916634,1455.581446,-0.000000,9548.656652
1597.916952,1685.410096,-962.267725,9622.677246
1597.917269,1838.629195,-222.061783,7624.121203
1597.917586,536.266849,-444.123565,7994.224174
1597.917904,-153.219100,-2072.576638,9474.636058
1597.918221,-612.876398,-2146.597232,9770.718434
1597.918538,-1225.752797,-814.226536,9474.636058
1597.918856,-1149.143247,-74.020594,9844.739029
1597.919173,-842.705048,-740.205942,11177.109724
1597.919490,-842.705048,-1036.288319,11473.192101
1597.919808,536.266849,-0.000000,10881.027347
1597.920125,842.705048,1406.391290,9474.636058
1597.920442,1225.752797,1258.350101,9770.718434
1597.920760,2451.505594,888.247130,10140.821405
1597.921077,3064.381992,1554.432478,9104.533087
1597.921394,3600.648841,1850.514855,8438.347739
1597.921712,3524.039291,740.205942,8660.409521
1597.922029,3983.696590,-148.041188,9178.553681
1597.922346,3907.087040,444.123565,7920.203579
1597.922664,3830.477490,444.123565,6883.915261
1597.922981,2757.943793,-444.123565,7031.956449
1597.923298,2451.505594,-1258.350101,7698.141797
1597.923616,2068.457845,-740.205942,7402.059420
1597.923933,1608.800546,-370.102971,7772.162391
1597.924250,1378.971896,-1332.370696,9622.677246
1597.924568,0.000000,-1628.453072,9992.780217
1597.924885,-306.438199,-444.123565,10066.800811
1597.925202,-612.876398,666.185348,9030.512492
1597.925520,-76.609550,1110.308913,9400.615463
1597.925837,-306.438199,1110.308913,9474.636058
1597.926154,689.485948,1554.432478,9400.615463
1597.926472,1072.533697,2146.597232,8660.409521
1597.926789,1149.143247,1554.432478,8956.491898
1597.927106,842.705048,592.164754,9178.553681
1597.927424,612.876398,740.205942,8808.450710
1597.927741,0.000000,1776.494261,7624.121203
1597.928058,-689.485948,1258.350101,7846.182985
1597.928376,-1378.971896,-0.000000,8956.491898
1597.928693,-1838.629195,-592.164754,9474.636058
1597.929010,-1378.971896,-518.144159,9400.615463
1597.929328,-2451.505594,-1184.329507,9696.697840
1597.929645,-2528.115143,-2146.597232,11251.130318
1597.929962,-2681.334243,-1480.411884,10881.027347
1597.930280,-1302.362347,-148.041188,9474.636058
1597.930597,-1302.362347,222.061783,9696.697840
1597.930914,-689.485948,222.061783,10881.027347
1597.931232,153.219100,740.205942,10436.903782
1597.931549,1225.752797,2294.638420,9400.615463
1597.931866,1838.629195,1998.556043,9992.780217
1597.932184,2757.943793,814.226536,10362.883188
1597.932501,2757.943793,370.102971,10214.842000
1597.932818,3600.648841,1628.453072,9030.512492
1597.933136,4060.306139,1628.453072,8808.450710
1597.933453,4136.915689,814.226536,9696.697840
1597.933770,3983.696590,666.185348,9622.677246
1597.934088,3983.696590,888.247130,8882.471304
1597.934405,3753.867940,148.041188,9104.533087
1597.934722,2987.772442,-1258.350101,10288.862594
1597.935040,2451.505594,-1036.288319,10510.924376
1597.935357,2221.676944,-0.000000,9548.656652
1597.935674,1762.019645,666.185348,9326.594869
1597.935992,1455.581446,-296.082377,10510.924376
1597.936309,1072.533697,-814.226536,10362.883188
1597.936626,1455.581446,222.061783,9696.697840
1597.936944,1378.971896,962.267725,9104.533087
1597.937261,1532.190996,-0.000000,10362.883188
1597.937578,689.485948,-222.061783,9918.759623
1597.937895,383.047749,1258.350101,8956.491898
1597.938213,0.000000,1776.494261,8364.327145
1597.938530,-383.047749,814.226536,9400.615463
1597.938847,-459.657299,-0.000000,10066.800811
1597.939165,-1378.971896,222.061783,9696.697840
1597.939482,-842.705048,296.082377,9548.656652
1597.939799,-1225.752797,-518.144159,10140.821405
1597.940117,-1149.143247,-1184.329507,11177.109724
1597.940434,-689.485948,-0.000000,9622.677246
1597.940751,-1149.143247,962.267725,7920.203579
1597.941069,-919.314598,666.185348,8290.306550
1597.941386,-766.095498,-0.000000,9252.574275
1597.941703,-612.876398,148.041188,8216.285956
1597.942021,-766.095498,296.082377,8216.285956
1597.942338,-842.705048,-740.205942,9326.594869
1597.942655,-1149.143247,-1480.411884,9770.718434
1597.942972,-1072.533697,-148.041188,8438.347739
1597.943290,-842.705048,1036.288319,7624.121203
1597.943607,-1302.362347,370.102971,8808.450710
1597.943924,-1532.190996,-370.102971,9474.636058
1597.944242,-766.095498,666.185348,9030.512492
1597.944559,-842.705048,1554.432478,8956.491898
1597.944876,-766.095498,666.185348,10732.986159
1597.945194,-842.705048,-0.000000,11177.109724
1597.945511,-383.047749,1258.350101,10436.903782
1597.945828,919.314598,2220.617826,9474.636058
1597.946146,1455.581446,1480.411884,9622.677246
1597.946463,2145.067394,296.082377,9696.697840
1597.946780,2987.772442,296.082377,8438.347739
1597.947098,3907.087040,592.164754,7698.141797
1597.947415,3600.648841,-370.102971,8142.265362
1597.947732,3753.867940,-1258.350101,8956.491898
1597.948049,3217.601092,-444.123565,7846.182985
1597.948367,2911.162892,444.123565,7031.956449
1597.948684,1838.629195,-0.000000,8216.285956
1597.949001,1608.800546,-370.102971,9696.697840
1597.949319,1378.971896,-148.041188,9474.636058
1597.949636,995.924147,888.247130,9178.553681
1597.949953,1225.752797,-592.164754,10584.944971
1597.950271,612.876398,-1332.370696,11695.253884
1597.950588,612.876398,-296.082377,11325.150913
1597.950905,1302.362347,1110.308913,9770.718434
1597.951223,1532.190996,1406.391290,9622.677246
1597.951540,1608.800546,222.061783,10732.986159
1597.951857,1991.848295,1258.350101,10140.821405
1597.952175,2451.505594,1998.556043,8882.471304
1597.952492,2681.334243,1110.308913,9030.512492
1597.952809,2987.772442,-0.000000,9622.677246
1597.953126,2911.162892,74.020594,8512.368333
1597.953444,2681.334243,370.102971,7550.100608
1597.953761,2451.505594,-296.082377,7920.203579
1597.954078,1838.629195,-1554.432478,9030.512492
1597.954396,1225.752797,-1332.370696,9770.718434
1597.954713,229.828649,-518.144159,9326.594869
1597.955030,383.047749,-222.061783,9918.759623
1597.955348,-842.705048,-1850.514855,10881.027347
1597.955665,-995.924147,-1110.308913,11917.315666
1597.955982,-766.095498,-0.000000,10658.965565
1597.956300,-689.485948,962.267725,9696.697840
1597.956617,-153.219100,222.061783,10658.965565
1597.956934,229.828649,444.123565,11029.068536
1597.957252,1149.143247,1628.453072,9622.677246
1597.957569,1072.533697,1406.391290,9030.512492
1597.957886,1378.971896,518.144159,9918.759623
1597.958203,1149.143247,444.123565,9474.636058
1597.958521,919.314598,1406.391290,7550.100608
1597.958838,459.657299,1258.350101,7402.059420
1597.959155,0.000000,-296.082377,8956.491898
1597.959473,-612.876398,-592.164754,8438.347739
1597.959790,-842.705048,-148.041188,8290.306550
1597.960107,-766.095498,-666.185348,8882.471304
1597.960425,-459.657299,-1776.494261,9918.759623
1597.960742,-1072.533697,-1924.535449,11029.068536
1597.961059,-459.657299,-444.123565,9844.739029
1597.961377,-229.828649,1110.308913,8882.471304
1597.961694,0.000000,1184.329507,9326.594869
1597.962011,383.047749,1332.370696,9696.697840
1597.962329,995.924147,1850.514855,9030.512492
1597.962646,1685.410096,2072.576638,8586.388927
1597.962963,1455.581446,1776.494261,9326.594869
1597.963280,1915.238745,740.205942,9770.718434
1597.963598,1991.848295,1036.288319,8438.347739
1597.963915,1762.019645,1924.535449,7624.121203
1597.964232,1302.362347,296.082377,8586.388927
1597.964550,1072.533697,-0.000000,8882.471304
1597.964867,1532.190996,-0.000000,8808.450710
1597.965184,1685.410096,-666.185348,9178.553681
1597.965502,919.314598,-1184.329507,9992.780217
1597.965819,612.876398,-2294.638420,10658.965565
1597.966136,306.438199,-962.267725,9696.697840
1597.966454,1532.190996,-0.000000,8882.471304
1597.966771,1072.533697,-0.000000,9474.636058
1597.967088,1149.143247,-370.102971,9178.553681
1597.967406,2068.457845,148.041188,9252.574275
1597.967723,2374.896044,962.267725,8808.450710
1597.968040,3140.991542,296.082377,9548.656652
1597.968357,2068.457845,-0.000000,9622.677246
1597.968675,1378.971896,-0.000000,9252.574275
1597.968992,1149.143247,740.205942,9104.533087
1597.969309,306.438199,666.185348,9400.615463
1597.969627,-153.219100,148.041188,10807.006753
1597.969944,-76.609550,518.144159,10732.986159
1597.970261,-459.657299,1110.308913,10214.842000
1597.970579,0.000000,148.041188,11177.109724
1597.970896,0.000000,-518.144159,11843.295072
1597.971213,383.047749,-74.020594,10066.800811
1597.971531,1149.143247,1036.288319,8882.471304
1597.971848,1378.971896,888.247130,8882.471304
1597.972165,1608.800546,-0.000000,9178.553681
1597.972483,1685.410096,518.144159,9178.553681
1597.972800,2451.505594,814.226536,8586.388927
1597.973117,2068.457845,592.164754,8438.347739
1597.973434,1608.800546,-444.123565,9326.594869
1597.973752,1378.971896,-0.000000,8956.491898
1597.974069,1149.143247,518.144159,8142.265362
1597.974386,383.047749,-0.000000,9104.533087
1597.974704,-153.219100,-888.247130,9918.759623
1597.975021,-383.047749,-148.041188,9918.759623
1597.975338,-459.657299,592.164754,9844.739029
1597.975656,-1225.752797,888.247130,10214.842000
1597.975973,-1608.800546,296.082377,11843.295072
1597.976290,-1302.362347,814.226536,11103.089130
1597.976608,-689.485948,1554.432478,9770.718434
1597.976925,-766.095498,1258.350101,9992.780217
1597.977242,-383.047749,-148.041188,10510.924376
1597.977560,383.047749,-370.102971,9548.656652
1597.977877,1072.533697,592.164754,8438.347739
1597.978194,1455.581446,-0.000000,8660.409521
1597.978511,1225.752797,-518.144159,9104.533087
1597.978829,1378.971896,-148.041188,8290.306550
1597.979146,1149.143247,148.041188,7328.038826
1597.979463,383.047749,-148.041188,8068.244768
1597.979781,-612.876398,-814.226536,9030.512492
1597.980098,-995.924147,-1110.308913,9622.677246
1597.980415,-919.314598,-222.061783,9696.697840
1597.980733,-995.924147,-666.185348,10510.924376
1597.981050,-1149.143247,-740.205942,11029.068536
1597.981367,-306.438199,-74.020594,11177.109724
1597.981685,383.047749,814.226536,9992.780217
1597.982002,76.609550,1480.411884,9104.533087
1597.982319,689.485948,1036.288319,10288.862594
1597.982637,766.095498,740.205942,9992.780217
1597.982954,2145.067394,1628.453072,9252.574275
1597.983271,1762.019645,1258.350101,9104.533087
1597.983588,1378.971896,148.041188,10140.821405
1597.983906,2374.896044,-0.000000,9474.636058
1597.984223,2068.457845,518.144159,7624.121203
1597.984540,2374.896044,814.226536,7402.059420
1597.984858,1915.238745,-148.041188,8734.430116
1597.985175,1762.019645,-148.041188,7920.203579
1597.985492,2987.772442,-0.000000,8216.285956
1597.985810,2374.896044,-74.020594,8660.409521
1597.986127,1455.581446,-740.205942,9622.677246
1597.986444,1455.581446,-666.185348,9696.697840
1597.986762,1455.581446,666.185348,9252.574275
1597.987079,1838.629195,1258.350101,9326.594869
1597.987396,1072.533697,740.205942,9696.697840
1597.987714,1378.971896,222.061783,10584.944971
1597.988031,1762.019645,1406.391290,9178.553681
1597.988348,2221.676944,1258.350101,8734.430116
1597.988666,1685.410096,370.102971,9992.780217
1597.988983,1378.971896,-0.000000,10288.862594
1597.989300,1532.190996,962.267725,9030.512492
1597.989617,459.657299,592.164754,8364.327145
1597.989935,229.828649,-222.061783,9696.697840
1597.990252,-229.828649,-740.205942,9992.780217
1597.990569,76.609550,-444.123565,9030.512492
1597.990887,153.219100,-962.267725,9400.615463
1597.991204,229.828649,-2072.576638,10362.883188
1597.991521,229.828649,-2072.576638,9918.759623
1597.991839,919.314598,-592.164754,8734.430116
1597.992156,1149.143247,296.082377,7772.162391
1597.992473,919.314598,222.061783,9104.533087
1597.992791,383.047749,666.185348,9326.594869
1597.993108,995.924147,1184.329507,9252.574275
1597.993425,689.485948,1480.411884,8882.471304
1597.993743,536.266849,222.061783,10288.862594
1597.994060,0.000000,-444.123565,10955.047942
1597.994377,0.000000,148.041188,10288.862594
1597.994694,-459.657299,444.123565,9104.533087
1597.995012,-1149.143247,444.123565,9918.759623
1597.995329,-1072.533697,-0.000000,10881.027347
1597.995646,-1072.533697,1406.391290,9178.553681
1597.995964,-383.047749,962.267725,9474.636058
1597.996281,-612.876398,-518.144159,10955.047942
1597.996598,-1378.971896,-1110.308913,11621.233289
1597.996916,-1455.581446,-74.020594,9844.739029
1597.997233,0.000000,1628.453072,8364.327145
1597.997550,612.876398,888.247130,9104.533087
1597.997868,1378.971896,518.144159,8660.409521
1597.998185,2374.896044,1332.370696,8068.244768
1597.998502,2451.505594,1480.411884,7772.162391
1597.998820,1991.848295,814.226536,8216.285956
1597.999137,1378.971896,-740.205942,9252.574275
1597.999454,766.095498,-296.082377,9400.615463
1597.999771,153.219100,444.123565,8882.471304
1598.000089,-919.314598,592.164754,9844.739029
1598.000406,-842.705048,148.041188,10881.027347
1598.000723,-153.219100,1036.288319,10362.883188
1598.001041,153.219100,1406.391290,9548.656652
1598.001358,153.219100,444.123565,10288.862594
1598.001675,459.657299,-1110.308913,11769.274478
1598.001993,1225.752797,-370.102971,10436.903782
1598.002310,1685.410096,1702.473667,9178.553681
1598.002627,1762.019645,1036.288319,8956.491898
1598.002945,2451.505594,444.123565,9400.615463
1598.003262,3217.601092,814.226536,9178.553681
1598.003579,3600.648841,962.267725,7772.162391
1598.003897,3370.820191,-0.000000,7846.182985
1598.004214,3370.820191,-1480.411884,9252.574275
1598.004531,3140.991542,-740.205942,8734.430116
1598.004848,3294.210641,-74.020594,7550.100608
1598.005166,2374.896044,-592.164754,7920.203579
1598.005483,1378.971896,-1628.453072,10140.821405
1598.005800,1149.143247,-1332.370696,10584.944971
1598.006118,766.095498,296.082377,9622.677246
1598.006435,689.485948,-296.082377,10732.986159
1598.006752,0.000000,-962.267725,11991.336260
1598.007070,383.047749,-740.205942,11177.109724
1598.007387,766.095498,666.185348,9474.636058
1598.007704,1532.190996,1036.288319,9178.553681
1598.008022,1455.581446,-0.000000,9400.615463
1598.008339,1991.848295,222.061783,8882.471304
1598.008656,2298.286494,962.267725,7476.080014
1598.008974,1838.629195,296.082377,7920.203579
1598.009291,1149.143247,-1036.288319,9252.574275
1598.009608,0.000000,-888.247130,9178.553681
1598.009925,-153.219100,-148.041188,7476.080014
1598.010243,-995.924147,-222.061783,7920.203579
1598.010560,-1378.971896,-1258.350101,9178.553681
1598.010877,-2145.067394,-1110.308913,9178.553681
1598.011195,-1838.629195,-370.102971,8808.450710
1598.011512,-1532.190996,-518.144159,9474.636058
1598.011829,-1685.410096,-1554.432478,10881.027347
1598.012147,-1378.971896,-666.185348,11325.150913
1598.012464,-612.876398,1776.494261,9474.636058
1598.012781,0.000000,3478.967927,8364.327145
1598.013099,306.438199,2664.741391,8882.471304
1598.013416,766.095498,2368.659014,9326.594869
1598.013733,1225.752797,3330.926739,7772.162391
1598.014051,1991.848295,2812.782580,7328.038826
1598.014368,919.314598,1110.308913,8216.285956
1598.014685,1225.752797,-74.020594,10066.800811
1598.015002,0.000000,666.185348,9030.512492
1598.015320,-229.828649,592.164754,8290.306550
1598.015637,-1225.752797,-518.144159,9548.656652
1598.015954,-1225.752797,-1110.308913,10807.006753
1598.016272,-612.876398,-592.164754,10066.800811
1598.016589,-612.876398,-222.061783,10214.842000
1598.016906,-919.314598,-888.247130,11769.274478
1598.017224,-689.485948,-814.226536,11621.233289
1598.017541,842.705048,814.226536,10436.903782
1598.017858,1608.800546,2220.617826,8956.491898
1598.018176,2451.505594,1776.494261,9548.656652
1598.018493,3064.381992,1110.308913,9844.739029
1598.018810,3983.696590,1776.494261,9474.636058
1598.019128,4290.134789,2072.576638,8734.430116
1598.019445,3677.258390,592.164754,9548.656652
1598.019762,2834.553343,-296.082377,10658.965565
1598.020079,2451.505594,444.123565,9918.759623
1598.020397,1915.238745,962.267725,8586.388927
1598.020714,919.314598,148.041188,9622.677246
1598.021031,459.657299,-1258.350101,11251.130318
1598.021349,-306.438199,-1184.329507,11029.068536
1598.021666,76.609550,-814.226536,10658.965565
1598.021983,-612.876398,-740.205942,11621.233289
1598.022301,-306.438199,-1406.391290,12213.398043
1598.022618,153.219100,-0.000000,10510.924376
1598.022935,1608.800546,1406.391290,8512.368333
1598.023253,1532.190996,1776.494261,8290.306550
1598.023570,2221.676944,518.144159,9326.594869
1598.023887,2987.772442,962.267725,8734.430116
1598.024205,3217.601092,1332.370696,7476.080014
1598.024522,2911.162892,666.185348,8290.306550
1598.024839,2451.505594,-0.000000,9178.553681
1598.025156,2221.676944,592.164754,8586.388927
1598.025474,1915.238745,888.247130,6587.832884
1598.025791,536.266849,666.185348,7476.080014
1598.026108,0.000000,-444.123565,9326.594869
1598.026426,-306.438199,-148.041188,9622.677246
1598.026743,-612.876398,-0.000000,8734.430116
1598.027060,-1302.362347,-666.185348,9770.718434
1598.027378,-1685.410096,-1184.329507,11251.130318
1598.027695,-1762.019645,-888.247130,10362.883188
1598.028012,-842.705048,370.102971,8660.409521
1598.028330,-536.266849,370.102971,8882.471304
1598.028647,-612.876398,-0.000000,9326.594869
1598.028964,612.876398,-0.000000,8734.430116
1598.029282,1225.752797,1258.350101,7179.997637
1598.029599,1762.019645,814.226536,7772.162391
1598.029916,995.924147,-666.185348,8734.430116
1598.030233,842.705048,-74.020594,8438.347739
1598.030551,306.438199,444.123565,7254.018232
1598.030868,-459.657299,-0.000000,8364.327145
1598.031185,-1838.629195,-740.205942,9696.697840
1598.031503,-1915.238745,-1258.350101,10436.903782
1598.031820,-1532.190996,-518.144159,9918.759623
1598.032137,-1685.410096,-592.164754,10214.842000
1598.032455,-1762.019645,-1776.494261,11991.336260
1598.032772,-1225.752797,-1628.453072,11843.295072
1598.033089,-459.657299,-518.144159,10066.800811
1598.033407,0.000000,-148.041188,9474.636058
1598.033724,306.438199,-740.205942,11103.089130
1598.034041,1302.362347,222.061783,10658.965565
1598.034359,2528.115143,1924.535449,8882.471304
1598.034676,3370.820191,1924.535449,8068.244768
1598.034993,3447.429741,814.226536,8882.471304
1598.035310,3677.258390,-0.000000,9400.615463
1598.035628,3753.867940,962.267725,7698.141797
1598.035945,3677.258390,814.226536,7476.080014
1598.036262,2834.553343,-222.061783,9030.512492
1598.036580,2374.896044,-370.102971,9844.739029
1598.036897,2221.676944,518.144159,9474.636058
1598.037214,2221.676944,814.226536,9696.697840
1598.037532,1915.238745,-296.082377,11473.192101
1598.037849,1455.581446,-592.164754,11621.233289
1598.038166,1685.410096,1184.329507,10214.842000
1598.038484,2298.286494,1850.514855,9252.574275
1598.038801,2145.067394,1036.288319,10214.842000
1598.039118,2604.724693,592.164754,10732.986159
1598.039436,3064.381992,2072.576638,8956.491898
1598.039753,3677.258390,2442.679609,8290.306550
1598.040070,3294.210641,1258.350101,8956.491898
1598.040388,2911.162892,-74.020594,9178.553681
1598.040705,2451.505594,1110.308913,7920.203579
1598.041022,1762.019645,1110.308913,7105.977043
1598.041339,536.266849,-0.000000,8512.368333
1598.041657,-306.438199,-1480.411884,9770.718434
1598.041974,-689.485948,-666.185348,9474.636058
1598.042291,-1072.533697,-0.000000,9178.553681
1598.042609,-1838.629195,-1036.288319,10807.006753
1598.042926,-1915.238745,-1258.350101,11695.253884
1598.043243,-1762.019645,-74.020594,10362.883188
1598.043561,-1532.190996,1184.329507,8956.491898
1598.043878,-1762.019645,814.226536,10066.800811
1598.044195,-1149.143247,444.123565,10658.965565
1598.044513,-459.657299,1406.391290,9474.636058
1598.044830,0.000000,2072.576638,8290.306550
1598.045147,0.000000,518.144159,9252.574275
1598.045465,-306.438199,-0.000000,10140.821405
1598.045782,-153.219100,444.123565,8808.450710
1598.046099,-459.657299,1110.308913,7550.100608
1598.046417,-842.705048,222.061783,8216.285956
1598.046734,-1225.752797,-518.144159,9548.656652
1598.047051,-1302.362347,-740.205942,9474.636058
1598.047369,-1072.533697,-518.144159,9326.594869
1598.047686,-1455.581446,-1110.308913,9918.759623
1598.048003,-1532.190996,-1628.453072,11103.089130
1598.048321,-1072.533697,-222.061783,10510.924376
1598.048638,0.000000,814.226536,9104.533087
1598.048955,612.876398,962.267725,9030.512492
1598.049273,995.924147,592.164754,10140.821405
1598.049590,2528.115143,1036.288319,9548.656652
1598.049907,3217.601092,2294.638420,7550.100608
1598.050225,3140.991542,1406.391290,8290.306550
1598.050542,2681.334243,-0.000000,10140.821405
1598.050859,2451.505594,518.144159,9252.574275
1598.051177,2681.334243,1332.370696,8290.306550
1598.051494,2068.457845,222.061783,9104.533087
1598.051811,766.095498,-592.164754,10510.924376
1598.052129,842.705048,-1036.288319,10362.883188
1598.052446,1225.752797,222.061783,9696.697840
1598.052763,536.266849,-222.061783,9548.656652
1598.053081,766.095498,-962.267725,11177.109724
1598.053398,1072.533697,-296.082377,10732.986159
1598.053715,1991.848295,962.267725,9474.636058
1598.054032,2145.067394,666.185348,8956.491898
1598.054350,2528.115143,222.061783,10140.821405
1598.054667,2221.676944,-0.000000,9622.677246
1598.054984,3217.601092,1258.350101,8512.368333
1598.055302,2834.553343,888.247130,8142.265362
1598.055619,2451.505594,-444.123565,9992.780217
1598.055936,1838.629195,-592.164754,9548.656652
1598.056254,2068.457845,740.205942,7698.141797
1598.056571,1072.533697,518.144159,8512.368333
1598.056888,0.000000,-444.123565,9918.759623
1598.057206,-919.314598,-518.144159,9622.677246
1598.057523,-919.314598,-0.000000,9400.615463
1598.057840,-1149.143247,-518.144159,10658.965565
1598.058158,-1225.752797,-1776.494261,11473.192101
1598.058475,-919.314598,-1036.288319,11325.150913
1598.058792,0.000000,-0.000000,10066.800811
1598.059110,76.609550,1110.308913,8364.327145
1598.059427,766.095498,370.102971,8808.450710
1598.059744,1302.362347,-0.000000,9326.594869
1598.060062,2068.457845,1184.329507,7772.162391
1598.060379,1455.581446,1110.308913,7328.038826
1598.060696,1149.143247,-148.041188,8882.471304
1598.061014,1149.143247,444.123565,9326.594869
1598.061331,1378.971896,1036.288319,7772.162391
1598.061648,995.924147,814.226536,7624.121203
1598.061966,-153.219100,-0.000000,8808.450710
1598.062283,229.828649,-74.020594,9770.718434
1598.062600,229.828649,814.226536,8290.306550
1598.062918,1072.533697,518.144159,9474.636058
1598.063235,306.438199,-0.000000,10584.944971
1598.063552,229.828649,-0.000000,10807.006753
1598.063870,612.876398,1554.432478,9030.512492
1598.064187,1225.752797,2146.597232,8734.430116
1598.064504,842.705048,1332.370696,8808.450710
1598.064822,1455.581446,740.205942,9400.615463
1598.065139,1915.238745,888.247130,8438.347739
1598.065456,2145.067394,1036.288319,8216.285956
1598.065774,1838.629195,222.061783,9400.615463
1598.066091,1302.362347,-296.082377,9770.718434
1598.066408,1762.019645,296.082377,8438.347739
1598.066725,229.828649,370.102971,7476.080014
1598.067043,-612.876398,-814.226536,9474.636058
1598.067360,-1455.581446,-1110.308913,10436.903782
1598.067677,-995.924147,-148.041188,9918.759623
1598.067995,-766.095498,148.041188,9770.718434
1598.068312,-1072.533697,-296.082377,11103.089130
1598.068629,-1149.143247,-666.185348,11695.253884
1598.068947,0.000000,518.144159,10362.883188
1598.069264,459.657299,1184.329507,9104.533087
1598.069581,689.485948,888.247130,9696.697840
1598.069899,1302.362347,-0.000000,10288.862594
1598.070216,1685.410096,666.185348,9104.533087
1598.070533,1685.410096,666.185348,8808.450710
1598.070851,1378.971896,-0.000000,9696.697840
1598.071168,1455.581446,-740.205942,10140.821405
1598.071485,1378.971896,-0.000000,9104.533087
1598.071803,919.314598,666.185348,8512.368333
1598.072120,76.609550,-148.041188,9178.553681
1598.072437,-229.828649,-518.144159,9770.718434
1598.072755,0.000000,-518.144159,10140.821405
1598.073072,306.438199,-74.020594,9326.594869
1598.073389,-153.219100,-888.247130,10955.047942
1598.073707,-153.219100,-2146.597232,11621.233289
1598.074024,0.000000,-666.185348,11029.068536
1598.074341,842.705048,518.144159,9844.739029
1598.074659,995.924147,444.123565,9548.656652
1598.074976,1302.362347,-0.000000,10362.883188
1598.075293,2681.334243,1184.329507,10214.842000
1598.075611,3294.210641,1998.556043,7179.997637
1598.075928,3447.429741,1110.308913,8438.347739
1598.076245,2911.162892,-0.000000,9844.739029
1598.076563,2757.943793,666.185348,8142.265362
1598.076880,1838.629195,1850.514855,6365.771101
1598.077197,1149.143247,814.226536,7476.080014
1598.077515,-306.438199,-518.144159,9696.697840
1598.077832,-459.657299,-0.000000,9252.574275
1598.078149,0.000000,-1110.308913,9400.615463
1598.078467,-1149.143247,-2146.597232,10066.800811
1598.078784,-1685.410096,-3108.864956,12953.603985
1598.079101,-1072.533697,-2146.597232,11621.233289
1598.079418,-383.047749,962.267725,9178.553681
1598.079736,-229.828649,1036.288319,8512.368333
1598.080053,-689.485948,1184.329507,9326.594869
1598.080370,459.657299,1332.370696,9178.553681
1598.080688,1991.848295,2368.659014,8216.285956
1598.081005,1991.848295,1480.411884,7772.162391
1598.081322,2145.067394,-0.000000,9474.636058
1598.081640,1455.581446,222.061783,8512.368333
1598.081957,2221.676944,1480.411884,7328.038826
1598.082274,1608.800546,518.144159,6587.832884
1598.082592,459.657299,-1628.453072,9770.718434
1598.082909,-919.314598,-1554.432478,9770.718434
1598.083226,-229.828649,222.061783,8586.388927
1598.083544,-919.314598,-0.000000,9400.615463
1598.083861,-1532.190996,-1036.288319,12065.356855
1598.084178,-2145.067394,-1184.329507,10881.027347
1598.084496,-1378.971896,222.061783,9696.697840
1598.084813,-536.266849,-0.000000,9400.615463
1598.085130,0.000000,-666.185348,10436.903782
1598.085448,229.828649,-222.061783,10584.944971
1598.085765,1378.971896,1554.432478,8734.430116
1598.086082,2145.067394,2146.597232,7994.224174
1598.086400,1762.019645,1332.370696,8734.430116
1598.086717,2451.505594,-296.082377,9696.697840
1598.087034,1838.629195,1036.288319,7476.080014
1598.087352,2681.334243,1258.350101,8142.265362
1598.087669,2528.115143,444.123565,8660.409521
1598.087986,1838.629195,-148.041188,9918.759623
1598.088304,1532.190996,74.020594,9104.533087
1598.088621,1455.581446,814.226536,8438.347739
1598.088938,1608.800546,-222.061783,10066.800811
1598.089256,1225.752797,-888.247130,11473.192101
1598.089573,536.266849,666.185348,9178.553681
1598.089890,612.876398,1924.535449,9474.636058
1598.090208,229.828649,592.164754,10658.965565
1598.090525,1378.971896,666.185348,10732.986159
1598.090842,1685.410096,296.082377,9400.615463
1598.091160,1915.238745,1036.288319,8956.491898
1598.091477,1838.629195,-740.205942,10288.862594
1598.091794,3064.381992,-962.267725,10584.944971
1598.092111,2451.505594,-148.041188,9474.636058
1598.092429,1991.848295,1332.370696,7994.224174
1598.092746,995.924147,888.247130,7772.162391
1598.093063,612.876398,-444.123565,9548.656652
1598.093381,919.314598,-0.000000,9622.677246
1598.093698,0.000000,296.082377,9474.636058
1598.094015,-1072.533697,-74.020594,10584.944971
1598.094333,-536.266849,-1184.329507,12139.377449
1598.094650,0.000000,-74.020594,10214.842000
1598.094967,306.438199,296.082377,9474.636058
1598.095285,-536.266849,-222.061783,9770.718434
1598.095602,229.828649,-296.082377,10214.842000
1598.095919,1455.581446,518.144159,8882.471304
1598.096237,2221.676944,1406.391290,8364.327145
1598.096554,1302.362347,962.267725,9696.697840
1598.096871,919.314598,-740.205942,10732.986159
1598.097189,612.876398,592.164754,8734.430116
1598.097506,1378.971896,740.205942,7772.162391
1598.097823,306.438199,296.082377,8364.327145
1598.098141,-153.219100,-0.000000,9400.615463
1598.098458,229.828649,-296.082377,9474.636058
1598.098775,612.876398,-0.000000,9178.553681
1598.099093,459.657299,-592.164754,10140.821405
1598.099410,-612.876398,-518.144159,10955.047942
1598.099727,306.438199,296.082377,9696.697840
1598.100045,1225.752797,2368.659014,8068.244768
1598.100362,306.438199,1628.453072,8290.306550
1598.100679,689.485948,962.267725,10140.821405
1598.100997,383.047749,1628.453072,8660.409521
1598.101314,1762.019645,2960.823768,7920.203579
1598.101631,1838.629195,1036.288319,7846.182985
1598.101949,919.314598,-0.000000,9474.636058
1598.102266,995.924147,-444.123565,8734.430116
1598.102583,1149.143247,222.061783,7698.141797
1598.102901,842.705048,-222.061783,8660.409521
1598.103218,-689.485948,-1110.308913,10732.986159
1598.103535,-1225.752797,222.061783,9104.533087
1598.103852,-995.924147,1480.411884,9104.533087
1598.104170,-919.314598,-0.000000,9770.718434
1598.104487,-766.095498,-1554.432478,11177.109724
1598.104804,-1991.848295,-444.123565,10510.924376
1598.105122,-153.219100,-0.000000,10362.883188
1598.105439,229.828649,888.247130,8586.388927
1598.105756,1149.143247,296.082377,10288.862594
1598.106074,612.876398,222.061783,9844.739029
1598.106391,1762.019645,814.226536,8956.491898
1598.106708,1225.752797,1184.329507,7698.141797
1598.107026,1838.629195,-1776.494261,11325.150913
1598.107343,459.657299,-666.185348,10288.862594
1598.107660,1532.190996,592.164754,9178.553681
1598.107978,229.828649,1554.432478,7476.080014
1598.108295,689.485948,-296.082377,9770.718434
1598.108612,459.657299,-1184.329507,10140.821405
1598.108930,383.047749,-222.061783,9474.636058
1598.109247,229.828649,444.123565,8808.450710
1598.109564,383.047749,-444.123565,11547.212695
1598.109882,383.047749,-888.247130,11473.192101
1598.110199,995.924147,1480.411884,9400.615463
1598.110516,153.219100,1110.308913,8216.285956
1598.110834,766.095498,-148.041188,10807.006753
1598.111151,1149.143247,-1184.329507,10510.924376
1598.111468,2451.505594,222.061783,9326.594869
1598.111786,2604.724693,740.205942,9030.512492
1598.112103,2451.505594,592.164754,9622.677246
1598.112420,2451.505594,-0.000000,9474.636058
1598.112738,2757.943793,888.247130,8586.388927
1598.113055,1838.629195,1184.329507,7031.956449
1598.113372,766.095498,592.164754,8660.409521
1598.113690,766.095498,962.267725,10066.800811
1598.114007,995.924147,518.144159,9696.697840
1598.114324,76.609550,1110.308913,8290.306550
1598.114642,0.000000,-888.247130,10807.006753
1598.114959,-383.047749,-888.247130,11251.130318
1598.115276,1455.581446,-814.226536,8660.409521
1598.115594,1149.143247,592.164754,7402.059420
1598.115911,76.609550,-592.164754,9770.718434
1598.116228,1302.362347,-1406.391290,10881.027347
1598.116545,2528.115143,-0.000000,8808.450710
1598.116863,2451.505594,962.267725,8216.285956
1598.117180,1378.971896,592.164754,8808.450710
1598.117497,919.314598,1480.411884,8882.471304
1598.117815,2374.896044,1628.453072,7846.182985
1598.118132,1915.238745,814.226536,7254.018232
1598.118449,0.000000,-666.185348,8882.471304
1598.118767,-1149.143247,-1628.453072,10807.006753
1598.119084,-459.657299,-0.000000,9844.739029
1598.119401,536.266849,666.185348,8734.430116
1598.119719,-995.924147,-370.102971,9770.718434
1598.120036,-1685.410096,-1036.288319,11695.253884
1598.120353,-1608.800546,-222.061783,10214.842000
1598.120671,76.609550,-0.000000,9696.697840
1598.120988,153.219100,148.041188,9992.780217
1598.121305,-229.828649,296.082377,10658.965565
1598.121623,766.095498,1184.329507,9104.533087
1598.121940,1302.362347,1332.370696,7179.997637
1598.122257,1685.410096,-370.102971,8734.430116
1598.122575,995.924147,-1480.411884,10732.986159
1598.122892,995.924147,-0.000000,8882.471304
1598.123209,1302.362347,1406.391290,6957.935855
1598.123527,919.314598,444.123565,9400.615463
1598.123844,0.000000,-740.205942,11103.089130
1598.124161,-306.438199,148.041188,10214.842000
1598.124479,536.266849,1554.432478,8438.347739
1598.124796,306.438199,1406.391290,9474.636058
1598.125113,0.000000,-814.226536,11843.295072
1598.125431,459.657299,-370.102971,11399.171507
1598.125748,766.095498,1554.432478,9178.553681
1598.126065,919.314598,1702.473667,8882.471304
1598.126383,1225.752797,814.226536,9918.759623
1598.126700,1455.581446,1924.535449,8808.450710
1598.127017,1685.410096,2072.576638,7550.100608
1598.127335,995.924147,1332.370696,8290.306550
1598.127652,459.657299,-666.185348,11399.171507
1598.127969,612.876398,-814.226536,9992.780217
1598.128287,459.657299,1036.288319,8068.244768
1598.128604,229.828649,-0.000000,8660.409521
1598.128921,-229.828649,-1036.288319,10140.821405
1598.129238,229.828649,-814.226536,9918.759623
1598.129556,995.924147,444.123565,9326.594869
1598.129873,153.219100,592.164754,9474.636058
1598.130190,0.000000,814.226536,10584.944971
1598.130508,536.266849,666.185348,10362.883188
1598.130825,1685.410096,2294.638420,9326.594869
1598.131142,919.314598,3256.906145,7772.162391
1598.131460,612.876398,1332.370696,9326.594869
1598.131777,612.876398,370.102971,10362.883188
1598.132094,2757.943793,740.205942,9400.615463
1598.132412,1608.800546,296.082377,8586.388927
1598.132729,1072.533697,-1184.329507,10881.027347
1598.133046,536.266849,-1110.308913,9992.780217
1598.133364,995.924147,-296.082377,8290.306550
1598.133681,995.924147,444.123565,8882.471304
1598.133998,-689.485948,-1480.411884,10584.944971
1598.134316,-1455.581446,-666.185348,9622.677246
1598.134633,-459.657299,592.164754,9104.533087
1598.134950,0.000000,1184.329507,9770.718434
1598.135268,0.000000,-1332.370696,11695.253884
1598.135585,229.828649,-2072.576638,11769.274478
1598.135902,459.657299,-1036.288319,10140.821405
1598.136220,1991.848295,592.164754,8512.368333
1598.136537,2145.067394,-0.000000,8956.491898
1598.136854,2451.505594,444.123565,9918.759623
1598.137172,2987.772442,1406.391290,8660.409521
1598.137489,2451.505594,2220.617826,7179.997637
1598.137806,1991.848295,296.082377,9548.656652
1598.138124,1608.800546,-740.205942,10362.883188
1598.138441,1532.190996,592.164754,8438.347739
1598.138758,536.266849,1332.370696,8660.409521
1598.139076,153.219100,-148.041188,8882.471304
1598.139393,-229.828649,-1110.308913,9548.656652
1598.139710,153.219100,-1258.350101,9622.677246
1598.140028,0.000000,-518.144159,9030.512492
1598.140345,-536.266849,-814.226536,9326.594869
1598.140662,-842.705048,-1258.350101,11177.109724
1598.140980,0.000000,148.041188,10510.924376
1598.141297,153.219100,1554.432478,8660.409521
1598.141614,766.095498,1184.329507,8586.388927
1598.141932,1149.143247,592.164754,9104.533087
1598.142249,2145.067394,1258.350101,8068.244768
1598.142567,3064.381992,1258.350101,7254.018232
1598.142884,3064.381992,740.205942,8142.265362
1598.143201,1991.848295,-0.000000,8956.491898
1598.143519,2221.676944,-370.102971,8216.285956
1598.143836,1072.533697,888.247130,7179.997637
1598.144154,0.000000,518.144159,8808.450710
1598.144471,-689.485948,-740.205942,9918.759623
1598.144788,-1378.971896,-222.061783,9696.697840
1598.145106,-1378.971896,296.082377,10140.821405
1598.145423,-995.924147,-592.164754,11325.150913
1598.145741,-1608.800546,-1480.411884,11029.068536
1598.146058,-766.095498,-1258.350101,10807.006753
1598.146375,229.828649,222.061783,8882.471304
1598.146693,842.705048,1110.308913,8808.450710
1598.147010,919.314598,-0.000000,9030.512492
1598.147327,1302.362347,444.123565,9696.697840
1598.147645,2145.067394,592.164754,9178.553681
1598.147962,2604.724693,518.144159,9548.656652
1598.148280,1838.629195,-518.144159,9844.739029
1598.148597,1378.971896,-148.041188,9696.697840
1598.148914,995.924147,740.205942,7920.203579
1598.149232,1378.971896,370.102971,8660.409521
1598.149549,612.876398,-1036.288319,9992.780217
1598.149867,459.657299,-1258.350101,11399.171507
1598.150184,0.000000,-0.000000,9252.574275
1598.150501,229.828649,814.226536,10362.883188
1598.150819,383.047749,222.061783,11769.274478
1598.151136,459.657299,518.144159,11251.130318
1598.151454,0.000000,1628.453072,8586.388927
1598.151771,689.485948,1110.308913,9918.759623
1598.152088,995.924147,1332.370696,9474.636058
1598.152406,3140.991542,1036.288319,9622.677246
1598.152723,3140.991542,1480.411884,8364.327145
1598.153040,2604.724693,1036.288319,7328.038826
1598.153358,2298.286494,148.041188,7698.141797
1598.153675,2528.115143,-740.205942,8734.430116
1598.153993,1915.238745,370.102971,7772.162391
1598.154310,766.095498,1184.329507,7698.141797
1598.154627,-612.876398,-0.000000,9030.512492
1598.154945,-536.266849,148.041188,10288.862594
1598.155262,-842.705048,518.144159,9548.656652
1598.155580,-766.095498,370.102971,10436.903782
1598.155897,-1608.800546,-296.082377,11399.171507
1598.156214,-842.705048,-74.020594,11251.130318
1598.156532,153.219100,1258.350101,9326.594869
1598.156849,689.485948,1036.288319,9696.697840
1598.157167,229.828649,296.082377,10436.903782
1598.157484,1455.581446,-74.020594,9770.718434
1598.157801,2145.067394,1406.391290,7772.162391
1598.158119,2221.676944,1332.370696,8586.388927
1598.158436,1685.410096,-74.020594,9622.677246
1598.158753,1302.362347,222.061783,8660.409521
1598.159071,1225.752797,740.205942,7920.203579
1598.159388,689.485948,-148.041188,8734.430116
1598.159706,-459.657299,-1628.453072,9474.636058
1598.160023,-689.485948,-1850.514855,10362.883188
1598.160340,-536.266849,-1628.453072,10066.800811
1598.160658,-995.924147,-1258.350101,10584.944971
1598.160975,-1532.190996,-1776.494261,11991.336260
1598.161293,-1762.019645,-814.226536,11991.336260
1598.161610,-383.047749,1184.329507,10214.842000
1598.161927,536.266849,1480.411884,9696.697840
1598.162245,536.266849,962.267725,10214.842000
1598.162562,995.924147,592.164754,10362.883188
1598.162880,2451.505594,888.247130,8882.471304
1598.163197,2681.334243,740.205942,8068.244768
1598.163514,2528.115143,-222.061783,9030.512492
1598.163832,2681.334243,-370.102971,9326.594869
1598.164149,2451.505594,666.185348,7179.997637
1598.164466,2987.772442,814.226536,6365.771101
1598.164784,1532.190996,-296.082377,8216.285956
1598.165101,842.705048,-888.247130,9326.594869
