#time,accel_x,accel_y,accel_z
1043.970876,383.047749,222.061783,9252.574275
1043.971196,459.657299,222.061783,9326.594869
1043.971515,383.047749,296.082377,9178.553681
1043.971834,306.438199,444.123565,9252.574275
1043.972153,459.657299,518.144159,9178.553681
1043.972472,536.266849,592.164754,9252.574275
1043.972791,229.828649,444.123565,9104.533087
1043.973110,536.266849,444.123565,9252.574275
1043.973429,459.657299,-0.000000,9030.512492
1043.973749,229.828649,222.061783,9178.553681
1043.974068,459.657299,518.144159,9326.594869
1043.974387,689.485948,370.102971,9326.594869
1043.974706,995.924147,296.082377,9400.615463
1043.975025,689.485948,222.061783,9252.574275
1043.975344,459.657299,296.082377,9326.594869
1043.975663,459.657299,444.123565,9178.553681
1043.975983,612.876398,370.102971,9252.574275
1043.976302,306.438199,222.061783,8956.491898
1043.976621,459.657299,444.123565,9474.636058
1043.976940,459.657299,370.102971,9474.636058
1043.977259,459.657299,370.102971,9104.533087
1043.977578,536.266849,370.102971,9326.594869
1043.977897,459.657299,444.123565,9326.594869
1043.978216,383.047749,148.041188,9104.533087
1043.978536,306.438199,296.082377,9326.594869
1043.978855,383.047749,444.123565,9252.574275
1043.979174,689.485948,370.102971,9178.553681
1043.979493,1225.752797,222.061783,9326.594869
1043.979812,766.095498,444.123565,9104.533087
1043.980131,766.095498,-0.000000,9104.533087
1043.980450,536.266849,370.102971,9252.574275
1043.980769,612.876398,370.102971,9252.574275
1043.981089,612.876398,148.041188,9252.574275
1043.981408,689.485948,370.102971,9252.574275
1043.981727,612.876398,444.123565,9326.594869
1043.982046,306.438199,444.123565,9252.574275
1043.982365,383.047749,-0.000000,8882.471304
1043.982684,76.609550,370.102971,9326.594869
1043.983003,689.485948,296.082377,9030.512492
1043.983322,459.657299,518.144159,9400.615463
1043.983642,229.828649,370.102971,9326.594869
1043.983961,536.266849,370.102971,9178.553681
1043.984280,383.047749,444.123565,9252.574275
1043.984599,153.219100,296.082377,9326.594869
1043.984918,383.047749,444.123565,9326.594869
1043.985237,383.047749,296.082377,9326.594869
1043.985556,766.095498,592.164754,9326.594869
1043.985875,766.095498,444.123565,9252.574275
1043.986195,383.047749,370.102971,9400.615463
1043.986514,612.876398,222.061783,9178.553681
1043.986833,536.266849,370.102971,9178.553681
1043.987152,306.438199,370.102971,9326.594869
1043.987471,536.266849,370.102971,9104.533087
1043.987790,153.219100,370.102971,9400.615463
1043.988109,383.047749,-0.000000,9178.553681
1043.988428,459.657299,222.061783,9474.636058
1043.988748,459.657299,-0.000000,9474.636058
1043.989067,229.828649,444.123565,9104.533087
1043.989386,612.876398,518.144159,9104.533087
1043.989705,383.047749,222.061783,9252.574275
1043.990024,459.657299,740.205942,9622.677246
1043.990343,459.657299,222.061783,9178.553681
1043.990662,383.047749,444.123565,9326.594869
1043.990981,383.047749,222.061783,9326.594869
1043.991301,612.876398,518.144159,9474.636058
1043.991620,459.657299,296.082377,9326.594869
1043.991939,459.657299,444.123565,9178.553681
1043.992258,383.047749,518.144159,9400.615463
1043.992577,76.609550,296.082377,9400.615463
1043.992896,459.657299,444.123565,9104.533087
1043.993215,229.828649,444.123565,9548.656652
1043.993534,459.657299,444.123565,9474.636058
1043.993854,306.438199,370.102971,9326.594869
1043.994173,459.657299,444.123565,9030.512492
1043.994492,766.095498,-0.000000,9252.574275
1043.994811,536.266849,666.185348,9474.636058
1043.995130,306.438199,222.061783,9030.512492
1043.995449,1149.143247,370.102971,9252.574275
1043.995768,459.657299,444.123565,9252.574275
1043.996087,153.219100,222.061783,9474.636058
1043.996407,306.438199,444.123565,9252.574275
1043.996726,383.047749,222.061783,9252.574275
1043.997045,459.657299,296.082377,9252.574275
1043.997364,459.657299,370.102971,9178.553681
1043.997683,383.047749,370.102971,9252.574275
1043.998002,766.095498,370.102971,9400.615463
1043.998321,612.876398,370.102971,9104.533087
1043.998641,383.047749,296.082377,9178.553681
1043.998960,919.314598,296.082377,9474.636058
1043.999279,306.438199,444.123565,9400.615463
1043.999598,383.047749,370.102971,9178.553681
1043.999917,229.828649,296.082377,9474.636058
1044.000236,383.047749,296.082377,9252.574275
1044.000555,459.657299,370.102971,9252.574275
1044.000874,689.485948,444.123565,9326.594869
1044.001194,536.266849,518.144159,9326.594869
1044.001513,536.266849,148.041188,9252.574275
1044.001832,689.485948,296.082377,9178.553681
1044.002151,612.876398,370.102971,9252.574275
1044.002470,383.047749,592.164754,9252.574275
1044.002789,459.657299,444.123565,9400.615463
1044.003108,153.219100,370.102971,9178.553681
1044.003427,766.095498,666.185348,9178.553681
1044.003747,229.828649,444.123565,9178.553681
1044.004066,766.095498,444.123565,9104.533087
1044.004385,306.438199,444.123565,9326.594869
1044.004704,459.657299,222.061783,9104.533087
1044.005023,459.657299,148.041188,9252.574275
1044.005342,153.219100,222.061783,9178.553681
1044.005661,766.095498,518.144159,9178.553681
1044.005980,459.657299,296.082377,9178.553681
1044.006300,459.657299,370.102971,9104.533087
1044.006619,306.438199,222.061783,9400.615463
1044.006938,383.047749,518.144159,9326.594869
1044.007257,383.047749,296.082377,9326.594869
1044.007576,459.657299,444.123565,9252.574275
1044.007895,383.047749,444.123565,9178.553681
1044.008214,689.485948,-0.000000,9474.636058
1044.008533,459.657299,222.061783,9400.615463
1044.008853,536.266849,740.205942,9178.553681
1044.009172,153.219100,296.082377,9104.533087
1044.009491,306.438199,-0.000000,9030.512492
1044.009810,153.219100,74.020594,9104.533087
1044.010129,306.438199,-0.000000,9030.512492
1044.010448,0.000000,-296.082377,9178.553681
1044.010767,153.219100,-518.144159,9104.533087
1044.011086,-229.828649,-444.123565,9104.533087
1044.011406,0.000000,-592.164754,9400.615463
1044.011725,76.609550,-296.082377,8956.491898
1044.012044,-153.219100,-592.164754,8882.471304
1044.012363,-459.657299,-666.185348,8660.409521
1044.012682,-1149.143247,-814.226536,8660.409521
1044.013001,-1149.143247,-962.267725,8512.368333
1044.013320,-1225.752797,-1332.370696,8660.409521
1044.013639,-1378.971896,-1480.411884,8882.471304
1044.013959,-1532.190996,-1702.473667,8882.471304
1044.014278,-1685.410096,-1406.391290,8956.491898
1044.014597,-2068.457845,-1184.329507,9030.512492
1044.014916,-1915.238745,-888.247130,7994.224174
1044.015235,-1838.629195,-814.226536,7994.224174
1044.015554,-2374.896044,-1184.329507,7476.080014
1044.015873,-2298.286494,-1480.411884,7772.162391
1044.016192,-2145.067394,-1776.494261,8290.306550
1044.016512,-1991.848295,-2220.617826,8512.368333
1044.016831,-2068.457845,-2368.659014,8438.347739
1044.017150,-2451.505594,-2516.700203,9252.574275
1044.017469,-2068.457845,-1998.556043,8808.450710
1044.017788,-2221.676944,-2072.576638,8734.430116
1044.018107,-2374.896044,-1480.411884,8512.368333
1044.018426,-2451.505594,-1480.411884,8290.306550
1044.018746,-2834.553343,-2146.597232,8142.265362
1044.019065,-2987.772442,-2960.823768,8734.430116
1044.019384,-3600.648841,-3775.050304,9770.718434
1044.019703,-3830.477490,-4441.235652,10214.842000
1044.020022,-4060.306139,-4737.318029,11029.068536
1044.020341,-4290.134789,-4737.318029,11177.109724
1044.020660,-3907.087040,-4293.194464,11695.253884
1044.020979,-3677.258390,-3701.029710,11473.192101
1044.021299,-3217.601092,-2812.782580,11177.109724
1044.021618,-2604.724693,-2368.659014,11325.150913
1044.021937,-2451.505594,-2368.659014,10658.965565
1044.022256,-2221.676944,-2442.679609,10584.944971
1044.022575,-2451.505594,-2812.782580,10214.842000
1044.022894,-2604.724693,-3034.844362,9992.780217
1044.023213,-2757.943793,-3627.009116,9770.718434
1044.023532,-3447.429741,-4145.153275,10436.903782
1044.023852,-3217.601092,-4737.318029,10732.986159
1044.024171,-3830.477490,-4589.276840,11251.130318
1044.024490,-4060.306139,-4367.215058,12065.356855
1044.024809,-4290.134789,-3849.070898,11991.336260
1044.025128,-4519.963438,-3330.926739,11769.274478
1044.025447,-4519.963438,-3108.864956,11251.130318
1044.025766,-4443.353888,-2442.679609,10510.924376
1044.026085,-4213.525239,-2294.638420,9992.780217
1044.026405,-3524.039291,-2442.679609,10140.821405
1044.026724,-2681.334243,-3182.885551,10732.986159
1044.027043,-2068.457845,-3034.844362,11177.109724
1044.027362,-1149.143247,-2590.720797,10436.903782
1044.027681,153.219100,-1406.391290,9622.677246
1044.028000,842.705048,-0.000000,8216.285956
1044.028319,1302.362347,1554.432478,6291.750507
1044.028638,1838.629195,1776.494261,5551.544565
1044.028958,1532.190996,1406.391290,5033.400406
1044.029277,1378.971896,592.164754,5551.544565
1044.029596,919.314598,-1184.329507,6809.894666
1044.029915,0.000000,-1776.494261,8512.368333
1044.030234,-306.438199,-2590.720797,9474.636058
1044.030553,-1225.752797,-2368.659014,9622.677246
1044.030872,-689.485948,-1332.370696,10066.800811
1044.031191,-153.219100,-74.020594,9104.533087
1044.031511,383.047749,1480.411884,8438.347739
1044.031830,1072.533697,2072.576638,7994.224174
1044.032149,1455.581446,1924.535449,7105.977043
1044.032468,1455.581446,1850.514855,5625.565159
1044.032787,919.314598,1184.329507,5551.544565
1044.033106,306.438199,-74.020594,5847.626942
1044.033425,-536.266849,-1406.391290,5921.647536
1044.033744,-1149.143247,-1554.432478,7772.162391
1044.034064,-2451.505594,-2368.659014,9548.656652
1044.034383,-2834.553343,-2812.782580,10658.965565
1044.034702,-3294.210641,-2294.638420,11325.150913
1044.035021,-3140.991542,-1406.391290,11399.171507
1044.035340,-4290.134789,-1110.308913,10658.965565
1044.035659,-4519.963438,-1258.350101,10584.944971
1044.035978,-4366.744339,-1406.391290,10436.903782
1044.036297,-4060.306139,-1554.432478,9844.739029
1044.036617,-3753.867940,-1850.514855,9252.574275
1044.036936,-3830.477490,-2072.576638,9548.656652
1044.037255,-3600.648841,-2442.679609,9622.677246
1044.037574,-2834.553343,-3256.906145,10362.883188
1044.037893,-2451.505594,-3034.844362,10658.965565
1044.038212,-2221.676944,-2220.617826,10584.944971
1044.038531,-2298.286494,-1406.391290,10140.821405
1044.038850,-2068.457845,-1110.308913,10214.842000
1044.039170,-2298.286494,-1258.350101,10140.821405
1044.039489,-2451.505594,-1406.391290,10066.800811
1044.039808,-3753.867940,-2368.659014,9622.677246
1044.040127,-3524.039291,-3256.906145,9548.656652
1044.040446,-3983.696590,-4589.276840,11177.109724
1044.040765,-3830.477490,-5625.565159,12953.603985
1044.041084,-3140.991542,-5477.523971,13545.768739
1044.041404,-2145.067394,-4589.276840,12953.603985
1044.041723,-383.047749,-2886.803174,12213.398043
1044.042042,842.705048,-1332.370696,10955.047942
1044.042361,2451.505594,592.164754,9104.533087
1044.042680,3064.381992,1776.494261,7105.977043
1044.042999,3753.867940,1184.329507,5477.523971
1044.043318,3370.820191,-740.205942,5995.668130
1044.043637,2528.115143,-2368.659014,7476.080014
1044.043957,2145.067394,-3478.967927,8660.409521
1044.044276,612.876398,-3552.988522,8734.430116
1044.044595,-153.219100,-3923.091493,10066.800811
1044.044914,-1072.533697,-3478.967927,10584.944971
1044.045233,-2068.457845,-2664.741391,10140.821405
1044.045552,-2374.896044,-1850.514855,9548.656652
1044.045871,-3140.991542,-1554.432478,9178.553681
1044.046190,-3677.258390,-2294.638420,9474.636058
1044.046510,-4290.134789,-2442.679609,8882.471304
1044.046829,-4366.744339,-2812.782580,8808.450710
1044.047148,-4596.572988,-3478.967927,9548.656652
1044.047467,-3753.867940,-2812.782580,9992.780217
1044.047786,-2451.505594,-1628.453072,9622.677246
1044.048105,-1225.752797,222.061783,8364.327145
1044.048424,76.609550,888.247130,8364.327145
1044.048743,1149.143247,1554.432478,7550.100608
1044.049062,2221.676944,2442.679609,6143.709319
1044.049382,2451.505594,2590.720797,5033.400406
1044.049701,2298.286494,1554.432478,4811.338623
1044.050020,1378.971896,-0.000000,5329.482782
1044.050339,383.047749,-888.247130,5329.482782
1044.050658,-612.876398,-2072.576638,7031.956449
1044.050977,-1225.752797,-2812.782580,9030.512492
1044.051296,-1225.752797,-2960.823768,10584.944971
1044.051615,-1455.581446,-1850.514855,11621.233289
1044.051934,-1225.752797,-1406.391290,12139.377449
1044.052254,-689.485948,-0.000000,12435.459826
1044.052573,995.924147,1628.453072,11177.109724
1044.052892,2374.896044,2886.803174,8882.471304
1044.053211,3140.991542,3330.926739,8216.285956
1044.053530,3677.258390,2738.761985,7476.080014
1044.053849,4213.525239,2368.659014,6291.750507
1044.054168,4136.915689,1702.473667,5625.565159
1044.054487,3753.867940,148.041188,7328.038826
1044.054806,2911.162892,-222.061783,7476.080014
1044.055126,2298.286494,-666.185348,7846.182985
1044.055445,1149.143247,-666.185348,8808.450710
1044.055764,383.047749,-1628.453072,11473.192101
1044.056083,-1149.143247,-2072.576638,12805.562797
1044.056402,-1455.581446,-1036.288319,12879.583391
1044.056721,-2145.067394,-666.185348,12879.583391
1044.057040,-2604.724693,-370.102971,13397.727550
1044.057359,-1991.848295,814.226536,12583.501014
1044.057678,-842.705048,1850.514855,10288.862594
1044.057998,-153.219100,2664.741391,9474.636058
1044.058317,536.266849,2812.782580,9696.697840
1044.058636,1608.800546,3256.906145,8142.265362
1044.058955,2298.286494,3552.988522,6957.935855
1044.059274,1762.019645,2664.741391,7328.038826
1044.059593,1302.362347,2294.638420,7328.038826
1044.059912,229.828649,1480.411884,7105.977043
1044.060231,-919.314598,370.102971,7994.224174
1044.060550,-2987.772442,-1924.535449,10955.047942
1044.060870,-3524.039291,-2664.741391,12805.562797
1044.061189,-4060.306139,-1628.453072,13915.871710
1044.061508,-4060.306139,-814.226536,14211.954086
1044.061827,-3447.429741,-0.000000,14582.057057
1044.062146,-1532.190996,1184.329507,13545.768739
1044.062465,0.000000,2516.700203,10658.965565
1044.062784,1455.581446,2960.823768,8808.450710
1044.063103,3217.601092,2146.597232,8216.285956
1044.063422,3907.087040,1628.453072,6143.709319
1044.063742,4903.011187,1184.329507,4367.215058
1044.064061,4060.306139,-592.164754,5477.523971
1044.064380,3064.381992,-1184.329507,6217.729913
1044.064699,2451.505594,-666.185348,5921.647536
1044.065018,1225.752797,-1480.411884,8068.244768
1044.065337,-919.314598,-2220.617826,11769.274478
1044.065656,-1532.190996,-2516.700203,13323.706956
1044.065975,-1991.848295,-2442.679609,13545.768739
1044.066294,-2221.676944,-2442.679609,14878.139434
1044.066614,-1532.190996,-2442.679609,14878.139434
1044.066933,76.609550,-1036.288319,12583.501014
1044.067252,2451.505594,888.247130,8882.471304
1044.067571,3753.867940,1036.288319,7031.956449
1044.067890,4826.401637,740.205942,5773.606348
1044.068209,5592.497135,1184.329507,4293.194464
1044.068528,5592.497135,1850.514855,2294.638420
1044.068847,4903.011187,962.267725,3256.906145
1044.069166,3140.991542,-0.000000,4737.318029
1044.069486,1378.971896,148.041188,5551.544565
1044.069805,-612.876398,-666.185348,6809.894666
1044.070124,-3140.991542,-2738.761985,10288.862594
1044.070443,-4213.525239,-3775.050304,13471.748144
1044.070762,-4979.620737,-3182.885551,13471.748144
1044.071081,-5286.058936,-2960.823768,13693.809927
1044.071400,-4673.182538,-2368.659014,14656.077652
1044.071719,-2911.162892,-74.020594,12509.480420
1044.072038,-995.924147,2294.638420,8512.368333
1044.072358,536.266849,3108.864956,7179.997637
1044.072677,2068.457845,3034.844362,6661.853478
1044.072996,3600.648841,3701.029710,4145.153275
1044.073315,4060.306139,3627.009116,2294.638420
1044.073634,3983.696590,1776.494261,3552.988522
1044.073953,2145.067394,-0.000000,4663.297435
1044.074272,919.314598,-888.247130,5477.523971
1044.074591,-766.095498,-2368.659014,7254.018232
1044.074910,-2757.943793,-3997.112087,11325.150913
1044.075230,-4060.306139,-4515.256246,14063.912898
1044.075549,-4903.011187,-3552.988522,15174.221811
1044.075868,-4903.011187,-2886.803174,14952.160028
1044.076187,-3983.696590,-1554.432478,15544.324782
1044.076506,-2068.457845,222.061783,14063.912898
1044.076825,689.485948,2294.638420,10362.883188
1044.077144,3064.381992,3701.029710,8438.347739
1044.077463,4979.620737,3923.091493,7254.018232
1044.077782,7354.516781,4219.173869,4811.338623
1044.078102,7814.174080,4219.173869,2294.638420
1044.078421,7584.345430,3478.967927,3478.967927
1044.078740,6281.983084,2368.659014,4811.338623
1044.079059,4826.401637,2294.638420,5921.647536
1044.079378,2834.553343,1554.432478,7846.182985
1044.079697,-383.047749,888.247130,11177.109724
1044.080016,-2221.676944,-370.102971,14137.933492
1044.080335,-3907.087040,-370.102971,14434.015869
1044.080654,-4443.353888,-296.082377,15988.448347
1044.080974,-4136.915689,518.144159,15396.283594
1044.081293,-2528.115143,2442.679609,13767.830521
1044.081612,-153.219100,3997.112087,10362.883188
1044.081931,1685.410096,4885.359217,8364.327145
1044.082250,3524.039291,5329.482782,7402.059420
1044.082569,5439.278036,5921.647536,5107.421000
1044.082888,6052.154434,5773.606348,2812.782580
1044.083207,5515.887586,4811.338623,3775.050304
1044.083526,4366.744339,3478.967927,5625.565159
1044.083845,2221.676944,2664.741391,6217.729913
1044.084165,0.000000,888.247130,8512.368333
1044.084484,-2834.553343,-888.247130,11769.274478
1044.084803,-4673.182538,-1998.556043,14952.160028
1044.085122,-5898.935335,-2146.597232,15470.304188
1044.085441,-6588.421283,-1924.535449,16062.468941
1044.085760,-6358.592633,-1332.370696,16802.674883
1044.086079,-4443.353888,148.041188,15618.345376
1044.086398,-1838.629195,1110.308913,12065.356855
1044.086717,612.876398,1998.556043,10066.800811
1044.087037,2681.334243,2368.659014,8882.471304
1044.087356,5132.839837,2886.803174,5699.585753
1044.087675,6511.811733,2886.803174,2960.823768
1044.087994,6205.373534,2146.597232,3182.885551
1044.088313,5515.887586,1702.473667,4441.235652
1044.088632,4060.306139,740.205942,5107.421000
1044.088951,2145.067394,-444.123565,7402.059420
1044.089270,-536.266849,-1628.453072,10510.924376
1044.089589,-2221.676944,-2442.679609,13693.809927
1044.089909,-3753.867940,-3701.029710,15100.201217
1044.090228,-4290.134789,-3997.112087,16358.551318
1044.090547,-4060.306139,-3552.988522,17024.736666
1044.090866,-1915.238745,-1554.432478,14804.118840
1044.091185,383.047749,-222.061783,11325.150913
1044.091504,3294.210641,1258.350101,8882.471304
1044.091823,5822.325785,1850.514855,6513.812290
1044.092142,8197.221829,2812.782580,3256.906145
1044.092461,8963.317327,3627.009116,74.020594
1044.092781,8427.050478,2812.782580,0.000000
1044.093100,7048.078582,1554.432478,1258.350101
1044.093419,4979.620737,666.185348,2368.659014
1044.093738,1991.848295,-296.082377,4589.276840
1044.094057,-995.924147,-1702.473667,8586.388927
1044.094376,-3753.867940,-3478.967927,11547.212695
1044.094695,-5056.230287,-3923.091493,13619.789333
1044.095014,-6435.202183,-4737.318029,15100.201217
1044.095333,-7048.078582,-4071.132681,15914.427753
1044.095653,-5362.668486,-2442.679609,15026.180623
1044.095972,-3370.820191,592.164754,11991.336260
1044.096291,0.000000,2294.638420,8808.450710
1044.096610,1838.629195,3997.112087,7105.977043
1044.096929,4519.963438,4885.359217,4589.276840
1044.097248,5822.325785,5921.647536,370.102971
1044.097567,6435.202183,4663.297435,370.102971
1044.097886,5669.106685,3404.947333,1554.432478
1044.098205,3907.087040,2368.659014,2220.617826
1044.098525,1762.019645,888.247130,3701.029710
1044.098844,-689.485948,-666.185348,7920.203579
1044.099163,-2757.943793,-1702.473667,12065.356855
1044.099482,-4443.353888,-1850.514855,13397.727550
1044.099801,-5592.497135,-1480.411884,14656.077652
1044.100120,-6358.592633,-1480.411884,16284.530724
1044.100439,-5362.668486,-370.102971,17172.777854
1044.100758,-2987.772442,1110.308913,14211.954086
1044.101077,-766.095498,3108.864956,11695.253884
1044.101397,1378.971896,4071.132681,10362.883188
1044.101716,4596.572988,5403.503377,7846.182985
1044.102035,7201.297681,5995.668130,4145.153275
1044.102354,8273.831378,5699.585753,3256.906145
1044.102673,7967.393179,4959.379811,3775.050304
1044.102992,6971.469032,3923.091493,3775.050304
1044.103311,4979.620737,2146.597232,5403.503377
1044.103630,2528.115143,370.102971,9252.574275
1044.103949,-919.314598,-1406.391290,13027.624579
1044.104269,-2911.162892,-1628.453072,14804.118840
1044.104588,-4979.620737,-2442.679609,16210.510130
1044.104907,-6358.592633,-2220.617826,17987.004391
1044.105226,-5745.716235,-1036.288319,18209.066173
1044.105545,-3907.087040,1332.370696,15248.242405
1044.105864,-1532.190996,2812.782580,12731.542202
1044.106183,383.047749,3552.988522,10955.047942
1044.106502,2528.115143,3923.091493,8586.388927
1044.106821,4443.353888,3997.112087,4885.359217
1044.107141,5056.230287,4219.173869,4737.318029
1044.107460,5515.887586,2590.720797,5699.585753
1044.107779,4826.401637,2220.617826,5107.421000
1044.108098,3064.381992,1924.535449,5773.606348
1044.108417,766.095498,666.185348,9474.636058
1044.108736,-1378.971896,-0.000000,11621.233289
1044.109055,-2987.772442,-1258.350101,12583.501014
1044.109374,-5132.839837,-1776.494261,14063.912898
1044.109693,-5975.544884,-2294.638420,15470.304188
1044.110013,-5975.544884,-1554.432478,15396.283594
1044.110332,-4366.744339,-592.164754,13249.686362
1044.110651,-1762.019645,740.205942,11103.089130
1044.110970,0.000000,1184.329507,9104.533087
1044.111289,2374.896044,1036.288319,7550.100608
1044.111608,4673.182538,1924.535449,4145.153275
1044.111927,5592.497135,2368.659014,2664.741391
1044.112246,5745.716235,1776.494261,3108.864956
1044.112565,5898.935335,1258.350101,3404.947333
1044.112885,4136.915689,148.041188,4441.235652
1044.113204,1608.800546,-814.226536,6735.874072
1044.113523,-229.828649,-2072.576638,9992.780217
1044.113842,-1685.410096,-2960.823768,11769.274478
1044.114161,-3064.381992,-3552.988522,12287.418637
1044.114480,-4136.915689,-4145.153275,14211.954086
1044.114799,-3677.258390,-3701.029710,14508.036463
1044.115118,-2145.067394,-2368.659014,12065.356855
1044.115437,-459.657299,-1258.350101,9548.656652
1044.115757,2145.067394,-370.102971,8290.306550
1044.116076,4366.744339,1184.329507,5921.647536
1044.116395,6281.983084,1258.350101,2738.761985
1044.116714,6128.763984,1184.329507,962.267725
1044.117033,5822.325785,592.164754,2442.679609
1044.117352,4979.620737,592.164754,2442.679609
1044.117671,3370.820191,814.226536,3108.864956
1044.117990,1762.019645,-2146.597232,7105.977043
1044.118309,-1378.971896,-2960.823768,10066.800811
1044.118629,-3064.381992,-3552.988522,13619.789333
1044.118948,-4443.353888,-4219.173869,13767.830521
1044.119267,-5439.278036,-3775.050304,14434.015869
1044.119586,-4903.011187,-3182.885551,16210.510130
1044.119905,-3140.991542,-592.164754,12879.583391
1044.120224,-1762.019645,1332.370696,9178.553681
1044.120543,919.314598,148.041188,10066.800811
1044.120862,2604.724693,1258.350101,8216.285956
1044.121181,4060.306139,2886.803174,3627.009116
1044.121501,4979.620737,2664.741391,2368.659014
1044.121820,4213.525239,2738.761985,4219.173869
1044.122139,3753.867940,2072.576638,3923.091493
1044.122458,2221.676944,1850.514855,3552.988522
1044.122777,-229.828649,740.205942,7550.100608
1044.123096,-1762.019645,-740.205942,12287.418637
1044.123415,-3907.087040,-1036.288319,13323.706956
1044.123734,-5056.230287,-1480.411884,14878.139434
1044.124053,-5822.325785,-962.267725,16728.654289
1044.124373,-5822.325785,-0.000000,16802.674883
1044.124692,-4060.306139,1036.288319,15396.283594
1044.125011,-1685.410096,3108.864956,11917.315666
1044.125330,153.219100,4589.276840,11325.150913
1044.125649,2604.724693,5107.421000,9030.512492
1044.125968,4903.011187,4737.318029,6217.729913
1044.126287,5209.449386,3775.050304,4811.338623
1044.126606,5439.278036,3701.029710,5329.482782
1044.126925,5132.839837,2590.720797,4959.379811
1044.127244,4290.134789,1998.556043,5033.400406
1044.127564,2451.505594,1480.411884,7550.100608
1044.127883,612.876398,-592.164754,12065.356855
1044.128202,-1915.238745,-1924.535449,13545.768739
1044.128521,-3524.039291,-1628.453072,14434.015869
1044.128840,-4213.525239,-1776.494261,17098.757260
1044.129159,-4519.963438,-888.247130,16432.571912
1044.129478,-3830.477490,-0.000000,15174.221811
1044.129797,-2145.067394,740.205942,12509.480420
1044.130116,153.219100,2516.700203,12361.439231
1044.130436,2604.724693,1776.494261,11325.150913
1044.130755,4519.963438,3997.112087,5551.544565
1044.131074,5362.668486,3404.947333,3775.050304
1044.131393,6128.763984,1850.514855,4811.338623
1044.131712,5362.668486,1480.411884,4219.173869
1044.132031,3677.258390,592.164754,3478.967927
1044.132350,1608.800546,-370.102971,7550.100608
1044.132669,-1149.143247,-1332.370696,9770.718434
1044.132988,-2681.334243,-2220.617826,11029.068536
1044.133308,-4903.011187,-2812.782580,13249.686362
1044.133627,-6588.421283,-3849.070898,15174.221811
1044.133946,-5975.544884,-3108.864956,15174.221811
1044.134265,-5209.449386,-1850.514855,13249.686362
1044.134584,-3370.820191,-1480.411884,12435.459826
1044.134903,-1532.190996,-814.226536,10510.924376
1044.135222,306.438199,-740.205942,8512.368333
1044.135541,3064.381992,-0.000000,5477.523971
1044.135860,3983.696590,962.267725,2368.659014
1044.136180,4979.620737,222.061783,3034.844362
1044.136499,4213.525239,444.123565,2146.597232
1044.136818,3600.648841,296.082377,3108.864956
1044.137137,1608.800546,-814.226536,5255.462188
1044.137456,76.609550,-1776.494261,7994.224174
1044.137775,-1685.410096,-3552.988522,9770.718434
1044.138094,-3370.820191,-3849.070898,11103.089130
1044.138413,-4443.353888,-4737.318029,13175.665768
1044.138732,-3907.087040,-4959.379811,14211.954086
1044.139052,-3217.601092,-3997.112087,13249.686362
1044.139371,-1455.581446,-2442.679609,11547.212695
1044.139690,1149.143247,-1258.350101,9474.636058
1044.140009,2911.162892,370.102971,7476.080014
1044.140328,5439.278036,814.226536,4885.359217
1044.140647,5669.106685,1924.535449,2664.741391
1044.140966,6205.373534,1850.514855,2146.597232
1044.141285,6128.763984,2146.597232,2368.659014
1044.141604,4903.011187,1998.556043,2294.638420
1044.141924,3524.039291,888.247130,4293.194464
1044.142243,1072.533697,-962.267725,8068.244768
1044.142562,-1302.362347,-3108.864956,10584.944971
1044.142881,-2757.943793,-3478.967927,12435.459826
1044.143200,-4290.134789,-3404.947333,14359.995275
1044.143519,-4366.744339,-2664.741391,15988.448347
1044.143838,-3140.991542,-0.000000,14137.933492
1044.144157,-2068.457845,740.205942,12065.356855
1044.144476,-842.705048,1332.370696,10732.986159
1044.144796,1072.533697,2738.761985,9104.533087
1044.145115,2681.334243,3997.112087,5181.441594
1044.145434,4290.134789,3701.029710,3849.070898
1044.145753,4136.915689,3552.988522,4885.359217
1044.146072,4060.306139,3034.844362,4885.359217
1044.146391,2834.553343,2220.617826,4589.276840
1044.146710,1455.581446,740.205942,7550.100608
1044.147029,-612.876398,-296.082377,11695.253884
1044.147348,-2145.067394,-666.185348,13027.624579
1044.147668,-3830.477490,-962.267725,14211.954086
1044.147987,-5286.058936,-1110.308913,16580.613101
1044.148306,-5362.668486,-740.205942,17098.757260
1044.148625,-4136.915689,666.185348,15026.180623
1044.148944,-3217.601092,1554.432478,13323.706956
1044.149263,-1225.752797,2220.617826,11473.192101
1044.149582,229.828649,3182.885551,10140.821405
1044.149901,2528.115143,3330.926739,7624.121203
1044.150220,3524.039291,3330.926739,5773.606348
1044.150539,4136.915689,2590.720797,5921.647536
1044.150858,4596.572988,2294.638420,6069.688724
1044.151177,3677.258390,2072.576638,5847.626942
1044.151496,2604.724693,518.144159,8512.368333
1044.151815,0.000000,-740.205942,11843.295072
1044.152133,-1762.019645,-1258.350101,13693.809927
1044.152452,-2911.162892,-1480.411884,14359.995275
1044.152771,-4060.306139,-1702.473667,15988.448347
1044.153090,-3753.867940,-666.185348,15914.427753
1044.153409,-2374.896044,444.123565,13619.789333
1044.153728,-842.705048,1110.308913,11547.212695
1044.154047,995.924147,962.267725,11029.068536
1044.154365,2911.162892,1184.329507,8808.450710
1044.154684,4903.011187,1628.453072,5773.606348
1044.155003,6128.763984,1702.473667,4219.173869
1044.155322,6128.763984,962.267725,3849.070898
1044.155641,5515.887586,1184.329507,3701.029710
1044.155960,4290.134789,888.247130,3404.947333
1044.156279,2145.067394,222.061783,5551.544565
1044.156597,0.000000,-666.185348,8956.491898
1044.156916,-2145.067394,-1332.370696,11029.068536
1044.157235,-3907.087040,-2368.659014,12287.418637
1044.157554,-5132.839837,-2664.741391,14063.912898
1044.157873,-4673.182538,-2738.761985,15396.283594
1044.158192,-3830.477490,-1850.514855,13249.686362
1044.158511,-1762.019645,-666.185348,11103.089130
1044.158830,76.609550,-74.020594,9548.656652
1044.159148,2374.896044,888.247130,7328.038826
1044.159467,4596.572988,1628.453072,3997.112087
1044.159786,5592.497135,2072.576638,2072.576638
1044.160105,5592.497135,1554.432478,1702.473667
1044.160424,5286.058936,1480.411884,1776.494261
1044.160743,3983.696590,444.123565,2294.638420
1044.161062,1532.190996,-814.226536,5107.421000
1044.161380,-612.876398,-2220.617826,8290.306550
1044.161699,-2451.505594,-2886.803174,11029.068536
1044.162018,-3677.258390,-3108.864956,12065.356855
1044.162337,-4826.401637,-3108.864956,13767.830521
1044.162656,-4366.744339,-2590.720797,14730.098246
1044.162975,-3064.381992,-1036.288319,13693.809927
1044.163294,-1072.533697,-0.000000,10955.047942
1044.163613,842.705048,1110.308913,9326.594869
1044.163931,2834.553343,1776.494261,8882.471304
1044.164250,4596.572988,2146.597232,5329.482782
1044.164569,5822.325785,2664.741391,3775.050304
1044.164888,6205.373534,2368.659014,3923.091493
1044.165207,6052.154434,2294.638420,3775.050304
1044.165526,5362.668486,2072.576638,3478.967927
1044.165845,3140.991542,592.164754,6439.791695
1044.166163,689.485948,-592.164754,9326.594869
1044.166482,-842.705048,-1184.329507,11251.130318
1044.166801,-2604.724693,-1628.453072,12805.562797
1044.167120,-4213.525239,-2072.576638,15100.201217
1044.167439,-4979.620737,-1998.556043,16062.468941
1044.167758,-4136.915689,-296.082377,15322.262999
1044.168077,-3524.039291,962.267725,13471.748144
1044.168396,-1532.190996,1850.514855,12065.356855
1044.168714,919.314598,2960.823768,10584.944971
1044.169033,3064.381992,4367.215058,7476.080014
1044.169352,4903.011187,4737.318029,5329.482782
1044.169671,4673.182538,4515.256246,5477.523971
1044.169990,4596.572988,3627.009116,5107.421000
1044.170309,3830.477490,2738.761985,5255.462188
1044.170628,1915.238745,1406.391290,7328.038826
1044.170946,-229.828649,-148.041188,11029.068536
1044.171265,-1915.238745,-1110.308913,12509.480420
1044.171584,-3677.258390,-592.164754,13767.830521
1044.171903,-4749.792088,-814.226536,15396.283594
1044.172222,-5056.230287,-518.144159,15692.365970
1044.172541,-3830.477490,592.164754,14878.139434
1044.172860,-2834.553343,2072.576638,11991.336260
1044.173178,-1072.533697,2368.659014,11325.150913
1044.173497,842.705048,2590.720797,10362.883188
1044.173816,2987.772442,3182.885551,7105.977043
1044.174135,4290.134789,3404.947333,4959.379811
1044.174454,4903.011187,2886.803174,5773.606348
1044.174773,5056.230287,3108.864956,5403.503377
1044.175092,4903.011187,3182.885551,4737.318029
1044.175411,3677.258390,2368.659014,6291.750507
1044.175729,1532.190996,1258.350101,9474.636058
1044.176048,-306.438199,148.041188,11325.150913
1044.176367,-1685.410096,-296.082377,12731.542202
1044.176686,-2681.334243,-1332.370696,14285.974681
1044.177005,-3217.601092,-1406.391290,15470.304188
1044.177324,-2451.505594,-592.164754,13471.748144
1044.177643,-1149.143247,296.082377,11547.212695
1044.177961,612.876398,222.061783,9992.780217
1044.178280,2681.334243,1184.329507,8290.306550
1044.178599,4826.401637,1554.432478,5847.626942
1044.178918,6435.202183,2664.741391,2738.761985
1044.179237,6435.202183,2072.576638,2886.803174
1044.179556,5898.935335,1776.494261,3256.906145
1044.179875,4443.353888,1110.308913,3108.864956
1044.180194,2757.943793,-0.000000,5329.482782
1044.180512,76.609550,-888.247130,9030.512492
1044.180831,-1762.019645,-1480.411884,11177.109724
1044.181150,-2681.334243,-2368.659014,12139.377449
1044.181469,-4519.963438,-2442.679609,14063.912898
1044.181788,-4826.401637,-3108.864956,15248.242405
1044.182107,-4213.525239,-1258.350101,13027.624579
1044.182426,-2451.505594,-0.000000,10584.944971
1044.182744,-689.485948,666.185348,9622.677246
1044.183063,689.485948,1554.432478,8364.327145
1044.183382,2834.553343,1850.514855,5403.503377
1044.183701,4136.915689,1924.535449,3108.864956
1044.184020,4366.744339,1702.473667,3108.864956
1044.184339,4136.915689,1480.411884,3256.906145
1044.184658,3600.648841,1036.288319,3034.844362
1044.184977,1685.410096,-0.000000,5033.400406
1044.185295,-536.266849,-1628.453072,9104.533087
1044.185614,-2221.676944,-2072.576638,11177.109724
1044.185933,-2145.067394,-1998.556043,12435.459826
1044.186252,-4443.353888,-2368.659014,13841.851115
1044.186571,-4596.572988,-1998.556043,15692.365970
1044.186890,-3600.648841,-518.144159,14211.954086
1044.187209,-1991.848295,1110.308913,12139.377449
1044.187527,0.000000,2294.638420,10288.862594
1044.187846,2528.115143,3256.906145,9252.574275
1044.188165,4749.792088,3552.988522,6365.771101
1044.188484,6128.763984,3330.926739,4367.215058
1044.188803,6358.592633,2368.659014,4515.256246
1044.189122,5822.325785,1480.411884,4293.194464
1044.189441,4826.401637,962.267725,4293.194464
1044.189759,2911.162892,222.061783,6809.894666
1044.190078,536.266849,-1332.370696,10362.883188
1044.190397,-1225.752797,-2220.617826,12287.418637
1044.190716,-2757.943793,-2072.576638,14063.912898
1044.191035,-4366.744339,-1850.514855,15174.221811
1044.191354,-4673.182538,-1776.494261,16284.530724
1044.191673,-3600.648841,-296.082377,15100.201217
1044.191992,-1685.410096,962.267725,12731.542202
1044.192310,-153.219100,1554.432478,11399.171507
1044.192629,1455.581446,2590.720797,10510.924376
1044.192948,3830.477490,3034.844362,7624.121203
1044.193267,4749.792088,4737.318029,4737.318029
1044.193586,5362.668486,3923.091493,4737.318029
1044.193905,4903.011187,3330.926739,5033.400406
1044.194224,3830.477490,2368.659014,5255.462188
1044.194542,1685.410096,1258.350101,6587.832884
1044.194861,-919.314598,-74.020594,9696.697840
1044.195180,-2681.334243,-518.144159,12287.418637
1044.195499,-3753.867940,-888.247130,13101.645173
1044.195818,-4903.011187,-1480.411884,14063.912898
1044.196137,-5975.544884,-1480.411884,15100.201217
1044.196456,-4979.620737,-370.102971,14285.974681
1044.196775,-2987.772442,1554.432478,11547.212695
1044.197093,-1225.752797,2368.659014,9696.697840
1044.197412,1149.143247,2368.659014,9104.533087
1044.197731,2834.553343,2812.782580,7105.977043
1044.198050,4596.572988,3182.885551,4811.338623
1044.198369,4749.792088,3256.906145,4293.194464
1044.198688,5132.839837,2886.803174,4515.256246
1044.199007,4903.011187,2960.823768,3775.050304
1044.199325,3140.991542,814.226536,5625.565159
1044.199644,306.438199,-370.102971,9400.615463
1044.199963,-1072.533697,-1850.514855,11029.068536
1044.200282,-2528.115143,-2368.659014,11473.192101
1044.200601,-3753.867940,-2294.638420,13693.809927
1044.200920,-4443.353888,-3256.906145,15174.221811
1044.201239,-3830.477490,-1850.514855,14211.954086
1044.201558,-2374.896044,-1036.288319,11695.253884
1044.201876,-612.876398,222.061783,10288.862594
1044.202195,1532.190996,962.267725,9252.574275
1044.202514,3753.867940,2368.659014,5921.647536
1044.202833,5515.887586,2738.761985,3849.070898
1044.203152,5362.668486,2294.638420,4071.132681
1044.203471,4979.620737,1554.432478,4293.194464
1044.203790,4596.572988,1036.288319,4367.215058
1044.204108,3294.210641,-444.123565,5995.668130
1044.204427,612.876398,-1480.411884,9178.553681
1044.204746,-919.314598,-2368.659014,11547.212695
1044.205065,-2528.115143,-2368.659014,12361.439231
1044.205384,-3830.477490,-2664.741391,13249.686362
1044.205703,-4213.525239,-3330.926739,14952.160028
1044.206022,-3600.648841,-2368.659014,13841.851115
1044.206340,-2374.896044,-740.205942,11325.150913
1044.206659,-919.314598,222.061783,10066.800811
1044.206978,766.095498,888.247130,8956.491898
1044.207297,3370.820191,1628.453072,6143.709319
1044.207616,4366.744339,1850.514855,3849.070898
1044.207935,4903.011187,2072.576638,3997.112087
1044.208254,4826.401637,1480.411884,3775.050304
1044.208573,4673.182538,1406.391290,3775.050304
1044.208891,3064.381992,740.205942,5329.482782
1044.209210,536.266849,-0.000000,8808.450710
1044.209529,-1302.362347,-1406.391290,11473.192101
1044.209848,-2451.505594,-1702.473667,12953.603985
1044.210167,-3677.258390,-1998.556043,14434.015869
1044.210486,-4213.525239,-1628.453072,15470.304188
1044.210805,-3140.991542,-518.144159,14730.098246
1044.211123,-1685.410096,592.164754,11917.315666
1044.211442,-153.219100,1258.350101,10658.965565
1044.211761,1838.629195,1998.556043,9844.739029
1044.212080,3753.867940,2738.761985,6661.853478
1044.212399,4673.182538,3034.844362,4071.132681
1044.212718,5286.058936,2960.823768,4293.194464
1044.213037,5439.278036,1702.473667,4589.276840
1044.213356,3830.477490,1184.329507,4145.153275
1044.213674,1991.848295,-0.000000,6217.729913
1044.213993,-306.438199,-888.247130,9474.636058
1044.214312,-2221.676944,-1850.514855,11843.295072
1044.214631,-3524.039291,-1850.514855,13323.706956
1044.214950,-4903.011187,-1924.535449,15470.304188
1044.215269,-5439.278036,-2072.576638,16062.468941
1044.215588,-4519.963438,-1406.391290,15766.386565
1044.215906,-2681.334243,-74.020594,13619.789333
1044.216225,-1302.362347,740.205942,11547.212695
1044.216544,306.438199,1406.391290,10436.903782
1044.216863,2451.505594,2220.617826,7550.100608
1044.217182,4443.353888,2738.761985,4441.235652
1044.217501,5209.449386,2886.803174,4219.173869
1044.217820,4903.011187,2516.700203,4071.132681
1044.218139,4596.572988,2146.597232,3404.947333
1044.218457,2604.724693,888.247130,4663.297435
1044.218776,306.438199,-888.247130,8586.388927
1044.219095,-2068.457845,-2146.597232,11325.150913
1044.219414,-3753.867940,-2516.700203,12287.418637
1044.219733,-5056.230287,-2886.803174,13915.871710
1044.220052,-5669.106685,-2960.823768,15840.407159
1044.220371,-4903.011187,-1554.432478,14878.139434
1044.220689,-3294.210641,-0.000000,12361.439231
1044.221008,-1455.581446,1184.329507,11029.068536
1044.221327,536.266849,2146.597232,10214.842000
1044.221646,2911.162892,2738.761985,7105.977043
1044.221965,4903.011187,2886.803174,4367.215058
1044.222284,5515.887586,2590.720797,4589.276840
1044.222603,5439.278036,1924.535449,4515.256246
1044.222921,5209.449386,1924.535449,2886.803174
1044.223240,3677.258390,592.164754,4219.173869
1044.223559,1532.190996,-1480.411884,7846.182985
1044.223878,0.000000,-2368.659014,10436.903782
1044.224197,-2068.457845,-2664.741391,11251.130318
1044.224516,-3753.867940,-2812.782580,13323.706956
1044.224835,-4749.792088,-2960.823768,14952.160028
1044.225154,-3983.696590,-1776.494261,13767.830521
1044.225472,-2834.553343,-518.144159,11769.274478
1044.225791,-1608.800546,-0.000000,10584.944971
1044.226110,229.828649,888.247130,10066.800811
1044.226429,2681.334243,2072.576638,7179.997637
1044.226748,4903.011187,2886.803174,3923.091493
1044.227067,5286.058936,2664.741391,3997.112087
1044.227386,5056.230287,2516.700203,4219.173869
1044.227704,4826.401637,2442.679609,3404.947333
1044.228023,3064.381992,1184.329507,4589.276840
1044.228342,766.095498,-222.061783,8586.388927
1044.228661,-1072.533697,-1628.453072,11399.171507
1044.228980,-2911.162892,-2442.679609,12287.418637
1044.229299,-4060.306139,-2516.700203,13693.809927
1044.229618,-3830.477490,-2738.761985,15322.262999
1044.229937,-4136.915689,-1554.432478,14211.954086
1044.230255,-2528.115143,-592.164754,11399.171507
1044.230574,-766.095498,666.185348,9992.780217
1044.230893,919.314598,1184.329507,9030.512492
1044.231212,2911.162892,1998.556043,6809.894666
1044.231531,4366.744339,1924.535449,4959.379811
1044.231850,5209.449386,1702.473667,4737.318029
1044.232169,5132.839837,1480.411884,5255.462188
1044.232487,4519.963438,1332.370696,4959.379811
1044.232806,3447.429741,222.061783,6217.729913
1044.233125,1455.581446,-370.102971,9474.636058
1044.233444,-306.438199,-1924.535449,12139.377449
1044.233763,-2451.505594,-2368.659014,13397.727550
1044.234082,-3064.381992,-2072.576638,14804.118840
1044.234401,-3753.867940,-1332.370696,15692.365970
1044.234720,-2987.772442,-888.247130,15248.242405
1044.235038,-1608.800546,-296.082377,12879.583391
1044.235357,-306.438199,148.041188,11399.171507
1044.235676,1532.190996,962.267725,10214.842000
1044.235995,3753.867940,1554.432478,7550.100608
1044.236314,5132.839837,1924.535449,4663.297435
1044.236633,5209.449386,2146.597232,3701.029710
1044.236952,4903.011187,1850.514855,4219.173869
1044.237270,4366.744339,1554.432478,3849.070898
1044.237589,3140.991542,888.247130,5403.503377
1044.237908,383.047749,-148.041188,8660.409521
1044.238227,-1685.410096,-888.247130,11621.233289
1044.238546,-3753.867940,-2072.576638,13101.645173
1044.238865,-4903.011187,-1998.556043,13989.892304
1044.239184,-5592.497135,-1628.453072,15322.262999
1044.239502,-5209.449386,-444.123565,15026.180623
1044.239821,-3600.648841,740.205942,12509.480420
1044.240140,-1532.190996,2072.576638,10362.883188
1044.240459,0.000000,2072.576638,9622.677246
1044.240778,2451.505594,2294.638420,7105.977043
1044.241097,3677.258390,2220.617826,4663.297435
1044.241416,4519.963438,2220.617826,3701.029710
1044.241735,4673.182538,1850.514855,4145.153275
1044.242053,4060.306139,1776.494261,2886.803174
1044.242372,2681.334243,1184.329507,3997.112087
1044.242691,689.485948,-444.123565,7328.038826
1044.243010,-1149.143247,-1702.473667,10140.821405
1044.243329,-2681.334243,-2368.659014,11621.233289
1044.243648,-3753.867940,-2368.659014,13027.624579
1044.243967,-4673.182538,-2812.782580,14656.077652
1044.244285,-3983.696590,-1406.391290,14434.015869
1044.244604,-2604.724693,-222.061783,12139.377449
1044.244923,-689.485948,740.205942,10807.006753
1044.245242,1072.533697,1554.432478,9770.718434
1044.245561,3140.991542,2590.720797,8216.285956
1044.245880,4979.620737,2960.823768,5033.400406
1044.246199,5745.716235,2738.761985,4515.256246
1044.246518,6052.154434,2442.679609,4737.318029
1044.246836,5439.278036,2220.617826,4071.132681
1044.247155,4213.525239,1554.432478,4367.215058
1044.247474,2298.286494,148.041188,7550.100608
1044.247793,0.000000,-1110.308913,9992.780217
1044.248112,-766.095498,-1406.391290,11399.171507
1044.248431,-2451.505594,-2294.638420,13175.665768
1044.248750,-3907.087040,-2368.659014,14285.974681
1044.249068,-3294.210641,-1702.473667,14878.139434
1044.249387,-2604.724693,-0.000000,12879.583391
1044.249706,-919.314598,962.267725,11177.109724
1044.250025,306.438199,1554.432478,10140.821405
1044.250344,2374.896044,2664.741391,9030.512492
1044.250663,3983.696590,2368.659014,5477.523971
1044.250982,4366.744339,2960.823768,4737.318029
1044.251300,4443.353888,2072.576638,5329.482782
1044.251619,3753.867940,1924.535449,5033.400406
1044.251938,2451.505594,1776.494261,4885.359217
1044.252257,76.609550,148.041188,7994.224174
1044.252576,-1532.190996,-740.205942,11695.253884
1044.252895,-2757.943793,-1110.308913,12065.356855
1044.253214,-3983.696590,-1628.453072,13693.809927
1044.253532,-5286.058936,-1998.556043,15396.283594
1044.253851,-4903.011187,-2072.576638,15692.365970
1044.254170,-3830.477490,-666.185348,12509.480420
1044.254489,-2145.067394,888.247130,11103.089130
1044.254808,-919.314598,1184.329507,11473.192101
1044.255127,1991.848295,1554.432478,8734.430116
1044.255446,3983.696590,2590.720797,6439.791695
1044.255764,4903.011187,2516.700203,4811.338623
1044.256083,5132.839837,1998.556043,5033.400406
1044.256402,5132.839837,2442.679609,4515.256246
1044.256721,4213.525239,1110.308913,4589.276840
1044.257040,2221.676944,518.144159,7328.038826
1044.257359,-383.047749,-888.247130,10584.944971
1044.257678,-1915.238745,-1628.453072,12065.356855
1044.257996,-2528.115143,-1998.556043,13175.665768
1044.258315,-3140.991542,-2146.597232,14508.036463
1044.258634,-3294.210641,-1258.350101,15544.324782
1044.258953,-1915.238745,-296.082377,12583.501014
1044.259272,-153.219100,666.185348,10955.047942
1044.259591,1762.019645,1184.329507,10066.800811
1044.259910,3677.258390,1702.473667,8068.244768
1044.260228,5822.325785,3182.885551,4589.276840
1044.260547,6281.983084,3182.885551,3478.967927
1044.260866,6205.373534,2960.823768,3552.988522
1044.261185,5975.544884,1554.432478,3034.844362
1044.261504,4213.525239,1554.432478,3478.967927
1044.261823,2298.286494,-0.000000,6291.750507
1044.262142,-536.266849,-1628.453072,9474.636058
1044.262460,-2374.896044,-1850.514855,11547.212695
1044.262779,-3753.867940,-2442.679609,13249.686362
1044.263098,-4826.401637,-2442.679609,14730.098246
1044.263417,-4826.401637,-1332.370696,14582.057057
1044.263736,-3753.867940,-0.000000,12805.562797
1044.264055,-2374.896044,1110.308913,10881.027347
1044.264374,-612.876398,1406.391290,10362.883188
1044.264693,1455.581446,2368.659014,8142.265362
1044.265011,3064.381992,2960.823768,4959.379811
1044.265330,4366.744339,3034.844362,3849.070898
1044.265649,4443.353888,2516.700203,4071.132681
1044.265968,4136.915689,1998.556043,3701.029710
1044.266287,3294.210641,1702.473667,3923.091493
1044.266606,1225.752797,296.082377,6735.874072
1044.266925,-919.314598,-1332.370696,10288.862594
1044.267243,-2145.067394,-2368.659014,12213.398043
1044.267562,-4366.744339,-2738.761985,13767.830521
1044.267881,-5132.839837,-2368.659014,15470.304188
1044.268200,-5439.278036,-1924.535449,15766.386565
1044.268519,-3907.087040,-148.041188,14063.912898
1044.268838,-2298.286494,740.205942,11843.295072
1044.269157,-536.266849,1406.391290,11029.068536
1044.269475,1685.410096,1924.535449,9474.636058
1044.269794,3830.477490,2516.700203,6365.771101
1044.270113,4903.011187,2664.741391,4515.256246
1044.270432,5592.497135,2812.782580,4885.359217
1044.270751,5975.544884,2812.782580,4367.215058
1044.271070,5056.230287,2294.638420,4071.132681
1044.271389,3140.991542,888.247130,6957.935855
1044.271707,1072.533697,-222.061783,10362.883188
1044.272026,-766.095498,-888.247130,11917.315666
1044.272345,-2298.286494,-814.226536,13323.706956
1044.272664,-3830.477490,-888.247130,14730.098246
1044.272983,-4213.525239,-444.123565,14804.118840
1044.273302,-3217.601092,444.123565,13767.830521
1044.273621,-1915.238745,1332.370696,11399.171507
1044.273939,-306.438199,1850.514855,10584.944971
1044.274258,1685.410096,2368.659014,9178.553681
1044.274577,3447.429741,3108.864956,6735.874072
1044.274896,4443.353888,3034.844362,4737.318029
1044.275215,4673.182538,2590.720797,5255.462188
1044.275534,4749.792088,2664.741391,4885.359217
1044.275853,4366.744339,2368.659014,4071.132681
1044.276171,2451.505594,1776.494261,6735.874072
1044.276490,153.219100,518.144159,9992.780217
1044.276809,-1685.410096,-888.247130,11029.068536
1044.277128,-2987.772442,-1110.308913,11621.233289
1044.277447,-4136.915689,-1702.473667,14063.912898
1044.277766,-4826.401637,-2072.576638,14656.077652
1044.278085,-3830.477490,-814.226536,12657.521608
1044.278403,-2451.505594,-0.000000,11325.150913
1044.278722,-1149.143247,888.247130,11103.089130
1044.279041,919.314598,962.267725,9844.739029
1044.279360,2911.162892,1628.453072,7031.956449
1044.279679,3830.477490,1776.494261,5477.523971
1044.279998,4443.353888,1850.514855,5847.626942
1044.280317,4596.572988,1628.453072,5033.400406
1044.280635,4060.306139,1258.350101,4441.235652
1044.280954,2374.896044,-0.000000,6957.935855
1044.281273,536.266849,-1036.288319,9696.697840
1044.281592,-536.266849,-1406.391290,10436.903782
1044.281911,-1302.362347,-1332.370696,11399.171507
1044.282230,-2451.505594,-2072.576638,13545.768739
1044.282549,-2757.943793,-2516.700203,14137.933492
1044.282867,-1915.238745,-962.267725,12435.459826
1044.283186,-536.266849,-444.123565,11029.068536
1044.283505,536.266849,370.102971,10214.842000
1044.283824,2451.505594,888.247130,8734.430116
1044.284143,3983.696590,1702.473667,6143.709319
1044.284462,4903.011187,2220.617826,4885.359217
1044.284781,4826.401637,1628.453072,4885.359217
1044.285099,4673.182538,1110.308913,4737.318029
1044.285418,3907.087040,1406.391290,4663.297435
1044.285737,1762.019645,-0.000000,6661.853478
1044.286056,0.000000,-1184.329507,9548.656652
1044.286375,-1762.019645,-1924.535449,11473.192101
1044.286694,-3064.381992,-1184.329507,11769.274478
1044.287013,-4290.134789,-1480.411884,13767.830521
1044.287331,-4366.744339,-1258.350101,14508.036463
1044.287650,-3217.601092,-370.102971,12509.480420
1044.287969,-2298.286494,-0.000000,10732.986159
1044.288288,-1685.410096,740.205942,10214.842000
1044.288607,612.876398,1628.453072,8882.471304
1044.288926,2145.067394,2220.617826,5847.626942
1044.289245,3370.820191,2886.803174,4663.297435
1044.289563,4060.306139,2294.638420,4811.338623
1044.289882,3217.601092,2146.597232,4811.338623
1044.290201,2374.896044,1480.411884,4589.276840
1044.290520,919.314598,296.082377,7105.977043
1044.290839,-1149.143247,-1110.308913,9622.677246
1044.291158,-2681.334243,-2146.597232,11843.295072
1044.291477,-3600.648841,-1998.556043,12953.603985
1044.291795,-3983.696590,-1332.370696,14211.954086
1044.292114,-4443.353888,-814.226536,14878.139434
1044.292433,-3524.039291,518.144159,13101.645173
1044.292752,-1685.410096,1332.370696,11103.089130
1044.293071,-153.219100,1850.514855,10510.924376
1044.293390,1225.752797,2294.638420,9622.677246
1044.293709,3370.820191,2368.659014,7031.956449
1044.294027,4443.353888,2442.679609,5477.523971
1044.294346,4903.011187,2368.659014,5625.565159
1044.294665,4979.620737,1850.514855,5181.441594
1044.294984,4443.353888,1110.308913,4663.297435
1044.295303,2987.772442,-74.020594,7105.977043
1044.295622,1149.143247,-1332.370696,10140.821405
1044.295941,-306.438199,-1554.432478,11621.233289
1044.296259,-1608.800546,-1998.556043,12879.583391
1044.296578,-2911.162892,-1924.535449,14434.015869
1044.296897,-3753.867940,-1628.453072,15100.201217
1044.297216,-2528.115143,518.144159,12953.603985
1044.297535,-1302.362347,1406.391290,11177.109724
1044.297854,0.000000,1702.473667,10214.842000
1044.298173,1532.190996,2294.638420,8956.491898
1044.298492,2987.772442,2368.659014,6661.853478
1044.298810,4366.744339,2368.659014,5033.400406
1044.299129,4519.963438,1776.494261,5403.503377
1044.299448,3830.477490,1406.391290,5551.544565
1044.299767,2604.724693,888.247130,4737.318029
1044.300086,1455.581446,-0.000000,6735.874072
1044.300405,-842.705048,-962.267725,9770.718434
1044.300724,-2451.505594,-2072.576638,11843.295072
1044.301042,-3677.258390,-2590.720797,12657.521608
1044.301361,-4673.182538,-2368.659014,14211.954086
1044.301680,-5362.668486,-2220.617826,14952.160028
1044.301999,-4060.306139,-1258.350101,12879.583391
1044.302318,-2681.334243,-0.000000,9992.780217
1044.302637,-842.705048,592.164754,10066.800811
1044.302956,919.314598,962.267725,8734.430116
1044.303274,2987.772442,1924.535449,6069.688724
1044.303593,4826.401637,2368.659014,4219.173869
1044.303912,4749.792088,2368.659014,3775.050304
1044.304231,4826.401637,1554.432478,4293.194464
1044.304550,4136.915689,962.267725,4367.215058
1044.304869,1991.848295,-0.000000,6217.729913
1044.305188,0.000000,-1480.411884,9474.636058
1044.305506,-1378.971896,-2368.659014,11769.274478
1044.305825,-2451.505594,-2442.679609,12657.521608
1044.306144,-3600.648841,-2146.597232,13841.851115
1044.306463,-3524.039291,-2294.638420,14211.954086
1044.306782,-2374.896044,-1406.391290,12805.562797
1044.307101,-766.095498,-444.123565,10288.862594
1044.307420,919.314598,-0.000000,9252.574275
1044.307738,2451.505594,296.082377,8808.450710
1044.308057,4366.744339,1332.370696,6217.729913
1044.308376,5669.106685,1998.556043,4293.194464
1044.308695,5362.668486,1850.514855,4145.153275
1044.309014,5132.839837,1776.494261,4589.276840
1044.309333,4213.525239,1406.391290,4145.153275
1044.309652,2604.724693,814.226536,6069.688724
1044.309970,229.828649,-888.247130,9770.718434
1044.310289,-1762.019645,-1702.473667,11991.336260
1044.310608,-3140.991542,-2368.659014,12805.562797
1044.310927,-4596.572988,-2368.659014,14434.015869
1044.311246,-4366.744339,-1850.514855,15322.262999
1044.311565,-4060.306139,-592.164754,13619.789333
1044.311884,-2451.505594,444.123565,11251.130318
1044.312202,-689.485948,740.205942,10584.944971
1044.312521,842.705048,1924.535449,9622.677246
1044.312840,2604.724693,2294.638420,6365.771101
1044.313159,3907.087040,2590.720797,4959.379811
1044.313478,4060.306139,2368.659014,4959.379811
1044.313797,4366.744339,1850.514855,4885.359217
1044.314116,3217.601092,1480.411884,4515.256246
1044.314434,1915.238745,444.123565,6291.750507
1044.314753,-306.438199,-1110.308913,10140.821405
1044.315072,-2451.505594,-1924.535449,11991.336260
1044.315391,-3600.648841,-1850.514855,12953.603985
1044.315710,-4443.353888,-1184.329507,14063.912898
1044.316029,-4903.011187,-666.185348,15026.180623
1044.316348,-3830.477490,222.061783,13841.851115
1044.316666,-2068.457845,962.267725,11917.315666
1044.316985,-995.924147,1554.432478,11251.130318
1044.317304,612.876398,1628.453072,9992.780217
1044.317623,2834.553343,2220.617826,7698.141797
1044.317942,4519.963438,2368.659014,5403.503377
1044.318261,4979.620737,2146.597232,5329.482782
1044.318580,5056.230287,1776.494261,5329.482782
1044.318898,4903.011187,1628.453072,4515.256246
1044.319217,3447.429741,888.247130,5995.668130
1044.319536,1302.362347,-518.144159,9474.636058
1044.319855,-306.438199,-1184.329507,10807.006753
1044.320174,-1608.800546,-1332.370696,11843.295072
1044.320493,-3217.601092,-1480.411884,13175.665768
1044.320812,-3370.820191,-962.267725,14434.015869
1044.321130,-3447.429741,-518.144159,13397.727550
1044.321449,-1991.848295,444.123565,11621.233289
1044.321768,-689.485948,888.247130,10881.027347
1044.322087,919.314598,1332.370696,10140.821405
1044.322406,2528.115143,1480.411884,7476.080014
1044.322725,3753.867940,2294.638420,5477.523971
1044.323044,4290.134789,2294.638420,5625.565159
1044.323362,4213.525239,2516.700203,5329.482782
1044.323681,3983.696590,2294.638420,4589.276840
1044.324000,2374.896044,1480.411884,5995.668130
1044.324319,766.095498,-370.102971,9178.553681
1044.324638,-919.314598,-1258.350101,10807.006753
1044.324957,-2451.505594,-1776.494261,11695.253884
1044.325276,-3447.429741,-1406.391290,12509.480420
1044.325594,-3753.867940,-814.226536,13915.871710
1044.325913,-3294.210641,-962.267725,12731.542202
1044.326232,-1838.629195,-74.020594,11103.089130
1044.326551,-689.485948,-0.000000,10288.862594
1044.326870,459.657299,-0.000000,9696.697840
1044.327189,2681.334243,518.144159,7624.121203
1044.327508,3677.258390,1850.514855,5625.565159
1044.327826,3753.867940,1998.556043,5107.421000
1044.328145,3830.477490,1480.411884,5329.482782
1044.328464,3753.867940,1702.473667,5181.441594
1044.328783,2451.505594,888.247130,5773.606348
1044.329102,919.314598,-296.082377,8882.471304
1044.329421,-306.438199,-1184.329507,11177.109724
1044.329740,-1302.362347,-1554.432478,11843.295072
1044.330058,-1915.238745,-1776.494261,13027.624579
1044.330377,-2757.943793,-1776.494261,14730.098246
1044.330696,-1378.971896,-888.247130,13767.830521
1044.331015,-459.657299,-592.164754,11177.109724
1044.331334,459.657299,-0.000000,10288.862594
1044.331653,1838.629195,1110.308913,9548.656652
1044.331972,3677.258390,2294.638420,6365.771101
1044.332291,4826.401637,2812.782580,4293.194464
1044.332609,4826.401637,2590.720797,4663.297435
1044.332928,4596.572988,2220.617826,4811.338623
1044.333247,3753.867940,1406.391290,4441.235652
1044.333566,2221.676944,-0.000000,5995.668130
1044.333885,0.000000,-1850.514855,10066.800811
1044.334204,-2451.505594,-2516.700203,11547.212695
1044.334523,-3294.210641,-2368.659014,12583.501014
1044.334841,-4366.744339,-2220.617826,14730.098246
1044.335160,-4213.525239,-962.267725,14878.139434
1044.335479,-3217.601092,-222.061783,13471.748144
1044.335798,-2068.457845,888.247130,11251.130318
1044.336117,-766.095498,1480.411884,10807.006753
1044.336436,766.095498,2072.576638,9400.615463
1044.336755,2528.115143,2516.700203,6883.915261
1044.337073,3753.867940,2516.700203,4811.338623
1044.337392,4213.525239,2664.741391,4811.338623
1044.337711,4213.525239,2220.617826,4737.318029
1044.338030,3983.696590,1998.556043,3923.091493
1044.338349,2528.115143,1406.391290,5625.565159
1044.338668,536.266849,-518.144159,8882.471304
1044.338987,-1378.971896,-2072.576638,11473.192101
1044.339305,-2757.943793,-2072.576638,12805.562797
1044.339624,-4060.306139,-1332.370696,14063.912898
1044.339943,-4596.572988,-592.164754,15100.201217
1044.340262,-3524.039291,592.164754,13767.830521
1044.340581,-1991.848295,1332.370696,11695.253884
1044.340900,-689.485948,1776.494261,10436.903782
1044.341219,1302.362347,1998.556043,9770.718434
1044.341537,3294.210641,2738.761985,7179.997637
1044.341856,4979.620737,2960.823768,4737.318029
1044.342175,5592.497135,2368.659014,4811.338623
1044.342494,5132.839837,2294.638420,4885.359217
1044.342813,4903.011187,1924.535449,4589.276840
1044.343132,3830.477490,1184.329507,5773.606348
1044.343451,1608.800546,-222.061783,8956.491898
1044.343769,-306.438199,-1110.308913,11325.150913
1044.344088,-2451.505594,-1554.432478,11991.336260
1044.344407,-3830.477490,-1702.473667,13693.809927
1044.344726,-4443.353888,-1776.494261,14804.118840
1044.345045,-3983.696590,-962.267725,14434.015869
1044.345364,-2681.334243,-0.000000,12435.459826
1044.345683,-1762.019645,888.247130,11177.109724
1044.346001,76.609550,1776.494261,10436.903782
1044.346320,1991.848295,2072.576638,7846.182985
1044.346639,3907.087040,2516.700203,5255.462188
1044.346958,4673.182538,2590.720797,5033.400406
1044.347277,4443.353888,2294.638420,5403.503377
1044.347596,4366.744339,1702.473667,4441.235652
1044.347915,2987.772442,1184.329507,5181.441594
1044.348233,842.705048,-296.082377,8660.409521
1044.348552,-766.095498,-1406.391290,11177.109724
1044.348871,-2068.457845,-1258.350101,11769.274478
1044.349190,-2911.162892,-1184.329507,13175.665768
1044.349509,-3830.477490,-888.247130,14063.912898
1044.349828,-3524.039291,-148.041188,13545.768739
1044.350147,-1915.238745,592.164754,10955.047942
1044.350465,-689.485948,1406.391290,9992.780217
1044.350784,1072.533697,1110.308913,9918.759623
1044.351103,2451.505594,1332.370696,7550.100608
1044.351422,4060.306139,1702.473667,5255.462188
1044.351741,4826.401637,1998.556043,4959.379811
1044.352060,4749.792088,1998.556043,5033.400406
1044.352379,4443.353888,1924.535449,4441.235652
1044.352698,3294.210641,666.185348,5033.400406
1044.353017,1302.362347,-666.185348,8882.471304
1044.353335,0.000000,-1480.411884,11029.068536
1044.353654,-1378.971896,-1776.494261,11991.336260
1044.353973,-2221.676944,-1480.411884,13027.624579
1044.354292,-2604.724693,-1258.350101,13989.892304
1044.354611,-2451.505594,-962.267725,13101.645173
1044.354930,-1225.752797,-222.061783,11251.130318
1044.355249,-306.438199,666.185348,9918.759623
1044.355568,1608.800546,1480.411884,9104.533087
1044.355886,3370.820191,1850.514855,6809.894666
1044.356205,3753.867940,2368.659014,4589.276840
1044.356524,3983.696590,1406.391290,4885.359217
1044.356843,3294.210641,1628.453072,5329.482782
1044.357162,3217.601092,1110.308913,5181.441594
1044.357481,1838.629195,-0.000000,5995.668130
1044.357800,-536.266849,-962.267725,9400.615463
1044.358119,-2068.457845,-1924.535449,12213.398043
1044.358438,-3370.820191,-1776.494261,12435.459826
1044.358756,-4443.353888,-1998.556043,13693.809927
1044.359075,-4290.134789,-1702.473667,15248.242405
1044.359394,-3677.258390,-74.020594,14063.912898
1044.359713,-2145.067394,666.185348,11843.295072
1044.360032,-766.095498,1628.453072,10658.965565
1044.360351,1838.629195,2590.720797,9696.697840
1044.360670,3370.820191,2516.700203,7105.977043
1044.360989,4979.620737,2886.803174,4811.338623
1044.361308,5132.839837,2590.720797,4367.215058
1044.361626,4979.620737,1184.329507,4515.256246
1044.361945,3907.087040,1332.370696,4145.153275
1044.362264,2298.286494,592.164754,4885.359217
1044.362583,0.000000,-1036.288319,8734.430116
1044.362902,-2451.505594,-2294.638420,11547.212695
1044.363221,-3217.601092,-2220.617826,12287.418637
1044.363540,-4673.182538,-2368.659014,13693.809927
1044.363859,-5362.668486,-1924.535449,15322.262999
1044.364178,-4596.572988,-1110.308913,14359.995275
1044.364496,-2987.772442,222.061783,12213.398043
1044.364815,-1685.410096,1184.329507,11103.089130
1044.365134,459.657299,1850.514855,10436.903782
1044.365453,2911.162892,2886.803174,7698.141797
1044.365772,5056.230287,3923.091493,4663.297435
1044.366091,6052.154434,4441.235652,3997.112087
1044.366410,6741.640382,3849.070898,3923.091493
1044.366729,6128.763984,3404.947333,2960.823768
1044.367048,4596.572988,1776.494261,3997.112087
1044.367366,2068.457845,-296.082377,7994.224174
1044.367685,-459.657299,-1554.432478,10732.986159
1044.368004,-2451.505594,-1258.350101,11769.274478
1044.368323,-3294.210641,-1776.494261,14137.933492
1044.368642,-4749.792088,-1036.288319,15026.180623
1044.368961,-4290.134789,-592.164754,14804.118840
1044.369280,-3447.429741,-0.000000,13249.686362
1044.369599,-1991.848295,1480.411884,11769.274478
1044.369918,612.876398,1406.391290,11325.150913
1044.370236,2528.115143,2146.597232,8142.265362
1044.370555,4290.134789,2294.638420,5995.668130
1044.370874,4749.792088,1924.535449,5625.565159
1044.371193,5209.449386,1998.556043,5403.503377
1044.371512,5286.058936,1480.411884,4293.194464
1044.371831,4060.306139,1258.350101,4219.173869
1044.372150,1915.238745,-222.061783,7328.038826
1044.372469,0.000000,-1036.288319,10066.800811
1044.372788,-2451.505594,-1998.556043,11325.150913
1044.373106,-4290.134789,-2220.617826,12953.603985
1044.373425,-5209.449386,-2072.576638,14952.160028
1044.373744,-5745.716235,-1628.453072,14878.139434
1044.374063,-4979.620737,-740.205942,13027.624579
1044.374382,-3753.867940,-148.041188,12361.439231
1044.374701,-2451.505594,-0.000000,12509.480420
1044.375020,0.000000,1332.370696,9252.574275
1044.375339,2298.286494,2516.700203,5847.626942
1044.375658,3294.210641,2886.803174,5699.585753
1044.375976,4749.792088,2960.823768,5477.523971
1044.376295,5362.668486,2368.659014,4515.256246
1044.376614,5209.449386,1628.453072,4367.215058
1044.376933,2834.553343,740.205942,6513.812290
1044.377252,1532.190996,-222.061783,9252.574275
1044.377571,76.609550,-1184.329507,9844.739029
1044.377890,-1072.533697,-1850.514855,11621.233289
1044.378209,-2374.896044,-3108.864956,14285.974681
1044.378527,-2987.772442,-2072.576638,14211.954086
1044.378846,-2221.676944,-814.226536,11917.315666
1044.379165,-995.924147,444.123565,10436.903782
1044.379484,383.047749,370.102971,11103.089130
1044.379803,2221.676944,296.082377,8808.450710
1044.380122,3447.429741,1036.288319,5699.585753
1044.380441,3907.087040,1036.288319,4811.338623
1044.380760,4979.620737,1184.329507,5773.606348
1044.381079,4749.792088,1850.514855,4145.153275
1044.381397,3600.648841,1110.308913,4663.297435
1044.381716,1838.629195,-0.000000,7328.038826
1044.382035,0.000000,-1036.288319,9918.759623
1044.382354,-1072.533697,-1480.411884,11177.109724
1044.382673,-1838.629195,-1850.514855,12731.542202
1044.382992,-3983.696590,-1776.494261,14285.974681
1044.383311,-3830.477490,-1776.494261,14582.057057
1044.383630,-3294.210641,-1184.329507,12805.562797
1044.383949,-2068.457845,-370.102971,10732.986159
1044.384267,-1072.533697,666.185348,10214.842000
1044.384586,383.047749,962.267725,8660.409521
1044.384905,2451.505594,1480.411884,5995.668130
1044.385224,3294.210641,1554.432478,4811.338623
1044.385543,3600.648841,1702.473667,5181.441594
1044.385862,3677.258390,1554.432478,4589.276840
1044.386181,3217.601092,1258.350101,4219.173869
1044.386500,1991.848295,518.144159,6439.791695
1044.386819,76.609550,-0.000000,10436.903782
1044.387137,-995.924147,-444.123565,10732.986159
1044.387456,-2068.457845,-74.020594,11991.336260
1044.387775,-3064.381992,-666.185348,14211.954086
1044.388094,-3370.820191,-370.102971,14878.139434
1044.388413,-2757.943793,-222.061783,12731.542202
1044.388732,-1991.848295,592.164754,11177.109724
1044.389051,-842.705048,1184.329507,10807.006753
1044.389370,612.876398,1924.535449,9104.533087
1044.389689,2911.162892,2590.720797,6439.791695
1044.390007,3140.991542,2368.659014,5403.503377
1044.390326,3907.087040,2368.659014,5773.606348
1044.390645,3983.696590,1184.329507,4145.153275
1044.390964,2834.553343,888.247130,4367.215058
1044.391283,1225.752797,-0.000000,7476.080014
1044.391602,-842.705048,-1628.453072,10288.862594
1044.391921,-2451.505594,-2368.659014,12213.398043
1044.392240,-3907.087040,-1406.391290,12879.583391
1044.392559,-4749.792088,-1258.350101,14508.036463
1044.392877,-4903.011187,-740.205942,14582.057057
1044.393196,-3600.648841,-74.020594,13249.686362
1044.393515,-2221.676944,444.123565,11843.295072
1044.393834,-766.095498,1036.288319,11103.089130
1044.394153,1149.143247,962.267725,9474.636058
1044.394472,3294.210641,1406.391290,6661.853478
1044.394791,4749.792088,1776.494261,5255.462188
1044.395110,5439.278036,1628.453072,5477.523971
1044.395429,5056.230287,1554.432478,4441.235652
1044.395747,4596.572988,1702.473667,3552.988522
1044.396066,3600.648841,814.226536,6809.894666
1044.396385,1225.752797,-518.144159,9474.636058
1044.396704,-842.705048,-1332.370696,10288.862594
1044.397023,-2604.724693,-1110.308913,11621.233289
1044.397342,-3677.258390,-1850.514855,13989.892304
1044.397661,-4443.353888,-1998.556043,13915.871710
1044.397980,-3524.039291,-296.082377,12435.459826
1044.398299,-2528.115143,-0.000000,11843.295072
1044.398617,-842.705048,518.144159,11473.192101
1044.398936,1149.143247,1036.288319,9622.677246
1044.399255,3217.601092,1850.514855,7254.018232
1044.399574,4213.525239,2146.597232,5699.585753
1044.399893,5056.230287,2590.720797,5033.400406
1044.400212,5975.544884,2664.741391,4145.153275
1044.400531,5056.230287,2146.597232,3256.906145
1044.400850,4366.744339,-0.000000,6291.750507
1044.401168,1915.238745,-1110.308913,8586.388927
1044.401487,153.219100,-1776.494261,9548.656652
1044.401806,-1149.143247,-2368.659014,11177.109724
1044.402125,-2911.162892,-1850.514855,13249.686362
1044.402444,-2987.772442,-2072.576638,13841.851115
1044.402763,-2987.772442,-1332.370696,11991.336260
1044.403082,-2221.676944,-444.123565,11695.253884
1044.403401,-995.924147,-148.041188,11769.274478
1044.403720,536.266849,222.061783,9844.739029
1044.404038,2451.505594,740.205942,7402.059420
1044.404357,3064.381992,1554.432478,5773.606348
1044.404676,3907.087040,1702.473667,6217.729913
1044.404995,4290.134789,1628.453072,5255.462188
1044.405314,3830.477490,1776.494261,4589.276840
1044.405633,2451.505594,740.205942,6883.915261
1044.405952,689.485948,-0.000000,9474.636058
1044.406271,-383.047749,-370.102971,10732.986159
1044.406590,-1915.238745,-592.164754,11177.109724
1044.406908,-3140.991542,-666.185348,13323.706956
1044.407227,-3830.477490,-814.226536,13545.768739
1044.407546,-2834.553343,-444.123565,11917.315666
1044.407865,-2528.115143,-0.000000,10807.006753
1044.408184,-1455.581446,148.041188,11473.192101
1044.408503,-383.047749,1110.308913,9622.677246
1044.408822,1378.971896,1776.494261,6883.915261
1044.409141,2374.896044,1480.411884,6365.771101
1044.409460,2528.115143,2072.576638,6513.812290
1044.409778,3524.039291,2072.576638,5403.503377
1044.410097,2987.772442,1776.494261,4811.338623
1044.410416,1685.410096,518.144159,8068.244768
1044.410735,153.219100,-444.123565,10066.800811
1044.411054,-919.314598,-814.226536,10807.006753
1044.411373,-1378.971896,-1036.288319,11843.295072
1044.411692,-2528.115143,-1332.370696,13767.830521
1044.412011,-2528.115143,-592.164754,13841.851115
1044.412330,-1608.800546,-0.000000,12065.356855
1044.412648,-766.095498,592.164754,11399.171507
1044.412967,306.438199,814.226536,10807.006753
1044.413286,2298.286494,1258.350101,9252.574275
1044.413605,3753.867940,2442.679609,6143.709319
1044.413924,4596.572988,2664.741391,5033.400406
1044.414243,4673.182538,2220.617826,5921.647536
1044.414562,4519.963438,1776.494261,4885.359217
1044.414881,3983.696590,962.267725,4737.318029
1044.415200,2221.676944,-0.000000,7402.059420
1044.415518,536.266849,-1332.370696,10732.986159
1044.415837,-1225.752797,-1702.473667,11621.233289
1044.416156,-2374.896044,-888.247130,12361.439231
1044.416475,-2987.772442,-518.144159,13989.892304
1044.416794,-3294.210641,-74.020594,14434.015869
1044.417113,-1915.238745,666.185348,12213.398043
1044.417432,-1225.752797,1110.308913,10732.986159
1044.417751,229.828649,1702.473667,10732.986159
1044.418070,1838.629195,1924.535449,9030.512492
1044.418388,2834.553343,2590.720797,5551.544565
1044.418707,4060.306139,2368.659014,4737.318029
1044.419026,4213.525239,2368.659014,4811.338623
1044.419345,3830.477490,1924.535449,4515.256246
1044.419664,3370.820191,666.185348,4293.194464
1044.419983,1608.800546,-74.020594,7254.018232
1044.420302,-612.876398,-740.205942,9992.780217
1044.420621,-1991.848295,-1258.350101,10436.903782
1044.420939,-3370.820191,-1406.391290,12361.439231
1044.421258,-4136.915689,-1850.514855,14730.098246
1044.421577,-4443.353888,-962.267725,14730.098246
1044.421896,-3217.601092,-222.061783,13027.624579
1044.422215,-1991.848295,370.102971,11769.274478
1044.422534,-612.876398,740.205942,11325.150913
1044.422853,1378.971896,888.247130,9622.677246
1044.423172,3370.820191,1628.453072,6735.874072
1044.423491,5056.230287,2368.659014,5033.400406
1044.423809,5669.106685,1850.514855,4885.359217
1044.424128,5822.325785,1406.391290,4293.194464
1044.424447,5515.887586,1480.411884,4145.153275
1044.424766,3370.820191,518.144159,5699.585753
1044.425085,1685.410096,-1184.329507,9474.636058
1044.425404,0.000000,-1702.473667,10881.027347
1044.425723,-1532.190996,-1628.453072,11769.274478
1044.426042,-2911.162892,-2146.597232,14285.974681
1044.426361,-3907.087040,-1702.473667,14804.118840
1044.426679,-2911.162892,-666.185348,13915.871710
1044.426998,-1838.629195,962.267725,11547.212695
1044.427317,-383.047749,1036.288319,11547.212695
1044.427636,842.705048,1036.288319,10140.821405
1044.427955,3140.991542,1406.391290,6883.915261
1044.428274,4443.353888,1998.556043,5033.400406
1044.428593,4673.182538,2220.617826,5403.503377
1044.428912,5515.887586,1628.453072,4885.359217
1044.429231,3830.477490,666.185348,3997.112087
1044.429549,2528.115143,-0.000000,6365.771101
1044.429868,536.266849,-592.164754,9400.615463
1044.430187,-995.924147,-1184.329507,10288.862594
1044.430506,-2451.505594,-1110.308913,11029.068536
1044.430825,-3907.087040,-740.205942,13323.706956
1044.431144,-4443.353888,-444.123565,13915.871710
1044.431463,-4366.744339,-0.000000,12509.480420
1044.431782,-3140.991542,-0.000000,11843.295072
1044.432101,-1991.848295,666.185348,11473.192101
1044.432419,-536.266849,1702.473667,9548.656652
1044.432738,1915.238745,2220.617826,7105.977043
1044.433057,2834.553343,2442.679609,6143.709319
1044.433376,3294.210641,2368.659014,6069.688724
1044.433695,4826.401637,2072.576638,5551.544565
1044.434014,3983.696590,1850.514855,5107.421000
1044.434333,2834.553343,1036.288319,6661.853478
1044.434652,1149.143247,296.082377,9400.615463
1044.434971,0.000000,-814.226536,10362.883188
1044.435289,-1685.410096,-1406.391290,11695.253884
1044.435608,-2911.162892,-1480.411884,13027.624579
1044.435927,-3524.039291,-814.226536,13693.809927
1044.436246,-2987.772442,-0.000000,11843.295072
1044.436565,-2528.115143,444.123565,10140.821405
1044.436884,-1455.581446,-74.020594,10510.924376
1044.437203,-919.314598,-0.000000,10066.800811
1044.437522,1378.971896,1258.350101,7105.977043
1044.437841,2834.553343,1628.453072,6143.709319
1044.438159,3447.429741,2294.638420,6587.832884
1044.438478,3600.648841,2368.659014,5921.647536
1044.438797,3217.601092,1628.453072,4515.256246
1044.439116,2221.676944,666.185348,6661.853478
1044.439435,1532.190996,-592.164754,10140.821405
1044.439754,-459.657299,-296.082377,10214.842000
1044.440073,-995.924147,-222.061783,11103.089130
1044.440392,-2068.457845,-148.041188,12879.583391
1044.440711,-2221.676944,148.041188,13397.727550
1044.441029,-1455.581446,666.185348,11769.274478
1044.441348,-919.314598,1258.350101,10066.800811
1044.441667,536.266849,1110.308913,10658.965565
1044.441986,1455.581446,888.247130,9400.615463
1044.442305,3064.381992,1554.432478,7105.977043
1044.442624,3830.477490,1998.556043,5847.626942
1044.442943,3907.087040,2368.659014,5921.647536
1044.443262,3983.696590,2146.597232,5477.523971
1044.443580,3830.477490,2146.597232,4885.359217
1044.443899,2451.505594,1554.432478,7179.997637
1044.444218,153.219100,-0.000000,10140.821405
1044.444537,-1455.581446,-1258.350101,12065.356855
1044.444856,-2681.334243,-1998.556043,12731.542202
1044.445175,-3677.258390,-2072.576638,14730.098246
1044.445494,-3677.258390,-2072.576638,14878.139434
1044.445813,-3370.820191,-592.164754,13027.624579
1044.446132,-1762.019645,296.082377,10955.047942
1044.446450,-689.485948,962.267725,10510.924376
1044.446769,1378.971896,1110.308913,9992.780217
1044.447088,3217.601092,2146.597232,6365.771101
1044.447407,4366.744339,2146.597232,4959.379811
1044.447726,4290.134789,1554.432478,5773.606348
1044.448045,3907.087040,1332.370696,5255.462188
1044.448364,3217.601092,518.144159,4811.338623
1044.448683,1455.581446,-222.061783,7031.956449
1044.449002,-842.705048,-1406.391290,10362.883188
1044.449320,-2145.067394,-1850.514855,11695.253884
1044.449639,-3370.820191,-1628.453072,12435.459826
1044.449958,-3830.477490,-1480.411884,14063.912898
1044.450277,-3830.477490,-888.247130,14656.077652
1044.450596,-2681.334243,-0.000000,13175.665768
1044.450915,-1455.581446,888.247130,10955.047942
1044.451234,153.219100,1554.432478,10436.903782
1044.451553,2068.457845,2146.597232,9326.594869
1044.451872,4136.915689,2738.761985,5625.565159
1044.452191,5286.058936,2664.741391,4071.132681
1044.452510,5975.544884,2220.617826,4071.132681
1044.452828,5515.887586,1480.411884,3330.926739
1044.453147,4749.792088,888.247130,3182.885551
1044.453466,2757.943793,-148.041188,5329.482782
1044.453785,766.095498,-962.267725,8734.430116
1044.454104,-1685.410096,-1998.556043,10658.965565
1044.454423,-3370.820191,-2072.576638,12435.459826
1044.454742,-4673.182538,-1998.556043,14656.077652
1044.455061,-5286.058936,-1924.535449,15026.180623
1044.455380,-4213.525239,-666.185348,14211.954086
1044.455699,-2757.943793,-222.061783,12361.439231
1044.456018,-1225.752797,-0.000000,11843.295072
1044.456337,536.266849,1702.473667,9992.780217
1044.456655,2757.943793,1998.556043,6661.853478
1044.456974,4366.744339,2886.803174,4293.194464
1044.457293,5362.668486,2220.617826,4367.215058
1044.457612,5286.058936,1850.514855,4071.132681
1044.457931,4903.011187,296.082377,3182.885551
1044.458250,2681.334243,-814.226536,5033.400406
1044.458569,306.438199,-1554.432478,8734.430116
1044.458888,-1532.190996,-2664.741391,10658.965565
1044.459207,-3524.039291,-2516.700203,12065.356855
1044.459526,-5056.230287,-1998.556043,14211.954086
1044.459845,-5898.935335,-1110.308913,14730.098246
1044.460163,-4979.620737,-74.020594,13841.851115
1044.460482,-4290.134789,666.185348,11991.336260
1044.460801,-2451.505594,1332.370696,11769.274478
1044.461120,-536.266849,2516.700203,10658.965565
1044.461439,1762.019645,2516.700203,7772.162391
1044.461758,3600.648841,3330.926739,5477.523971
1044.462077,4749.792088,2886.803174,5477.523971
1044.462396,5209.449386,2664.741391,5107.421000
1044.462715,5209.449386,2146.597232,3997.112087
1044.463034,4290.134789,1554.432478,5107.421000
1044.463353,2451.505594,296.082377,8290.306550
1044.463672,1378.971896,-444.123565,9844.739029
1044.463990,-612.876398,-592.164754,10362.883188
1044.464309,-3064.381992,-740.205942,13323.706956
1044.464628,-3830.477490,-1702.473667,14804.118840
1044.464947,-3830.477490,-1036.288319,13915.871710
1044.465266,-3064.381992,-0.000000,12435.459826
1044.465585,-2298.286494,222.061783,12213.398043
1044.465904,-612.876398,444.123565,11547.212695
1044.466223,1532.190996,1554.432478,8660.409521
1044.466542,3294.210641,2146.597232,6883.915261
1044.466861,3600.648841,2146.597232,6291.750507
1044.467180,4366.744339,2072.576638,6217.729913
1044.467499,3983.696590,1480.411884,5033.400406
1044.467817,3140.991542,962.267725,6587.832884
1044.468136,1225.752797,-0.000000,9400.615463
1044.468455,-306.438199,-1258.350101,11029.068536
1044.468774,-1072.533697,-1184.329507,11621.233289
1044.469093,-2604.724693,-962.267725,13175.665768
1044.469412,-2987.772442,-1036.288319,14137.933492
1044.469731,-2987.772442,-0.000000,12435.459826
1044.470050,-1762.019645,148.041188,10732.986159
1044.470369,-919.314598,666.185348,10732.986159
1044.470688,-229.828649,740.205942,9992.780217
1044.471007,2068.457845,592.164754,7254.018232
1044.471325,3600.648841,1628.453072,6069.688724
1044.471644,3753.867940,1480.411884,5995.668130
1044.471963,3830.477490,1258.350101,5625.565159
1044.472282,3677.258390,1184.329507,4663.297435
1044.472601,2528.115143,1332.370696,6217.729913
1044.472920,1072.533697,740.205942,8438.347739
1044.473239,76.609550,370.102971,10436.903782
1044.473558,-919.314598,-148.041188,11103.089130
1044.473877,-2221.676944,-814.226536,12805.562797
1044.474196,-2834.553343,-1480.411884,14211.954086
1044.474515,-2374.896044,-1110.308913,12361.439231
1044.474834,-1225.752797,-370.102971,10362.883188
1044.475152,0.000000,-444.123565,10066.800811
1044.475471,1072.533697,-222.061783,9992.780217
1044.475790,2757.943793,296.082377,6809.894666
1044.476109,4060.306139,1184.329507,4367.215058
1044.476428,4596.572988,1332.370696,4885.359217
1044.476747,4213.525239,1332.370696,4959.379811
1044.477066,3907.087040,1332.370696,3923.091493
1044.477385,2298.286494,222.061783,5773.606348
1044.477704,-153.219100,-1406.391290,9474.636058
1044.478023,-1838.629195,-2516.700203,11473.192101
1044.478342,-3064.381992,-2294.638420,12139.377449
1044.478660,-4366.744339,-2294.638420,14434.015869
1044.478979,-4519.963438,-2220.617826,15322.262999
1044.479298,-4213.525239,-1036.288319,13471.748144
1044.479617,-2681.334243,-0.000000,11473.192101
1044.479936,-1838.629195,222.061783,10881.027347
1044.480255,383.047749,888.247130,10140.821405
1044.480574,2451.505594,1924.535449,7105.977043
1044.480893,3983.696590,2368.659014,4737.318029
1044.481212,4673.182538,1850.514855,4811.338623
1044.481531,4903.011187,1554.432478,4293.194464
1044.481850,4596.572988,1110.308913,3478.967927
1044.482169,3294.210641,592.164754,4589.276840
1044.482487,1455.581446,-0.000000,7772.162391
1044.482806,0.000000,-888.247130,9918.759623
1044.483125,-1838.629195,-518.144159,10732.986159
1044.483444,-3217.601092,-962.267725,12657.521608
1044.483763,-4366.744339,-888.247130,14359.995275
1044.484082,-3753.867940,-592.164754,13767.830521
1044.484401,-2987.772442,592.164754,12139.377449
1044.484720,-1608.800546,1406.391290,11695.253884
1044.485039,-306.438199,1702.473667,11473.192101
1044.485358,2068.457845,2590.720797,8956.491898
1044.485677,3907.087040,2960.823768,5995.668130
1044.485995,4826.401637,3256.906145,5477.523971
1044.486314,4826.401637,3034.844362,5699.585753
1044.486633,4826.401637,2220.617826,4367.215058
1044.486952,3830.477490,1332.370696,4885.359217
1044.487271,1608.800546,-0.000000,8660.409521
1044.487590,0.000000,-1480.411884,10732.986159
1044.487909,-1378.971896,-1702.473667,11399.171507
1044.488228,-3217.601092,-1850.514855,12805.562797
1044.488547,-3830.477490,-1406.391290,14804.118840
1044.488866,-4136.915689,-296.082377,13693.809927
1044.489185,-2834.553343,222.061783,12657.521608
1044.489504,-1991.848295,888.247130,12731.542202
1044.489822,-612.876398,1554.432478,12213.398043
1044.490141,1302.362347,2294.638420,9696.697840
1044.490460,2911.162892,2516.700203,7402.059420
1044.490779,3907.087040,2146.597232,7179.997637
1044.491098,4366.744339,1554.432478,7105.977043
1044.491417,4749.792088,1628.453072,5477.523971
1044.491736,4290.134789,888.247130,5551.544565
1044.492055,3064.381992,-666.185348,8068.244768
1044.492374,1455.581446,-1480.411884,9918.759623
1044.492693,153.219100,-1554.432478,10362.883188
1044.493012,-1685.410096,-1258.350101,11103.089130
1044.493330,-2834.553343,-1406.391290,13471.748144
1044.493649,-2987.772442,-1184.329507,12583.501014
1044.493968,-2681.334243,222.061783,10584.944971
1044.494287,-2145.067394,296.082377,11103.089130
1044.494606,-1072.533697,740.205942,10807.006753
1044.494925,995.924147,1258.350101,8290.306550
1044.495244,2298.286494,2072.576638,6291.750507
1044.495563,2987.772442,2220.617826,6513.812290
1044.495882,2987.772442,1702.473667,6365.771101
1044.496201,3447.429741,2294.638420,4811.338623
1044.496520,2911.162892,1332.370696,5773.606348
1044.496839,1225.752797,518.144159,8216.285956
1044.497157,76.609550,-666.185348,9622.677246
1044.497476,-995.924147,-962.267725,9992.780217
1044.497795,-1302.362347,-888.247130,11251.130318
1044.498114,-2528.115143,-1036.288319,12213.398043
1044.498433,-2298.286494,-740.205942,11917.315666
1044.498752,-1455.581446,-222.061783,10066.800811
1044.499071,-306.438199,-74.020594,9400.615463
1044.499390,383.047749,-370.102971,9696.697840
1044.499709,1455.581446,592.164754,7624.121203
1044.500028,3447.429741,1480.411884,5329.482782
1044.500347,3447.429741,1554.432478,5107.421000
1044.500665,3600.648841,1258.350101,6069.688724
1044.500984,3907.087040,962.267725,5625.565159
1044.501303,2374.896044,518.144159,5773.606348
1044.501622,842.705048,-1184.329507,8956.491898
1044.501941,-612.876398,-2072.576638,11695.253884
1044.502260,-842.705048,-2516.700203,12287.418637
1044.502579,-2604.724693,-2294.638420,12879.583391
1044.502898,-2987.772442,-1406.391290,14508.036463
1044.503217,-2604.724693,-814.226536,13841.851115
1044.503536,-1149.143247,666.185348,11029.068536
1044.503855,-76.609550,888.247130,9474.636058
1044.504174,842.705048,962.267725,9474.636058
1044.504492,2298.286494,1332.370696,7328.038826
1044.504811,3677.258390,1406.391290,4885.359217
1044.505130,4060.306139,1110.308913,5255.462188
1044.505449,4060.306139,888.247130,6069.688724
1044.505768,3370.820191,592.164754,4663.297435
1044.506087,2528.115143,296.082377,5773.606348
1044.506406,842.705048,-296.082377,9696.697840
1044.506725,-1072.533697,-518.144159,11325.150913
1044.507044,-2451.505594,-444.123565,12139.377449
1044.507363,-3294.210641,-592.164754,13471.748144
1044.507682,-3753.867940,-148.041188,14656.077652
1044.508001,-3600.648841,592.164754,13693.809927
1044.508319,-2528.115143,1702.473667,11769.274478
1044.508638,-689.485948,2294.638420,10732.986159
1044.508957,153.219100,2812.782580,9696.697840
1044.509276,2221.676944,2664.741391,7624.121203
1044.509595,3830.477490,2442.679609,5773.606348
1044.509914,4290.134789,2368.659014,5255.462188
1044.510233,4443.353888,1776.494261,5551.544565
1044.510552,4290.134789,1406.391290,5033.400406
1044.510871,2681.334243,888.247130,5625.565159
1044.511190,536.266849,148.041188,8512.368333
1044.511509,-1072.533697,-888.247130,10955.047942
1044.511827,-2451.505594,-1110.308913,11917.315666
1044.512146,-3064.381992,-370.102971,12657.521608
1044.512465,-4060.306139,-518.144159,14434.015869
1044.512784,-4136.915689,-444.123565,14211.954086
1044.513103,-3064.381992,370.102971,12435.459826
1044.513422,-2145.067394,814.226536,11399.171507
1044.513741,-383.047749,1258.350101,11843.295072
1044.514060,1302.362347,1850.514855,9104.533087
1044.514379,2987.772442,2590.720797,6143.709319
1044.514698,4213.525239,2220.617826,5995.668130
1044.515017,5056.230287,1998.556043,6513.812290
1044.515336,4979.620737,1554.432478,4663.297435
1044.515654,4366.744339,740.205942,4959.379811
1044.515973,2451.505594,-444.123565,7994.224174
1044.516292,689.485948,-1110.308913,10288.862594
1044.516611,-612.876398,-1184.329507,10436.903782
1044.516930,-1608.800546,-962.267725,11843.295072
1044.517249,-2451.505594,-370.102971,13545.768739
1044.517568,-2451.505594,-148.041188,12953.603985
1044.517887,-1838.629195,-74.020594,11325.150913
1044.518206,-766.095498,962.267725,10584.944971
1044.518525,306.438199,666.185348,10584.944971
1044.518844,2374.896044,666.185348,8438.347739
1044.519162,3217.601092,1184.329507,6735.874072
1044.519481,3677.258390,1480.411884,6291.750507
1044.519800,4136.915689,1628.453072,6365.771101
1044.520119,4213.525239,1406.391290,5181.441594
1044.520438,3907.087040,1110.308913,5033.400406
1044.520757,2145.067394,148.041188,7254.018232
1044.521076,612.876398,-740.205942,9178.553681
1044.521395,-383.047749,-1406.391290,9918.759623
1044.521714,-1762.019645,-1184.329507,10955.047942
1044.522033,-2987.772442,-1258.350101,13101.645173
1044.522352,-2987.772442,-1036.288319,12731.542202
1044.522671,-2834.553343,-518.144159,10955.047942
1044.522989,-1838.629195,-444.123565,10288.862594
1044.523308,-995.924147,-0.000000,10881.027347
1044.523627,766.095498,222.061783,8956.491898
1044.523946,1838.629195,1258.350101,6439.791695
1044.524265,2374.896044,1480.411884,6069.688724
1044.524584,2911.162892,1184.329507,6587.832884
1044.524903,2374.896044,1036.288319,5403.503377
1044.525222,2374.896044,1184.329507,5329.482782
1044.525541,459.657299,-148.041188,7920.203579
1044.525860,-612.876398,-962.267725,10066.800811
1044.526179,-1838.629195,-1110.308913,10732.986159
1044.526497,-2451.505594,-1406.391290,12065.356855
1044.526816,-3370.820191,-1628.453072,13693.809927
1044.527135,-2451.505594,-1036.288319,13249.686362
1044.527454,-1762.019645,370.102971,11251.130318
1044.527773,-612.876398,296.082377,10140.821405
1044.528092,383.047749,1036.288319,10510.924376
1044.528411,1991.848295,1702.473667,8660.409521
1044.528730,3217.601092,2368.659014,5773.606348
1044.529049,3830.477490,2442.679609,5847.626942
1044.529368,4060.306139,1480.411884,7031.956449
1044.529687,3140.991542,1258.350101,5773.606348
1044.530006,2451.505594,1258.350101,5551.544565
1044.530324,766.095498,222.061783,8660.409521
1044.530643,-459.657299,-592.164754,10955.047942
1044.530962,-1378.971896,-814.226536,11695.253884
1044.531281,-2374.896044,-814.226536,13101.645173
1044.531600,-2834.553343,-1184.329507,14434.015869
1044.531919,-2451.505594,-740.205942,13915.871710
1044.532238,-1302.362347,-0.000000,11843.295072
1044.532557,-766.095498,1036.288319,11029.068536
1044.532876,383.047749,888.247130,10066.800811
1044.533195,2068.457845,2072.576638,8142.265362
1044.533514,3600.648841,2738.761985,5551.544565
1044.533832,4519.963438,3404.947333,4663.297435
1044.534151,4136.915689,2220.617826,4959.379811
1044.534470,3600.648841,1850.514855,4959.379811
1044.534789,3064.381992,1554.432478,5181.441594
1044.535108,1149.143247,-0.000000,7994.224174
1044.535427,-995.924147,-1184.329507,11103.089130
1044.535746,-2604.724693,-1332.370696,11843.295072
1044.536065,-3370.820191,-1184.329507,13175.665768
1044.536384,-4366.744339,-1110.308913,14878.139434
1044.536703,-4136.915689,-222.061783,14730.098246
1044.537022,-3064.381992,814.226536,12361.439231
1044.537341,-1838.629195,1850.514855,10362.883188
1044.537659,-995.924147,1628.453072,10288.862594
1044.537978,919.314598,2220.617826,8586.388927
1044.538297,2451.505594,2738.761985,5625.565159
1044.538616,3370.820191,2220.617826,4441.235652
1044.538935,3830.477490,2072.576638,5329.482782
1044.539254,4213.525239,1036.288319,4737.318029
1044.539573,3370.820191,296.082377,4959.379811
1044.539892,1838.629195,-814.226536,7179.997637
1044.540211,-306.438199,-1702.473667,9622.677246
1044.540530,-1685.410096,-1776.494261,11325.150913
1044.540849,-2451.505594,-1702.473667,11917.315666
1044.541168,-3830.477490,-1036.288319,14063.912898
1044.541486,-3983.696590,-444.123565,14508.036463
1044.541805,-2451.505594,-74.020594,12731.542202
1044.542124,-1532.190996,-0.000000,11621.233289
1044.542443,0.000000,222.061783,11177.109724
1044.542762,1838.629195,888.247130,9178.553681
1044.543081,4213.525239,1776.494261,5847.626942
1044.543400,5439.278036,1998.556043,5255.462188
1044.543719,6052.154434,1554.432478,5107.421000
1044.544038,6205.373534,1554.432478,4219.173869
1044.544357,5745.716235,1554.432478,4219.173869
1044.544676,3524.039291,-0.000000,6513.812290
1044.544994,1608.800546,-1554.432478,10140.821405
1044.545313,-153.219100,-2072.576638,10807.006753
1044.545632,-1915.238745,-2294.638420,12065.356855
1044.545951,-3370.820191,-2368.659014,14508.036463
1044.546270,-3294.210641,-1036.288319,14804.118840
1044.546589,-2451.505594,222.061783,12731.542202
1044.546908,-995.924147,888.247130,10881.027347
1044.547227,-306.438199,814.226536,11251.130318
1044.547546,1302.362347,740.205942,9252.574275
1044.547865,2987.772442,1628.453072,5921.647536
1044.548184,3600.648841,1258.350101,5107.421000
1044.548503,2911.162892,592.164754,5995.668130
1044.548821,2911.162892,592.164754,5181.441594
1044.549140,2068.457845,888.247130,4071.132681
1044.549459,842.705048,148.041188,6883.915261
1044.549778,-1072.533697,-444.123565,9474.636058
1044.550097,-2298.286494,-814.226536,10584.944971
1044.550416,-4060.306139,-1258.350101,12213.398043
1044.550735,-5056.230287,-1554.432478,14137.933492
1044.551054,-5439.278036,-1110.308913,14508.036463
1044.551373,-4673.182538,-222.061783,12731.542202
1044.551692,-3140.991542,592.164754,11103.089130
1044.552010,-2068.457845,962.267725,10881.027347
1044.552329,-229.828649,1554.432478,9474.636058
1044.552648,2145.067394,2072.576638,6143.709319
1044.552967,3294.210641,2072.576638,5329.482782
1044.553286,3753.867940,1924.535449,6069.688724
1044.553604,3753.867940,962.267725,5181.441594
1044.553923,3907.087040,1110.308913,4441.235652
1044.554242,2528.115143,370.102971,7031.956449
1044.554561,995.924147,-518.144159,9844.739029
1044.554880,0.000000,-888.247130,10732.986159
1044.555198,-995.924147,-1480.411884,11917.315666
1044.555517,-1991.848295,-1258.350101,13397.727550
1044.555836,-2451.505594,-1184.329507,13545.768739
1044.556155,-1378.971896,-370.102971,12287.418637
1044.556474,-536.266849,592.164754,10955.047942
1044.556792,842.705048,1554.432478,10362.883188
1044.557111,2374.896044,1554.432478,8882.471304
1044.557430,4290.134789,2368.659014,6587.832884
1044.557749,5132.839837,2220.617826,5625.565159
1044.558067,5439.278036,1628.453072,6069.688724
1044.558386,4903.011187,1110.308913,5551.544565
1044.558705,4136.915689,740.205942,4885.359217
1044.559024,2145.067394,148.041188,7994.224174
1044.559343,383.047749,-740.205942,10288.862594
1044.559661,-1225.752797,-1480.411884,10658.965565
1044.559980,-2298.286494,-1184.329507,11769.274478
1044.560299,-3677.258390,-1036.288319,13027.624579
1044.560618,-4213.525239,-1036.288319,13545.768739
1044.560937,-3447.429741,-518.144159,11695.253884
1044.561255,-2528.115143,-0.000000,10955.047942
1044.561574,-1685.410096,888.247130,10732.986159
1044.561893,-153.219100,1702.473667,9326.594869
1044.562212,1838.629195,2368.659014,6809.894666
1044.562531,2528.115143,3182.885551,6291.750507
1044.562849,2911.162892,2960.823768,6143.709319
1044.563168,2911.162892,2442.679609,5181.441594
1044.563487,2604.724693,2294.638420,4737.318029
1044.563806,1302.362347,962.267725,6735.874072
1044.564124,0.000000,-740.205942,9770.718434
1044.564443,-2221.676944,-1480.411884,11621.233289
1044.564762,-3524.039291,-1184.329507,12065.356855
1044.565081,-4060.306139,-962.267725,14063.912898
1044.565400,-4213.525239,-222.061783,14434.015869
1044.565718,-3064.381992,-0.000000,12213.398043
1044.566037,-1915.238745,518.144159,11103.089130
1044.566356,0.000000,296.082377,11621.233289
1044.566675,1915.238745,222.061783,9770.718434
1044.566994,3677.258390,888.247130,6809.894666
1044.567312,5439.278036,1036.288319,6217.729913
1044.567631,5745.716235,1258.350101,5773.606348
1044.567950,6358.592633,1332.370696,4589.276840
1044.568269,6052.154434,888.247130,4145.153275
1044.568588,4290.134789,1036.288319,6883.915261
1044.568906,2451.505594,-444.123565,9178.553681
1044.569225,842.705048,-148.041188,10066.800811
1044.569544,-612.876398,-1184.329507,12065.356855
1044.569863,-1762.019645,-1702.473667,14137.933492
1044.570181,-2987.772442,-1998.556043,14804.118840
1044.570500,-2451.505594,-1480.411884,13545.768739
1044.570819,-1225.752797,-148.041188,11991.336260
1044.571138,-306.438199,-0.000000,11547.212695
1044.571457,1455.581446,1036.288319,10140.821405
1044.571775,3294.210641,1850.514855,5995.668130
1044.572094,4136.915689,2368.659014,4663.297435
1044.572413,4596.572988,2072.576638,5181.441594
1044.572732,4519.963438,2072.576638,3552.988522
1044.573051,3370.820191,1184.329507,3182.885551
1044.573369,1608.800546,296.082377,6069.688724
1044.573688,-459.657299,-888.247130,9474.636058
1044.574007,-2221.676944,-1850.514855,10362.883188
1044.574326,-3983.696590,-1258.350101,11547.212695
1044.574645,-4903.011187,-1406.391290,13693.809927
1044.574963,-5362.668486,-1184.329507,14285.974681
1044.575282,-4673.182538,-0.000000,12805.562797
1044.575601,-3600.648841,740.205942,11695.253884
1044.575920,-2681.334243,1406.391290,11473.192101
1044.576239,-1149.143247,1998.556043,9844.739029
1044.576557,1838.629195,2442.679609,6957.935855
1044.576876,2911.162892,2368.659014,5477.523971
1044.577195,3600.648841,1480.411884,6143.709319
1044.577514,4290.134789,-0.000000,5033.400406
1044.577832,4136.915689,222.061783,3849.070898
1044.578151,3140.991542,-222.061783,6143.709319
1044.578470,1378.971896,-1258.350101,8956.491898
1044.578789,76.609550,-1998.556043,10288.862594
1044.579108,-1378.971896,-1480.411884,11325.150913
1044.579426,-2681.334243,-1702.473667,14211.954086
1044.579745,-3140.991542,-814.226536,14508.036463
1044.580064,-2451.505594,-518.144159,13323.706956
1044.580383,-1915.238745,-0.000000,11991.336260
1044.580702,-689.485948,518.144159,11917.315666
1044.581020,1072.533697,1406.391290,10214.842000
1044.581339,3370.820191,2220.617826,7328.038826
1044.581658,4903.011187,2516.700203,5921.647536
1044.581977,5592.497135,2664.741391,5995.668130
1044.582296,5898.935335,2368.659014,5033.400406
1044.582614,5515.887586,1998.556043,3923.091493
1044.582933,3907.087040,740.205942,6809.894666
1044.583252,1685.410096,-74.020594,9252.574275
1044.583571,383.047749,-222.061783,10288.862594
1044.583889,-995.924147,-148.041188,11177.109724
1044.584208,-2834.553343,-592.164754,13027.624579
1044.584527,-3370.820191,-444.123565,13915.871710
1044.584846,-3217.601092,-0.000000,12435.459826
1044.585165,-2374.896044,592.164754,10807.006753
1044.585483,-1532.190996,592.164754,11325.150913
1044.585802,-612.876398,888.247130,9918.759623
1044.586121,919.314598,2368.659014,6883.915261
1044.586440,2221.676944,2294.638420,6291.750507
1044.586759,2757.943793,2294.638420,6143.709319
1044.587077,3064.381992,2072.576638,4959.379811
1044.587396,2681.334243,2220.617826,4589.276840
1044.587715,1455.581446,1258.350101,6735.874072
1044.588034,76.609550,-666.185348,9696.697840
1044.588353,-1685.410096,-962.267725,10955.047942
1044.588671,-2911.162892,-1554.432478,12213.398043
1044.588990,-3830.477490,-1480.411884,13397.727550
1044.589309,-3983.696590,-1184.329507,14211.954086
1044.589628,-2987.772442,-740.205942,12731.542202
1044.589946,-1838.629195,-0.000000,10807.006753
1044.590265,-536.266849,666.185348,10214.842000
1044.590584,1302.362347,1628.453072,9104.533087
1044.590903,3753.867940,1998.556043,6513.812290
1044.591222,5439.278036,2294.638420,5033.400406
1044.591540,5515.887586,1850.514855,5403.503377
1044.591859,5898.935335,1628.453072,4885.359217
1044.592178,5592.497135,1406.391290,4145.153275
1044.592497,3983.696590,1184.329507,6513.812290
1044.592816,2374.896044,-444.123565,9770.718434
1044.593134,689.485948,-592.164754,11177.109724
1044.593453,-766.095498,-814.226536,12065.356855
1044.593772,-2145.067394,-1628.453072,14137.933492
1044.594091,-3140.991542,-1184.329507,14952.160028
1044.594410,-2374.896044,-518.144159,13027.624579
1044.594728,-1685.410096,-74.020594,11473.192101
1044.595047,-612.876398,-74.020594,11621.233289
1044.595366,536.266849,-0.000000,10510.924376
1044.595685,2298.286494,1184.329507,7105.977043
1044.596004,3983.696590,1554.432478,5181.441594
1044.596322,4366.744339,962.267725,5551.544565
1044.596641,4443.353888,1184.329507,4737.318029
1044.596960,3983.696590,666.185348,4367.215058
1044.597279,2298.286494,-148.041188,5921.647536
1044.597597,612.876398,-1258.350101,9474.636058
1044.597916,-1991.848295,-1480.411884,9992.780217
1044.598235,-3140.991542,-1850.514855,12361.439231
1044.598554,-4596.572988,-1554.432478,13619.789333
1044.598873,-5132.839837,-888.247130,14063.912898
1044.599191,-4979.620737,-962.267725,13101.645173
1044.599510,-3907.087040,222.061783,11695.253884
1044.599829,-2528.115143,-296.082377,11399.171507
1044.600148,-1378.971896,296.082377,9622.677246
1044.600467,919.314598,1258.350101,7920.203579
1044.600785,2451.505594,1554.432478,5403.503377
1044.601104,4060.306139,2368.659014,5255.462188
1044.601423,4519.963438,2146.597232,4663.297435
1044.601742,4903.011187,2368.659014,3552.988522
1044.602061,3907.087040,2146.597232,3775.050304
1044.602379,2145.067394,592.164754,7624.121203
1044.602698,612.876398,-592.164754,9992.780217
1044.603017,-306.438199,-444.123565,10510.924376
1044.603336,-2298.286494,-592.164754,12361.439231
1044.603654,-3140.991542,-740.205942,14582.057057
1044.603973,-2987.772442,-148.041188,13175.665768
1044.604292,-1991.848295,592.164754,11621.233289
1044.604611,-1072.533697,740.205942,12435.459826
1044.604930,383.047749,1702.473667,11177.109724
1044.605248,2604.724693,2220.617826,8068.244768
1044.605567,3524.039291,2220.617826,6291.750507
1044.605886,4903.011187,2590.720797,6661.853478
1044.606205,5362.668486,2220.617826,5033.400406
1044.606524,5056.230287,1924.535449,3923.091493
1044.606842,3907.087040,592.164754,5477.523971
1044.607161,2068.457845,-222.061783,7994.224174
1044.607480,383.047749,-1184.329507,9844.739029
1044.607799,-1838.629195,-1776.494261,11103.089130
1044.608118,-3217.601092,-1258.350101,13101.645173
1044.608436,-3753.867940,-1036.288319,13989.892304
1044.608755,-3447.429741,-148.041188,12953.603985
1044.609074,-2911.162892,592.164754,12583.501014
1044.609393,-2451.505594,1184.329507,11991.336260
1044.609712,-1378.971896,1776.494261,10955.047942
1044.610030,612.876398,1776.494261,8512.368333
1044.610349,1991.848295,2516.700203,7105.977043
1044.610668,2374.896044,2072.576638,7031.956449
1044.610987,3064.381992,1924.535449,6439.791695
1044.611305,3294.210641,1850.514855,4885.359217
1044.611624,2145.067394,888.247130,6809.894666
1044.611943,842.705048,-222.061783,8882.471304
1044.612262,-842.705048,-666.185348,9918.759623
1044.612581,-1072.533697,-1036.288319,10881.027347
1044.612899,-2298.286494,-962.267725,12361.439231
1044.613218,-2681.334243,-962.267725,13767.830521
1044.613537,-2834.553343,-1036.288319,12213.398043
1044.613856,-1991.848295,-0.000000,11399.171507
1044.614175,-995.924147,222.061783,11029.068536
1044.614493,536.266849,1480.411884,9474.636058
1044.614812,2451.505594,1924.535449,7624.121203
1044.615131,4060.306139,1924.535449,5995.668130
1044.615450,4443.353888,2294.638420,5921.647536
1044.615769,4826.401637,1776.494261,5329.482782
1044.616087,5056.230287,1628.453072,4885.359217
1044.616406,3370.820191,1628.453072,5329.482782
1044.616725,2221.676944,-222.061783,8512.368333
1044.617044,689.485948,-1776.494261,10510.924376
1044.617362,-689.485948,-2442.679609,11769.274478
1044.617681,-1915.238745,-3256.906145,13767.830521
1044.618000,-2451.505594,-1776.494261,14285.974681
1044.618319,-2068.457845,-222.061783,12139.377449
1044.618638,-1072.533697,222.061783,9622.677246
1044.618956,0.000000,-222.061783,10584.944971
1044.619275,995.924147,-222.061783,9918.759623
1044.619594,2451.505594,888.247130,6365.771101
1044.619913,3064.381992,1628.453072,4515.256246
1044.620232,4060.306139,1332.370696,5773.606348
1044.620550,3524.039291,1702.473667,4663.297435
1044.620869,3064.381992,1184.329507,4293.194464
1044.621188,995.924147,222.061783,5847.626942
1044.621507,-766.095498,-444.123565,9178.553681
1044.621826,-1991.848295,-1702.473667,11177.109724
1044.622144,-3294.210641,-1332.370696,12731.542202
1044.622463,-4903.011187,-1480.411884,14211.954086
1044.622782,-5439.278036,-1184.329507,15026.180623
1044.623101,-4673.182538,-814.226536,14063.912898
1044.623419,-3064.381992,-370.102971,11621.233289
1044.623738,-2145.067394,740.205942,10584.944971
1044.624057,-612.876398,1110.308913,9548.656652
1044.624376,2451.505594,1924.535449,6291.750507
1044.624695,3294.210641,1850.514855,4293.194464
1044.625013,4136.915689,1776.494261,4885.359217
1044.625332,4519.963438,1332.370696,4441.235652
1044.625651,4213.525239,1036.288319,3182.885551
1044.625970,2528.115143,592.164754,5329.482782
1044.626289,842.705048,-518.144159,9030.512492
1044.626607,-1378.971896,-1332.370696,10955.047942
1044.626926,-2451.505594,-1480.411884,12213.398043
1044.627245,-3753.867940,-1258.350101,14211.954086
1044.627564,-4060.306139,-1036.288319,15100.201217
1044.627883,-3524.039291,592.164754,13841.851115
1044.628201,-1915.238745,1554.432478,11917.315666
1044.628520,0.000000,1998.556043,11621.233289
1044.628839,995.924147,1850.514855,10510.924376
1044.629158,3217.601092,2072.576638,7846.182985
1044.629477,4443.353888,2072.576638,5921.647536
1044.629795,5439.278036,1628.453072,5551.544565
1044.630114,5132.839837,1332.370696,5255.462188
1044.630433,5286.058936,1184.329507,3775.050304
1044.630752,4366.744339,740.205942,5181.441594
1044.631070,2068.457845,-296.082377,8586.388927
1044.631389,612.876398,-518.144159,10288.862594
1044.631708,-1072.533697,-0.000000,10658.965565
1044.632027,-3064.381992,-666.185348,12879.583391
1044.632346,-4443.353888,-962.267725,14878.139434
1044.632664,-4290.134789,-444.123565,14211.954086
1044.632983,-3447.429741,-74.020594,12287.418637
1044.633302,-2834.553343,666.185348,12361.439231
1044.633621,-1302.362347,1110.308913,11769.274478
1044.633940,919.314598,1850.514855,8882.471304
1044.634258,2911.162892,2516.700203,6439.791695
1044.634577,3677.258390,2442.679609,5995.668130
1044.634896,3830.477490,1776.494261,5625.565159
1044.635215,3983.696590,1776.494261,4219.173869
1044.635534,3524.039291,888.247130,5329.482782
1044.635852,1838.629195,-296.082377,7846.182985
1044.636171,-229.828649,-1332.370696,9474.636058
1044.636490,-1302.362347,-1332.370696,10362.883188
1044.636809,-2604.724693,-1110.308913,11695.253884
1044.637127,-3294.210641,-666.185348,13101.645173
1044.637446,-3447.429741,-814.226536,12731.542202
1044.637765,-3064.381992,-296.082377,11399.171507
1044.638084,-1685.410096,370.102971,11473.192101
1044.638403,-383.047749,814.226536,10658.965565
1044.638721,1838.629195,1776.494261,8512.368333
1044.639040,3370.820191,2146.597232,6217.729913
1044.639359,4519.963438,2368.659014,5847.626942
1044.639678,4903.011187,2146.597232,5477.523971
1044.639997,5056.230287,1702.473667,4885.359217
1044.640315,3983.696590,1036.288319,5477.523971
1044.640634,2604.724693,-0.000000,8142.265362
1044.640953,1149.143247,-592.164754,9992.780217
1044.641272,0.000000,-1036.288319,10436.903782
1044.641591,-1532.190996,-1480.411884,11917.315666
1044.641909,-2451.505594,-1406.391290,13915.871710
1044.642228,-2374.896044,-1480.411884,12879.583391
1044.642547,-1532.190996,-592.164754,11473.192101
1044.642866,-536.266849,-814.226536,11103.089130
1044.643185,0.000000,-962.267725,10955.047942
1044.643503,1302.362347,-148.041188,8512.368333
1044.643822,2604.724693,148.041188,6735.874072
1044.644141,2604.724693,666.185348,6587.832884
1044.644460,2911.162892,740.205942,6365.771101
1044.644778,2528.115143,1184.329507,5625.565159
1044.645097,1608.800546,666.185348,6291.750507
1044.645416,-153.219100,-0.000000,8660.409521
1044.645735,-1378.971896,-666.185348,10288.862594
1044.646054,-2681.334243,-1554.432478,11399.171507
1044.646372,-3830.477490,-1776.494261,12361.439231
1044.646691,-4060.306139,-2294.638420,13767.830521
1044.647010,-4060.306139,-1258.350101,13471.748144
1044.647329,-2987.772442,-148.041188,11325.150913
1044.647648,-2068.457845,592.164754,10510.924376
1044.647966,-459.657299,1036.288319,9992.780217
1044.648285,1915.238745,2146.597232,7402.059420
1044.648604,3600.648841,2516.700203,5255.462188
1044.648923,4290.134789,2590.720797,5107.421000
1044.649242,5132.839837,2220.617826,5773.606348
1044.649560,4903.011187,1776.494261,3923.091493
1044.649879,3830.477490,1184.329507,5181.441594
1044.650198,2374.896044,-0.000000,8290.306550
1044.650517,536.266849,222.061783,9696.697840
1044.650835,-306.438199,-370.102971,10288.862594
1044.651154,-1838.629195,-740.205942,12435.459826
1044.651473,-2757.943793,-1184.329507,14582.057057
1044.651792,-2757.943793,-814.226536,13989.892304
1044.652111,-1991.848295,-0.000000,11843.295072
1044.652429,-612.876398,222.061783,11103.089130
1044.652748,612.876398,740.205942,10288.862594
1044.653067,2298.286494,1406.391290,8068.244768
1044.653386,4213.525239,2516.700203,5329.482782
1044.653704,4596.572988,3108.864956,4515.256246
1044.654023,4903.011187,2442.679609,4145.153275
1044.654342,4903.011187,2368.659014,3701.029710
1044.654661,3064.381992,1110.308913,4737.318029
1044.654979,995.924147,296.082377,7550.100608
1044.655298,-842.705048,-518.144159,10140.821405
1044.655617,-2298.286494,-1110.308913,11399.171507
1044.655936,-3753.867940,-1332.370696,12879.583391
1044.656254,-5209.449386,-1406.391290,15100.201217
1044.656573,-5056.230287,-814.226536,14508.036463
1044.656892,-4136.915689,-0.000000,12583.501014
1044.657211,-3064.381992,666.185348,11547.212695
1044.657529,-842.705048,1480.411884,10955.047942
1044.657848,383.047749,2368.659014,8438.347739
1044.658167,2451.505594,2960.823768,5847.626942
1044.658486,2911.162892,2146.597232,5995.668130
1044.658805,3753.867940,2368.659014,5477.523971
1044.659123,4366.744339,1258.350101,4441.235652
1044.659442,3600.648841,444.123565,4959.379811
1044.659761,1991.848295,-814.226536,8660.409521
1044.660080,766.095498,-1406.391290,10436.903782
1044.660398,-459.657299,-1184.329507,11843.295072
1044.660717,-2068.457845,-1480.411884,13027.624579
1044.661036,-2911.162892,-888.247130,14804.118840
1044.661355,-2604.724693,-814.226536,14211.954086
1044.661673,-1608.800546,-370.102971,13323.706956
1044.661992,-689.485948,222.061783,11991.336260
1044.662311,229.828649,518.144159,10881.027347
1044.662630,2528.115143,740.205942,8438.347739
1044.662948,4596.572988,1332.370696,6439.791695
1044.663267,5592.497135,1036.288319,5403.503377
1044.663586,5439.278036,1036.288319,4959.379811
1044.663905,5669.106685,1110.308913,4737.318029
1044.664224,4596.572988,-0.000000,5477.523971
1044.664542,2911.162892,-666.185348,7994.224174
1044.664861,842.705048,-1258.350101,10584.944971
1044.665180,-766.095498,-1924.535449,11103.089130
1044.665499,-2681.334243,-1776.494261,12657.521608
1044.665817,-3600.648841,-962.267725,14063.912898
1044.666136,-3294.210641,-148.041188,13397.727550
1044.666455,-2528.115143,1036.288319,11251.130318
1044.666774,-1915.238745,1628.453072,10510.924376
1044.667092,-229.828649,1554.432478,9696.697840
1044.667411,995.924147,2146.597232,7550.100608
1044.667730,2528.115143,2738.761985,5255.462188
1044.668049,3140.991542,2590.720797,5033.400406
1044.668367,3524.039291,1924.535449,4885.359217
1044.668686,2911.162892,1258.350101,4515.256246
1044.669005,1762.019645,-0.000000,5403.503377
1044.669324,0.000000,-1036.288319,8142.265362
1044.669643,-1455.581446,-1554.432478,10214.842000
1044.669961,-2681.334243,-1628.453072,10658.965565
1044.670280,-3830.477490,-1850.514855,12287.418637
1044.670599,-4673.182538,-1924.535449,13841.851115
1044.670918,-3983.696590,-666.185348,12879.583391
1044.671236,-3064.381992,222.061783,11399.171507
1044.671555,-1608.800546,666.185348,10807.006753
1044.671874,-229.828649,1184.329507,9992.780217
1044.672193,1915.238745,1702.473667,7846.182985
1044.672511,3753.867940,1924.535449,5921.647536
1044.672830,4673.182538,1924.535449,5107.421000
1044.673149,4826.401637,1702.473667,5699.585753
1044.673468,4903.011187,1258.350101,4811.338623
1044.673786,3830.477490,444.123565,5551.544565
1044.674105,2145.067394,-518.144159,8512.368333
1044.674424,0.000000,-1554.432478,10584.944971
1044.674743,-1072.533697,-1702.473667,12065.356855
1044.675062,-2451.505594,-2146.597232,13175.665768
1044.675380,-3064.381992,-1776.494261,14804.118840
1044.675699,-2757.943793,-1184.329507,14211.954086
1044.676018,-1762.019645,-518.144159,11843.295072
1044.676337,-383.047749,296.082377,11029.068536
1044.676655,1149.143247,1036.288319,10214.842000
1044.676974,2987.772442,2294.638420,7698.141797
1044.677293,4826.401637,2664.741391,5773.606348
1044.677612,5515.887586,3552.988522,5477.523971
1044.677930,5592.497135,3478.967927,5403.503377
1044.678249,5362.668486,2812.782580,4737.318029
1044.678568,3524.039291,1850.514855,5403.503377
1044.678887,1838.629195,370.102971,8586.388927
1044.679205,-306.438199,-0.000000,10436.903782
1044.679524,-1455.581446,-666.185348,11547.212695
1044.679843,-3064.381992,-1258.350101,13101.645173
1044.680162,-4443.353888,-888.247130,14285.974681
1044.680481,-4596.572988,-296.082377,13767.830521
1044.680799,-3600.648841,148.041188,11621.233289
1044.681118,-2834.553343,-0.000000,10955.047942
1044.681437,-1685.410096,1110.308913,10584.944971
1044.681756,0.000000,2294.638420,8290.306550
1044.682074,1762.019645,2812.782580,5699.585753
1044.682393,2681.334243,2738.761985,5921.647536
1044.682712,3370.820191,2664.741391,5329.482782
1044.683031,3600.648841,2294.638420,4219.173869
1044.683349,2681.334243,1702.473667,4959.379811
1044.683668,1072.533697,222.061783,8290.306550
1044.683987,-689.485948,-296.082377,10066.800811
1044.684306,-1762.019645,-962.267725,11103.089130
1044.684624,-3370.820191,-1036.288319,13027.624579
1044.684943,-4290.134789,-1332.370696,14582.057057
1044.685262,-3983.696590,-740.205942,14063.912898
1044.685581,-2451.505594,-370.102971,12361.439231
1044.685900,-1685.410096,-444.123565,11769.274478
1044.686218,0.000000,-370.102971,11029.068536
1044.686537,1838.629195,-0.000000,8956.491898
1044.686856,4443.353888,740.205942,6735.874072
1044.687175,5745.716235,1406.391290,5477.523971
1044.687493,6052.154434,1850.514855,5403.503377
1044.687812,6971.469032,2146.597232,4145.153275
1044.688131,6052.154434,1554.432478,4441.235652
1044.688450,4519.963438,518.144159,6883.915261
1044.688768,2374.896044,-592.164754,9844.739029
1044.689087,153.219100,-1184.329507,10732.986159
1044.689406,-1302.362347,-1850.514855,12509.480420
1044.689725,-2681.334243,-1924.535449,14285.974681
1044.690043,-2911.162892,-1332.370696,14137.933492
1044.690362,-2681.334243,-740.205942,12287.418637
1044.690681,-1762.019645,-74.020594,11621.233289
1044.691000,-153.219100,296.082377,11029.068536
1044.691319,1072.533697,888.247130,8734.430116
1044.691637,2604.724693,1776.494261,6365.771101
1044.691956,3064.381992,1332.370696,5477.523971
1044.692275,3600.648841,1258.350101,4885.359217
1044.692594,3907.087040,1702.473667,3701.029710
1044.692912,2911.162892,592.164754,4145.153275
1044.693231,1225.752797,-148.041188,6513.812290
1044.693550,-842.705048,-1184.329507,8882.471304
1044.693869,-2221.676944,-1702.473667,10510.924376
1044.694187,-4060.306139,-2294.638420,12583.501014
1044.694506,-5515.887586,-2294.638420,14434.015869
1044.694825,-5669.106685,-1184.329507,14211.954086
1044.695144,-4673.182538,-0.000000,12435.459826
1044.695462,-3217.601092,1110.308913,11547.212695
1044.695781,-2145.067394,1184.329507,10955.047942
1044.696100,0.000000,2146.597232,9030.512492
1044.696419,1455.581446,2146.597232,6069.688724
1044.696738,2681.334243,2442.679609,6217.729913
1044.697056,3217.601092,2368.659014,5625.565159
1044.697375,3830.477490,2072.576638,4959.379811
1044.697694,3907.087040,666.185348,4737.318029
1044.698013,1915.238745,-148.041188,7105.977043
1044.698331,612.876398,-1702.473667,9844.739029
1044.698650,-459.657299,-1924.535449,11103.089130
1044.698969,-1991.848295,-2072.576638,12805.562797
1044.699288,-2068.457845,-1702.473667,14211.954086
1044.699606,-2374.896044,-370.102971,13767.830521
1044.699925,-919.314598,148.041188,12731.542202
1044.700244,0.000000,666.185348,11029.068536
1044.700563,1762.019645,1480.411884,10140.821405
1044.700881,3600.648841,2886.803174,9178.553681
1044.701200,4596.572988,3775.050304,5921.647536
1044.701519,5592.497135,3256.906145,5773.606348
1044.701838,5822.325785,2664.741391,5995.668130
1044.702157,5056.230287,2368.659014,5107.421000
1044.702475,4443.353888,1480.411884,5329.482782
1044.702794,2221.676944,-370.102971,8068.244768
1044.703113,-536.266849,-1554.432478,10732.986159
1044.703432,-1838.629195,-1406.391290,11843.295072
1044.703750,-3447.429741,-1184.329507,12879.583391
1044.704069,-3753.867940,-1480.411884,14137.933492
1044.704388,-3983.696590,-592.164754,14359.995275
1044.704707,-2834.553343,1110.308913,11991.336260
1044.705025,-1838.629195,1332.370696,10140.821405
1044.705344,-689.485948,1998.556043,10362.883188
1044.705663,995.924147,2516.700203,8734.430116
1044.705982,2451.505594,3182.885551,5107.421000
1044.706300,3677.258390,2812.782580,4737.318029
1044.706619,3294.210641,1850.514855,5995.668130
1044.706938,2911.162892,1406.391290,4293.194464
1044.707257,2298.286494,740.205942,4293.194464
1044.707576,229.828649,-370.102971,7846.182985
1044.707894,-1762.019645,-1480.411884,10584.944971
1044.708213,-3294.210641,-2146.597232,12065.356855
1044.708532,-4290.134789,-2516.700203,13545.768739
1044.708851,-5056.230287,-2812.782580,15248.242405
1044.709169,-5286.058936,-1776.494261,13841.851115
1044.709488,-3600.648841,-1036.288319,12435.459826
1044.709807,-1915.238745,-74.020594,11621.233289
1044.710126,-459.657299,592.164754,9696.697840
1044.710444,2528.115143,1480.411884,7994.224174
1044.710763,4903.011187,2368.659014,5403.503377
1044.711082,6435.202183,2516.700203,4145.153275
1044.711401,6971.469032,2590.720797,3997.112087
1044.711719,7201.297681,2368.659014,3701.029710
1044.712038,6128.763984,1332.370696,4071.132681
1044.712357,4213.525239,-296.082377,6809.894666
1044.712676,1378.971896,-1628.453072,10362.883188
1044.712994,-766.095498,-2738.761985,11843.295072
1044.713313,-2145.067394,-2146.597232,12805.562797
1044.713632,-3217.601092,-1924.535449,14508.036463
1044.713951,-3753.867940,-1406.391290,14137.933492
1044.714270,-2757.943793,-518.144159,12213.398043
1044.714588,-1838.629195,-0.000000,10436.903782
1044.714907,-459.657299,518.144159,10140.821405
1044.715226,1608.800546,1110.308913,8142.265362
1044.715545,3677.258390,1776.494261,5625.565159
1044.715863,4519.963438,1184.329507,4589.276840
1044.716182,5132.839837,1184.329507,4737.318029
1044.716501,5056.230287,1184.329507,3775.050304
1044.716820,4290.134789,962.267725,3775.050304
1044.717138,2374.896044,740.205942,6439.791695
1044.717457,153.219100,-222.061783,9548.656652
1044.717776,-2068.457845,-222.061783,10732.986159
1044.718095,-3907.087040,-1332.370696,12435.459826
1044.718413,-5898.935335,-1480.411884,14359.995275
1044.718732,-6665.030833,-1184.329507,15174.221811
1044.719051,-5439.278036,-222.061783,13249.686362
1044.719370,-5056.230287,-296.082377,12213.398043
1044.719689,-3524.039291,148.041188,12139.377449
1044.720007,-766.095498,592.164754,10362.883188
1044.720326,1608.800546,962.267725,7476.080014
1044.720645,3064.381992,1554.432478,6439.791695
1044.720964,4443.353888,1702.473667,5921.647536
1044.721282,5209.449386,1998.556043,4737.318029
1044.721601,5132.839837,1702.473667,4071.132681
1044.721920,3294.210641,518.144159,6661.853478
1044.722239,1762.019645,-0.000000,9178.553681
1044.722557,153.219100,-74.020594,9918.759623
1044.722876,-1532.190996,-740.205942,11547.212695
1044.723195,-2987.772442,-740.205942,14359.995275
1044.723514,-3217.601092,-592.164754,14878.139434
1044.723832,-3370.820191,-148.041188,13101.645173
1044.724151,-2068.457845,-0.000000,13249.686362
1044.724470,-1072.533697,666.185348,12731.542202
1044.724789,1072.533697,1998.556043,10362.883188
1044.725108,3447.429741,2516.700203,7476.080014
1044.725426,4519.963438,2664.741391,6217.729913
1044.725745,5592.497135,2368.659014,6143.709319
1044.726064,5822.325785,2368.659014,4219.173869
1044.726383,5209.449386,2072.576638,4071.132681
1044.726701,3830.477490,1036.288319,5551.544565
1044.727020,1915.238745,370.102971,8364.327145
1044.727339,459.657299,-666.185348,9770.718434
1044.727658,-1762.019645,-1036.288319,11103.089130
1044.727976,-3370.820191,-1110.308913,13323.706956
1044.728295,-4366.744339,-1110.308913,14434.015869
1044.728614,-3983.696590,-0.000000,12731.542202
1044.728933,-3140.991542,-74.020594,11991.336260
1044.729251,-2374.896044,666.185348,12435.459826
1044.729570,-1149.143247,1332.370696,10214.842000
1044.729889,1149.143247,2072.576638,7105.977043
1044.730208,2451.505594,2516.700203,5847.626942
1044.730527,2834.553343,2738.761985,5773.606348
1044.730845,3677.258390,2368.659014,4219.173869
1044.731164,3524.039291,1554.432478,3997.112087
1044.731483,2681.334243,222.061783,6291.750507
1044.731802,536.266849,-740.205942,8882.471304
1044.732120,-766.095498,-1554.432478,9696.697840
1044.732439,-1838.629195,-2146.597232,11251.130318
1044.732758,-3524.039291,-2294.638420,13471.748144
1044.733077,-3983.696590,-1998.556043,14137.933492
1044.733395,-2911.162892,-962.267725,12287.418637
1044.733714,-2145.067394,-444.123565,11843.295072
1044.734033,-919.314598,222.061783,11547.212695
1044.734352,766.095498,1036.288319,9696.697840
1044.734670,3370.820191,2368.659014,6809.894666
1044.734989,5209.449386,2442.679609,5403.503377
1044.735308,5515.887586,2368.659014,4959.379811
1044.735627,6358.592633,2220.617826,4219.173869
1044.735946,5515.887586,1184.329507,4071.132681
1044.736264,3907.087040,-0.000000,6661.853478
1044.736583,2221.676944,-1110.308913,9400.615463
1044.736902,229.828649,-1850.514855,10436.903782
1044.737221,-689.485948,-1776.494261,11843.295072
1044.737539,-2451.505594,-2220.617826,14211.954086
1044.737858,-3140.991542,-1998.556043,14211.954086
1044.738177,-2451.505594,-1258.350101,12805.562797
1044.738496,-1608.800546,-444.123565,11547.212695
1044.738814,-1149.143247,-518.144159,11029.068536
1044.739133,766.095498,444.123565,9918.759623
1044.739452,2451.505594,1702.473667,6809.894666
1044.739771,3830.477490,2294.638420,5255.462188
1044.740089,4519.963438,2146.597232,5477.523971
1044.740408,4596.572988,2368.659014,4441.235652
1044.740727,3830.477490,1776.494261,3775.050304
1044.741046,2145.067394,666.185348,6513.812290
1044.741365,-229.828649,-740.205942,9474.636058
1044.741683,-2145.067394,-1036.288319,10881.027347
1044.742002,-3907.087040,-1628.453072,12213.398043
1044.742321,-5515.887586,-2294.638420,14582.057057
1044.742640,-5515.887586,-2072.576638,15396.283594
1044.742958,-5515.887586,-740.205942,13471.748144
1044.743277,-4366.744339,-222.061783,11621.233289
1044.743596,-2757.943793,-0.000000,11769.274478
1044.743915,-536.266849,1258.350101,9696.697840
1044.744233,1991.848295,2220.617826,6291.750507
1044.744552,3753.867940,2590.720797,4959.379811
1044.744871,5209.449386,2664.741391,4737.318029
1044.745190,5439.278036,2812.782580,3849.070898
1044.745508,5822.325785,2220.617826,3478.967927
1044.745827,3907.087040,666.185348,5847.626942
1044.746146,2221.676944,-0.000000,8734.430116
1044.746465,459.657299,-666.185348,10288.862594
1044.746784,-1225.752797,-592.164754,11991.336260
1044.747102,-2834.553343,-1036.288319,13915.871710
1044.747421,-3600.648841,-74.020594,14582.057057
1044.747740,-3217.601092,592.164754,13915.871710
1044.748059,-2757.943793,296.082377,12213.398043
1044.748377,-1762.019645,-74.020594,12361.439231
1044.748696,229.828649,592.164754,10881.027347
1044.749015,2681.334243,1628.453072,7846.182985
1044.749334,4290.134789,1850.514855,6069.688724
1044.749652,5056.230287,1850.514855,5699.585753
1044.749971,5515.887586,2442.679609,4441.235652
1044.750290,5822.325785,2072.576638,3404.947333
1044.750609,4596.572988,1332.370696,5773.606348
1044.750927,2987.772442,296.082377,8660.409521
1044.751246,766.095498,-222.061783,9474.636058
1044.751565,-1225.752797,-888.247130,10807.006753
1044.751884,-2911.162892,-1776.494261,13249.686362
1044.752203,-4366.744339,-1406.391290,14063.912898
1044.752521,-3830.477490,-0.000000,12435.459826
1044.752840,-3217.601092,814.226536,11695.253884
1044.753159,-2528.115143,-0.000000,11991.336260
1044.753478,-1838.629195,666.185348,10955.047942
1044.753797,153.219100,1406.391290,8660.409521
1044.754116,1685.410096,1554.432478,7105.977043
1044.754434,3140.991542,1554.432478,6587.832884
1044.754753,2987.772442,1406.391290,5551.544565
1044.755072,3370.820191,1776.494261,4737.318029
1044.755391,2681.334243,666.185348,5773.606348
1044.755710,1608.800546,-0.000000,8290.306550
1044.756029,766.095498,-518.144159,9992.780217
1044.756347,-766.095498,-296.082377,10510.924376
1044.756666,-2298.286494,-444.123565,11843.295072
1044.756985,-2604.724693,-222.061783,13397.727550
