#time,accel_x,accel_y,accel_z
1815.064557,3370.820191,5107.421000,12287.418637
1815.064874,2451.505594,3923.091493,13101.645173
1815.065191,2068.457845,4219.173869,13989.892304
1815.065508,2068.457845,4293.194464,14434.015869
1815.065825,1838.629195,4441.235652,13397.727550
1815.066142,1838.629195,3478.967927,14656.077652
1815.066459,1915.238745,2664.741391,14359.995275
1815.066776,2068.457845,1702.473667,13915.871710
1815.067093,2374.896044,888.247130,13693.809927
1815.067411,2068.457845,370.102971,13397.727550
1815.067728,1149.143247,518.144159,13693.809927
1815.068045,919.314598,666.185348,13175.665768
1815.068362,919.314598,1406.391290,12583.501014
1815.068679,76.609550,1850.514855,11473.192101
1815.068996,-229.828649,1628.453072,11621.233289
1815.069313,-766.095498,1332.370696,10510.924376
1815.069630,-536.266849,370.102971,10362.883188
1815.069947,-1149.143247,-0.000000,10140.821405
1815.070265,-995.924147,-1110.308913,9548.656652
1815.070582,-1072.533697,-888.247130,8882.471304
1815.070899,-1149.143247,-1332.370696,8586.388927
1815.071216,-1608.800546,-1110.308913,8364.327145
1815.071533,-1915.238745,-962.267725,8734.430116
1815.071850,-1991.848295,-666.185348,8512.368333
1815.072167,-2068.457845,-592.164754,8512.368333
1815.072484,-2221.676944,-740.205942,7920.203579
1815.072801,-1762.019645,-888.247130,7550.100608
1815.073119,-842.705048,-1036.288319,7031.956449
1815.073436,-153.219100,-888.247130,5995.668130
1815.073753,383.047749,-1036.288319,5847.626942
1815.074070,919.314598,-1258.350101,5033.400406
1815.074387,842.705048,-962.267725,4441.235652
1815.074704,995.924147,-1258.350101,4589.276840
1815.075021,919.314598,-1554.432478,4885.359217
1815.075338,689.485948,-2368.659014,5255.462188
1815.075655,689.485948,-3256.906145,5551.544565
1815.075973,306.438199,-3923.091493,6143.709319
1815.076290,-383.047749,-4737.318029,6809.894666
1815.076607,-153.219100,-4589.276840,7105.977043
1815.076924,-612.876398,-4811.338623,7328.038826
1815.077241,-383.047749,-3775.050304,7328.038826
1815.077558,-536.266849,-2886.803174,7476.080014
1815.077875,-383.047749,-2368.659014,7328.038826
1815.078192,-229.828649,-1998.556043,7476.080014
1815.078509,-229.828649,-1406.391290,7994.224174
1815.078827,-536.266849,-1036.288319,8142.265362
1815.079144,0.000000,-444.123565,7994.224174
1815.079461,-229.828649,-444.123565,8216.285956
1815.079778,-153.219100,148.041188,8290.306550
1815.080095,0.000000,666.185348,8142.265362
1815.080412,0.000000,1184.329507,8660.409521
1815.080729,0.000000,1628.453072,8882.471304
1815.081046,76.609550,1998.556043,8660.409521
1815.081364,76.609550,2812.782580,8734.430116
1815.081681,153.219100,2886.803174,9104.533087
1815.081998,-306.438199,2664.741391,9178.553681
1815.082315,-229.828649,2812.782580,9474.636058
1815.082632,0.000000,3404.947333,9474.636058
1815.082949,-153.219100,3849.070898,9918.759623
1815.083266,306.438199,3775.050304,9992.780217
1815.083583,766.095498,3997.112087,9696.697840
1815.083900,919.314598,3923.091493,9844.739029
1815.084218,995.924147,3775.050304,10140.821405
1815.084535,1072.533697,3923.091493,10288.862594
1815.084852,1149.143247,3701.029710,10362.883188
1815.085169,1378.971896,3552.988522,10436.903782
1815.085486,1225.752797,3330.926739,10807.006753
1815.085803,1149.143247,3182.885551,10955.047942
1815.086120,689.485948,3404.947333,11103.089130
1815.086437,842.705048,3478.967927,11621.233289
1815.086754,612.876398,3404.947333,11843.295072
1815.087072,612.876398,2886.803174,12065.356855
1815.087389,459.657299,2442.679609,12287.418637
1815.087706,459.657299,2220.617826,12361.439231
1815.088023,229.828649,1924.535449,12435.459826
1815.088340,383.047749,1850.514855,12657.521608
1815.088657,229.828649,1850.514855,12657.521608
1815.088974,229.828649,2072.576638,12731.542202
1815.089291,536.266849,2442.679609,12657.521608
1815.089608,306.438199,2368.659014,12583.501014
1815.089926,306.438199,2368.659014,12509.480420
1815.090243,76.609550,1924.535449,12213.398043
1815.090560,383.047749,1776.494261,11843.295072
1815.090877,306.438199,1258.350101,11473.192101
1815.091194,459.657299,1406.391290,11177.109724
1815.091511,536.266849,1184.329507,10658.965565
1815.091828,612.876398,962.267725,10140.821405
1815.092145,689.485948,1036.288319,9918.759623
1815.092462,689.485948,666.185348,9474.636058
1815.092780,383.047749,814.226536,9104.533087
1815.093097,842.705048,592.164754,8734.430116
1815.093414,689.485948,444.123565,8512.368333
1815.093731,995.924147,-0.000000,8142.265362
1815.094048,1072.533697,222.061783,7846.182985
1815.094365,1378.971896,-0.000000,7624.121203
1815.094682,1302.362347,148.041188,7624.121203
1815.094999,1225.752797,-0.000000,7179.997637
1815.095317,919.314598,-74.020594,7031.956449
1815.095634,995.924147,-0.000000,7105.977043
1815.095951,689.485948,-0.000000,7105.977043
1815.096268,919.314598,148.041188,7328.038826
1815.096585,919.314598,-444.123565,6957.935855
1815.096902,536.266849,-740.205942,7179.997637
1815.097219,536.266849,-1258.350101,7105.977043
1815.097536,153.219100,-1554.432478,7698.141797
1815.097854,0.000000,-1850.514855,7994.224174
1815.098171,-383.047749,-1924.535449,8142.265362
1815.098488,-612.876398,-1998.556043,8438.347739
1815.098805,-383.047749,-1332.370696,8290.306550
1815.099122,-153.219100,-1850.514855,8290.306550
1815.099439,-536.266849,-1850.514855,8364.327145
1815.099756,-383.047749,-1628.453072,8364.327145
1815.100073,-536.266849,-1628.453072,8142.265362
1815.100391,-229.828649,-1702.473667,8364.327145
1815.100708,-229.828649,-1924.535449,8808.450710
1815.101025,-229.828649,-1924.535449,8808.450710
1815.101342,-306.438199,-1924.535449,9104.533087
1815.101659,0.000000,-1924.535449,9178.553681
1815.101976,229.828649,-1258.350101,8956.491898
1815.102293,536.266849,-1036.288319,9104.533087
1815.102610,612.876398,-444.123565,9030.512492
1815.102927,536.266849,-592.164754,9400.615463
1815.103245,689.485948,-0.000000,8956.491898
1815.103562,689.485948,444.123565,9030.512492
1815.103879,995.924147,814.226536,9252.574275
1815.104196,1072.533697,1110.308913,9326.594869
1815.104513,1149.143247,1036.288319,9030.512492
1815.104830,919.314598,1850.514855,9474.636058
1815.105147,766.095498,1924.535449,9400.615463
1815.105464,1302.362347,2368.659014,9474.636058
1815.105782,1378.971896,2442.679609,9400.615463
1815.106099,1149.143247,2738.761985,9474.636058
1815.106416,1302.362347,2960.823768,9474.636058
1815.106733,1302.362347,3256.906145,9770.718434
1815.107050,995.924147,3256.906145,9918.759623
1815.107367,1149.143247,3404.947333,10140.821405
1815.107684,766.095498,3182.885551,10732.986159
1815.108001,383.047749,3108.864956,10658.965565
1815.108319,306.438199,2738.761985,11103.089130
1815.108636,229.828649,2368.659014,11325.150913
1815.108953,0.000000,1998.556043,11547.212695
1815.109270,0.000000,1998.556043,11547.212695
1815.109587,76.609550,1924.535449,11621.233289
1815.109904,306.438199,1776.494261,11843.295072
1815.110221,153.219100,1480.411884,11547.212695
1815.110538,76.609550,1628.453072,11399.171507
1815.110856,0.000000,1184.329507,11547.212695
1815.111173,0.000000,1258.350101,11103.089130
1815.111490,-229.828649,1332.370696,11251.130318
1815.111807,-229.828649,1110.308913,11029.068536
1815.112124,-229.828649,1184.329507,11029.068536
1815.112441,-229.828649,1036.288319,10807.006753
1815.112758,0.000000,1036.288319,10584.944971
1815.113075,0.000000,1332.370696,10066.800811
1815.113393,153.219100,1332.370696,10066.800811
1815.113710,0.000000,1480.411884,9770.718434
1815.114027,-153.219100,1110.308913,9696.697840
1815.114344,0.000000,1110.308913,9326.594869
1815.114661,76.609550,1184.329507,9622.677246
1815.114978,76.609550,1110.308913,9400.615463
1815.115295,612.876398,962.267725,8808.450710
1815.115612,842.705048,1184.329507,8586.388927
1815.115930,842.705048,1036.288319,8290.306550
1815.116247,1072.533697,814.226536,8290.306550
1815.116564,995.924147,592.164754,8142.265362
1815.116881,995.924147,222.061783,7772.162391
1815.117198,1225.752797,-0.000000,7698.141797
1815.117515,1225.752797,-296.082377,7624.121203
1815.117832,995.924147,-888.247130,7698.141797
1815.118149,1225.752797,-1184.329507,7920.203579
1815.118466,1149.143247,-1628.453072,8068.244768
1815.118784,1302.362347,-1998.556043,7846.182985
1815.119101,1149.143247,-2368.659014,8142.265362
1815.119418,1225.752797,-2516.700203,8142.265362
1815.119735,1149.143247,-2886.803174,8290.306550
1815.120052,1378.971896,-2960.823768,8216.285956
1815.120369,1685.410096,-2812.782580,8438.347739
1815.120686,1532.190996,-2812.782580,8660.409521
1815.121003,2145.067394,-3034.844362,8956.491898
1815.121321,1838.629195,-3182.885551,8660.409521
1815.121638,1915.238745,-3108.864956,8660.409521
1815.121955,1762.019645,-3034.844362,8956.491898
1815.122272,1532.190996,-2886.803174,9030.512492
1815.122589,1685.410096,-3034.844362,9326.594869
1815.122906,1378.971896,-2664.741391,9104.533087
1815.123223,1455.581446,-2516.700203,9400.615463
1815.123540,1455.581446,-2294.638420,9474.636058
1815.123858,1991.848295,-1998.556043,9474.636058
1815.124175,1302.362347,-1554.432478,9548.656652
1815.124492,1302.362347,-1406.391290,9622.677246
1815.124809,1149.143247,-1036.288319,9252.574275
1815.125126,1378.971896,-888.247130,9400.615463
1815.125443,1378.971896,-666.185348,9252.574275
1815.125760,1532.190996,-222.061783,9400.615463
1815.126077,1532.190996,-296.082377,9252.574275
1815.126395,1685.410096,-74.020594,9178.553681
1815.126712,1608.800546,-74.020594,9252.574275
1815.127029,1762.019645,-0.000000,9178.553681
1815.127346,1915.238745,148.041188,9252.574275
1815.127663,2068.457845,740.205942,9178.553681
1815.127980,2068.457845,592.164754,9474.636058
1815.128297,1915.238745,444.123565,9326.594869
1815.128614,1838.629195,740.205942,9696.697840
1815.128932,1685.410096,740.205942,9622.677246
1815.129249,1455.581446,814.226536,9918.759623
1815.129566,1302.362347,740.205942,9992.780217
1815.129883,1072.533697,814.226536,10436.903782
1815.130200,1149.143247,962.267725,10214.842000
1815.130517,612.876398,1258.350101,10510.924376
1815.130834,536.266849,1628.453072,10510.924376
1815.131151,536.266849,1480.411884,10510.924376
1815.131469,536.266849,1702.473667,10436.903782
1815.131786,306.438199,1628.453072,10140.821405
1815.132103,76.609550,1850.514855,10362.883188
1815.132420,306.438199,1924.535449,10584.944971
1815.132737,153.219100,2072.576638,10362.883188
1815.133054,0.000000,1702.473667,10436.903782
1815.133371,76.609550,1998.556043,10362.883188
1815.133688,-383.047749,1776.494261,10584.944971
1815.134005,-76.609550,1776.494261,10510.924376
1815.134323,-306.438199,1776.494261,10362.883188
1815.134640,153.219100,1554.432478,10436.903782
1815.134957,0.000000,1702.473667,10066.800811
1815.135274,-383.047749,1480.411884,9844.739029
1815.135591,-229.828649,1258.350101,9770.718434
1815.135908,-229.828649,1184.329507,9696.697840
1815.136225,0.000000,1480.411884,9622.677246
1815.136542,-536.266849,666.185348,9548.656652
1815.136860,-383.047749,592.164754,9474.636058
1815.137177,-153.219100,518.144159,9400.615463
1815.137494,-306.438199,444.123565,9030.512492
1815.137811,-306.438199,444.123565,8808.450710
1815.138128,0.000000,222.061783,8660.409521
1815.138445,-306.438199,-0.000000,8512.368333
1815.138762,0.000000,-0.000000,8512.368333
1815.139079,229.828649,-74.020594,8734.430116
1815.139397,153.219100,-0.000000,8882.471304
1815.139714,0.000000,-370.102971,8882.471304
1815.140031,76.609550,-1036.288319,8882.471304
1815.140348,306.438199,-1036.288319,8882.471304
1815.140665,689.485948,-1110.308913,8882.471304
1815.140982,612.876398,-1184.329507,9104.533087
1815.141299,1072.533697,-1036.288319,8808.450710
1815.141616,1455.581446,-1332.370696,9104.533087
1815.141934,2145.067394,-1406.391290,9030.512492
1815.142251,2145.067394,-1406.391290,8956.491898
1815.142568,2068.457845,-1628.453072,9178.553681
1815.142885,2298.286494,-1776.494261,8956.491898
1815.143202,2374.896044,-1406.391290,8956.491898
1815.143519,3217.601092,-1184.329507,9326.594869
1815.143836,2911.162892,-1702.473667,8956.491898
1815.144153,2604.724693,-1924.535449,8808.450710
1815.144471,2528.115143,-1998.556043,8956.491898
1815.144788,2911.162892,-1998.556043,8956.491898
1815.145105,2757.943793,-2220.617826,9178.553681
1815.145422,2451.505594,-2072.576638,9104.533087
1815.145739,2451.505594,-2072.576638,9400.615463
1815.146056,2298.286494,-1850.514855,9178.553681
1815.146373,2451.505594,-1628.453072,9104.533087
1815.146690,2068.457845,-1554.432478,9326.594869
1815.147008,1915.238745,-1332.370696,9252.574275
1815.147325,1608.800546,-1110.308913,9252.574275
1815.147642,1762.019645,-888.247130,9030.512492
1815.147959,1762.019645,-888.247130,9326.594869
1815.148276,1532.190996,-370.102971,8882.471304
1815.148593,1455.581446,-222.061783,9178.553681
1815.148910,1378.971896,-0.000000,9104.533087
1815.149227,919.314598,296.082377,9252.574275
1815.149544,612.876398,-0.000000,9326.594869
1815.149862,612.876398,370.102971,9178.553681
1815.150179,689.485948,740.205942,9326.594869
1815.150496,536.266849,666.185348,9252.574275
1815.150813,612.876398,740.205942,9400.615463
1815.151130,536.266849,814.226536,9548.656652
1815.151447,383.047749,1036.288319,9400.615463
1815.151764,153.219100,1258.350101,9622.677246
1815.152081,306.438199,1332.370696,9400.615463
1815.152399,383.047749,1554.432478,9548.656652
1815.152716,1072.533697,1480.411884,9548.656652
1815.153033,383.047749,1554.432478,9622.677246
1815.153350,306.438199,1406.391290,9548.656652
1815.153667,459.657299,1332.370696,9622.677246
1815.153984,229.828649,1554.432478,9696.697840
1815.154301,459.657299,1332.370696,9622.677246
1815.154618,383.047749,1258.350101,9696.697840
1815.154936,383.047749,1184.329507,9844.739029
1815.155253,459.657299,1406.391290,9622.677246
1815.155570,612.876398,1406.391290,9844.739029
1815.155887,229.828649,1258.350101,9696.697840
1815.156204,459.657299,1554.432478,9770.718434
1815.156521,229.828649,1628.453072,9770.718434
1815.156838,306.438199,1702.473667,9992.780217
1815.157155,0.000000,1628.453072,9992.780217
1815.157473,536.266849,1628.453072,9770.718434
1815.157790,536.266849,1702.473667,9770.718434
1815.158107,306.438199,1776.494261,9548.656652
1815.158424,612.876398,1924.535449,9548.656652
1815.158741,306.438199,1554.432478,9400.615463
1815.159058,459.657299,1628.453072,9474.636058
1815.159375,995.924147,1702.473667,9474.636058
1815.159692,766.095498,1036.288319,9474.636058
1815.160010,612.876398,962.267725,9770.718434
1815.160327,842.705048,814.226536,9696.697840
1815.160644,612.876398,666.185348,9622.677246
1815.160961,229.828649,518.144159,9770.718434
1815.161278,229.828649,296.082377,9844.739029
1815.161595,383.047749,-148.041188,9770.718434
1815.161912,0.000000,-444.123565,9474.636058
1815.162229,383.047749,-444.123565,9548.656652
1815.162547,0.000000,-740.205942,9622.677246
1815.162864,306.438199,-740.205942,9770.718434
1815.163181,306.438199,-1110.308913,9622.677246
1815.163498,383.047749,-1110.308913,9548.656652
1815.163815,383.047749,-962.267725,9400.615463
1815.164132,766.095498,-814.226536,9400.615463
1815.164449,689.485948,-888.247130,9326.594869
1815.164766,689.485948,-1036.288319,9178.553681
1815.165083,842.705048,-888.247130,9400.615463
1815.165401,1302.362347,-814.226536,8956.491898
1815.165718,1302.362347,-740.205942,9104.533087
1815.166035,995.924147,-518.144159,8808.450710
1815.166352,689.485948,-592.164754,9326.594869
1815.166669,1072.533697,-518.144159,9030.512492
1815.166986,1225.752797,-296.082377,8808.450710
1815.167303,1302.362347,-296.082377,8882.471304
1815.167620,1762.019645,-74.020594,8808.450710
1815.167938,1302.362347,-148.041188,8956.491898
1815.168255,1532.190996,-0.000000,8734.430116
1815.168572,1302.362347,-0.000000,8882.471304
1815.168889,1149.143247,-0.000000,8734.430116
1815.169206,1532.190996,222.061783,8734.430116
1815.169523,1225.752797,370.102971,8512.368333
1815.169840,1072.533697,222.061783,8586.388927
1815.170157,766.095498,518.144159,8586.388927
1815.170475,612.876398,666.185348,8660.409521
1815.170792,383.047749,296.082377,8734.430116
1815.171109,383.047749,444.123565,8808.450710
1815.171426,306.438199,370.102971,9178.553681
1815.171743,383.047749,444.123565,8956.491898
1815.172060,0.000000,222.061783,9474.636058
1815.172377,306.438199,740.205942,9252.574275
1815.172694,383.047749,740.205942,9400.615463
1815.173012,229.828649,888.247130,9400.615463
1815.173329,76.609550,814.226536,9474.636058
1815.173646,229.828649,962.267725,9474.636058
1815.173963,459.657299,1332.370696,9548.656652
1815.174280,459.657299,1184.329507,9548.656652
1815.174597,536.266849,1628.453072,9622.677246
1815.174914,383.047749,1702.473667,9622.677246
1815.175231,153.219100,1850.514855,9770.718434
1815.175549,229.828649,1924.535449,9918.759623
1815.175866,153.219100,1850.514855,9622.677246
1815.176183,76.609550,1776.494261,9844.739029
1815.176500,0.000000,1554.432478,9992.780217
1815.176817,0.000000,1850.514855,10066.800811
1815.177134,0.000000,1924.535449,10362.883188
1815.177451,-153.219100,1776.494261,10214.842000
1815.177768,-229.828649,1702.473667,10214.842000
1815.178085,-383.047749,1702.473667,10658.965565
1815.178403,-383.047749,1554.432478,10140.821405
1815.178720,306.438199,1628.453072,10362.883188
1815.179037,0.000000,1702.473667,10362.883188
1815.179354,76.609550,1628.453072,10140.821405
1815.179671,306.438199,1406.391290,10362.883188
1815.179988,229.828649,1258.350101,9992.780217
1815.180305,689.485948,1258.350101,9992.780217
1815.180622,612.876398,1110.308913,10066.800811
1815.180940,842.705048,1184.329507,10066.800811
1815.181257,1378.971896,888.247130,9992.780217
1815.181574,842.705048,888.247130,9992.780217
1815.181891,1149.143247,962.267725,9918.759623
1815.182208,766.095498,814.226536,9770.718434
1815.182525,842.705048,740.205942,9622.677246
1815.182842,689.485948,592.164754,10066.800811
1815.183159,919.314598,444.123565,9622.677246
1815.183477,766.095498,370.102971,9622.677246
1815.183794,689.485948,444.123565,9770.718434
1815.184111,919.314598,296.082377,9622.677246
1815.184428,766.095498,222.061783,9918.759623
1815.184745,1072.533697,222.061783,9548.656652
1815.185062,919.314598,-0.000000,9400.615463
1815.185379,919.314598,-0.000000,9474.636058
1815.185696,842.705048,-0.000000,9326.594869
1815.186014,995.924147,-222.061783,9178.553681
1815.186331,995.924147,-148.041188,9252.574275
1815.186648,919.314598,-296.082377,8956.491898
1815.186965,689.485948,-370.102971,8808.450710
1815.187282,842.705048,-296.082377,8882.471304
1815.187599,766.095498,-666.185348,8586.388927
1815.187916,842.705048,-814.226536,8808.450710
1815.188233,612.876398,-962.267725,8660.409521
1815.188551,689.485948,-888.247130,8808.450710
1815.188868,1072.533697,-888.247130,8586.388927
1815.189185,842.705048,-1036.288319,8512.368333
1815.189502,919.314598,-1036.288319,8438.347739
1815.189819,995.924147,-740.205942,8512.368333
1815.190136,995.924147,-814.226536,8216.285956
1815.190453,1149.143247,-1110.308913,7994.224174
1815.190770,1302.362347,-814.226536,8290.306550
1815.191088,919.314598,-962.267725,8290.306550
1815.191405,842.705048,-740.205942,8216.285956
1815.191722,1072.533697,-666.185348,8438.347739
1815.192039,995.924147,-888.247130,8586.388927
1815.192356,995.924147,-666.185348,8586.388927
1815.192673,1225.752797,-592.164754,8660.409521
1815.192990,1072.533697,-740.205942,8808.450710
1815.193307,919.314598,-1110.308913,9104.533087
1815.193624,842.705048,-740.205942,9104.533087
1815.193942,919.314598,-592.164754,9030.512492
1815.194259,459.657299,-592.164754,9104.533087
1815.194576,612.876398,-592.164754,9400.615463
1815.194893,766.095498,-666.185348,9474.636058
1815.195210,689.485948,-296.082377,9474.636058
1815.195527,306.438199,-148.041188,9474.636058
1815.195845,459.657299,-0.000000,9326.594869
1815.196162,459.657299,-0.000000,9474.636058
1815.196480,536.266849,-74.020594,9400.615463
1815.196797,459.657299,-0.000000,9548.656652
1815.197114,612.876398,222.061783,9474.636058
1815.197432,536.266849,296.082377,9770.718434
1815.197749,536.266849,148.041188,9622.677246
1815.198067,766.095498,222.061783,9918.759623
1815.198384,459.657299,518.144159,9918.759623
1815.198701,536.266849,592.164754,9696.697840
1815.199019,536.266849,666.185348,9844.739029
1815.199336,459.657299,740.205942,9844.739029
1815.199654,612.876398,592.164754,10066.800811
1815.199971,459.657299,962.267725,9992.780217
1815.200288,306.438199,1036.288319,10436.903782
1815.200606,689.485948,1184.329507,10140.821405
1815.200923,76.609550,1110.308913,10140.821405
1815.201240,229.828649,1480.411884,10362.883188
1815.201558,536.266849,1480.411884,10288.862594
1815.201875,459.657299,1554.432478,10066.800811
1815.202193,383.047749,1628.453072,10066.800811
1815.202510,536.266849,1554.432478,10140.821405
1815.202827,536.266849,1480.411884,10066.800811
1815.203145,306.438199,1332.370696,10140.821405
1815.203462,536.266849,1406.391290,10362.883188
1815.203780,612.876398,1332.370696,10362.883188
1815.204097,536.266849,1332.370696,10288.862594
1815.204414,612.876398,1406.391290,10140.821405
1815.204732,689.485948,1184.329507,10140.821405
1815.205049,536.266849,1184.329507,10140.821405
1815.205366,842.705048,888.247130,9918.759623
1815.205684,919.314598,962.267725,9918.759623
1815.206001,919.314598,666.185348,9992.780217
1815.206319,995.924147,518.144159,9770.718434
1815.206636,919.314598,296.082377,9918.759623
1815.206953,536.266849,592.164754,10140.821405
1815.207271,919.314598,148.041188,9474.636058
1815.207588,995.924147,-0.000000,9622.677246
1815.207906,842.705048,-0.000000,9622.677246
1815.208223,689.485948,74.020594,9548.656652
1815.208540,919.314598,-0.000000,9474.636058
1815.208858,459.657299,-222.061783,9400.615463
1815.209175,689.485948,-296.082377,9400.615463
1815.209492,536.266849,-296.082377,9252.574275
1815.209810,383.047749,-222.061783,9104.533087
1815.210127,612.876398,-370.102971,9178.553681
1815.210445,536.266849,-222.061783,9178.553681
1815.210762,459.657299,-370.102971,9104.533087
1815.211079,689.485948,-518.144159,8956.491898
1815.211397,919.314598,-962.267725,8660.409521
1815.211714,612.876398,-740.205942,8734.430116
1815.212032,995.924147,-666.185348,8586.388927
1815.212349,995.924147,-666.185348,8660.409521
1815.212666,995.924147,-666.185348,8734.430116
1815.212984,1455.581446,-814.226536,8734.430116
1815.213301,1685.410096,-518.144159,8808.450710
1815.213618,1225.752797,-962.267725,8586.388927
1815.213936,1302.362347,-814.226536,8512.368333
1815.214253,1378.971896,-888.247130,8364.327145
1815.214571,1991.848295,-592.164754,8512.368333
1815.214888,1685.410096,-962.267725,8660.409521
1815.215205,1378.971896,-1110.308913,8290.306550
1815.215523,1608.800546,-962.267725,8586.388927
1815.215840,1685.410096,-1110.308913,8660.409521
1815.216158,1685.410096,-814.226536,8438.347739
1815.216475,1608.800546,-888.247130,8586.388927
1815.216792,1302.362347,-962.267725,8512.368333
1815.217110,1378.971896,-666.185348,8956.491898
1815.217427,1455.581446,-666.185348,9030.512492
1815.217745,919.314598,-666.185348,9474.636058
1815.218062,1378.971896,-592.164754,9030.512492
1815.218379,1225.752797,-444.123565,9178.553681
1815.218697,1302.362347,-296.082377,9178.553681
1815.219014,1072.533697,-296.082377,9252.574275
1815.219331,1532.190996,-222.061783,9548.656652
1815.219649,1302.362347,-74.020594,9474.636058
1815.219966,1302.362347,-148.041188,9326.594869
1815.220284,1302.362347,-0.000000,9400.615463
1815.220601,1072.533697,-0.000000,9622.677246
1815.220918,995.924147,148.041188,9622.677246
1815.221236,1225.752797,296.082377,9548.656652
1815.221553,919.314598,370.102971,9696.697840
1815.221871,842.705048,296.082377,9622.677246
1815.222188,919.314598,222.061783,9770.718434
1815.222505,1149.143247,222.061783,9844.739029
1815.222823,995.924147,222.061783,9844.739029
1815.223140,995.924147,370.102971,9992.780217
1815.223457,1072.533697,296.082377,9696.697840
1815.223775,1225.752797,296.082377,9918.759623
1815.224092,995.924147,296.082377,9918.759623
1815.224410,689.485948,296.082377,9770.718434
1815.224727,842.705048,592.164754,9696.697840
1815.225044,766.095498,518.144159,9696.697840
1815.225362,995.924147,370.102971,10140.821405
1815.225679,612.876398,444.123565,9770.718434
1815.225997,919.314598,592.164754,9622.677246
1815.226314,766.095498,592.164754,9696.697840
1815.226631,689.485948,814.226536,9844.739029
1815.226949,766.095498,740.205942,9770.718434
1815.227266,536.266849,814.226536,9844.739029
1815.227583,536.266849,666.185348,9770.718434
1815.227901,842.705048,814.226536,9696.697840
1815.228218,229.828649,666.185348,9474.636058
1815.228536,689.485948,666.185348,9326.594869
1815.228853,536.266849,962.267725,9548.656652
1815.229170,612.876398,888.247130,9474.636058
1815.229488,766.095498,444.123565,9474.636058
1815.229805,766.095498,592.164754,9326.594869
1815.230123,536.266849,814.226536,9548.656652
1815.230440,612.876398,666.185348,9326.594869
1815.230757,766.095498,518.144159,9400.615463
1815.231075,612.876398,370.102971,9326.594869
1815.231392,459.657299,296.082377,9474.636058
1815.231709,612.876398,370.102971,9474.636058
1815.232027,459.657299,296.082377,9252.574275
1815.232344,612.876398,222.061783,9326.594869
1815.232662,306.438199,370.102971,9252.574275
1815.232979,383.047749,-0.000000,9474.636058
1815.233296,306.438199,296.082377,9178.553681
1815.233614,459.657299,-0.000000,9326.594869
1815.233931,153.219100,370.102971,9252.574275
1815.234249,76.609550,370.102971,9030.512492
1815.234566,76.609550,296.082377,9400.615463
1815.234883,153.219100,222.061783,9104.533087
1815.235201,383.047749,-0.000000,9104.533087
1815.235518,612.876398,518.144159,9178.553681
1815.235836,842.705048,370.102971,9104.533087
1815.236153,919.314598,370.102971,9178.553681
1815.236470,919.314598,370.102971,9104.533087
1815.236788,995.924147,296.082377,9326.594869
1815.237105,1225.752797,370.102971,8956.491898
1815.237422,1149.143247,518.144159,9326.594869
1815.237740,1302.362347,-0.000000,9104.533087
1815.238057,1225.752797,296.082377,9252.574275
1815.238375,1302.362347,-0.000000,9178.553681
1815.238692,1302.362347,-0.000000,9548.656652
1815.239009,1302.362347,-0.000000,9326.594869
1815.239327,919.314598,-0.000000,9474.636058
1815.239644,842.705048,-0.000000,9400.615463
1815.239962,766.095498,-0.000000,9252.574275
1815.240279,1072.533697,-74.020594,9474.636058
1815.240596,536.266849,-0.000000,9548.656652
1815.240914,612.876398,-0.000000,9622.677246
1815.241231,459.657299,-0.000000,9474.636058
1815.241548,536.266849,148.041188,9474.636058
1815.241866,766.095498,222.061783,9696.697840
1815.242183,536.266849,222.061783,9474.636058
1815.242501,459.657299,-0.000000,9474.636058
1815.242818,459.657299,-0.000000,9474.636058
1815.243135,766.095498,370.102971,9622.677246
1815.243453,536.266849,370.102971,9622.677246
1815.243770,459.657299,296.082377,9474.636058
1815.244088,536.266849,666.185348,9844.739029
1815.244405,536.266849,518.144159,9474.636058
1815.244722,766.095498,370.102971,9474.636058
1815.245040,995.924147,592.164754,9844.739029
1815.245357,766.095498,518.144159,9622.677246
1815.245674,766.095498,592.164754,9548.656652
1815.245992,689.485948,444.123565,9474.636058
1815.246309,536.266849,518.144159,9474.636058
1815.246627,766.095498,592.164754,9622.677246
1815.246944,689.485948,740.205942,9474.636058
1815.247261,842.705048,592.164754,9474.636058
1815.247579,766.095498,666.185348,9474.636058
1815.247896,919.314598,370.102971,9400.615463
1815.248214,1072.533697,592.164754,9474.636058
1815.248531,766.095498,592.164754,9252.574275
1815.248848,766.095498,666.185348,9400.615463
1815.249166,842.705048,740.205942,9400.615463
1815.249483,306.438199,296.082377,9548.656652
1815.249800,842.705048,518.144159,9326.594869
1815.250118,842.705048,444.123565,9326.594869
1815.250435,919.314598,296.082377,9326.594869
1815.250753,842.705048,370.102971,9474.636058
1815.251070,689.485948,666.185348,9474.636058
1815.251387,689.485948,444.123565,9400.615463
1815.251705,995.924147,592.164754,9252.574275
1815.252022,766.095498,444.123565,9252.574275
1815.252340,842.705048,518.144159,9400.615463
1815.252657,919.314598,518.144159,9326.594869
1815.252974,842.705048,518.144159,9400.615463
1815.253292,919.314598,444.123565,9474.636058
1815.253609,919.314598,296.082377,9252.574275
1815.253926,919.314598,-0.000000,9104.533087
1815.254244,766.095498,-0.000000,9326.594869
1815.254561,383.047749,148.041188,9400.615463
1815.254879,689.485948,222.061783,9400.615463
1815.255196,383.047749,74.020594,9400.615463
1815.255513,766.095498,-74.020594,9548.656652
1815.255831,612.876398,-148.041188,9400.615463
1815.256148,306.438199,-74.020594,9252.574275
1815.256466,229.828649,-74.020594,9400.615463
1815.256783,383.047749,-0.000000,9400.615463
1815.257100,229.828649,-0.000000,9400.615463
1815.257418,536.266849,148.041188,9400.615463
1815.257735,689.485948,-0.000000,9178.553681
1815.258053,459.657299,74.020594,9474.636058
1815.258370,689.485948,148.041188,9326.594869
1815.258687,0.000000,-0.000000,9474.636058
1815.259005,536.266849,222.061783,9252.574275
1815.259322,306.438199,296.082377,9252.574275
1815.259639,383.047749,518.144159,9400.615463
1815.259957,536.266849,222.061783,9400.615463
1815.260274,766.095498,444.123565,9400.615463
1815.260592,536.266849,518.144159,9474.636058
1815.260909,689.485948,592.164754,9400.615463
1815.261226,612.876398,444.123565,9326.594869
1815.261544,612.876398,592.164754,9474.636058
1815.261861,306.438199,370.102971,9474.636058
1815.262179,536.266849,518.144159,9326.594869
1815.262496,459.657299,518.144159,9326.594869
1815.262813,306.438199,666.185348,9400.615463
1815.263131,76.609550,666.185348,9474.636058
1815.263448,766.095498,518.144159,9622.677246
1815.263765,459.657299,518.144159,9474.636058
1815.264083,306.438199,370.102971,9548.656652
1815.264400,306.438199,518.144159,9474.636058
1815.264718,1225.752797,814.226536,9696.697840
1815.265035,229.828649,740.205942,9474.636058
1815.265352,306.438199,740.205942,9622.677246
1815.265670,459.657299,592.164754,9696.697840
1815.265987,306.438199,518.144159,9622.677246
1815.266305,612.876398,222.061783,9696.697840
1815.266622,612.876398,296.082377,9844.739029
1815.266939,536.266849,740.205942,9770.718434
1815.267257,766.095498,444.123565,9696.697840
1815.267574,612.876398,814.226536,9844.739029
1815.267891,1149.143247,666.185348,9770.718434
1815.268209,995.924147,666.185348,9696.697840
1815.268526,766.095498,666.185348,9622.677246
1815.268844,842.705048,518.144159,9622.677246
1815.269161,842.705048,814.226536,9770.718434
1815.269478,689.485948,296.082377,9548.656652
1815.269796,1149.143247,814.226536,9622.677246
1815.270113,536.266849,370.102971,9622.677246
1815.270431,689.485948,370.102971,9548.656652
1815.270748,306.438199,-0.000000,9696.697840
1815.271065,612.876398,222.061783,9696.697840
1815.271383,536.266849,148.041188,9548.656652
1815.271700,689.485948,-0.000000,9622.677246
1815.272017,383.047749,-0.000000,9622.677246
1815.272335,459.657299,-0.000000,9474.636058
1815.272652,536.266849,-0.000000,9326.594869
1815.272970,306.438199,-74.020594,9474.636058
1815.273287,383.047749,-0.000000,9474.636058
1815.273604,383.047749,222.061783,9400.615463
1815.273922,229.828649,-0.000000,9474.636058
1815.274239,459.657299,-0.000000,9400.615463
1815.274557,383.047749,-0.000000,9178.553681
1815.274874,383.047749,-0.000000,9400.615463
1815.275191,689.485948,-74.020594,9252.574275
1815.275509,536.266849,-74.020594,9104.533087
1815.275826,536.266849,-0.000000,9104.533087
1815.276144,919.314598,-0.000000,9104.533087
1815.276461,689.485948,-296.082377,9252.574275
1815.276778,1455.581446,-0.000000,9252.574275
1815.277096,842.705048,-0.000000,9030.512492
1815.277413,919.314598,74.020594,9104.533087
1815.277730,1072.533697,-0.000000,9030.512492
1815.278048,1149.143247,-0.000000,8882.471304
1815.278365,995.924147,-74.020594,9252.574275
1815.278683,1149.143247,-0.000000,8956.491898
1815.279000,1072.533697,-0.000000,9104.533087
1815.279317,995.924147,-0.000000,9178.553681
1815.279635,1225.752797,296.082377,9030.512492
1815.279952,1072.533697,-0.000000,9326.594869
1815.280270,919.314598,-0.000000,8956.491898
1815.280587,612.876398,-74.020594,9030.512492
1815.280904,842.705048,-148.041188,9030.512492
1815.281222,842.705048,-296.082377,9252.574275
1815.281539,689.485948,-0.000000,9326.594869
1815.281856,766.095498,-74.020594,9400.615463
1815.282174,766.095498,-74.020594,9474.636058
1815.282491,766.095498,-74.020594,9474.636058
1815.282809,766.095498,-148.041188,9400.615463
1815.283126,612.876398,-370.102971,9474.636058
1815.283443,689.485948,-0.000000,9474.636058
1815.283761,919.314598,-74.020594,9400.615463
1815.284078,995.924147,-0.000000,9474.636058
1815.284396,919.314598,-148.041188,9474.636058
1815.284713,1149.143247,-296.082377,9474.636058
1815.285030,1225.752797,-0.000000,9474.636058
1815.285348,919.314598,-74.020594,9474.636058
1815.285665,1072.533697,-0.000000,9474.636058
1815.285982,1455.581446,-148.041188,9548.656652
1815.286300,919.314598,-148.041188,9622.677246
1815.286617,1149.143247,-148.041188,9548.656652
1815.286935,995.924147,-0.000000,9548.656652
1815.287252,842.705048,-148.041188,9622.677246
1815.287569,1302.362347,-222.061783,9622.677246
1815.287887,919.314598,-74.020594,9918.759623
1815.288204,919.314598,-0.000000,9770.718434
1815.288522,995.924147,-0.000000,9770.718434
1815.288839,1149.143247,-0.000000,9918.759623
1815.289156,1455.581446,-0.000000,9326.594869
1815.289474,1072.533697,74.020594,9622.677246
1815.289791,1149.143247,74.020594,9696.697840
1815.290108,1149.143247,-0.000000,9474.636058
1815.290426,1302.362347,-0.000000,9474.636058
1815.290743,1378.971896,222.061783,9622.677246
1815.291061,1149.143247,-0.000000,9474.636058
1815.291378,1378.971896,296.082377,9548.656652
1815.291695,1302.362347,296.082377,9400.615463
1815.292013,1455.581446,296.082377,9326.594869
1815.292330,2298.286494,222.061783,9474.636058
1815.292648,1302.362347,370.102971,9326.594869
1815.292965,1072.533697,-0.000000,9400.615463
1815.293282,842.705048,222.061783,9178.553681
1815.293600,919.314598,148.041188,9400.615463
1815.293917,766.095498,-0.000000,9252.574275
1815.294235,536.266849,148.041188,9326.594869
1815.294552,459.657299,148.041188,9400.615463
1815.294869,612.876398,-0.000000,9326.594869
1815.295187,383.047749,222.061783,9178.553681
1815.295504,766.095498,-0.000000,9326.594869
1815.295821,229.828649,296.082377,9400.615463
1815.296139,612.876398,148.041188,9104.533087
1815.296456,459.657299,-0.000000,9104.533087
1815.296774,536.266849,-148.041188,9474.636058
1815.297091,76.609550,222.061783,9326.594869
1815.297408,76.609550,296.082377,9252.574275
1815.297726,0.000000,222.061783,9474.636058
1815.298043,383.047749,296.082377,9104.533087
1815.298361,459.657299,148.041188,9326.594869
1815.298678,689.485948,-0.000000,9474.636058
1815.298995,383.047749,-0.000000,9474.636058
1815.299313,689.485948,296.082377,9326.594869
1815.299630,536.266849,-0.000000,9252.574275
1815.299948,76.609550,-0.000000,9548.656652
1815.300265,689.485948,-0.000000,9178.553681
1815.300582,919.314598,222.061783,9474.636058
1815.300900,842.705048,-0.000000,9400.615463
1815.301217,919.314598,-0.000000,9252.574275
1815.301535,1225.752797,-0.000000,9622.677246
1815.301852,1225.752797,-0.000000,9252.574275
1815.302169,995.924147,-74.020594,9474.636058
1815.302487,1072.533697,148.041188,9548.656652
1815.302804,919.314598,-0.000000,9474.636058
1815.303122,689.485948,-74.020594,9474.636058
1815.303439,689.485948,-0.000000,9622.677246
1815.303756,689.485948,-0.000000,9622.677246
1815.304074,842.705048,-0.000000,9696.697840
1815.304391,689.485948,-74.020594,9918.759623
1815.304709,1072.533697,-0.000000,9548.656652
1815.305026,842.705048,-0.000000,9770.718434
1815.305343,842.705048,296.082377,9474.636058
1815.305661,919.314598,296.082377,9474.636058
1815.305978,1149.143247,222.061783,9474.636058
1815.306295,919.314598,370.102971,9474.636058
1815.306613,689.485948,444.123565,9548.656652
1815.306930,842.705048,296.082377,9474.636058
1815.307248,1072.533697,370.102971,9474.636058
1815.307565,842.705048,518.144159,9696.697840
1815.307882,842.705048,370.102971,9474.636058
1815.308200,766.095498,222.061783,9548.656652
1815.308517,995.924147,222.061783,9548.656652
1815.308835,995.924147,-0.000000,9474.636058
1815.309152,689.485948,444.123565,9474.636058
1815.309469,766.095498,296.082377,9474.636058
1815.309787,919.314598,370.102971,9474.636058
1815.310104,919.314598,370.102971,9400.615463
1815.310422,919.314598,444.123565,9474.636058
1815.310739,1072.533697,518.144159,9474.636058
1815.311056,689.485948,518.144159,9400.615463
1815.311374,919.314598,296.082377,9400.615463
1815.311691,689.485948,-0.000000,9326.594869
1815.312009,995.924147,444.123565,9400.615463
1815.312326,842.705048,370.102971,9474.636058
1815.312643,536.266849,444.123565,9474.636058
1815.312961,536.266849,296.082377,9326.594869
1815.313278,842.705048,-0.000000,9400.615463
1815.313596,842.705048,-0.000000,9104.533087
1815.313913,766.095498,296.082377,9474.636058
1815.314230,689.485948,148.041188,9400.615463
1815.314548,689.485948,518.144159,9400.615463
1815.314865,1302.362347,370.102971,9400.615463
1815.315183,919.314598,222.061783,9326.594869
1815.315500,1072.533697,444.123565,9400.615463
1815.315817,1225.752797,370.102971,9400.615463
1815.316135,995.924147,296.082377,9252.574275
1815.316452,1378.971896,444.123565,9400.615463
1815.316770,1072.533697,148.041188,9252.574275
1815.317087,1225.752797,148.041188,9252.574275
1815.317404,919.314598,296.082377,9400.615463
1815.317722,1072.533697,296.082377,9252.574275
1815.318039,459.657299,-370.102971,9178.553681
1815.318356,612.876398,222.061783,9622.677246
1815.318674,612.876398,-0.000000,9474.636058
1815.318991,689.485948,-0.000000,9474.636058
1815.319309,536.266849,-0.000000,9474.636058
1815.319626,689.485948,-0.000000,9474.636058
1815.319943,689.485948,222.061783,9252.574275
1815.320261,842.705048,222.061783,9326.594869
1815.320578,842.705048,296.082377,9474.636058
1815.320896,1302.362347,222.061783,9400.615463
1815.321213,1072.533697,-0.000000,9104.533087
1815.321530,766.095498,148.041188,9326.594869
1815.321848,919.314598,370.102971,9400.615463
1815.322165,1072.533697,444.123565,9252.574275
1815.322483,1072.533697,518.144159,9252.574275
1815.322800,919.314598,296.082377,9178.553681
1815.323117,995.924147,222.061783,9178.553681
1815.323435,919.314598,370.102971,9178.553681
1815.323752,842.705048,296.082377,9326.594869
1815.324070,766.095498,370.102971,9474.636058
1815.324387,689.485948,296.082377,9326.594869
1815.324704,689.485948,296.082377,9474.636058
1815.325022,612.876398,370.102971,9400.615463
1815.325339,612.876398,518.144159,9474.636058
1815.325657,689.485948,296.082377,9326.594869
1815.325974,612.876398,444.123565,9474.636058
1815.326291,612.876398,370.102971,9326.594869
1815.326609,612.876398,370.102971,9474.636058
1815.326926,536.266849,296.082377,9474.636058
1815.327244,383.047749,592.164754,9918.759623
1815.327561,459.657299,518.144159,9326.594869
1815.327878,153.219100,74.020594,9548.656652
1815.328196,459.657299,444.123565,9622.677246
1815.328513,306.438199,370.102971,9474.636058
1815.328830,229.828649,444.123565,9548.656652
1815.329148,153.219100,370.102971,9548.656652
1815.329465,306.438199,518.144159,9548.656652
1815.329783,0.000000,444.123565,9844.739029
1815.330100,459.657299,444.123565,9696.697840
1815.330417,459.657299,444.123565,9770.718434
1815.330735,995.924147,444.123565,9844.739029
1815.331052,459.657299,518.144159,9696.697840
1815.331370,459.657299,740.205942,9696.697840
1815.331687,536.266849,666.185348,9400.615463
1815.332004,842.705048,370.102971,9474.636058
1815.332322,689.485948,518.144159,9474.636058
1815.332639,995.924147,370.102971,9474.636058
1815.332957,842.705048,444.123565,9474.636058
1815.333274,995.924147,296.082377,9474.636058
1815.333591,919.314598,74.020594,9474.636058
1815.333909,536.266849,296.082377,9474.636058
1815.334226,842.705048,370.102971,9474.636058
1815.334544,536.266849,-0.000000,9548.656652
1815.334861,689.485948,444.123565,9474.636058
1815.335178,995.924147,222.061783,9622.677246
1815.335496,689.485948,222.061783,9252.574275
1815.335813,689.485948,222.061783,9252.574275
1815.336131,689.485948,222.061783,9474.636058
1815.336448,612.876398,518.144159,9326.594869
1815.336765,536.266849,296.082377,9326.594869
1815.337083,536.266849,296.082377,9474.636058
1815.337400,536.266849,296.082377,9474.636058
1815.337718,459.657299,148.041188,9252.574275
1815.338035,459.657299,296.082377,9400.615463
1815.338352,689.485948,296.082377,9326.594869
1815.338670,229.828649,518.144159,9178.553681
1815.338987,383.047749,518.144159,9326.594869
1815.339304,459.657299,296.082377,9252.574275
1815.339622,459.657299,222.061783,9252.574275
1815.339939,153.219100,148.041188,9474.636058
1815.340257,383.047749,592.164754,9252.574275
1815.340574,229.828649,444.123565,9252.574275
1815.340891,383.047749,222.061783,9400.615463
1815.341209,536.266849,296.082377,9400.615463
1815.341526,459.657299,296.082377,9030.512492
1815.341844,689.485948,518.144159,9326.594869
1815.342161,612.876398,518.144159,9252.574275
1815.342478,536.266849,518.144159,9252.574275
1815.342796,1072.533697,444.123565,9326.594869
1815.343113,1149.143247,-0.000000,9400.615463
1815.343431,459.657299,222.061783,9178.553681
1815.343748,459.657299,-0.000000,9400.615463
1815.344065,459.657299,370.102971,9326.594869
1815.344383,612.876398,222.061783,9548.656652
1815.344700,689.485948,296.082377,9474.636058
1815.345018,689.485948,296.082377,9400.615463
1815.345335,766.095498,222.061783,9622.677246
1815.345652,766.095498,296.082377,9474.636058
1815.345970,612.876398,370.102971,9622.677246
1815.346287,766.095498,222.061783,9770.718434
1815.346605,689.485948,518.144159,9770.718434
1815.346922,995.924147,-0.000000,9474.636058
1815.347239,995.924147,222.061783,9474.636058
1815.347557,1149.143247,-148.041188,9178.553681
1815.347874,1378.971896,-0.000000,9326.594869
1815.348192,1302.362347,296.082377,9400.615463
1815.348509,1378.971896,-0.000000,9548.656652
1815.348826,919.314598,-0.000000,9474.636058
1815.349144,1072.533697,-0.000000,9622.677246
1815.349461,919.314598,-0.000000,9474.636058
1815.349778,612.876398,-148.041188,9770.718434
1815.350096,383.047749,-0.000000,9696.697840
1815.350413,383.047749,222.061783,9622.677246
1815.350731,536.266849,-0.000000,9548.656652
1815.351048,766.095498,-0.000000,9622.677246
1815.351365,689.485948,-0.000000,9548.656652
1815.351683,536.266849,-0.000000,9474.636058
1815.352000,842.705048,-148.041188,9548.656652
1815.352318,306.438199,-0.000000,9474.636058
1815.352635,612.876398,222.061783,9548.656652
1815.352952,612.876398,222.061783,9400.615463
1815.353270,612.876398,222.061783,9474.636058
1815.353587,919.314598,74.020594,9400.615463
1815.353905,766.095498,296.082377,9326.594869
1815.354222,536.266849,222.061783,9178.553681
1815.354539,689.485948,296.082377,9326.594869
1815.354857,766.095498,296.082377,9178.553681
1815.355174,536.266849,296.082377,9252.574275
1815.355492,689.485948,-0.000000,9326.594869
1815.355809,766.095498,296.082377,9252.574275
1815.356126,536.266849,-0.000000,9400.615463
1815.356444,766.095498,-0.000000,9252.574275
1815.356761,229.828649,-0.000000,9178.553681
1815.357079,842.705048,-0.000000,9326.594869
1815.357396,459.657299,-0.000000,9400.615463
1815.357713,766.095498,148.041188,9252.574275
1815.358031,995.924147,-0.000000,8956.491898
1815.358348,689.485948,-0.000000,9104.533087
1815.358666,536.266849,-0.000000,9104.533087
1815.358983,459.657299,296.082377,9326.594869
1815.359300,459.657299,-0.000000,9400.615463
1815.359618,766.095498,-0.000000,9474.636058
1815.359935,612.876398,-0.000000,9400.615463
1815.360252,536.266849,-0.000000,9474.636058
1815.360570,689.485948,-0.000000,9400.615463
1815.360887,536.266849,-0.000000,9474.636058
1815.361205,842.705048,74.020594,9548.656652
1815.361522,766.095498,-74.020594,9474.636058
1815.361839,842.705048,222.061783,9770.718434
1815.362157,995.924147,148.041188,9548.656652
1815.362474,536.266849,-0.000000,9474.636058
1815.362792,919.314598,148.041188,9696.697840
1815.363109,1225.752797,148.041188,9474.636058
1815.363426,1149.143247,222.061783,9474.636058
1815.363744,1072.533697,222.061783,9400.615463
1815.364061,1378.971896,148.041188,9326.594869
1815.364379,1225.752797,148.041188,9400.615463
1815.364696,1072.533697,222.061783,9474.636058
1815.365013,995.924147,-0.000000,9548.656652
1815.365331,842.705048,-0.000000,9918.759623
1815.365648,842.705048,-222.061783,9844.739029
1815.365966,612.876398,-0.000000,9918.759623
1815.366283,459.657299,-0.000000,9548.656652
1815.366600,459.657299,-0.000000,9770.718434
1815.366918,612.876398,-0.000000,9622.677246
1815.367235,459.657299,148.041188,9474.636058
1815.367553,689.485948,-0.000000,9548.656652
1815.367870,766.095498,-0.000000,9770.718434
1815.368187,612.876398,-0.000000,9474.636058
1815.368505,689.485948,-0.000000,9696.697840
1815.368822,612.876398,222.061783,9696.697840
1815.369140,612.876398,-0.000000,9548.656652
1815.369457,766.095498,74.020594,9696.697840
1815.369774,766.095498,444.123565,9326.594869
1815.370092,842.705048,296.082377,9400.615463
1815.370409,842.705048,518.144159,9400.615463
1815.370727,766.095498,222.061783,9400.615463
1815.371044,689.485948,222.061783,9474.636058
1815.371361,612.876398,444.123565,9474.636058
1815.371679,842.705048,-0.000000,9696.697840
1815.371996,1072.533697,-0.000000,9400.615463
1815.372313,919.314598,296.082377,9252.574275
1815.372631,919.314598,296.082377,9326.594869
1815.372948,1149.143247,296.082377,9326.594869
1815.373266,842.705048,222.061783,9252.574275
1815.373583,995.924147,-0.000000,9400.615463
1815.373900,919.314598,148.041188,9326.594869
1815.374218,766.095498,148.041188,9252.574275
1815.374535,842.705048,296.082377,9252.574275
1815.374853,766.095498,370.102971,9400.615463
1815.375170,842.705048,814.226536,9474.636058
1815.375487,689.485948,296.082377,9474.636058
1815.375805,919.314598,-0.000000,9252.574275
1815.376122,919.314598,-0.000000,9104.533087
1815.376440,1225.752797,-0.000000,9474.636058
1815.376757,689.485948,222.061783,9400.615463
1815.377074,919.314598,148.041188,9400.615463
1815.377392,689.485948,148.041188,9400.615463
1815.377709,995.924147,148.041188,9400.615463
1815.378027,995.924147,222.061783,9326.594869
1815.378344,766.095498,222.061783,9400.615463
1815.378661,1072.533697,148.041188,9252.574275
1815.378979,1072.533697,-0.000000,9400.615463
1815.379296,1149.143247,-0.000000,9252.574275
1815.379614,1072.533697,-296.082377,9474.636058
1815.379931,995.924147,-0.000000,9400.615463
1815.380248,689.485948,-0.000000,9474.636058
1815.380566,919.314598,-0.000000,9400.615463
1815.380883,842.705048,-148.041188,9474.636058
1815.381201,1225.752797,-222.061783,9400.615463
1815.381518,1072.533697,-0.000000,9474.636058
1815.381835,766.095498,-370.102971,9548.656652
1815.382153,842.705048,-148.041188,9548.656652
1815.382470,919.314598,-222.061783,9474.636058
1815.382787,689.485948,-222.061783,9770.718434
1815.383105,919.314598,-222.061783,9548.656652
1815.383422,919.314598,-74.020594,9474.636058
1815.383740,842.705048,-0.000000,9474.636058
1815.384057,919.314598,-0.000000,9548.656652
1815.384374,919.314598,-222.061783,9548.656652
1815.384692,995.924147,-0.000000,9474.636058
1815.385009,1149.143247,-0.000000,9178.553681
1815.385327,1225.752797,-0.000000,9104.533087
1815.385644,1149.143247,-0.000000,9400.615463
1815.385961,1302.362347,-148.041188,9474.636058
1815.386279,1072.533697,148.041188,9474.636058
1815.386596,1072.533697,148.041188,9252.574275
1815.386914,1072.533697,-0.000000,9326.594869
1815.387231,1302.362347,-444.123565,9104.533087
1815.387548,383.047749,74.020594,9474.636058
1815.387866,1149.143247,222.061783,9326.594869
1815.388183,766.095498,-0.000000,9030.512492
1815.388501,995.924147,222.061783,9252.574275
1815.388818,919.314598,-0.000000,9326.594869
1815.389135,766.095498,444.123565,9326.594869
1815.389453,612.876398,222.061783,9252.574275
1815.389770,306.438199,370.102971,9178.553681
1815.390088,689.485948,444.123565,9252.574275
1815.390405,383.047749,-0.000000,9104.533087
1815.390722,0.000000,444.123565,9252.574275
1815.391040,76.609550,518.144159,9326.594869
1815.391357,383.047749,148.041188,9252.574275
1815.391675,383.047749,222.061783,9400.615463
1815.391992,766.095498,148.041188,9474.636058
1815.392309,459.657299,370.102971,9474.636058
1815.392627,459.657299,222.061783,9474.636058
1815.392944,306.438199,518.144159,9474.636058
1815.393261,612.876398,370.102971,9622.677246
1815.393579,919.314598,370.102971,9474.636058
1815.393896,459.657299,592.164754,9622.677246
1815.394214,1149.143247,888.247130,9474.636058
1815.394531,919.314598,740.205942,9548.656652
1815.394848,1685.410096,444.123565,9474.636058
1815.395166,1225.752797,592.164754,9400.615463
1815.395483,1302.362347,444.123565,9400.615463
1815.395801,1072.533697,518.144159,9474.636058
1815.396118,842.705048,444.123565,9474.636058
1815.396435,995.924147,-0.000000,9474.636058
1815.396753,1302.362347,444.123565,9622.677246
1815.397070,612.876398,370.102971,9474.636058
1815.397388,612.876398,148.041188,9622.677246
1815.397705,1072.533697,370.102971,9696.697840
1815.398022,536.266849,296.082377,9918.759623
1815.398340,689.485948,370.102971,9770.718434
1815.398657,766.095498,370.102971,9696.697840
1815.398975,612.876398,370.102971,9770.718434
1815.399292,766.095498,296.082377,9696.697840
1815.399609,842.705048,-0.000000,9548.656652
1815.399927,842.705048,370.102971,9548.656652
1815.400244,919.314598,296.082377,9622.677246
1815.400562,1072.533697,518.144159,9622.677246
1815.400879,1072.533697,370.102971,9474.636058
1815.401196,766.095498,370.102971,9622.677246
1815.401514,842.705048,370.102971,9548.656652
1815.401831,919.314598,370.102971,9474.636058
1815.402149,919.314598,370.102971,9400.615463
1815.402466,689.485948,444.123565,9622.677246
1815.402783,612.876398,296.082377,9474.636058
1815.403101,536.266849,370.102971,9474.636058
1815.403418,459.657299,148.041188,9326.594869
1815.403736,766.095498,222.061783,9400.615463
1815.404053,766.095498,296.082377,9474.636058
1815.404370,689.485948,370.102971,9474.636058
1815.404688,919.314598,518.144159,9400.615463
1815.405005,1072.533697,592.164754,9178.553681
1815.405323,842.705048,296.082377,9474.636058
1815.405640,689.485948,444.123565,9326.594869
1815.405957,612.876398,296.082377,9252.574275
1815.406275,689.485948,444.123565,9326.594869
1815.406592,612.876398,296.082377,9252.574275
1815.406910,306.438199,-74.020594,9400.615463
1815.407227,459.657299,222.061783,9400.615463
1815.407545,536.266849,148.041188,9400.615463
1815.407862,536.266849,-0.000000,9326.594869
1815.408179,536.266849,222.061783,9326.594869
1815.408497,536.266849,518.144159,9474.636058
1815.408814,459.657299,370.102971,9252.574275
1815.409132,612.876398,444.123565,9400.615463
1815.409449,536.266849,296.082377,9326.594869
1815.409766,842.705048,148.041188,9474.636058
1815.410084,689.485948,370.102971,9178.553681
1815.410401,459.657299,222.061783,9400.615463
1815.410719,766.095498,296.082377,9400.615463
1815.411036,766.095498,370.102971,9326.594869
1815.411353,995.924147,296.082377,9104.533087
1815.411671,919.314598,-74.020594,9252.574275
1815.411988,919.314598,-0.000000,9400.615463
1815.412306,689.485948,148.041188,9252.574275
1815.412623,766.095498,-0.000000,9326.594869
1815.412940,536.266849,148.041188,9474.636058
1815.413258,0.000000,-148.041188,9622.677246
1815.413575,383.047749,74.020594,9400.615463
1815.413893,689.485948,222.061783,9474.636058
1815.414210,459.657299,296.082377,9474.636058
1815.414528,459.657299,296.082377,9548.656652
1815.414845,536.266849,518.144159,9474.636058
1815.415162,689.485948,148.041188,9474.636058
1815.415480,612.876398,148.041188,9474.636058
1815.415797,689.485948,222.061783,9474.636058
1815.416115,689.485948,-148.041188,9548.656652
1815.416432,536.266849,296.082377,9844.739029
1815.416749,689.485948,444.123565,9696.697840
1815.417067,919.314598,222.061783,9326.594869
1815.417384,689.485948,370.102971,9326.594869
1815.417702,689.485948,296.082377,9474.636058
1815.418019,842.705048,-74.020594,9548.656652
1815.418336,612.876398,-0.000000,9400.615463
1815.418654,306.438199,148.041188,9474.636058
1815.418971,459.657299,296.082377,9622.677246
1815.419289,766.095498,296.082377,9474.636058
1815.419606,383.047749,148.041188,9474.636058
1815.419923,536.266849,370.102971,9326.594869
1815.420241,459.657299,370.102971,9696.697840
1815.420558,459.657299,296.082377,9622.677246
1815.420876,612.876398,222.061783,9474.636058
1815.421193,536.266849,148.041188,9326.594869
1815.421511,536.266849,518.144159,9474.636058
1815.421828,536.266849,518.144159,9252.574275
1815.422145,383.047749,370.102971,9326.594869
1815.422463,306.438199,518.144159,9474.636058
1815.422780,612.876398,888.247130,9326.594869
1815.423098,612.876398,740.205942,9474.636058
1815.423415,229.828649,592.164754,9326.594869
1815.423732,536.266849,296.082377,9326.594869
1815.424050,459.657299,518.144159,9326.594869
1815.424367,536.266849,444.123565,9400.615463
1815.424685,612.876398,444.123565,9326.594869
1815.425002,766.095498,444.123565,9400.615463
1815.425319,842.705048,444.123565,9474.636058
1815.425637,1149.143247,296.082377,9326.594869
1815.425954,1455.581446,444.123565,9252.574275
1815.426272,1149.143247,444.123565,9252.574275
1815.426589,919.314598,296.082377,9252.574275
1815.426906,919.314598,370.102971,9474.636058
1815.427224,689.485948,296.082377,9326.594869
1815.427541,842.705048,296.082377,9474.636058
1815.427859,612.876398,222.061783,9474.636058
1815.428176,689.485948,148.041188,9474.636058
1815.428494,919.314598,222.061783,9400.615463
1815.428811,612.876398,-0.000000,9474.636058
1815.429128,459.657299,148.041188,9400.615463
1815.429446,306.438199,-0.000000,9474.636058
1815.429763,536.266849,-0.000000,9474.636058
1815.430081,153.219100,-0.000000,9622.677246
1815.430398,383.047749,-0.000000,9622.677246
1815.430715,229.828649,-0.000000,9474.636058
1815.431033,153.219100,-0.000000,9696.697840
1815.431350,459.657299,-74.020594,9622.677246
1815.431668,383.047749,-0.000000,9548.656652
1815.431985,689.485948,-0.000000,9474.636058
1815.432302,536.266849,-0.000000,9696.697840
1815.432620,1072.533697,296.082377,9474.636058
1815.432937,689.485948,296.082377,9548.656652
1815.433255,766.095498,222.061783,9252.574275
1815.433572,919.314598,-0.000000,9474.636058
1815.433890,766.095498,148.041188,9326.594869
1815.434207,995.924147,296.082377,9474.636058
1815.434524,766.095498,296.082377,9474.636058
1815.434842,919.314598,-0.000000,9474.636058
1815.435159,919.314598,148.041188,9400.615463
1815.435477,1302.362347,-0.000000,9548.656652
1815.435794,919.314598,222.061783,9252.574275
1815.436111,1149.143247,518.144159,9474.636058
1815.436429,842.705048,148.041188,9326.594869
1815.436746,612.876398,148.041188,9252.574275
1815.437064,766.095498,222.061783,9326.594869
1815.437381,766.095498,148.041188,9178.553681
1815.437698,842.705048,148.041188,9474.636058
1815.438016,612.876398,148.041188,9474.636058
1815.438333,612.876398,-0.000000,9400.615463
1815.438651,919.314598,-0.000000,9326.594869
1815.438968,689.485948,-0.000000,9548.656652
1815.439285,536.266849,222.061783,9474.636058
1815.439603,842.705048,-0.000000,9474.636058
1815.439920,1072.533697,-222.061783,9844.739029
1815.440238,919.314598,222.061783,9400.615463
1815.440555,1072.533697,148.041188,9474.636058
1815.440873,1149.143247,-0.000000,9326.594869
1815.441190,995.924147,222.061783,9400.615463
1815.441507,1455.581446,222.061783,9474.636058
1815.441825,1072.533697,296.082377,9474.636058
1815.442142,1072.533697,222.061783,9252.574275
1815.442460,995.924147,148.041188,9474.636058
1815.442777,1072.533697,-0.000000,9326.594869
1815.443094,842.705048,-0.000000,9844.739029
1815.443412,919.314598,-0.000000,9400.615463
1815.443729,689.485948,148.041188,9474.636058
1815.444047,612.876398,-0.000000,9548.656652
1815.444364,536.266849,148.041188,9548.656652
1815.444681,612.876398,-0.000000,9770.718434
1815.444999,306.438199,-0.000000,9622.677246
1815.445316,612.876398,-0.000000,9548.656652
1815.445634,842.705048,-0.000000,9548.656652
1815.445951,1455.581446,-148.041188,9474.636058
1815.446268,536.266849,74.020594,9474.636058
1815.446586,612.876398,222.061783,9474.636058
1815.446903,919.314598,148.041188,9474.636058
1815.447221,919.314598,148.041188,9326.594869
1815.447538,1072.533697,-0.000000,9104.533087
1815.447856,995.924147,296.082377,9474.636058
1815.448173,689.485948,-74.020594,9252.574275
1815.448490,1149.143247,222.061783,9326.594869
1815.448808,995.924147,222.061783,9474.636058
1815.449125,995.924147,-0.000000,9326.594869
1815.449443,842.705048,222.061783,9474.636058
1815.449760,1072.533697,222.061783,9474.636058
1815.450077,919.314598,370.102971,9326.594869
1815.450395,766.095498,148.041188,9252.574275
1815.450712,536.266849,-0.000000,9696.697840
1815.451030,995.924147,-0.000000,9474.636058
1815.451347,995.924147,-0.000000,9400.615463
1815.451664,842.705048,-0.000000,9326.594869
1815.451982,919.314598,-0.000000,9252.574275
1815.452299,1149.143247,222.061783,9326.594869
1815.452617,919.314598,-0.000000,9178.553681
1815.452934,612.876398,296.082377,9178.553681
1815.453251,766.095498,296.082377,9326.594869
1815.453569,0.000000,-0.000000,9326.594869
1815.453886,612.876398,-0.000000,9474.636058
1815.454204,689.485948,222.061783,9474.636058
1815.454521,766.095498,-0.000000,9326.594869
1815.454839,383.047749,-74.020594,9252.574275
1815.455156,1149.143247,-0.000000,9474.636058
1815.455473,689.485948,148.041188,9474.636058
1815.455791,919.314598,148.041188,9474.636058
1815.456108,766.095498,222.061783,9474.636058
1815.456426,919.314598,296.082377,9474.636058
1815.456743,1378.971896,222.061783,9252.574275
1815.457060,1072.533697,-0.000000,9326.594869
1815.457378,842.705048,296.082377,9400.615463
1815.457695,995.924147,222.061783,9400.615463
1815.458013,1225.752797,444.123565,9474.636058
1815.458330,842.705048,-0.000000,9548.656652
1815.458647,1072.533697,444.123565,9474.636058
1815.458965,995.924147,-0.000000,9400.615463
1815.459282,995.924147,-0.000000,9474.636058
1815.459600,1149.143247,-74.020594,9622.677246
1815.459917,995.924147,-222.061783,9326.594869
1815.460234,459.657299,-74.020594,9474.636058
1815.460552,536.266849,-0.000000,9696.697840
1815.460869,536.266849,-0.000000,9696.697840
1815.461187,0.000000,-0.000000,9770.718434
1815.461504,612.876398,-0.000000,9548.656652
1815.461822,536.266849,-0.000000,9548.656652
1815.462139,536.266849,-0.000000,9548.656652
1815.462456,459.657299,-0.000000,9548.656652
1815.462774,766.095498,148.041188,9400.615463
1815.463091,536.266849,370.102971,9622.677246
1815.463409,766.095498,444.123565,9474.636058
1815.463726,919.314598,444.123565,9474.636058
1815.464043,766.095498,148.041188,9622.677246
1815.464361,689.485948,296.082377,9474.636058
1815.464678,766.095498,370.102971,9474.636058
1815.464996,842.705048,518.144159,9252.574275
1815.465313,766.095498,296.082377,9252.574275
1815.465630,766.095498,222.061783,9326.594869
1815.465948,995.924147,444.123565,9252.574275
1815.466265,842.705048,370.102971,9178.553681
1815.466583,995.924147,370.102971,9474.636058
1815.466900,842.705048,296.082377,9400.615463
1815.467218,1838.629195,-0.000000,9474.636058
1815.467535,995.924147,444.123565,9400.615463
1815.467852,1072.533697,518.144159,9252.574275
1815.468170,1225.752797,518.144159,9178.553681
1815.468487,995.924147,518.144159,9104.533087
1815.468805,995.924147,518.144159,9178.553681
1815.469122,995.924147,370.102971,9104.533087
1815.469439,1072.533697,370.102971,9252.574275
1815.469757,766.095498,370.102971,9474.636058
1815.470074,1378.971896,148.041188,9252.574275
1815.470392,689.485948,148.041188,9252.574275
1815.470709,612.876398,148.041188,9400.615463
1815.471026,612.876398,148.041188,9622.677246
1815.471344,536.266849,-0.000000,9622.677246
1815.471661,766.095498,-0.000000,9474.636058
1815.471979,536.266849,148.041188,9474.636058
1815.472296,612.876398,-0.000000,9474.636058
1815.472613,766.095498,148.041188,9548.656652
1815.472931,842.705048,148.041188,9548.656652
1815.473248,1302.362347,148.041188,9474.636058
1815.473566,842.705048,-0.000000,9400.615463
1815.473883,919.314598,-0.000000,9178.553681
1815.474201,995.924147,-0.000000,9326.594869
1815.474518,842.705048,-0.000000,9474.636058
1815.474835,1149.143247,-0.000000,9770.718434
1815.475153,766.095498,-74.020594,9622.677246
1815.475470,766.095498,-148.041188,9474.636058
1815.475788,842.705048,-74.020594,9696.697840
1815.476105,612.876398,-74.020594,9548.656652
1815.476422,383.047749,-222.061783,9622.677246
1815.476740,689.485948,-0.000000,9474.636058
1815.477057,1149.143247,-0.000000,9548.656652
1815.477375,995.924147,-0.000000,9548.656652
1815.477692,1149.143247,148.041188,9474.636058
1815.478009,842.705048,370.102971,9622.677246
1815.478327,1302.362347,222.061783,9474.636058
1815.478644,1072.533697,-0.000000,9622.677246
1815.478962,1225.752797,148.041188,9326.594869
1815.479279,1225.752797,-0.000000,9326.594869
1815.479596,1225.752797,370.102971,9252.574275
1815.479914,1225.752797,-0.000000,8956.491898
1815.480231,1225.752797,148.041188,9030.512492
1815.480549,1149.143247,148.041188,9252.574275
1815.480866,1302.362347,-74.020594,9178.553681
1815.481184,1302.362347,296.082377,9252.574275
1815.481501,995.924147,296.082377,9326.594869
1815.481818,919.314598,148.041188,9326.594869
1815.482136,766.095498,-0.000000,9326.594869
1815.482453,536.266849,222.061783,9400.615463
1815.482771,612.876398,444.123565,9474.636058
1815.483088,919.314598,296.082377,9252.574275
1815.483405,689.485948,-0.000000,9104.533087
1815.483723,459.657299,296.082377,9252.574275
1815.484040,459.657299,-148.041188,9326.594869
1815.484358,306.438199,296.082377,9400.615463
1815.484675,229.828649,370.102971,9178.553681
1815.484992,229.828649,518.144159,9326.594869
1815.485310,153.219100,444.123565,9400.615463
1815.485627,306.438199,370.102971,9178.553681
1815.485945,536.266849,666.185348,9474.636058
1815.486262,76.609550,370.102971,9178.553681
1815.486579,459.657299,296.082377,9104.533087
1815.486897,306.438199,666.185348,9400.615463
1815.487214,383.047749,518.144159,9474.636058
1815.487532,459.657299,444.123565,9400.615463
1815.487849,612.876398,666.185348,9474.636058
1815.488167,459.657299,444.123565,9474.636058
1815.488484,766.095498,740.205942,9770.718434
1815.488801,459.657299,518.144159,9474.636058
1815.489119,995.924147,444.123565,9326.594869
1815.489436,919.314598,740.205942,9474.636058
1815.489754,689.485948,370.102971,9104.533087
1815.490071,766.095498,370.102971,9474.636058
1815.490388,689.485948,296.082377,9474.636058
1815.490706,536.266849,148.041188,9474.636058
1815.491023,612.876398,370.102971,9474.636058
1815.491341,689.485948,148.041188,9622.677246
1815.491658,766.095498,-0.000000,9844.739029
1815.491975,536.266849,370.102971,9474.636058
1815.492293,536.266849,222.061783,9548.656652
1815.492610,459.657299,222.061783,9696.697840
1815.492928,306.438199,-0.000000,9622.677246
1815.493245,306.438199,-0.000000,9696.697840
1815.493563,459.657299,-0.000000,9696.697840
1815.493880,229.828649,222.061783,9696.697840
1815.494197,153.219100,222.061783,9844.739029
1815.494515,612.876398,-74.020594,9992.780217
1815.494832,459.657299,222.061783,9844.739029
1815.495150,536.266849,444.123565,9548.656652
1815.495467,306.438199,-0.000000,9474.636058
1815.495784,689.485948,444.123565,9474.636058
1815.496102,612.876398,518.144159,9400.615463
1815.496419,536.266849,444.123565,9326.594869
1815.496737,612.876398,518.144159,9252.574275
1815.497054,536.266849,444.123565,9252.574275
1815.497371,766.095498,370.102971,9622.677246
1815.497689,689.485948,518.144159,9474.636058
1815.498006,536.266849,370.102971,9400.615463
1815.498323,612.876398,444.123565,9252.574275
1815.498641,689.485948,444.123565,9178.553681
1815.498958,995.924147,444.123565,9178.553681
1815.499275,459.657299,518.144159,9326.594869
1815.499593,766.095498,592.164754,9178.553681
1815.499910,536.266849,296.082377,9400.615463
1815.500227,306.438199,370.102971,9252.574275
1815.500545,766.095498,592.164754,9252.574275
1815.500862,459.657299,370.102971,9326.594869
1815.501180,536.266849,222.061783,9474.636058
1815.501497,536.266849,296.082377,9178.553681
1815.501814,229.828649,-74.020594,9252.574275
1815.502132,459.657299,-0.000000,9400.615463
1815.502449,842.705048,222.061783,9326.594869
1815.502766,612.876398,148.041188,9622.677246
1815.503084,842.705048,-0.000000,9474.636058
1815.503401,919.314598,-0.000000,9474.636058
1815.503718,919.314598,296.082377,9326.594869
1815.504036,1072.533697,296.082377,9474.636058
1815.504353,1149.143247,444.123565,9548.656652
1815.504670,1149.143247,296.082377,9474.636058
1815.504988,1378.971896,296.082377,9474.636058
1815.505305,1532.190996,-0.000000,9474.636058
1815.505623,1225.752797,148.041188,9178.553681
1815.505940,1149.143247,-0.000000,9326.594869
1815.506257,1072.533697,-0.000000,9474.636058
1815.506575,919.314598,-0.000000,9474.636058
1815.506892,919.314598,-148.041188,9548.656652
1815.507209,842.705048,-0.000000,9548.656652
1815.507527,766.095498,-74.020594,9696.697840
1815.507844,766.095498,-0.000000,9696.697840
1815.508161,459.657299,-74.020594,9696.697840
1815.508479,1302.362347,-296.082377,9622.677246
1815.508796,689.485948,296.082377,9548.656652
1815.509113,842.705048,-0.000000,9474.636058
1815.509431,766.095498,148.041188,9326.594869
1815.509748,919.314598,296.082377,9400.615463
1815.510065,766.095498,-0.000000,9326.594869
1815.510383,612.876398,222.061783,9474.636058
1815.510700,689.485948,296.082377,9400.615463
1815.511018,766.095498,-0.000000,9400.615463
1815.511335,919.314598,148.041188,9474.636058
1815.511652,689.485948,-0.000000,8882.471304
1815.511970,612.876398,222.061783,9400.615463
1815.512287,689.485948,296.082377,9178.553681
1815.512604,536.266849,222.061783,9326.594869
1815.512922,612.876398,-0.000000,9178.553681
1815.513239,689.485948,148.041188,9474.636058
1815.513556,612.876398,370.102971,9400.615463
1815.513874,612.876398,296.082377,9474.636058
1815.514191,689.485948,-0.000000,9178.553681
1815.514508,536.266849,370.102971,9252.574275
1815.514826,459.657299,518.144159,9622.677246
1815.515143,766.095498,444.123565,9252.574275
1815.515460,536.266849,370.102971,9326.594869
1815.515778,612.876398,444.123565,9400.615463
1815.516095,1149.143247,370.102971,9326.594869
1815.516413,612.876398,370.102971,9474.636058
1815.516730,459.657299,444.123565,9326.594869
1815.517047,536.266849,444.123565,9474.636058
1815.517365,383.047749,296.082377,9474.636058
1815.517682,306.438199,148.041188,9474.636058
1815.517999,383.047749,222.061783,9326.594869
1815.518317,383.047749,370.102971,9474.636058
1815.518634,459.657299,296.082377,9474.636058
1815.518951,536.266849,518.144159,9548.656652
1815.519269,1455.581446,296.082377,9918.759623
1815.519586,766.095498,518.144159,9622.677246
1815.519903,842.705048,592.164754,9400.615463
1815.520221,995.924147,518.144159,9474.636058
1815.520538,919.314598,370.102971,9474.636058
1815.520855,1378.971896,444.123565,9474.636058
1815.521173,1072.533697,370.102971,9252.574275
1815.521490,919.314598,148.041188,9696.697840
1815.521808,1072.533697,296.082377,9400.615463
1815.522125,995.924147,148.041188,9474.636058
1815.522442,1072.533697,-0.000000,9696.697840
1815.522760,995.924147,-0.000000,9474.636058
1815.523077,689.485948,148.041188,9474.636058
1815.523394,842.705048,-0.000000,9548.656652
1815.523712,689.485948,-0.000000,9622.677246
1815.524029,689.485948,-370.102971,9844.739029
1815.524346,612.876398,-0.000000,9696.697840
1815.524664,612.876398,-74.020594,9696.697840
1815.524981,612.876398,-0.000000,9548.656652
1815.525298,842.705048,-0.000000,9696.697840
1815.525616,459.657299,-148.041188,9696.697840
1815.525933,612.876398,-0.000000,9622.677246
1815.526251,766.095498,148.041188,9474.636058
1815.526568,766.095498,222.061783,9548.656652
1815.526885,383.047749,370.102971,9474.636058
1815.527203,1302.362347,-74.020594,9326.594869
1815.527520,1072.533697,-0.000000,9474.636058
1815.527837,766.095498,-0.000000,9326.594869
1815.528155,919.314598,-0.000000,9400.615463
1815.528472,689.485948,296.082377,9252.574275
1815.528789,612.876398,-0.000000,9474.636058
1815.529107,612.876398,-0.000000,9474.636058
1815.529424,536.266849,-148.041188,9400.615463
1815.529741,766.095498,-222.061783,9474.636058
1815.530059,1072.533697,-148.041188,9400.615463
1815.530376,766.095498,296.082377,9400.615463
1815.530693,766.095498,370.102971,9326.594869
1815.531011,766.095498,74.020594,9104.533087
1815.531328,842.705048,-0.000000,9252.574275
1815.531646,1225.752797,-148.041188,9326.594869
1815.531963,612.876398,74.020594,9104.533087
1815.532280,612.876398,-0.000000,9104.533087
1815.532598,689.485948,296.082377,9326.594869
1815.532915,842.705048,-0.000000,9400.615463
1815.533232,919.314598,-222.061783,9104.533087
1815.533550,766.095498,-74.020594,9326.594869
1815.533867,842.705048,-74.020594,9326.594869
1815.534184,459.657299,-74.020594,9474.636058
1815.534502,536.266849,-74.020594,9400.615463
1815.534819,306.438199,-0.000000,9474.636058
1815.535136,919.314598,222.061783,9474.636058
1815.535454,995.924147,370.102971,9474.636058
1815.535771,919.314598,444.123565,9400.615463
1815.536088,1072.533697,592.164754,9252.574275
1815.536406,1149.143247,296.082377,9474.636058
1815.536723,842.705048,444.123565,9178.553681
1815.537041,1225.752797,-0.000000,9178.553681
1815.537358,1378.971896,222.061783,9252.574275
1815.537675,1455.581446,592.164754,9326.594869
1815.537993,995.924147,148.041188,9326.594869
1815.538310,766.095498,148.041188,9400.615463
1815.538627,766.095498,148.041188,9400.615463
1815.538945,536.266849,222.061783,9400.615463
1815.539262,919.314598,296.082377,9400.615463
1815.539579,919.314598,-0.000000,9548.656652
1815.539897,995.924147,-0.000000,9474.636058
1815.540214,689.485948,222.061783,9474.636058
1815.540531,919.314598,-0.000000,9400.615463
1815.540849,842.705048,-0.000000,9400.615463
1815.541166,919.314598,148.041188,9474.636058
1815.541484,766.095498,296.082377,9474.636058
1815.541801,1149.143247,222.061783,9400.615463
1815.542118,536.266849,-0.000000,9474.636058
1815.542436,995.924147,148.041188,9326.594869
1815.542753,766.095498,444.123565,9178.553681
1815.543070,995.924147,296.082377,9548.656652
1815.543388,842.705048,444.123565,9326.594869
1815.543705,842.705048,518.144159,9474.636058
1815.544022,536.266849,222.061783,9474.636058
1815.544340,612.876398,-0.000000,9474.636058
1815.544657,766.095498,148.041188,9474.636058
1815.544974,536.266849,296.082377,9770.718434
1815.545292,459.657299,148.041188,9548.656652
1815.545609,842.705048,148.041188,9474.636058
1815.545926,689.485948,222.061783,9474.636058
1815.546244,612.876398,222.061783,9474.636058
1815.546561,1072.533697,-0.000000,9548.656652
1815.546879,689.485948,222.061783,9474.636058
1815.547196,689.485948,222.061783,9622.677246
1815.547513,766.095498,296.082377,9474.636058
1815.547831,766.095498,148.041188,9696.697840
1815.548148,766.095498,148.041188,9548.656652
1815.548465,919.314598,444.123565,9326.594869
1815.548783,842.705048,296.082377,9474.636058
1815.549100,689.485948,296.082377,9474.636058
1815.549417,995.924147,-0.000000,9548.656652
1815.549735,1072.533697,-74.020594,9400.615463
1815.550052,1072.533697,-0.000000,9252.574275
1815.550369,842.705048,-0.000000,9474.636058
1815.550687,1149.143247,148.041188,9548.656652
1815.551004,995.924147,296.082377,9474.636058
1815.551321,1072.533697,296.082377,9474.636058
1815.551639,1149.143247,370.102971,9400.615463
1815.551956,1302.362347,370.102971,9178.553681
1815.552274,1225.752797,222.061783,9326.594869
1815.552591,1225.752797,296.082377,9252.574275
1815.552908,1072.533697,444.123565,9474.636058
1815.553226,1072.533697,-0.000000,9178.553681
1815.553543,842.705048,-0.000000,9178.553681
1815.553860,766.095498,-74.020594,9252.574275
1815.554178,919.314598,-0.000000,9400.615463
1815.554495,612.876398,148.041188,9400.615463
1815.554812,689.485948,-0.000000,9326.594869
1815.555130,612.876398,-0.000000,9474.636058
1815.555447,459.657299,-0.000000,9474.636058
1815.555764,612.876398,-0.000000,9474.636058
1815.556082,229.828649,-0.000000,9474.636058
1815.556399,0.000000,-0.000000,9696.697840
1815.556716,306.438199,222.061783,9622.677246
1815.557034,383.047749,148.041188,9474.636058
1815.557351,-229.828649,148.041188,9474.636058
1815.557669,459.657299,370.102971,9474.636058
1815.557986,459.657299,296.082377,9400.615463
1815.558303,459.657299,296.082377,9326.594869
1815.558621,689.485948,444.123565,9326.594869
1815.558938,1072.533697,222.061783,8956.491898
1815.559255,536.266849,370.102971,9252.574275
1815.559573,842.705048,740.205942,9178.553681
1815.559890,536.266849,592.164754,9474.636058
1815.560207,536.266849,592.164754,9474.636058
1815.560525,919.314598,370.102971,9400.615463
1815.560842,689.485948,370.102971,9252.574275
1815.561159,842.705048,222.061783,9474.636058
1815.561477,995.924147,222.061783,9400.615463
1815.561794,766.095498,370.102971,9400.615463
1815.562112,766.095498,222.061783,9474.636058
1815.562429,612.876398,296.082377,9400.615463
1815.562746,536.266849,888.247130,9474.636058
1815.563064,612.876398,666.185348,9474.636058
1815.563381,766.095498,592.164754,9326.594869
1815.563698,1072.533697,592.164754,9474.636058
1815.564016,766.095498,370.102971,9548.656652
1815.564333,919.314598,444.123565,9548.656652
1815.564650,1149.143247,370.102971,9622.677246
1815.564968,766.095498,-0.000000,9844.739029
1815.565285,689.485948,296.082377,9474.636058
1815.565602,689.485948,444.123565,9548.656652
1815.565920,536.266849,592.164754,9696.697840
1815.566237,842.705048,592.164754,9918.759623
1815.566554,995.924147,444.123565,9770.718434
1815.566872,995.924147,370.102971,9548.656652
1815.567189,995.924147,444.123565,9474.636058
1815.567507,1225.752797,444.123565,9400.615463
1815.567824,1149.143247,222.061783,9400.615463
1815.568141,689.485948,370.102971,9474.636058
1815.568459,1072.533697,666.185348,9326.594869
1815.568776,919.314598,444.123565,9474.636058
1815.569093,842.705048,370.102971,9474.636058
1815.569411,995.924147,296.082377,9474.636058
1815.569728,766.095498,-0.000000,9548.656652
1815.570045,612.876398,-0.000000,9474.636058
1815.570363,459.657299,-0.000000,9622.677246
1815.570680,536.266849,-296.082377,9696.697840
1815.570997,536.266849,-0.000000,9474.636058
1815.571315,306.438199,-222.061783,9696.697840
1815.571632,383.047749,-74.020594,9474.636058
1815.571949,459.657299,-0.000000,9474.636058
1815.572267,536.266849,148.041188,9474.636058
1815.572584,689.485948,-0.000000,9326.594869
1815.572902,766.095498,-0.000000,9252.574275
1815.573219,612.876398,-0.000000,9252.574275
1815.573536,689.485948,-0.000000,9474.636058
1815.573854,612.876398,-0.000000,9326.594869
1815.574171,689.485948,-0.000000,9030.512492
1815.574488,919.314598,296.082377,9178.553681
1815.574806,536.266849,-0.000000,9104.533087
1815.575123,842.705048,-0.000000,9326.594869
1815.575440,689.485948,-0.000000,9400.615463
1815.575758,689.485948,-0.000000,9400.615463
1815.576075,842.705048,148.041188,9030.512492
1815.576392,766.095498,-0.000000,9326.594869
1815.576710,536.266849,370.102971,9326.594869
1815.577027,459.657299,-0.000000,9400.615463
1815.577345,612.876398,-0.000000,9326.594869
1815.577662,612.876398,-0.000000,9400.615463
1815.577979,689.485948,-0.000000,9178.553681
1815.578297,689.485948,-0.000000,9252.574275
1815.578614,612.876398,148.041188,9326.594869
1815.578931,842.705048,222.061783,9474.636058
1815.579249,689.485948,370.102971,9400.615463
1815.579566,766.095498,296.082377,9326.594869
1815.579883,612.876398,148.041188,9252.574275
1815.580201,383.047749,148.041188,9474.636058
1815.580518,766.095498,222.061783,9178.553681
1815.580835,459.657299,-148.041188,9400.615463
1815.581153,842.705048,296.082377,9474.636058
1815.581470,1149.143247,370.102971,9474.636058
1815.581787,995.924147,148.041188,9474.636058
1815.582105,1149.143247,222.061783,9474.636058
1815.582422,1302.362347,222.061783,9326.594869
1815.582740,1149.143247,370.102971,9400.615463
1815.583057,1225.752797,222.061783,9474.636058
1815.583374,1455.581446,296.082377,9474.636058
1815.583692,1225.752797,444.123565,9474.636058
1815.584009,1072.533697,370.102971,9400.615463
1815.584326,1302.362347,296.082377,9474.636058
1815.584644,1378.971896,222.061783,9474.636058
1815.584961,1225.752797,296.082377,9548.656652
1815.585278,995.924147,-0.000000,9696.697840
1815.585596,842.705048,-0.000000,9622.677246
1815.585913,842.705048,-148.041188,9696.697840
1815.586230,766.095498,-222.061783,9622.677246
1815.586548,766.095498,-0.000000,9918.759623
1815.586865,459.657299,-74.020594,9770.718434
1815.587182,459.657299,-222.061783,9696.697840
1815.587500,383.047749,-0.000000,9696.697840
1815.587817,383.047749,222.061783,9696.697840
1815.588135,459.657299,-0.000000,9548.656652
1815.588452,536.266849,-0.000000,9548.656652
1815.588769,459.657299,-0.000000,9474.636058
1815.589087,612.876398,-0.000000,9548.656652
1815.589404,229.828649,296.082377,9548.656652
1815.589721,536.266849,444.123565,9474.636058
1815.590039,612.876398,222.061783,9474.636058
1815.590356,536.266849,-0.000000,9252.574275
1815.590673,689.485948,370.102971,9400.615463
1815.590991,383.047749,296.082377,9326.594869
1815.591308,919.314598,592.164754,9178.553681
1815.591625,459.657299,592.164754,9326.594869
1815.591943,766.095498,518.144159,9252.574275
1815.592260,1072.533697,-74.020594,9400.615463
1815.592577,919.314598,444.123565,9252.574275
1815.592895,612.876398,370.102971,9326.594869
1815.593212,689.485948,296.082377,9030.512492
1815.593530,612.876398,444.123565,9104.533087
1815.593847,766.095498,444.123565,9104.533087
1815.594164,995.924147,592.164754,8956.491898
1815.594482,459.657299,222.061783,9252.574275
1815.594799,612.876398,370.102971,9030.512492
1815.595116,536.266849,518.144159,9252.574275
1815.595434,766.095498,518.144159,9252.574275
1815.595751,383.047749,518.144159,9474.636058
1815.596068,229.828649,444.123565,9400.615463
1815.596386,383.047749,370.102971,9548.656652
1815.596703,383.047749,-0.000000,9474.636058
1815.597020,612.876398,-0.000000,9696.697840
1815.597338,383.047749,518.144159,9622.677246
1815.597655,536.266849,592.164754,9474.636058
1815.597973,459.657299,296.082377,9400.615463
1815.598290,766.095498,518.144159,9622.677246
1815.598607,612.876398,370.102971,9400.615463
1815.598925,766.095498,518.144159,9400.615463
1815.599242,689.485948,296.082377,9400.615463
1815.599559,689.485948,444.123565,9400.615463
1815.599877,995.924147,222.061783,9474.636058
1815.600194,689.485948,148.041188,9696.697840
1815.600512,766.095498,-0.000000,9474.636058
1815.600829,766.095498,296.082377,9696.697840
1815.601146,459.657299,222.061783,9548.656652
1815.601464,459.657299,-0.000000,9696.697840
1815.601781,383.047749,222.061783,9770.718434
1815.602098,689.485948,222.061783,9474.636058
1815.602416,536.266849,-0.000000,9696.697840
1815.602733,995.924147,-0.000000,9622.677246
1815.603051,612.876398,518.144159,9696.697840
1815.603368,842.705048,296.082377,9622.677246
1815.603685,995.924147,592.164754,9474.636058
1815.604003,842.705048,222.061783,9474.636058
1815.604320,919.314598,296.082377,9474.636058
1815.604638,536.266849,296.082377,9326.594869
1815.604955,766.095498,444.123565,9326.594869
1815.605272,995.924147,370.102971,9326.594869
1815.605590,919.314598,222.061783,9400.615463
1815.605907,842.705048,370.102971,9400.615463
1815.606224,1149.143247,-0.000000,9770.718434
1815.606542,919.314598,-0.000000,9548.656652
1815.606859,995.924147,-0.000000,9326.594869
1815.607177,689.485948,370.102971,9474.636058
1815.607494,1302.362347,-0.000000,9400.615463
1815.607811,1225.752797,148.041188,9400.615463
1815.608129,995.924147,222.061783,9326.594869
1815.608446,1149.143247,148.041188,9400.615463
1815.608763,1149.143247,296.082377,9474.636058
1815.609081,689.485948,370.102971,9326.594869
1815.609398,1532.190996,518.144159,9474.636058
1815.609716,766.095498,370.102971,9326.594869
1815.610033,1149.143247,222.061783,9474.636058
1815.610350,1072.533697,148.041188,9474.636058
1815.610668,1149.143247,-0.000000,9326.594869
1815.610985,842.705048,-0.000000,9400.615463
1815.611303,842.705048,-0.000000,9326.594869
1815.611620,919.314598,-0.000000,9326.594869
1815.611937,612.876398,148.041188,9474.636058
1815.612255,842.705048,-0.000000,9474.636058
1815.612572,919.314598,-0.000000,9326.594869
1815.612889,919.314598,-0.000000,9474.636058
1815.613207,995.924147,-0.000000,9400.615463
1815.613524,1302.362347,-0.000000,9400.615463
1815.613842,1302.362347,-0.000000,9474.636058
1815.614159,1072.533697,222.061783,9326.594869
1815.614476,1149.143247,-0.000000,9252.574275
1815.614794,1302.362347,-0.000000,8956.491898
1815.615111,995.924147,-74.020594,9252.574275
1815.615428,1149.143247,-0.000000,9326.594869
1815.615746,1072.533697,-0.000000,9474.636058
1815.616063,689.485948,-148.041188,9252.574275
1815.616381,689.485948,-74.020594,9474.636058
1815.616698,689.485948,-222.061783,9548.656652
1815.617015,383.047749,-74.020594,9622.677246
1815.617333,459.657299,-370.102971,9548.656652
1815.617650,383.047749,-222.061783,9548.656652
1815.617968,229.828649,148.041188,9696.697840
1815.618285,612.876398,-0.000000,9474.636058
1815.618602,536.266849,-0.000000,9474.636058
1815.618920,536.266849,-0.000000,9696.697840
1815.619237,536.266849,-0.000000,9622.677246
1815.619554,766.095498,-0.000000,9474.636058
1815.619872,612.876398,-0.000000,9474.636058
1815.620189,919.314598,222.061783,9474.636058
1815.620507,995.924147,-0.000000,9252.574275
1815.620824,1149.143247,370.102971,9178.553681
1815.621141,842.705048,74.020594,9400.615463
1815.621459,1149.143247,370.102971,9400.615463
1815.621776,1072.533697,222.061783,9326.594869
1815.622094,766.095498,370.102971,9252.574275
1815.622411,766.095498,74.020594,9400.615463
1815.622728,1225.752797,-0.000000,9326.594869
1815.623046,1302.362347,518.144159,9474.636058
1815.623363,919.314598,222.061783,9178.553681
1815.623680,919.314598,518.144159,9474.636058
1815.623998,842.705048,592.164754,9104.533087
1815.624315,1149.143247,666.185348,9622.677246
1815.624633,1072.533697,444.123565,9326.594869
1815.624950,1149.143247,444.123565,9326.594869
1815.625267,995.924147,592.164754,9326.594869
1815.625585,1225.752797,370.102971,9400.615463
1815.625902,995.924147,518.144159,9104.533087
1815.626219,842.705048,666.185348,9252.574275
1815.626537,612.876398,518.144159,9400.615463
1815.626854,306.438199,518.144159,9548.656652
1815.627172,536.266849,444.123565,9548.656652
1815.627489,459.657299,444.123565,9474.636058
1815.627806,612.876398,296.082377,9622.677246
1815.628124,536.266849,444.123565,9696.697840
1815.628441,383.047749,370.102971,9696.697840
1815.628759,842.705048,370.102971,9696.697840
1815.629076,306.438199,444.123565,9844.739029
1815.629393,383.047749,666.185348,9474.636058
1815.629711,842.705048,592.164754,9770.718434
1815.630028,842.705048,518.144159,9548.656652
1815.630345,919.314598,518.144159,9696.697840
1815.630663,995.924147,518.144159,9696.697840
1815.630980,919.314598,370.102971,9548.656652
1815.631298,919.314598,518.144159,9548.656652
1815.631615,842.705048,222.061783,9474.636058
1815.631932,612.876398,444.123565,9548.656652
1815.632250,995.924147,518.144159,9770.718434
1815.632567,919.314598,296.082377,9474.636058
1815.632884,689.485948,148.041188,9474.636058
1815.633202,536.266849,148.041188,9548.656652
1815.633519,995.924147,-0.000000,9696.697840
1815.633837,536.266849,-0.000000,9548.656652
1815.634154,459.657299,-0.000000,9474.636058
1815.634471,459.657299,-0.000000,9474.636058
1815.634789,536.266849,148.041188,9400.615463
1815.635106,919.314598,222.061783,9474.636058
1815.635424,919.314598,518.144159,9622.677246
1815.635741,842.705048,-0.000000,9326.594869
1815.636058,689.485948,296.082377,9400.615463
1815.636376,766.095498,296.082377,9474.636058
1815.636693,842.705048,74.020594,9548.656652
1815.637010,995.924147,296.082377,9178.553681
1815.637328,1149.143247,222.061783,9178.553681
1815.637645,1072.533697,148.041188,9252.574275
1815.637963,919.314598,-0.000000,9252.574275
1815.638280,1149.143247,-0.000000,9252.574275
1815.638597,689.485948,-0.000000,9104.533087
1815.638915,1072.533697,-0.000000,9178.553681
1815.639232,1225.752797,-0.000000,9178.553681
1815.639550,995.924147,-0.000000,9400.615463
1815.639867,995.924147,-148.041188,9622.677246
1815.640184,766.095498,-0.000000,9326.594869
1815.640502,766.095498,-0.000000,9400.615463
1815.640819,689.485948,-74.020594,9252.574275
1815.641136,842.705048,-0.000000,9400.615463
1815.641454,689.485948,370.102971,9178.553681
1815.641771,689.485948,74.020594,9326.594869
1815.642089,842.705048,296.082377,9252.574275
1815.642406,612.876398,222.061783,9252.574275
1815.642723,612.876398,222.061783,9252.574275
1815.643041,306.438199,148.041188,9326.594869
1815.643358,536.266849,-0.000000,9252.574275
1815.643675,383.047749,-0.000000,9474.636058
1815.643993,383.047749,-0.000000,9474.636058
1815.644310,536.266849,-74.020594,9474.636058
1815.644628,76.609550,-0.000000,9622.677246
1815.644945,383.047749,-0.000000,9474.636058
1815.645262,536.266849,-0.000000,9474.636058
1815.645580,766.095498,370.102971,9326.594869
1815.645897,1225.752797,740.205942,9400.615463
1815.646215,995.924147,370.102971,9474.636058
1815.646532,995.924147,296.082377,9400.615463
1815.646849,919.314598,222.061783,9400.615463
1815.647167,842.705048,-0.000000,9474.636058
1815.647484,919.314598,-0.000000,9548.656652
1815.647801,766.095498,-0.000000,9252.574275
1815.648119,1225.752797,-0.000000,9252.574275
1815.648436,842.705048,-0.000000,9622.677246
1815.648754,919.314598,-0.000000,9400.615463
1815.649071,689.485948,-74.020594,9474.636058
1815.649388,612.876398,296.082377,9548.656652
1815.649706,689.485948,148.041188,9474.636058
1815.650023,689.485948,-0.000000,9400.615463
1815.650341,842.705048,222.061783,9548.656652
1815.650658,612.876398,-0.000000,9548.656652
1815.650975,536.266849,222.061783,9622.677246
1815.651293,766.095498,222.061783,9696.697840
1815.651610,766.095498,222.061783,9696.697840
1815.651927,766.095498,222.061783,9474.636058
1815.652245,766.095498,296.082377,9474.636058
1815.652562,842.705048,370.102971,9178.553681
1815.652880,995.924147,370.102971,9400.615463
1815.653197,919.314598,444.123565,9252.574275
1815.653514,995.924147,370.102971,9474.636058
1815.653832,536.266849,222.061783,9400.615463
1815.654149,842.705048,444.123565,9252.574275
1815.654466,842.705048,296.082377,9178.553681
1815.654784,689.485948,148.041188,9326.594869
1815.655101,306.438199,-0.000000,9622.677246
1815.655419,536.266849,296.082377,9474.636058
1815.655736,612.876398,370.102971,9400.615463
1815.656053,612.876398,222.061783,9400.615463
1815.656371,459.657299,296.082377,9326.594869
1815.656688,153.219100,518.144159,9474.636058
1815.657006,536.266849,518.144159,9178.553681
1815.657323,612.876398,444.123565,9104.533087
1815.657640,306.438199,444.123565,9696.697840
1815.657958,459.657299,518.144159,9474.636058
1815.658275,383.047749,-0.000000,9326.594869
1815.658592,459.657299,222.061783,9326.594869
1815.658910,459.657299,370.102971,9326.594869
1815.659227,229.828649,148.041188,9474.636058
1815.659545,766.095498,518.144159,9548.656652
1815.659862,383.047749,74.020594,9474.636058
1815.660179,536.266849,666.185348,9400.615463
1815.660497,536.266849,370.102971,9252.574275
1815.660814,459.657299,370.102971,9622.677246
1815.661131,612.876398,222.061783,9548.656652
1815.661449,766.095498,370.102971,9548.656652
1815.661766,536.266849,296.082377,9474.636058
1815.662084,689.485948,222.061783,9474.636058
1815.662401,459.657299,370.102971,9548.656652
1815.662718,995.924147,592.164754,9474.636058
1815.663036,766.095498,444.123565,9326.594869
1815.663353,842.705048,444.123565,9548.656652
1815.663671,842.705048,222.061783,9474.636058
1815.663988,842.705048,518.144159,9548.656652
1815.664305,689.485948,-0.000000,9696.697840
1815.664623,536.266849,148.041188,9844.739029
1815.664940,536.266849,-0.000000,9474.636058
1815.665257,689.485948,222.061783,9474.636058
1815.665575,383.047749,-222.061783,9548.656652
1815.665892,689.485948,-0.000000,9548.656652
1815.666210,689.485948,-0.000000,9548.656652
1815.666527,612.876398,-222.061783,9622.677246
1815.666844,842.705048,-74.020594,9770.718434
1815.667162,536.266849,-222.061783,9622.677246
1815.667479,766.095498,222.061783,9770.718434
1815.667797,919.314598,370.102971,9622.677246
1815.668114,1072.533697,296.082377,9474.636058
1815.668431,919.314598,370.102971,9474.636058
1815.668749,919.314598,-0.000000,9474.636058
1815.669066,1072.533697,222.061783,9400.615463
1815.669383,1149.143247,148.041188,9326.594869
1815.669701,1072.533697,-0.000000,9326.594869
1815.670018,1072.533697,-0.000000,9548.656652
1815.670336,842.705048,-0.000000,9474.636058
1815.670653,689.485948,222.061783,9548.656652
1815.670970,766.095498,-0.000000,9252.574275
1815.671288,612.876398,222.061783,9622.677246
1815.671605,459.657299,148.041188,9474.636058
1815.671922,459.657299,-0.000000,9474.636058
1815.672240,536.266849,-0.000000,9400.615463
1815.672557,459.657299,222.061783,9548.656652
1815.672875,383.047749,296.082377,9400.615463
1815.673192,383.047749,296.082377,9252.574275
1815.673509,383.047749,370.102971,9474.636058
1815.673827,383.047749,148.041188,9178.553681
1815.674144,689.485948,222.061783,9030.512492
1815.674462,612.876398,444.123565,9178.553681
1815.674779,919.314598,222.061783,9400.615463
1815.675096,536.266849,296.082377,9326.594869
1815.675414,536.266849,444.123565,9252.574275
1815.675731,612.876398,296.082377,9030.512492
1815.676048,536.266849,518.144159,9326.594869
1815.676366,842.705048,370.102971,9252.574275
1815.676683,919.314598,444.123565,9030.512492
1815.677001,995.924147,444.123565,9326.594869
1815.677318,1072.533697,518.144159,9104.533087
1815.677635,995.924147,444.123565,9252.574275
1815.677953,919.314598,-0.000000,8956.491898
1815.678270,919.314598,222.061783,9178.553681
1815.678587,766.095498,222.061783,9104.533087
1815.678905,995.924147,296.082377,9326.594869
1815.679222,689.485948,148.041188,9178.553681
1815.679540,1149.143247,-74.020594,9400.615463
1815.679857,612.876398,-74.020594,9548.656652
1815.680174,995.924147,-0.000000,9548.656652
1815.680492,689.485948,-0.000000,9548.656652
1815.680809,689.485948,-74.020594,9548.656652
1815.681127,689.485948,-0.000000,10066.800811
1815.681444,536.266849,-0.000000,9622.677246
1815.681761,919.314598,-0.000000,9474.636058
1815.682079,766.095498,-0.000000,9622.677246
1815.682396,536.266849,-0.000000,9770.718434
1815.682713,536.266849,222.061783,9622.677246
1815.683031,689.485948,-0.000000,9696.697840
1815.683348,1072.533697,-0.000000,9548.656652
1815.683666,995.924147,-0.000000,9622.677246
1815.683983,1149.143247,222.061783,9622.677246
1815.684300,842.705048,-0.000000,9696.697840
1815.684618,995.924147,222.061783,9474.636058
1815.684935,995.924147,222.061783,9474.636058
1815.685253,1302.362347,296.082377,9474.636058
1815.685570,1149.143247,222.061783,9474.636058
1815.685887,1072.533697,296.082377,9400.615463
1815.686205,1149.143247,370.102971,9474.636058
1815.686522,842.705048,148.041188,9548.656652
1815.686839,1072.533697,-0.000000,9548.656652
1815.687157,1455.581446,-0.000000,9548.656652
1815.687474,842.705048,148.041188,9474.636058
1815.687792,536.266849,148.041188,9400.615463
1815.688109,612.876398,222.061783,9252.574275
1815.688426,383.047749,296.082377,9326.594869
1815.688744,766.095498,148.041188,9400.615463
1815.689061,459.657299,-0.000000,9326.594869
1815.689378,306.438199,148.041188,9548.656652
1815.689696,306.438199,222.061783,9326.594869
1815.690013,229.828649,148.041188,9400.615463
1815.690331,536.266849,370.102971,9474.636058
1815.690648,383.047749,148.041188,9252.574275
1815.690965,612.876398,222.061783,9252.574275
1815.691283,612.876398,296.082377,9178.553681
1815.691600,689.485948,370.102971,9326.594869
1815.691918,383.047749,296.082377,9474.636058
1815.692235,689.485948,444.123565,9178.553681
1815.692552,612.876398,370.102971,9252.574275
1815.692870,842.705048,370.102971,9326.594869
1815.693187,842.705048,518.144159,9178.553681
1815.693504,1072.533697,592.164754,9104.533087
1815.693822,995.924147,740.205942,9104.533087
1815.694139,1378.971896,518.144159,9030.512492
1815.694457,1225.752797,592.164754,9400.615463
1815.694774,766.095498,-0.000000,9178.553681
1815.695091,995.924147,296.082377,9178.553681
1815.695409,766.095498,222.061783,9252.574275
1815.695726,842.705048,222.061783,9548.656652
1815.696044,842.705048,444.123565,9474.636058
1815.696361,842.705048,370.102971,9474.636058
1815.696678,766.095498,370.102971,9474.636058
1815.696996,459.657299,148.041188,9548.656652
1815.697313,612.876398,-0.000000,9474.636058
1815.697631,536.266849,-0.000000,9622.677246
1815.697948,612.876398,148.041188,9548.656652
1815.698266,842.705048,370.102971,9474.636058
1815.698583,766.095498,74.020594,9548.656652
1815.698901,612.876398,518.144159,9622.677246
1815.699218,689.485948,-0.000000,9622.677246
1815.699535,536.266849,296.082377,9696.697840
1815.699853,919.314598,148.041188,9622.677246
1815.700170,766.095498,296.082377,9696.697840
1815.700488,842.705048,-0.000000,9622.677246
1815.700805,536.266849,-0.000000,9696.697840
1815.701123,995.924147,-0.000000,9622.677246
1815.701440,1072.533697,-0.000000,9548.656652
1815.701758,766.095498,222.061783,9622.677246
1815.702075,919.314598,296.082377,9622.677246
1815.702393,766.095498,-0.000000,9696.697840
1815.702710,919.314598,222.061783,9400.615463
1815.703028,766.095498,148.041188,9474.636058
1815.703345,842.705048,-0.000000,9474.636058
1815.703662,612.876398,-0.000000,9622.677246
1815.703980,536.266849,-0.000000,9548.656652
1815.704297,536.266849,-74.020594,9474.636058
1815.704615,995.924147,296.082377,9474.636058
1815.704932,612.876398,-0.000000,9548.656652
1815.705250,689.485948,148.041188,9400.615463
1815.705567,383.047749,148.041188,9548.656652
1815.705885,536.266849,148.041188,9326.594869
1815.706202,383.047749,296.082377,9400.615463
1815.706520,459.657299,370.102971,9474.636058
1815.706837,612.876398,296.082377,9400.615463
1815.707155,612.876398,370.102971,9326.594869
1815.707472,919.314598,222.061783,9400.615463
1815.707790,689.485948,296.082377,9252.574275
1815.708107,1225.752797,370.102971,9104.533087
1815.708424,766.095498,148.041188,9030.512492
1815.708742,1072.533697,296.082377,8956.491898
1815.709059,766.095498,74.020594,9326.594869
1815.709377,919.314598,-0.000000,9104.533087
1815.709694,1072.533697,74.020594,8956.491898
1815.710012,995.924147,370.102971,9326.594869
1815.710329,842.705048,222.061783,9252.574275
1815.710647,766.095498,222.061783,9178.553681
1815.710964,766.095498,-0.000000,9326.594869
1815.711282,689.485948,148.041188,9474.636058
1815.711599,612.876398,-0.000000,9696.697840
1815.711917,689.485948,-0.000000,9400.615463
1815.712234,689.485948,-0.000000,9548.656652
1815.712551,919.314598,-0.000000,9400.615463
1815.712869,919.314598,222.061783,9548.656652
1815.713186,689.485948,222.061783,9326.594869
1815.713504,919.314598,222.061783,9474.636058
1815.713821,1072.533697,148.041188,9474.636058
1815.714139,1072.533697,370.102971,9474.636058
1815.714456,1149.143247,148.041188,9622.677246
1815.714774,919.314598,-0.000000,9326.594869
1815.715091,1072.533697,296.082377,9178.553681
1815.715409,1302.362347,444.123565,9326.594869
1815.715726,1149.143247,148.041188,9326.594869
1815.716044,1685.410096,148.041188,9474.636058
1815.716361,995.924147,148.041188,9400.615463
1815.716679,919.314598,296.082377,9474.636058
1815.716996,612.876398,296.082377,9474.636058
1815.717313,919.314598,296.082377,9474.636058
1815.717631,766.095498,-0.000000,9474.636058
1815.717948,1072.533697,222.061783,9400.615463
1815.718266,842.705048,222.061783,9696.697840
1815.718583,919.314598,444.123565,9474.636058
1815.718901,842.705048,370.102971,9474.636058
1815.719218,1072.533697,-0.000000,9548.656652
1815.719536,766.095498,148.041188,9474.636058
1815.719853,612.876398,370.102971,9326.594869
1815.720171,536.266849,296.082377,9474.636058
1815.720488,306.438199,148.041188,9548.656652
1815.720806,689.485948,-74.020594,9400.615463
1815.721123,383.047749,-74.020594,9474.636058
1815.721440,76.609550,-0.000000,9622.677246
1815.721758,229.828649,-0.000000,9696.697840
1815.722075,0.000000,-0.000000,9474.636058
1815.722393,383.047749,-0.000000,9474.636058
1815.722710,536.266849,-0.000000,9474.636058
1815.723028,536.266849,296.082377,9474.636058
1815.723345,536.266849,296.082377,9474.636058
1815.723663,306.438199,370.102971,9400.615463
1815.723980,612.876398,148.041188,9696.697840
1815.724298,689.485948,370.102971,9474.636058
1815.724615,995.924147,370.102971,9400.615463
1815.724933,919.314598,148.041188,9400.615463
1815.725250,1378.971896,296.082377,9326.594869
1815.725568,1072.533697,296.082377,9400.615463
1815.725885,919.314598,148.041188,9400.615463
1815.726202,612.876398,222.061783,9474.636058
1815.726520,995.924147,444.123565,9474.636058
1815.726837,536.266849,-0.000000,9548.656652
1815.727155,536.266849,148.041188,9400.615463
1815.727472,383.047749,370.102971,9622.677246
1815.727790,306.438199,222.061783,9400.615463
1815.728107,689.485948,148.041188,9252.574275
1815.728425,612.876398,222.061783,9400.615463
1815.728742,766.095498,296.082377,9474.636058
1815.729060,459.657299,-0.000000,9474.636058
1815.729377,612.876398,296.082377,9400.615463
1815.729695,766.095498,222.061783,9622.677246
1815.730012,842.705048,296.082377,9400.615463
1815.730329,383.047749,296.082377,9400.615463
1815.730647,612.876398,370.102971,9326.594869
1815.730964,536.266849,296.082377,9400.615463
1815.731282,995.924147,148.041188,9474.636058
1815.731599,766.095498,222.061783,9474.636058
1815.731917,689.485948,222.061783,9400.615463
1815.732234,919.314598,222.061783,9474.636058
1815.732552,689.485948,370.102971,9326.594869
1815.732869,919.314598,296.082377,9326.594869
1815.733187,689.485948,296.082377,9252.574275
1815.733504,612.876398,148.041188,9400.615463
1815.733822,842.705048,370.102971,9474.636058
1815.734139,766.095498,222.061783,9326.594869
1815.734457,842.705048,-0.000000,9178.553681
1815.734774,536.266849,296.082377,9474.636058
1815.735091,612.876398,296.082377,9326.594869
1815.735409,612.876398,370.102971,9548.656652
1815.735726,689.485948,370.102971,9548.656652
1815.736044,459.657299,370.102971,9474.636058
1815.736361,306.438199,444.123565,9474.636058
1815.736679,383.047749,370.102971,9622.677246
1815.736996,459.657299,222.061783,9474.636058
1815.737314,919.314598,222.061783,9474.636058
1815.737631,459.657299,148.041188,9622.677246
1815.737949,459.657299,222.061783,9548.656652
1815.738266,383.047749,444.123565,9474.636058
1815.738584,612.876398,296.082377,9474.636058
1815.738901,842.705048,370.102971,9400.615463
1815.739218,612.876398,370.102971,9400.615463
1815.739536,766.095498,222.061783,9400.615463
1815.739853,995.924147,444.123565,9252.574275
1815.740171,1149.143247,-0.000000,9474.636058
1815.740488,995.924147,296.082377,9252.574275
1815.740806,919.314598,518.144159,9400.615463
1815.741123,995.924147,444.123565,9548.656652
1815.741441,995.924147,148.041188,9474.636058
1815.741758,1072.533697,-0.000000,9474.636058
1815.742076,995.924147,222.061783,9474.636058
1815.742393,842.705048,148.041188,9622.677246
1815.742711,689.485948,-0.000000,9696.697840
1815.743028,612.876398,-0.000000,9622.677246
1815.743346,766.095498,222.061783,9770.718434
1815.743663,536.266849,-0.000000,9548.656652
1815.743980,995.924147,296.082377,9696.697840
1815.744298,766.095498,-0.000000,9548.656652
1815.744615,1302.362347,-0.000000,9474.636058
1815.744933,842.705048,-0.000000,9548.656652
1815.745250,842.705048,-0.000000,9474.636058
1815.745568,842.705048,148.041188,9474.636058
1815.745885,766.095498,-0.000000,9474.636058
1815.746203,766.095498,-0.000000,9474.636058
1815.746520,459.657299,-0.000000,9548.656652
1815.746838,689.485948,74.020594,9400.615463
1815.747155,842.705048,222.061783,9474.636058
1815.747473,995.924147,-0.000000,9400.615463
1815.747790,1302.362347,-0.000000,9622.677246
1815.748107,459.657299,222.061783,9400.615463
1815.748425,536.266849,148.041188,9400.615463
1815.748742,536.266849,148.041188,9400.615463
1815.749060,689.485948,-0.000000,9178.553681
1815.749377,306.438199,-0.000000,9400.615463
1815.749695,766.095498,518.144159,9474.636058
1815.750012,612.876398,222.061783,9326.594869
1815.750330,689.485948,370.102971,9104.533087
1815.750647,919.314598,518.144159,9178.553681
1815.750965,1149.143247,296.082377,9104.533087
1815.751282,689.485948,370.102971,8956.491898
1815.751600,612.876398,296.082377,9104.533087
1815.751917,536.266849,370.102971,9178.553681
1815.752235,536.266849,370.102971,9104.533087
1815.752552,842.705048,370.102971,9400.615463
1815.752869,459.657299,148.041188,9252.574275
1815.753187,842.705048,296.082377,9104.533087
1815.753504,842.705048,-0.000000,9178.553681
1815.753822,766.095498,222.061783,9400.615463
1815.754139,612.876398,-0.000000,9474.636058
1815.754457,842.705048,-0.000000,9400.615463
1815.754774,689.485948,148.041188,9474.636058
1815.755092,842.705048,-0.000000,9400.615463
1815.755409,1532.190996,296.082377,9474.636058
1815.755727,995.924147,-0.000000,9474.636058
1815.756044,1072.533697,222.061783,9178.553681
1815.756362,766.095498,-74.020594,9400.615463
1815.756679,1072.533697,-0.000000,9474.636058
1815.756996,995.924147,-0.000000,9400.615463
1815.757314,842.705048,-74.020594,9622.677246
1815.757631,536.266849,-222.061783,9548.656652
1815.757949,689.485948,-0.000000,9696.697840
1815.758266,689.485948,-148.041188,9474.636058
1815.758584,459.657299,-0.000000,9696.697840
1815.758901,306.438199,-148.041188,9696.697840
1815.759219,76.609550,-74.020594,9844.739029
1815.759536,536.266849,-0.000000,9622.677246
1815.759854,536.266849,-0.000000,9696.697840
1815.760171,383.047749,-148.041188,9696.697840
1815.760489,766.095498,-0.000000,9474.636058
1815.760806,612.876398,296.082377,9622.677246
1815.761124,766.095498,222.061783,9622.677246
1815.761441,612.876398,296.082377,9548.656652
1815.761758,766.095498,296.082377,9548.656652
1815.762076,919.314598,296.082377,9474.636058
1815.762393,919.314598,444.123565,9252.574275
1815.762711,842.705048,370.102971,9326.594869
1815.763028,766.095498,444.123565,9474.636058
1815.763346,919.314598,296.082377,9326.594869
1815.763663,766.095498,296.082377,9400.615463
1815.763981,842.705048,296.082377,9474.636058
1815.764298,995.924147,444.123565,9474.636058
1815.764616,1378.971896,370.102971,9400.615463
1815.764933,919.314598,666.185348,9474.636058
1815.765251,1302.362347,592.164754,9178.553681
1815.765568,612.876398,296.082377,9326.594869
1815.765885,766.095498,518.144159,9178.553681
1815.766203,1225.752797,296.082377,9326.594869
1815.766520,919.314598,518.144159,9474.636058
1815.766838,766.095498,444.123565,9178.553681
1815.767155,766.095498,444.123565,9178.553681
1815.767473,766.095498,518.144159,9252.574275
1815.767790,842.705048,296.082377,9030.512492
1815.768108,383.047749,370.102971,9400.615463
1815.768425,919.314598,444.123565,9474.636058
1815.768743,459.657299,-0.000000,9252.574275
1815.769060,459.657299,370.102971,9326.594869
1815.769378,383.047749,444.123565,9548.656652
1815.769695,459.657299,296.082377,9548.656652
1815.770013,383.047749,296.082377,9548.656652
1815.770330,383.047749,148.041188,9474.636058
1815.770647,842.705048,370.102971,9622.677246
1815.770965,612.876398,518.144159,9252.574275
1815.771282,766.095498,444.123565,9400.615463
1815.771600,919.314598,518.144159,9474.636058
1815.771917,995.924147,370.102971,9474.636058
1815.772235,1532.190996,518.144159,9474.636058
1815.772552,766.095498,370.102971,9178.553681
1815.772870,919.314598,222.061783,9252.574275
1815.773187,919.314598,-0.000000,9326.594869
1815.773505,689.485948,222.061783,9400.615463
1815.773822,919.314598,148.041188,9548.656652
1815.774140,612.876398,74.020594,9696.697840
1815.774457,612.876398,-222.061783,9548.656652
1815.774774,536.266849,-148.041188,9548.656652
1815.775092,842.705048,-222.061783,9770.718434
1815.775409,536.266849,-74.020594,9548.656652
1815.775727,919.314598,-0.000000,9622.677246
1815.776044,766.095498,-0.000000,9696.697840
1815.776362,842.705048,-0.000000,9622.677246
1815.776679,766.095498,-0.000000,9622.677246
1815.776997,919.314598,-0.000000,9770.718434
1815.777314,1072.533697,-0.000000,9622.677246
1815.777632,1149.143247,-0.000000,9474.636058
1815.777949,1302.362347,-0.000000,9474.636058
1815.778267,995.924147,-148.041188,9548.656652
1815.778584,1149.143247,-0.000000,9400.615463
1815.778902,1302.362347,370.102971,9474.636058
1815.779219,1378.971896,-0.000000,9400.615463
1815.779536,1455.581446,74.020594,9400.615463
1815.779854,1225.752797,148.041188,9474.636058
1815.780171,1072.533697,148.041188,9400.615463
1815.780489,1149.143247,-0.000000,9400.615463
1815.780806,919.314598,-0.000000,9474.636058
1815.781124,842.705048,-0.000000,9474.636058
1815.781441,919.314598,-0.000000,9474.636058
1815.781759,1149.143247,-0.000000,9178.553681
1815.782076,612.876398,148.041188,9474.636058
1815.782394,766.095498,296.082377,9252.574275
1815.782711,766.095498,-0.000000,9400.615463
1815.783029,919.314598,296.082377,9252.574275
1815.783346,459.657299,370.102971,9104.533087
1815.783663,459.657299,222.061783,9178.553681
1815.783981,612.876398,222.061783,9178.553681
1815.784298,995.924147,-0.000000,9548.656652
1815.784616,76.609550,-74.020594,9252.574275
1815.784933,536.266849,222.061783,9326.594869
1815.785251,383.047749,74.020594,9252.574275
1815.785568,459.657299,-0.000000,9474.636058
1815.785886,995.924147,370.102971,9548.656652
1815.786203,612.876398,222.061783,9474.636058
1815.786521,612.876398,296.082377,9178.553681
1815.786838,689.485948,370.102971,9400.615463
1815.787156,459.657299,370.102971,9252.574275
1815.787473,919.314598,-0.000000,9326.594869
1815.787791,919.314598,-0.000000,9030.512492
1815.788108,842.705048,222.061783,9252.574275
1815.788425,995.924147,296.082377,9252.574275
1815.788743,995.924147,296.082377,9326.594869
1815.789060,1302.362347,222.061783,9474.636058
1815.789378,919.314598,296.082377,9326.594869
1815.789695,766.095498,148.041188,9326.594869
1815.790013,536.266849,370.102971,9474.636058
1815.790330,459.657299,-0.000000,9474.636058
1815.790648,306.438199,222.061783,9622.677246
1815.790965,536.266849,222.061783,9474.636058
1815.791283,383.047749,-0.000000,9400.615463
1815.791600,766.095498,222.061783,9622.677246
1815.791918,306.438199,148.041188,9696.697840
1815.792235,0.000000,-148.041188,9844.739029
1815.792552,536.266849,444.123565,9474.636058
1815.792870,766.095498,444.123565,9474.636058
1815.793187,689.485948,666.185348,9474.636058
1815.793505,612.876398,-0.000000,9474.636058
1815.793822,459.657299,666.185348,9844.739029
1815.794140,766.095498,370.102971,9474.636058
1815.794457,612.876398,296.082377,9696.697840
1815.794775,689.485948,370.102971,9400.615463
1815.795092,842.705048,444.123565,9474.636058
1815.795410,919.314598,296.082377,9400.615463
1815.795727,842.705048,518.144159,9474.636058
1815.796045,766.095498,444.123565,9474.636058
1815.796362,766.095498,592.164754,9696.697840
1815.796680,1072.533697,592.164754,9548.656652
1815.796997,995.924147,-0.000000,9474.636058
1815.797314,842.705048,444.123565,9548.656652
1815.797632,919.314598,296.082377,9474.636058
1815.797949,919.314598,296.082377,9474.636058
1815.798267,842.705048,74.020594,9474.636058
1815.798584,766.095498,148.041188,9474.636058
1815.798902,766.095498,370.102971,9474.636058
1815.799219,919.314598,296.082377,9474.636058
1815.799537,995.924147,222.061783,9474.636058
1815.799854,842.705048,-0.000000,9474.636058
1815.800172,766.095498,-0.000000,9326.594869
1815.800489,919.314598,296.082377,9474.636058
1815.800807,766.095498,148.041188,9622.677246
1815.801124,1072.533697,-0.000000,9622.677246
1815.801442,1608.800546,296.082377,9844.739029
1815.801759,842.705048,222.061783,9400.615463
1815.802077,919.314598,222.061783,9252.574275
1815.802394,1072.533697,222.061783,9400.615463
1815.802712,1302.362347,296.082377,9252.574275
1815.803029,1072.533697,-0.000000,9326.594869
1815.803347,1302.362347,-74.020594,8956.491898
1815.803664,1149.143247,-0.000000,9178.553681
1815.803982,919.314598,-0.000000,9178.553681
1815.804299,766.095498,-0.000000,9252.574275
1815.804617,842.705048,-222.061783,9326.594869
1815.804934,689.485948,148.041188,9104.533087
1815.805252,766.095498,-74.020594,9104.533087
1815.805569,766.095498,-0.000000,9252.574275
1815.805887,766.095498,-0.000000,9400.615463
1815.806204,459.657299,-148.041188,9400.615463
1815.806522,383.047749,-0.000000,9622.677246
1815.806839,536.266849,-0.000000,9104.533087
1815.807156,306.438199,222.061783,9104.533087
1815.807474,459.657299,-0.000000,9178.553681
1815.807791,459.657299,-74.020594,9252.574275
1815.808109,459.657299,-0.000000,9252.574275
1815.808426,536.266849,74.020594,9326.594869
1815.808744,383.047749,-0.000000,9252.574275
1815.809061,1149.143247,-74.020594,9400.615463
1815.809379,459.657299,-0.000000,9252.574275
1815.809696,1072.533697,222.061783,9178.553681
1815.810014,995.924147,296.082377,9030.512492
1815.810331,612.876398,-0.000000,9326.594869
1815.810649,689.485948,-0.000000,9400.615463
1815.810966,536.266849,296.082377,9400.615463
1815.811284,612.876398,222.061783,9474.636058
1815.811601,459.657299,222.061783,9474.636058
1815.811919,689.485948,444.123565,9474.636058
1815.812236,919.314598,370.102971,9252.574275
1815.812554,995.924147,-0.000000,9178.553681
1815.812871,1225.752797,592.164754,9252.574275
1815.813189,1072.533697,296.082377,9474.636058
1815.813506,1072.533697,444.123565,9400.615463
1815.813824,689.485948,296.082377,9548.656652
1815.814141,919.314598,296.082377,9474.636058
1815.814459,995.924147,370.102971,9548.656652
1815.814776,766.095498,444.123565,9622.677246
1815.815094,919.314598,444.123565,9548.656652
1815.815411,842.705048,74.020594,9474.636058
1815.815729,612.876398,148.041188,9622.677246
1815.816046,383.047749,518.144159,9844.739029
1815.816364,536.266849,148.041188,9770.718434
1815.816681,229.828649,444.123565,10214.842000
1815.816999,459.657299,296.082377,9770.718434
1815.817316,612.876398,148.041188,9770.718434
1815.817634,536.266849,444.123565,9918.759623
1815.817951,612.876398,444.123565,9918.759623
1815.818269,612.876398,296.082377,9918.759623
1815.818586,1072.533697,740.205942,9622.677246
1815.818904,689.485948,518.144159,9622.677246
1815.819221,1072.533697,666.185348,9474.636058
1815.819539,1225.752797,370.102971,9474.636058
1815.819856,1225.752797,444.123565,9622.677246
1815.820173,995.924147,370.102971,9474.636058
1815.820491,919.314598,222.061783,9474.636058
1815.820808,842.705048,222.061783,9252.574275
1815.821126,766.095498,-0.000000,9548.656652
1815.821443,766.095498,148.041188,9548.656652
1815.821761,689.485948,222.061783,9548.656652
1815.822078,689.485948,-0.000000,9474.636058
1815.822396,766.095498,-0.000000,9696.697840
1815.822713,1149.143247,-148.041188,9252.574275
1815.823031,689.485948,-0.000000,9400.615463
1815.823348,612.876398,296.082377,9548.656652
1815.823666,995.924147,-0.000000,9326.594869
1815.823983,459.657299,296.082377,9400.615463
1815.824301,919.314598,222.061783,9178.553681
1815.824618,612.876398,296.082377,9252.574275
1815.824936,612.876398,148.041188,9030.512492
1815.825253,842.705048,296.082377,9030.512492
1815.825571,536.266849,296.082377,9178.553681
1815.825888,689.485948,148.041188,8956.491898
1815.826206,842.705048,518.144159,9178.553681
1815.826523,766.095498,-0.000000,9178.553681
1815.826841,612.876398,-0.000000,9400.615463
1815.827158,842.705048,-0.000000,9178.553681
1815.827476,459.657299,222.061783,9178.553681
1815.827793,612.876398,148.041188,9252.574275
1815.828111,536.266849,-0.000000,9326.594869
1815.828428,459.657299,-0.000000,9252.574275
1815.828746,306.438199,296.082377,9252.574275
1815.829063,459.657299,148.041188,9104.533087
1815.829381,153.219100,-0.000000,9252.574275
1815.829698,383.047749,296.082377,9178.553681
1815.830016,306.438199,-0.000000,9178.553681
1815.830333,383.047749,-0.000000,9178.553681
1815.830651,383.047749,296.082377,9104.533087
1815.830968,306.438199,296.082377,9252.574275
1815.831286,536.266849,148.041188,9400.615463
1815.831603,459.657299,148.041188,9326.594869
1815.831921,536.266849,-0.000000,9474.636058
1815.832238,689.485948,-0.000000,9696.697840
1815.832556,459.657299,370.102971,9548.656652
1815.832873,766.095498,148.041188,9474.636058
1815.833190,766.095498,-0.000000,9696.697840
1815.833508,1149.143247,222.061783,9548.656652
1815.833825,995.924147,370.102971,9696.697840
1815.834143,1149.143247,296.082377,9474.636058
1815.834460,1072.533697,518.144159,9474.636058
1815.834778,1532.190996,296.082377,9474.636058
1815.835095,1608.800546,296.082377,9548.656652
1815.835413,1149.143247,518.144159,9622.677246
1815.835730,1302.362347,518.144159,9400.615463
1815.836048,1302.362347,370.102971,9400.615463
1815.836365,1302.362347,148.041188,9622.677246
1815.836683,1225.752797,518.144159,9622.677246
1815.837000,1149.143247,148.041188,9548.656652
1815.837318,766.095498,-74.020594,9770.718434
1815.837635,995.924147,148.041188,9844.739029
1815.837953,919.314598,-0.000000,9548.656652
1815.838270,689.485948,-0.000000,9992.780217
1815.838588,766.095498,-0.000000,9844.739029
1815.838905,689.485948,-0.000000,10066.800811
1815.839223,842.705048,-0.000000,9696.697840
1815.839540,689.485948,-0.000000,9696.697840
1815.839858,689.485948,296.082377,9770.718434
1815.840175,766.095498,148.041188,9548.656652
1815.840493,766.095498,-0.000000,9622.677246
1815.840810,689.485948,148.041188,9474.636058
1815.841128,919.314598,222.061783,9548.656652
1815.841445,1455.581446,148.041188,9400.615463
1815.841763,459.657299,-0.000000,9400.615463
1815.842080,919.314598,-0.000000,9178.553681
1815.842398,536.266849,370.102971,9326.594869
1815.842715,612.876398,370.102971,9474.636058
1815.843033,689.485948,296.082377,9400.615463
1815.843350,459.657299,222.061783,9326.594869
1815.843668,842.705048,296.082377,9326.594869
1815.843985,459.657299,370.102971,9252.574275
1815.844303,842.705048,296.082377,9400.615463
1815.844620,1149.143247,444.123565,9326.594869
1815.844938,1072.533697,296.082377,8808.450710
1815.845255,766.095498,148.041188,8956.491898
1815.845573,766.095498,444.123565,9030.512492
1815.845890,689.485948,592.164754,9178.553681
1815.846207,536.266849,296.082377,8956.491898
1815.846525,766.095498,222.061783,9030.512492
1815.846842,766.095498,296.082377,9400.615463
1815.847160,612.876398,296.082377,9326.594869
1815.847477,459.657299,-0.000000,9104.533087
1815.847795,612.876398,148.041188,9400.615463
1815.848112,536.266849,-0.000000,9400.615463
1815.848430,689.485948,-0.000000,9474.636058
1815.848747,536.266849,-0.000000,9252.574275
1815.849065,689.485948,-148.041188,9400.615463
1815.849382,919.314598,-0.000000,9326.594869
1815.849700,919.314598,148.041188,9178.553681
1815.850017,766.095498,148.041188,9252.574275
1815.850335,1532.190996,296.082377,9252.574275
1815.850652,919.314598,-74.020594,9474.636058
1815.850970,842.705048,222.061783,9104.533087
1815.851287,842.705048,74.020594,9400.615463
1815.851605,842.705048,370.102971,9400.615463
1815.851922,689.485948,-0.000000,9326.594869
1815.852240,919.314598,-0.000000,9400.615463
1815.852557,766.095498,148.041188,9548.656652
1815.852875,612.876398,148.041188,9548.656652
1815.853192,689.485948,-0.000000,9548.656652
1815.853510,459.657299,-148.041188,9770.718434
1815.853827,306.438199,74.020594,9548.656652
1815.854145,612.876398,222.061783,9622.677246
1815.854462,612.876398,370.102971,9474.636058
1815.854780,459.657299,222.061783,9474.636058
1815.855097,766.095498,148.041188,9474.636058
1815.855415,919.314598,148.041188,9770.718434
1815.855732,689.485948,222.061783,9548.656652
1815.856050,612.876398,370.102971,9474.636058
1815.856367,766.095498,518.144159,9696.697840
1815.856685,1149.143247,592.164754,9474.636058
1815.857002,1225.752797,666.185348,9622.677246
1815.857320,689.485948,444.123565,9474.636058
1815.857637,995.924147,444.123565,9474.636058
1815.857955,842.705048,444.123565,9400.615463
1815.858272,995.924147,518.144159,9696.697840
1815.858590,919.314598,370.102971,9548.656652
1815.858907,1072.533697,370.102971,9474.636058
1815.859224,612.876398,592.164754,9770.718434
1815.859542,383.047749,222.061783,9474.636058
1815.859859,536.266849,592.164754,9622.677246
1815.860177,536.266849,296.082377,9548.656652
1815.860494,766.095498,592.164754,9696.697840
1815.860812,536.266849,518.144159,9474.636058
1815.861129,1225.752797,592.164754,9548.656652
1815.861447,383.047749,370.102971,9474.636058
1815.861764,459.657299,444.123565,9548.656652
1815.862082,536.266849,222.061783,9474.636058
1815.862399,383.047749,444.123565,9326.594869
1815.862717,383.047749,148.041188,9400.615463
1815.863034,459.657299,296.082377,9474.636058
1815.863352,536.266849,444.123565,9400.615463
1815.863669,459.657299,222.061783,9474.636058
1815.863987,1072.533697,74.020594,9474.636058
1815.864304,306.438199,370.102971,9326.594869
1815.864622,536.266849,370.102971,9474.636058
1815.864939,612.876398,148.041188,9400.615463
1815.865257,995.924147,222.061783,9326.594869
1815.865574,842.705048,148.041188,9252.574275
1815.865892,1072.533697,444.123565,9252.574275
1815.866209,995.924147,444.123565,9326.594869
1815.866527,1072.533697,222.061783,9326.594869
1815.866844,1225.752797,444.123565,9104.533087
1815.867162,1225.752797,-0.000000,9326.594869
1815.867479,1072.533697,-0.000000,9400.615463
1815.867797,1302.362347,-0.000000,9030.512492
1815.868114,995.924147,-74.020594,9178.553681
1815.868432,1149.143247,-0.000000,9252.574275
1815.868749,842.705048,-0.000000,9178.553681
1815.869067,842.705048,-0.000000,9474.636058
1815.869384,612.876398,-296.082377,9252.574275
1815.869702,689.485948,-0.000000,9474.636058
1815.870019,612.876398,-148.041188,9474.636058
1815.870337,76.609550,-74.020594,9474.636058
1815.870654,153.219100,-148.041188,9548.656652
1815.870972,306.438199,-0.000000,9474.636058
1815.871289,459.657299,-0.000000,9400.615463
1815.871607,842.705048,148.041188,9474.636058
1815.871924,842.705048,-0.000000,9326.594869
1815.872241,689.485948,-0.000000,9326.594869
1815.872559,842.705048,-0.000000,9252.574275
1815.872876,766.095498,-0.000000,9252.574275
1815.873194,766.095498,-0.000000,9326.594869
1815.873511,459.657299,-74.020594,9104.533087
1815.873829,536.266849,296.082377,9326.594869
1815.874146,459.657299,148.041188,9252.574275
1815.874464,766.095498,222.061783,9474.636058
1815.874781,919.314598,-0.000000,9400.615463
1815.875099,919.314598,148.041188,9326.594869
1815.875416,842.705048,296.082377,9400.615463
1815.875734,612.876398,444.123565,9474.636058
1815.876051,612.876398,296.082377,9326.594869
1815.876369,306.438199,518.144159,9326.594869
1815.876686,766.095498,370.102971,9178.553681
1815.877004,842.705048,222.061783,9326.594869
1815.877321,842.705048,666.185348,9474.636058
1815.877639,842.705048,444.123565,9474.636058
1815.877956,1072.533697,222.061783,9400.615463
1815.878274,842.705048,444.123565,9474.636058
1815.878591,689.485948,296.082377,9474.636058
1815.878909,919.314598,444.123565,9474.636058
1815.879226,1302.362347,74.020594,9622.677246
1815.879544,689.485948,296.082377,9548.656652
1815.879861,766.095498,296.082377,9696.697840
1815.880179,842.705048,296.082377,9696.697840
1815.880496,919.314598,444.123565,9622.677246
1815.880814,1072.533697,592.164754,9474.636058
1815.881131,1072.533697,222.061783,9622.677246
1815.881449,1149.143247,222.061783,9548.656652
1815.881766,1225.752797,222.061783,9474.636058
1815.882084,1072.533697,222.061783,9548.656652
1815.882401,1302.362347,-0.000000,9548.656652
1815.882719,1149.143247,-0.000000,9770.718434
1815.883036,995.924147,296.082377,9474.636058
1815.883354,919.314598,148.041188,9844.739029
1815.883671,842.705048,-0.000000,9548.656652
1815.883989,689.485948,-0.000000,9622.677246
1815.884306,536.266849,-0.000000,9696.697840
1815.884623,689.485948,-0.000000,9696.697840
1815.884941,536.266849,-74.020594,9770.718434
1815.885258,689.485948,-0.000000,9622.677246
1815.885576,842.705048,-0.000000,9548.656652
1815.885893,766.095498,-0.000000,9400.615463
1815.886211,536.266849,-0.000000,9400.615463
1815.886528,612.876398,-0.000000,9326.594869
1815.886846,459.657299,222.061783,9400.615463
1815.887163,536.266849,148.041188,9474.636058
1815.887481,459.657299,222.061783,9252.574275
1815.887798,612.876398,-0.000000,9326.594869
1815.888116,612.876398,370.102971,9400.615463
1815.888433,842.705048,-0.000000,9400.615463
