#time,accel_x,accel_y,accel_z
1059.835365,306.438199,296.082377,9178.553681
1059.835683,153.219100,296.082377,9474.636058
1059.836002,306.438199,666.185348,9326.594869
1059.836321,76.609550,296.082377,9178.553681
1059.836639,766.095498,592.164754,9104.533087
1059.836958,306.438199,370.102971,9252.574275
1059.837277,536.266849,296.082377,9104.533087
1059.837595,459.657299,370.102971,9178.553681
1059.837914,306.438199,222.061783,9326.594869
1059.838233,383.047749,370.102971,9326.594869
1059.838551,306.438199,296.082377,9252.574275
1059.838870,306.438199,222.061783,9252.574275
1059.839189,383.047749,148.041188,8956.491898
1059.839508,383.047749,296.082377,9252.574275
1059.839826,306.438199,370.102971,9326.594869
1059.840145,1225.752797,370.102971,9326.594869
1059.840464,536.266849,370.102971,9178.553681
1059.840782,229.828649,444.123565,9400.615463
1059.841101,383.047749,296.082377,9104.533087
1059.841420,153.219100,296.082377,9400.615463
1059.841738,459.657299,370.102971,9400.615463
1059.842057,229.828649,444.123565,9400.615463
1059.842376,229.828649,222.061783,9104.533087
1059.842694,306.438199,296.082377,9326.594869
1059.843013,536.266849,444.123565,9178.553681
1059.843332,229.828649,666.185348,8956.491898
1059.843650,153.219100,518.144159,9252.574275
1059.843969,536.266849,296.082377,9474.636058
1059.844288,536.266849,444.123565,9474.636058
1059.844607,689.485948,148.041188,9474.636058
1059.844925,383.047749,296.082377,9252.574275
1059.845244,459.657299,296.082377,9252.574275
1059.845563,306.438199,296.082377,9326.594869
1059.845881,459.657299,518.144159,9400.615463
1059.846200,536.266849,444.123565,9548.656652
1059.846519,383.047749,148.041188,9474.636058
1059.846837,459.657299,444.123565,9400.615463
1059.847156,536.266849,296.082377,9178.553681
1059.847475,306.438199,444.123565,9252.574275
1059.847793,536.266849,518.144159,9178.553681
1059.848112,459.657299,518.144159,9474.636058
1059.848431,153.219100,370.102971,9178.553681
1059.848750,536.266849,518.144159,9252.574275
1059.849068,306.438199,296.082377,9178.553681
1059.849387,383.047749,444.123565,8956.491898
1059.849706,459.657299,444.123565,9252.574275
1059.850024,383.047749,518.144159,9400.615463
1059.850343,612.876398,518.144159,9326.594869
1059.850662,612.876398,370.102971,9326.594869
1059.850980,306.438199,444.123565,9696.697840
1059.851299,383.047749,444.123565,9326.594869
1059.851618,383.047749,296.082377,9400.615463
1059.851936,306.438199,222.061783,9030.512492
1059.852255,689.485948,-0.000000,9326.594869
1059.852574,459.657299,222.061783,9326.594869
1059.852892,0.000000,148.041188,9104.533087
1059.853211,612.876398,444.123565,9252.574275
1059.853530,536.266849,444.123565,9400.615463
1059.853849,536.266849,222.061783,9252.574275
1059.854167,306.438199,444.123565,9400.615463
1059.854486,306.438199,222.061783,9326.594869
1059.854805,383.047749,370.102971,9178.553681
1059.855123,306.438199,370.102971,9252.574275
1059.855442,153.219100,444.123565,9400.615463
1059.855761,306.438199,518.144159,9548.656652
1059.856079,229.828649,370.102971,9104.533087
1059.856398,229.828649,592.164754,9104.533087
1059.856717,536.266849,370.102971,9252.574275
1059.857035,76.609550,296.082377,9178.553681
1059.857354,612.876398,518.144159,9178.553681
1059.857673,612.876398,444.123565,9326.594869
1059.857992,612.876398,296.082377,9178.553681
1059.858310,766.095498,148.041188,9178.553681
1059.858629,229.828649,-0.000000,9104.533087
1059.858948,306.438199,444.123565,9326.594869
1059.859266,536.266849,592.164754,9326.594869
1059.859585,459.657299,518.144159,9326.594869
1059.859904,1378.971896,370.102971,9252.574275
1059.860222,229.828649,444.123565,9474.636058
1059.860541,383.047749,592.164754,9400.615463
1059.860860,383.047749,370.102971,9252.574275
1059.861178,536.266849,296.082377,9252.574275
1059.861497,459.657299,296.082377,9474.636058
1059.861816,306.438199,148.041188,9178.553681
1059.862134,306.438199,222.061783,9104.533087
1059.862453,459.657299,444.123565,9030.512492
1059.862772,306.438199,222.061783,9178.553681
1059.863091,383.047749,148.041188,9400.615463
1059.863409,229.828649,296.082377,9474.636058
1059.863728,459.657299,444.123565,9400.615463
1059.864047,383.047749,592.164754,9326.594869
1059.864365,612.876398,296.082377,9178.553681
1059.864684,766.095498,222.061783,9326.594869
1059.865003,612.876398,518.144159,9178.553681
1059.865321,842.705048,592.164754,9030.512492
1059.865640,536.266849,370.102971,9178.553681
1059.865959,919.314598,-0.000000,9474.636058
1059.866277,306.438199,296.082377,9252.574275
1059.866596,306.438199,74.020594,9326.594869
1059.866915,612.876398,370.102971,9252.574275
1059.867234,459.657299,296.082377,9252.574275
1059.867552,459.657299,296.082377,9326.594869
1059.867871,689.485948,444.123565,9252.574275
1059.868190,536.266849,222.061783,9252.574275
1059.868508,383.047749,370.102971,9252.574275
1059.868827,995.924147,370.102971,9326.594869
1059.869146,306.438199,296.082377,9178.553681
1059.869464,459.657299,222.061783,9252.574275
1059.869783,459.657299,444.123565,9326.594869
1059.870102,612.876398,518.144159,9252.574275
1059.870420,459.657299,296.082377,9178.553681
1059.870739,536.266849,444.123565,9252.574275
1059.871058,306.438199,296.082377,9252.574275
1059.871377,612.876398,370.102971,9178.553681
1059.871695,689.485948,666.185348,9104.533087
1059.872014,383.047749,444.123565,9474.636058
1059.872333,229.828649,518.144159,9104.533087
1059.872651,842.705048,444.123565,9104.533087
1059.872970,536.266849,444.123565,9326.594869
1059.873289,689.485948,-0.000000,9326.594869
1059.873607,536.266849,296.082377,9400.615463
1059.873926,459.657299,296.082377,9252.574275
1059.874245,536.266849,444.123565,9178.553681
1059.874563,229.828649,370.102971,9326.594869
1059.874882,536.266849,296.082377,9400.615463
1059.875201,229.828649,370.102971,9326.594869
1059.875519,459.657299,222.061783,8956.491898
1059.875838,306.438199,-0.000000,9178.553681
1059.876157,306.438199,-74.020594,9178.553681
1059.876476,-153.219100,-222.061783,9326.594869
1059.876794,0.000000,-370.102971,9252.574275
1059.877113,0.000000,-370.102971,8808.450710
1059.877432,76.609550,-444.123565,9030.512492
1059.877750,0.000000,-666.185348,8956.491898
1059.878069,229.828649,-740.205942,8734.430116
1059.878388,-383.047749,-740.205942,8512.368333
1059.878706,-1072.533697,-962.267725,8142.265362
1059.879025,-1149.143247,-1184.329507,8808.450710
1059.879344,-1302.362347,-1406.391290,8734.430116
1059.879662,-1302.362347,-1628.453072,9178.553681
1059.879981,-1455.581446,-1480.411884,8734.430116
1059.880300,-1915.238745,-1036.288319,8882.471304
1059.880619,-1915.238745,-1036.288319,8512.368333
1059.880937,-1225.752797,-888.247130,7994.224174
1059.881256,-2068.457845,-888.247130,7772.162391
1059.881575,-1991.848295,-888.247130,7772.162391
1059.881893,-2374.896044,-1554.432478,7920.203579
1059.882212,-2145.067394,-1998.556043,8142.265362
1059.882531,-1838.629195,-2072.576638,8586.388927
1059.882849,-2221.676944,-1776.494261,8808.450710
1059.883168,-2374.896044,-2220.617826,9326.594869
1059.883487,-2298.286494,-1924.535449,8882.471304
1059.883805,-1991.848295,-1776.494261,8734.430116
1059.884124,-2298.286494,-1628.453072,8364.327145
1059.884443,-2451.505594,-1850.514855,8364.327145
1059.884761,-2374.896044,-2146.597232,8364.327145
1059.885080,-2757.943793,-3034.844362,8882.471304
1059.885399,-2757.943793,-3701.029710,9474.636058
1059.885718,-3447.429741,-4145.153275,10140.821405
1059.886036,-3294.210641,-4441.235652,10436.903782
1059.886355,-3524.039291,-4663.297435,11177.109724
1059.886674,-3677.258390,-3923.091493,11325.150913
1059.886992,-3140.991542,-3923.091493,11325.150913
1059.887311,-3064.381992,-3256.906145,10881.027347
1059.887630,-2451.505594,-2812.782580,11103.089130
1059.887948,-2451.505594,-3034.844362,10584.944971
1059.888267,-2451.505594,-2664.741391,10658.965565
1059.888586,-2604.724693,-3182.885551,10658.965565
1059.888904,-2757.943793,-3182.885551,10436.903782
1059.889223,-3064.381992,-3478.967927,10214.842000
1059.889542,-3524.039291,-3775.050304,10510.924376
1059.889861,-3830.477490,-4071.132681,11177.109724
1059.890179,-4213.525239,-4293.194464,11251.130318
1059.890498,-4290.134789,-4219.173869,11769.274478
1059.890817,-4903.011187,-3849.070898,12213.398043
1059.891135,-5056.230287,-3923.091493,11843.295072
1059.891454,-5209.449386,-2886.803174,11769.274478
1059.891773,-5209.449386,-2960.823768,10881.027347
1059.892091,-4903.011187,-2516.700203,10510.924376
1059.892410,-4519.963438,-3034.844362,10807.006753
1059.892729,-3830.477490,-3552.988522,11251.130318
1059.893047,-2528.115143,-3404.947333,11251.130318
1059.893366,-1532.190996,-2886.803174,10955.047942
1059.893685,-306.438199,-2294.638420,10288.862594
1059.894003,919.314598,-0.000000,8290.306550
1059.894322,1685.410096,1406.391290,6365.771101
1059.894641,2374.896044,1776.494261,5477.523971
1059.894960,2451.505594,1554.432478,4737.318029
1059.895278,2374.896044,444.123565,5033.400406
1059.895597,1685.410096,-666.185348,6143.709319
1059.895916,1225.752797,-1998.556043,7772.162391
1059.896234,536.266849,-2368.659014,8512.368333
1059.896553,0.000000,-2072.576638,9548.656652
1059.896872,76.609550,-1184.329507,9844.739029
1059.897190,766.095498,-0.000000,9104.533087
1059.897509,229.828649,1184.329507,8512.368333
1059.897828,919.314598,1480.411884,8512.368333
1059.898146,1685.410096,1924.535449,7105.977043
1059.898465,1685.410096,2220.617826,5995.668130
1059.898784,1302.362347,1702.473667,5699.585753
1059.899103,689.485948,740.205942,5329.482782
1059.899421,76.609550,-444.123565,5773.606348
1059.899740,-995.924147,-1628.453072,7105.977043
1059.900059,-2374.896044,-2516.700203,8882.471304
1059.900377,-3140.991542,-3256.906145,9992.780217
1059.900696,-3600.648841,-2516.700203,11103.089130
1059.901015,-4366.744339,-1924.535449,11547.212695
1059.901333,-4826.401637,-1406.391290,11029.068536
1059.901652,-5056.230287,-962.267725,10807.006753
1059.901971,-5286.058936,-1258.350101,10510.924376
1059.902289,-4749.792088,-1258.350101,10214.842000
1059.902608,-4673.182538,-1702.473667,9548.656652
1059.902927,-4673.182538,-2146.597232,9770.718434
1059.903246,-4060.306139,-2886.803174,9696.697840
1059.903564,-3064.381992,-3552.988522,9992.780217
1059.903883,-2451.505594,-3404.947333,10732.986159
1059.904202,-2068.457845,-2516.700203,10510.924376
1059.904520,-1762.019645,-1480.411884,9918.759623
1059.904839,-1762.019645,-1036.288319,9696.697840
1059.905158,-1838.629195,-1332.370696,10288.862594
1059.905476,-2528.115143,-1924.535449,9696.697840
1059.905795,-3217.601092,-2294.638420,9696.697840
1059.906114,-3524.039291,-3108.864956,9918.759623
1059.906432,-4060.306139,-4293.194464,11325.150913
1059.906751,-3524.039291,-5773.606348,12953.603985
1059.907070,-3217.601092,-5625.565159,13841.851115
1059.907388,-2604.724693,-4737.318029,13397.727550
1059.907707,-1072.533697,-3256.906145,12361.439231
1059.908026,689.485948,-1702.473667,11251.130318
1059.908345,1762.019645,-370.102971,9400.615463
1059.908663,2604.724693,888.247130,7772.162391
1059.908982,2987.772442,518.144159,5995.668130
1059.909301,3600.648841,-666.185348,6439.791695
1059.909619,3140.991542,-1850.514855,8068.244768
1059.909938,2145.067394,-3182.885551,8216.285956
1059.910257,1608.800546,-3256.906145,9030.512492
1059.910575,383.047749,-3701.029710,9770.718434
1059.910894,-229.828649,-3404.947333,10510.924376
1059.911213,-995.924147,-2664.741391,10584.944971
1059.911531,-1838.629195,-1776.494261,9030.512492
1059.911850,-2221.676944,-1332.370696,8364.327145
1059.912169,-2987.772442,-1480.411884,8512.368333
1059.912488,-3370.820191,-1998.556043,8142.265362
1059.912806,-3447.429741,-2664.741391,7994.224174
1059.913125,-4443.353888,-3108.864956,8660.409521
1059.913444,-4673.182538,-3330.926739,9548.656652
1059.913762,-4136.915689,-2146.597232,9622.677246
1059.914081,-2987.772442,-888.247130,9400.615463
1059.914400,-2451.505594,-74.020594,8956.491898
1059.914719,-1762.019645,518.144159,9030.512492
1059.915037,-1072.533697,1480.411884,7179.997637
1059.915356,-689.485948,1998.556043,5847.626942
1059.915675,-536.266849,740.205942,5699.585753
1059.915994,-842.705048,-592.164754,5255.462188
1059.916313,-1991.848295,-2516.700203,5255.462188
1059.916632,-3064.381992,-3775.050304,6661.853478
1059.916951,-3983.696590,-5107.421000,8512.368333
1059.917270,-4903.011187,-5773.606348,10140.821405
1059.917588,-4903.011187,-4811.338623,10807.006753
1059.917907,-4903.011187,-3923.091493,12657.521608
1059.918226,-4136.915689,-3034.844362,13323.706956
1059.918545,-2374.896044,-1036.288319,11769.274478
1059.918864,-689.485948,148.041188,11251.130318
1059.919183,995.924147,666.185348,11177.109724
1059.919502,2221.676944,666.185348,9622.677246
1059.919821,3600.648841,740.205942,7550.100608
1059.920140,4826.401637,-148.041188,7402.059420
1059.920458,5592.497135,-888.247130,6883.915261
1059.920777,5439.278036,-1110.308913,5995.668130
1059.921096,4979.620737,-1184.329507,7179.997637
1059.921415,4290.134789,-2294.638420,8438.347739
1059.921734,3064.381992,-2590.720797,8734.430116
1059.922053,2298.286494,-2516.700203,10732.986159
1059.922372,919.314598,-2812.782580,12435.459826
1059.922691,229.828649,-2368.659014,11917.315666
1059.923009,-459.657299,-1332.370696,12435.459826
1059.923328,-153.219100,444.123565,12731.542202
1059.923647,766.095498,1776.494261,11251.130318
1059.923966,1072.533697,3330.926739,8882.471304
1059.924285,1915.238745,4811.338623,8290.306550
1059.924604,2681.334243,5329.482782,6587.832884
1059.924923,2374.896044,5181.441594,4737.318029
1059.925242,2145.067394,3775.050304,5329.482782
1059.925561,1455.581446,2664.741391,7105.977043
1059.925879,383.047749,740.205942,7402.059420
1059.926198,-1149.143247,-296.082377,9326.594869
1059.926517,-1991.848295,74.020594,11325.150913
1059.926836,-2757.943793,222.061783,12509.480420
1059.927155,-2834.553343,962.267725,12287.418637
1059.927474,-3217.601092,2442.679609,12435.459826
1059.927793,-2681.334243,4293.194464,12287.418637
1059.928112,-1762.019645,5329.482782,10066.800811
1059.928430,-1072.533697,5033.400406,8290.306550
1059.928749,-229.828649,4293.194464,7328.038826
1059.929068,383.047749,3256.906145,5921.647536
1059.929387,689.485948,962.267725,4219.173869
1059.929706,1149.143247,-296.082377,5551.544565
1059.930025,536.266849,-2072.576638,7846.182985
1059.930344,76.609550,-3182.885551,9178.553681
1059.930663,-689.485948,-3404.947333,11621.233289
1059.930982,-842.705048,-2516.700203,14582.057057
1059.931300,-842.705048,-888.247130,15544.324782
1059.931619,0.000000,1332.370696,14285.974681
1059.931938,76.609550,3256.906145,13545.768739
1059.932257,995.924147,3108.864956,13027.624579
1059.932576,2374.896044,2812.782580,10510.924376
1059.932895,3983.696590,2368.659014,7994.224174
1059.933214,4443.353888,-0.000000,6809.894666
1059.933533,4443.353888,-2294.638420,5181.441594
1059.933851,3983.696590,-4219.173869,4515.256246
1059.934170,3677.258390,-4737.318029,6217.729913
1059.934489,1838.629195,-5329.482782,7624.121203
1059.934808,383.047749,-4959.379811,9474.636058
1059.935127,-842.705048,-3404.947333,12509.480420
1059.935446,-1915.238745,-962.267725,14063.912898
1059.935765,-2068.457845,-518.144159,14804.118840
1059.936084,-1838.629195,370.102971,14508.036463
1059.936403,-1225.752797,962.267725,14359.995275
1059.936721,-306.438199,962.267725,11843.295072
1059.937040,612.876398,740.205942,8290.306550
1059.937359,1838.629195,518.144159,6439.791695
1059.937678,2374.896044,222.061783,4811.338623
1059.937997,3064.381992,-370.102971,1998.556043
1059.938316,2604.724693,-888.247130,1332.370696
1059.938635,1685.410096,-1258.350101,3627.009116
1059.938954,0.000000,-2516.700203,5699.585753
1059.939272,-2298.286494,-2664.741391,7179.997637
1059.939591,-3983.696590,-2368.659014,10807.006753
1059.939910,-5975.544884,-1924.535449,13323.706956
1059.940229,-6205.373534,-1850.514855,14285.974681
1059.940548,-5439.278036,148.041188,13619.789333
1059.940867,-3907.087040,2072.576638,13767.830521
1059.941186,-1991.848295,2368.659014,10881.027347
1059.941505,0.000000,2294.638420,8142.265362
1059.941824,1762.019645,2960.823768,6217.729913
1059.942142,3600.648841,2516.700203,4071.132681
1059.942461,4826.401637,1702.473667,962.267725
1059.942780,5439.278036,1406.391290,740.205942
1059.943099,4749.792088,222.061783,2960.823768
1059.943418,3294.210641,-888.247130,4589.276840
1059.943737,1762.019645,-1776.494261,7402.059420
1059.944056,-153.219100,-814.226536,11177.109724
1059.944375,-1455.581446,666.185348,12731.542202
1059.944693,-1608.800546,1776.494261,13767.830521
1059.945012,-1762.019645,2590.720797,14137.933492
1059.945331,-919.314598,3034.844362,13693.809927
1059.945650,0.000000,3108.864956,11029.068536
1059.945969,1838.629195,3330.926739,8808.450710
1059.946288,2911.162892,2812.782580,7254.018232
1059.946607,3907.087040,1554.432478,5033.400406
1059.946926,4366.744339,222.061783,3923.091493
1059.947245,3983.696590,-74.020594,4811.338623
1059.947563,4366.744339,-962.267725,7772.162391
1059.947882,3983.696590,-962.267725,9178.553681
1059.948201,1608.800546,740.205942,10807.006753
1059.948520,1225.752797,2146.597232,14211.954086
1059.948839,0.000000,2220.617826,15026.180623
1059.949158,-229.828649,4367.215058,13989.892304
1059.949477,-612.876398,3701.029710,14211.954086
1059.949796,-383.047749,4515.256246,12879.583391
1059.950114,-383.047749,2886.803174,10362.883188
1059.950433,229.828649,1702.473667,8290.306550
1059.950752,-153.219100,370.102971,7994.224174
1059.951071,0.000000,-1332.370696,6735.874072
1059.951390,-536.266849,-1406.391290,6809.894666
1059.951709,-995.924147,-740.205942,8660.409521
1059.952028,-842.705048,-1628.453072,10584.944971
1059.952347,-1838.629195,-370.102971,11695.253884
1059.952666,-2145.067394,666.185348,14582.057057
1059.952984,-2298.286494,1702.473667,15766.386565
1059.953303,-1991.848295,2442.679609,14804.118840
1059.953622,-766.095498,3256.906145,14137.933492
1059.953941,229.828649,4589.276840,12657.521608
1059.954260,1378.971896,3997.112087,8956.491898
1059.954579,2757.943793,3330.926739,6143.709319
1059.954898,2757.943793,3182.885551,4737.318029
1059.955217,3140.991542,666.185348,3775.050304
1059.955535,2681.334243,-962.267725,2516.700203
1059.955854,1455.581446,-1628.453072,4737.318029
1059.956173,76.609550,-2664.741391,7772.162391
1059.956492,-536.266849,-3404.947333,9918.759623
1059.956811,-2145.067394,-3404.947333,12805.562797
1059.957130,-2757.943793,-1258.350101,15100.201217
1059.957449,-2221.676944,444.123565,15766.386565
1059.957768,-459.657299,1850.514855,14582.057057
1059.958087,612.876398,3627.009116,12879.583391
1059.958405,2834.553343,5181.441594,10288.862594
1059.958724,4903.011187,4737.318029,5773.606348
1059.959043,6435.202183,4367.215058,2812.782580
1059.959362,6741.640382,2442.679609,1776.494261
1059.959681,6435.202183,740.205942,296.082377
1059.960000,5209.449386,-2146.597232,518.144159
1059.960319,3140.991542,-3330.926739,3627.009116
1059.960638,1608.800546,-4515.256246,7179.997637
1059.960956,-1225.752797,-4589.276840,9252.574275
1059.961275,-3217.601092,-3478.967927,13027.624579
1059.961594,-4826.401637,-2072.576638,15396.283594
1059.961913,-4443.353888,-370.102971,16580.613101
1059.962232,-3677.258390,962.267725,15692.365970
1059.962551,-2451.505594,2886.803174,13841.851115
1059.962870,-536.266849,3923.091493,10807.006753
1059.963189,1455.581446,3849.070898,6365.771101
1059.963508,3830.477490,3701.029710,3923.091493
1059.963826,4826.401637,2738.761985,2294.638420
1059.964145,5515.887586,1406.391290,-222.061783
1059.964464,5132.839837,-0.000000,518.144159
1059.964783,3907.087040,-518.144159,3034.844362
1059.965102,1685.410096,-2072.576638,5699.585753
1059.965421,-612.876398,-2590.720797,9030.512492
1059.965740,-3370.820191,-2072.576638,12953.603985
1059.966059,-5056.230287,-666.185348,15914.427753
1059.966377,-6052.154434,-0.000000,16432.571912
1059.966696,-5209.449386,1702.473667,16580.613101
1059.967015,-3907.087040,4367.215058,15840.407159
1059.967334,-2068.457845,4737.318029,11991.336260
1059.967653,0.000000,4293.194464,8438.347739
1059.967972,2681.334243,3997.112087,6513.812290
1059.968291,4979.620737,2368.659014,4219.173869
1059.968610,5822.325785,1332.370696,2220.617826
1059.968929,5898.935335,814.226536,2886.803174
1059.969247,5592.497135,-296.082377,5477.523971
1059.969566,3983.696590,-888.247130,7402.059420
1059.969885,2374.896044,-592.164754,10510.924376
1059.970204,0.000000,592.164754,13767.830521
1059.970523,-1762.019645,2072.576638,14730.098246
1059.970842,-2298.286494,1850.514855,15914.427753
1059.971161,-3370.820191,3256.906145,16136.489536
1059.971480,-2374.896044,3552.988522,15618.345376
1059.971798,-1302.362347,3108.864956,11621.233289
1059.972117,229.828649,1776.494261,9696.697840
1059.972436,2068.457845,1184.329507,8142.265362
1059.972755,3447.429741,-74.020594,5551.544565
1059.973074,4136.915689,-1776.494261,4811.338623
1059.973393,4596.572988,-1332.370696,6143.709319
1059.973712,4213.525239,-1184.329507,8068.244768
1059.974031,3064.381992,-814.226536,8142.265362
1059.974350,1762.019645,-370.102971,11843.295072
1059.974668,229.828649,1998.556043,13397.727550
1059.974987,-766.095498,2442.679609,14063.912898
1059.975306,-1838.629195,3404.947333,12879.583391
1059.975625,-1838.629195,4071.132681,13249.686362
1059.975944,-842.705048,3478.967927,11991.336260
1059.976263,76.609550,2738.761985,8734.430116
1059.976582,459.657299,2294.638420,6587.832884
1059.976901,1455.581446,-0.000000,5403.503377
1059.977219,1455.581446,-740.205942,3849.070898
1059.977538,1915.238745,-3256.906145,5033.400406
1059.977857,1225.752797,-3552.988522,6365.771101
1059.978176,153.219100,-2294.638420,9252.574275
1059.978495,-766.095498,-1776.494261,9844.739029
1059.978814,-1838.629195,1036.288319,10807.006753
1059.979133,-1532.190996,1776.494261,12953.603985
1059.979452,-1685.410096,2442.679609,12361.439231
1059.979771,-1762.019645,3256.906145,10732.986159
1059.980089,-919.314598,2960.823768,11177.109724
1059.980408,306.438199,1998.556043,9030.512492
1059.980727,766.095498,1036.288319,5995.668130
1059.981046,2221.676944,-444.123565,5625.565159
1059.981365,1378.971896,-1702.473667,4367.215058
1059.981684,1225.752797,-3330.926739,4145.153275
1059.982003,1072.533697,-4071.132681,4589.276840
1059.982322,0.000000,-3552.988522,7328.038826
1059.982640,-1149.143247,-4071.132681,9030.512492
1059.982959,-2681.334243,-3552.988522,10955.047942
1059.983278,-3677.258390,-2738.761985,14211.954086
1059.983597,-3524.039291,-1554.432478,14063.912898
1059.983916,-2834.553343,-592.164754,13471.748144
1059.984235,-2068.457845,1036.288319,12731.542202
1059.984554,0.000000,1850.514855,10658.965565
1059.984873,1378.971896,1258.350101,7772.162391
1059.985192,3140.991542,1110.308913,5699.585753
1059.985510,4366.744339,518.144159,4071.132681
1059.985829,4673.182538,-148.041188,2220.617826
1059.986148,4826.401637,-1258.350101,2294.638420
1059.986467,3370.820191,-1924.535449,4811.338623
1059.986786,2681.334243,-2368.659014,7105.977043
1059.987105,459.657299,-2146.597232,9400.615463
1059.987424,-612.876398,-2220.617826,13249.686362
1059.987743,-1991.848295,-444.123565,14063.912898
1059.988061,-1532.190996,1110.308913,16210.510130
1059.988380,-919.314598,1554.432478,14804.118840
1059.988699,-1149.143247,4811.338623,12361.439231
1059.989018,1532.190996,4737.318029,10881.027347
1059.989337,3370.820191,5255.462188,7031.956449
1059.989656,4366.744339,3404.947333,4737.318029
1059.989975,4826.401637,2812.782580,2960.823768
1059.990294,4290.134789,1850.514855,1998.556043
1059.990613,4060.306139,-370.102971,3478.967927
1059.990931,2068.457845,-666.185348,6365.771101
1059.991250,0.000000,-1110.308913,8586.388927
1059.991569,-1532.190996,-1036.288319,11769.274478
1059.991888,-3370.820191,592.164754,14285.974681
1059.992207,-4060.306139,592.164754,18135.045579
1059.992526,-4366.744339,1110.308913,16284.530724
1059.992845,-4290.134789,2294.638420,15840.407159
1059.993164,-2451.505594,3256.906145,15470.304188
1059.993482,-1685.410096,4219.173869,11177.109724
1059.993801,919.314598,4367.215058,7994.224174
1059.994120,2374.896044,3775.050304,5921.647536
1059.994439,2834.553343,2072.576638,3552.988522
1059.994758,3370.820191,-444.123565,3997.112087
1059.995077,2834.553343,-1406.391290,5033.400406
1059.995396,2221.676944,-1480.411884,7105.977043
1059.995715,995.924147,-2960.823768,9474.636058
1059.996034,-1915.238745,-2664.741391,13027.624579
1059.996352,-2145.067394,-1924.535449,16654.633695
1059.996671,-3370.820191,-148.041188,16136.489536
1059.996990,-3064.381992,1110.308913,16506.592507
1059.997309,-2451.505594,2590.720797,15840.407159
1059.997628,-1455.581446,4219.173869,12731.542202
1059.997947,459.657299,2294.638420,10510.924376
1059.998266,1991.848295,1628.453072,7179.997637
1059.998585,3524.039291,1702.473667,4885.359217
1059.998903,4749.792088,-74.020594,3404.947333
1059.999222,4979.620737,-1850.514855,2368.659014
1059.999541,4519.963438,-3034.844362,4737.318029
1059.999860,3140.991542,-3997.112087,7105.977043
1060.000179,919.314598,-4737.318029,8660.409521
1060.000498,-689.485948,-3997.112087,13101.645173
1060.000817,-2451.505594,-1406.391290,13767.830521
1060.001136,-3064.381992,-592.164754,14137.933492
1060.001455,-3524.039291,222.061783,14063.912898
1060.001773,-2757.943793,1406.391290,13545.768739
1060.002092,-1838.629195,1924.535449,10807.006753
1060.002411,0.000000,1924.535449,6661.853478
1060.002730,1378.971896,-0.000000,5107.421000
1060.003049,2068.457845,-888.247130,3034.844362
1060.003368,2451.505594,-2220.617826,1554.432478
1060.003687,2221.676944,-4219.173869,2442.679609
1060.004006,1532.190996,-4737.318029,4737.318029
1060.004324,153.219100,-4515.256246,6439.791695
1060.004643,-1225.752797,-4293.194464,8734.430116
1060.004962,-2757.943793,-2516.700203,11621.233289
1060.005281,-3983.696590,-1480.411884,13175.665768
1060.005600,-4443.353888,-222.061783,13323.706956
1060.005919,-4213.525239,1332.370696,12583.501014
1060.006238,-3294.210641,2368.659014,11621.233289
1060.006557,-1608.800546,2590.720797,8734.430116
1060.006876,536.266849,2368.659014,6217.729913
1060.007194,2451.505594,1554.432478,4589.276840
1060.007513,3294.210641,-0.000000,2368.659014
1060.007832,4060.306139,-1776.494261,2146.597232
1060.008151,3907.087040,-2368.659014,3478.967927
1060.008470,3600.648841,-2812.782580,5403.503377
1060.008789,2221.676944,-2738.761985,7328.038826
1060.009108,383.047749,-2368.659014,10510.924376
1060.009427,-1149.143247,-296.082377,12509.480420
1060.009745,-1532.190996,592.164754,13619.789333
1060.010064,-1608.800546,2442.679609,12657.521608
1060.010383,-1225.752797,3923.091493,13175.665768
1060.010702,-536.266849,4441.235652,11399.171507
1060.011021,919.314598,2664.741391,9622.677246
1060.011340,1838.629195,1702.473667,7772.162391
1060.011659,2681.334243,962.267725,6735.874072
1060.011978,3677.258390,-666.185348,5033.400406
1060.012297,3753.867940,-1924.535449,4737.318029
1060.012615,3677.258390,-1628.453072,6957.935855
1060.012934,2451.505594,-2146.597232,9400.615463
1060.013253,1149.143247,-1702.473667,10288.862594
1060.013572,0.000000,370.102971,13397.727550
1060.013891,-1608.800546,1480.411884,14952.160028
1060.014210,-2298.286494,1554.432478,15470.304188
1060.014529,-2451.505594,2220.617826,15322.262999
1060.014848,-2221.676944,3552.988522,14952.160028
1060.015166,-1608.800546,3552.988522,12139.377449
1060.015485,0.000000,3256.906145,9474.636058
1060.015804,995.924147,2664.741391,7254.018232
1060.016123,2757.943793,592.164754,6883.915261
1060.016442,2221.676944,-888.247130,5921.647536
1060.016761,2221.676944,-1998.556043,6365.771101
1060.017080,1991.848295,-1924.535449,8068.244768
1060.017398,842.705048,-1332.370696,10066.800811
1060.017717,-306.438199,-1406.391290,12065.356855
1060.018036,-1455.581446,370.102971,14359.995275
1060.018355,-1685.410096,1998.556043,15396.283594
1060.018673,-2145.067394,2812.782580,14582.057057
1060.018992,-1302.362347,4293.194464,13619.789333
1060.019311,-689.485948,4737.318029,12139.377449
1060.019630,459.657299,3478.967927,8808.450710
1060.019949,1991.848295,2146.597232,6291.750507
1060.020267,2987.772442,888.247130,5625.565159
1060.020586,4136.915689,-592.164754,4071.132681
1060.020905,3524.039291,-2072.576638,3034.844362
1060.021224,3217.601092,-2664.741391,4811.338623
1060.021542,1685.410096,-2664.741391,7031.956449
1060.021861,383.047749,-2664.741391,8808.450710
1060.022180,-1532.190996,-1776.494261,11325.150913
1060.022499,-2451.505594,-370.102971,13767.830521
1060.022818,-2451.505594,740.205942,14508.036463
1060.023136,-2451.505594,2368.659014,12953.603985
1060.023455,-1532.190996,2590.720797,12435.459826
1060.023774,-459.657299,2738.761985,10436.903782
1060.024093,689.485948,1776.494261,6661.853478
1060.024411,2528.115143,1036.288319,4737.318029
1060.024730,3524.039291,-0.000000,3478.967927
1060.025049,3524.039291,-1850.514855,2146.597232
1060.025368,2987.772442,-3256.906145,2220.617826
1060.025687,1991.848295,-3997.112087,5255.462188
1060.026005,689.485948,-3997.112087,7624.121203
1060.026324,-842.705048,-3923.091493,9474.636058
1060.026643,-2757.943793,-2220.617826,11917.315666
1060.026962,-3370.820191,-1036.288319,14137.933492
1060.027280,-4060.306139,-222.061783,13989.892304
1060.027599,-3294.210641,1184.329507,13471.748144
1060.027918,-2604.724693,2368.659014,12213.398043
1060.028237,-306.438199,3330.926739,9400.615463
1060.028556,1608.800546,2812.782580,6365.771101
1060.028874,2987.772442,2590.720797,4515.256246
1060.029193,4519.963438,1110.308913,2960.823768
1060.029512,4673.182538,-666.185348,2220.617826
1060.029831,4136.915689,-2220.617826,4071.132681
1060.030149,3524.039291,-2516.700203,6365.771101
1060.030468,1915.238745,-2368.659014,7624.121203
1060.030787,76.609550,-2664.741391,11103.089130
1060.031106,-1608.800546,-1184.329507,13915.871710
1060.031425,-2374.896044,-148.041188,14508.036463
1060.031743,-3064.381992,962.267725,13989.892304
1060.032062,-2604.724693,2590.720797,14285.974681
1060.032381,-1838.629195,3552.988522,12435.459826
1060.032700,-383.047749,3997.112087,9252.574275
1060.033019,1685.410096,3775.050304,6883.915261
1060.033337,3064.381992,3108.864956,5033.400406
1060.033656,4136.915689,1184.329507,4145.153275
1060.033975,4596.572988,-1036.288319,3627.009116
1060.034294,4213.525239,-2072.576638,5699.585753
1060.034612,3524.039291,-1924.535449,8068.244768
1060.034931,1762.019645,-1480.411884,10066.800811
1060.035250,689.485948,-1184.329507,12657.521608
1060.035569,-1378.971896,814.226536,14359.995275
1060.035888,-2298.286494,1332.370696,15618.345376
1060.036206,-3064.381992,2886.803174,14211.954086
1060.036525,-2604.724693,4589.276840,13693.809927
1060.036844,-1685.410096,5255.462188,12213.398043
1060.037163,-536.266849,4737.318029,8882.471304
1060.037481,1149.143247,4515.256246,7031.956449
1060.037800,2681.334243,2812.782580,5773.606348
1060.038119,3217.601092,-0.000000,5033.400406
1060.038438,3447.429741,-1776.494261,5625.565159
1060.038757,2911.162892,-2146.597232,7994.224174
1060.039075,2374.896044,-1702.473667,10288.862594
1060.039394,1072.533697,-888.247130,11029.068536
1060.039713,229.828649,814.226536,13767.830521
1060.040032,-689.485948,3182.885551,14582.057057
1060.040350,-1225.752797,4145.153275,14063.912898
1060.040669,-1149.143247,4811.338623,12805.562797
1060.040988,-1149.143247,5773.606348,12213.398043
1060.041307,0.000000,4737.318029,10362.883188
1060.041626,1072.533697,2590.720797,7402.059420
1060.041944,1915.238745,1184.329507,6809.894666
1060.042263,3600.648841,-370.102971,5699.585753
1060.042582,3524.039291,-1776.494261,3849.070898
1060.042901,3753.867940,-2812.782580,5477.523971
1060.043219,2911.162892,-3701.029710,7772.162391
1060.043538,1532.190996,-3256.906145,9400.615463
1060.043857,0.000000,-2664.741391,11843.295072
1060.044176,-1532.190996,-740.205942,13693.809927
1060.044495,-2451.505594,1258.350101,14137.933492
1060.044813,-2604.724693,1702.473667,13619.789333
1060.045132,-2451.505594,3627.009116,12287.418637
1060.045451,-1455.581446,3478.967927,11621.233289
1060.045770,-153.219100,2368.659014,8068.244768
1060.046088,842.705048,1184.329507,6069.688724
1060.046407,2757.943793,-74.020594,5107.421000
1060.046726,3064.381992,-1850.514855,3404.947333
1060.047045,3294.210641,-3404.947333,2960.823768
1060.047364,3064.381992,-4515.256246,5403.503377
1060.047682,1762.019645,-4145.153275,7179.997637
1060.048001,0.000000,-3182.885551,8956.491898
1060.048320,-995.924147,-1184.329507,11399.171507
1060.048639,-1991.848295,666.185348,12879.583391
1060.048957,-2757.943793,1924.535449,12731.542202
1060.049276,-2681.334243,2590.720797,12213.398043
1060.049595,-2145.067394,3256.906145,11769.274478
1060.049914,-153.219100,4737.318029,8734.430116
1060.050233,1685.410096,3404.947333,6217.729913
1060.050551,2221.676944,2220.617826,4811.338623
1060.050870,3830.477490,888.247130,3849.070898
1060.051189,4519.963438,-518.144159,2220.617826
1060.051508,4366.744339,-1702.473667,3256.906145
1060.051826,4060.306139,-2072.576638,6217.729913
1060.052145,2298.286494,-1850.514855,7624.121203
1060.052464,306.438199,-1628.453072,9992.780217
1060.052783,-1302.362347,-296.082377,12805.562797
1060.053102,-2834.553343,740.205942,14359.995275
1060.053420,-3217.601092,2368.659014,13471.748144
1060.053739,-2834.553343,3552.988522,12731.542202
1060.054058,-1991.848295,4441.235652,12213.398043
1060.054377,-689.485948,4663.297435,9844.739029
1060.054695,1072.533697,4071.132681,7402.059420
1060.055014,2528.115143,2368.659014,5699.585753
1060.055333,3677.258390,740.205942,5551.544565
1060.055652,3907.087040,-1406.391290,4885.359217
1060.055971,3830.477490,-2664.741391,6291.750507
1060.056289,3064.381992,-2146.597232,8660.409521
1060.056608,1838.629195,-1554.432478,10732.986159
1060.056927,153.219100,-370.102971,12509.480420
1060.057246,-1302.362347,1554.432478,13915.871710
1060.057565,-2145.067394,1850.514855,15470.304188
1060.057883,-2604.724693,2886.803174,14656.077652
1060.058202,-2528.115143,3849.070898,13915.871710
1060.058521,-1608.800546,4441.235652,12287.418637
1060.058840,-383.047749,4219.173869,9696.697840
1060.059158,1072.533697,2886.803174,7772.162391
1060.059477,2604.724693,2072.576638,6217.729913
1060.059796,3600.648841,370.102971,5107.421000
1060.060115,4060.306139,-1406.391290,4811.338623
1060.060434,3600.648841,-1850.514855,6957.935855
1060.060752,2298.286494,-2072.576638,9548.656652
1060.061071,1072.533697,-1998.556043,11251.130318
1060.061390,-459.657299,-740.205942,13471.748144
1060.061709,-1302.362347,1110.308913,14730.098246
1060.062027,-1991.848295,2368.659014,14730.098246
1060.062346,-2068.457845,3108.864956,13545.768739
1060.062665,-1302.362347,3627.009116,12435.459826
1060.062984,-536.266849,3404.947333,10288.862594
1060.063303,842.705048,3108.864956,7031.956449
1060.063621,2298.286494,1924.535449,5551.544565
1060.063940,3907.087040,518.144159,4589.276840
1060.064259,3830.477490,-962.267725,2664.741391
1060.064578,3830.477490,-2516.700203,4145.153275
1060.064896,3064.381992,-2812.782580,6513.812290
1060.065215,1455.581446,-2960.823768,8512.368333
1060.065534,-229.828649,-3108.864956,10881.027347
1060.065853,-1608.800546,-1332.370696,13619.789333
1060.066172,-2987.772442,-888.247130,15026.180623
1060.066490,-3294.210641,814.226536,13545.768739
1060.066809,-3294.210641,2442.679609,12435.459826
1060.067128,-1532.190996,3552.988522,11843.295072
1060.067447,0.000000,3552.988522,8216.285956
1060.067765,1378.971896,2664.741391,5255.462188
1060.068084,2757.943793,1332.370696,4071.132681
1060.068403,3447.429741,-0.000000,2738.761985
1060.068722,3753.867940,-1554.432478,1480.411884
1060.069041,3524.039291,-3256.906145,3404.947333
1060.069359,2528.115143,-3923.091493,6513.812290
1060.069678,536.266849,-4071.132681,8364.327145
1060.069997,-612.876398,-3108.864956,11621.233289
1060.070316,-2834.553343,-1184.329507,13619.789333
1060.070634,-3217.601092,-0.000000,14582.057057
1060.070953,-4136.915689,1332.370696,13693.809927
1060.071272,-3524.039291,2072.576638,13545.768739
1060.071591,-1991.848295,3256.906145,11473.192101
1060.071910,-229.828649,3775.050304,8142.265362
1060.072228,1991.848295,3034.844362,5773.606348
1060.072547,3370.820191,1998.556043,3997.112087
1060.072866,4213.525239,-370.102971,3330.926739
1060.073185,4443.353888,-2368.659014,2738.761985
1060.073503,4443.353888,-3627.009116,5403.503377
1060.073822,2681.334243,-3404.947333,7328.038826
1060.074141,689.485948,-2886.803174,8956.491898
1060.074460,-1302.362347,-1924.535449,12583.501014
1060.074779,-2757.943793,518.144159,14211.954086
1060.075097,-3217.601092,1554.432478,14656.077652
1060.075416,-3524.039291,2738.761985,13989.892304
1060.075735,-2911.162892,3552.988522,14211.954086
1060.076054,-1991.848295,4219.173869,12065.356855
1060.076372,0.000000,3627.009116,8586.388927
1060.076691,1455.581446,2738.761985,7105.977043
1060.077010,3064.381992,1554.432478,5625.565159
1060.077329,4213.525239,-814.226536,4219.173869
1060.077648,4060.306139,-2220.617826,4737.318029
1060.077966,4290.134789,-2812.782580,7846.182985
1060.078285,2604.724693,-2072.576638,9252.574275
1060.078604,842.705048,-2072.576638,10584.944971
1060.078923,-612.876398,-814.226536,14063.912898
1060.079241,-2604.724693,1258.350101,14952.160028
1060.079560,-3140.991542,2442.679609,15248.242405
1060.079879,-2987.772442,4515.256246,13323.706956
1060.080198,-2068.457845,5625.565159,12731.542202
1060.080517,-919.314598,4737.318029,10436.903782
1060.080835,306.438199,3256.906145,8512.368333
1060.081154,1608.800546,1924.535449,6957.935855
1060.081473,3447.429741,-222.061783,5403.503377
1060.081792,3677.258390,-2590.720797,4885.359217
1060.082111,4213.525239,-3701.029710,6439.791695
1060.082429,3677.258390,-3034.844362,7846.182985
1060.082748,2145.067394,-2146.597232,9104.533087
1060.083067,766.095498,-1924.535449,11695.253884
1060.083386,-612.876398,1110.308913,13323.706956
1060.083704,-1915.238745,2442.679609,13471.748144
1060.084023,-2681.334243,2960.823768,12657.521608
1060.084342,-2834.553343,3627.009116,12953.603985
1060.084661,-2451.505594,3701.029710,11325.150913
1060.084980,-1072.533697,2516.700203,8956.491898
1060.085298,-229.828649,1332.370696,7624.121203
1060.085617,766.095498,-0.000000,6439.791695
1060.085936,2374.896044,-1332.370696,5033.400406
1060.086255,2451.505594,-2960.823768,4737.318029
1060.086573,2757.943793,-3775.050304,6587.832884
1060.086892,1608.800546,-3256.906145,7698.141797
1060.087211,612.876398,-3182.885551,9400.615463
1060.087530,-842.705048,-2368.659014,11843.295072
1060.087849,-2221.676944,-518.144159,13249.686362
1060.088167,-3447.429741,1110.308913,12287.418637
1060.088486,-3217.601092,2294.638420,11991.336260
1060.088805,-2221.676944,3330.926739,11103.089130
1060.089124,-1532.190996,3256.906145,9252.574275
1060.089442,383.047749,1554.432478,6809.894666
1060.089761,1608.800546,370.102971,5699.585753
1060.090080,3140.991542,-1406.391290,4737.318029
1060.090399,3294.210641,-3330.926739,3404.947333
1060.090718,3217.601092,-4737.318029,4219.173869
1060.091036,2604.724693,-4737.318029,6661.853478
1060.091355,1225.752797,-4293.194464,7846.182985
1060.091674,0.000000,-3034.844362,10066.800811
1060.091993,-1378.971896,-962.267725,12213.398043
1060.092311,-2221.676944,888.247130,13101.645173
1060.092630,-2298.286494,1702.473667,12065.356855
1060.092949,-2451.505594,2368.659014,11843.295072
1060.093268,-1762.019645,2812.782580,11251.130318
1060.093587,-306.438199,2442.679609,8734.430116
1060.093905,1225.752797,1850.514855,5995.668130
1060.094224,2757.943793,740.205942,5403.503377
1060.094543,3753.867940,-1258.350101,4663.297435
1060.094862,3677.258390,-3108.864956,3478.967927
1060.095180,3677.258390,-4367.215058,5107.421000
1060.095499,2757.943793,-3552.988522,7254.018232
1060.095818,919.314598,-2886.803174,8364.327145
1060.096137,-306.438199,-1998.556043,11325.150913
1060.096456,-2451.505594,592.164754,12731.542202
1060.096774,-2604.724693,1480.411884,14582.057057
1060.097093,-2911.162892,2516.700203,13175.665768
1060.097412,-2451.505594,3330.926739,13101.645173
1060.097731,-1378.971896,4219.173869,11325.150913
1060.098049,0.000000,4219.173869,8808.450710
1060.098368,1532.190996,3256.906145,6513.812290
1060.098687,2757.943793,2146.597232,5107.421000
1060.099006,3907.087040,296.082377,5107.421000
1060.099325,3524.039291,-1776.494261,4811.338623
1060.099643,2987.772442,-2368.659014,6809.894666
1060.099962,1991.848295,-2220.617826,8734.430116
1060.100281,153.219100,-1776.494261,10881.027347
1060.100600,-1302.362347,-1110.308913,13619.789333
1060.100918,-2757.943793,296.082377,15396.283594
1060.101237,-3217.601092,2442.679609,15100.201217
1060.101556,-2528.115143,3182.885551,14434.015869
1060.101875,-1762.019645,4959.379811,13397.727550
1060.102194,-459.657299,4367.215058,11695.253884
1060.102512,766.095498,3256.906145,8290.306550
1060.102831,2528.115143,2590.720797,6883.915261
1060.103150,3983.696590,1332.370696,5699.585753
1060.103469,4596.572988,-222.061783,3552.988522
1060.103787,4673.182538,-1850.514855,4811.338623
1060.104106,4060.306139,-2812.782580,7994.224174
1060.104425,2374.896044,-3256.906145,9104.533087
1060.104744,766.095498,-2516.700203,12065.356855
1060.105063,-1532.190996,-1036.288319,14730.098246
1060.105381,-2528.115143,592.164754,15026.180623
1060.105700,-3217.601092,1776.494261,14582.057057
1060.106019,-3217.601092,3034.844362,14285.974681
1060.106338,-1991.848295,3997.112087,12361.439231
1060.106657,-383.047749,4071.132681,9548.656652
1060.106975,1302.362347,2960.823768,7698.141797
1060.107294,2987.772442,1998.556043,5255.462188
1060.107613,3983.696590,-296.082377,3701.029710
1060.107932,3983.696590,-2516.700203,3182.885551
1060.108250,4519.963438,-4145.153275,5033.400406
1060.108569,2987.772442,-3552.988522,6513.812290
1060.108888,1225.752797,-3108.864956,8586.388927
1060.109207,0.000000,-3108.864956,11621.233289
1060.109526,-2757.943793,-444.123565,13249.686362
1060.109844,-3600.648841,222.061783,14285.974681
1060.110163,-4519.963438,1776.494261,13101.645173
1060.110482,-4290.134789,3182.885551,11843.295072
1060.110801,-2987.772442,3849.070898,10362.883188
1060.111119,-1378.971896,3849.070898,7772.162391
1060.111438,153.219100,2146.597232,5847.626942
1060.111757,1685.410096,370.102971,4515.256246
1060.112076,2834.553343,-2294.638420,3775.050304
1060.112395,3217.601092,-4071.132681,3701.029710
1060.112713,3294.210641,-4515.256246,5255.462188
1060.113032,2451.505594,-4441.235652,6883.915261
1060.113351,1685.410096,-3330.926739,9104.533087
1060.113670,-383.047749,-1924.535449,11325.150913
1060.113988,-1608.800546,296.082377,12213.398043
1060.114307,-2604.724693,1998.556043,12287.418637
1060.114626,-3064.381992,3034.844362,11399.171507
1060.114945,-2528.115143,3627.009116,10881.027347
1060.115264,-1685.410096,3701.029710,8808.450710
1060.115582,0.000000,2220.617826,7698.141797
1060.115901,1455.581446,888.247130,6513.812290
1060.116220,2911.162892,148.041188,4811.338623
1060.116539,3983.696590,-2220.617826,4071.132681
1060.116858,4519.963438,-3182.885551,5181.441594
1060.117177,4443.353888,-3627.009116,7994.224174
1060.117495,3064.381992,-2516.700203,8438.347739
1060.117814,1685.410096,-2072.576638,11029.068536
1060.118133,-153.219100,740.205942,12953.603985
1060.118452,-1302.362347,2738.761985,13027.624579
1060.118771,-1915.238745,3923.091493,12361.439231
1060.119090,-1762.019645,5033.400406,12583.501014
1060.119409,-1378.971896,5329.482782,10732.986159
1060.119727,-612.876398,4441.235652,8882.471304
1060.120046,459.657299,2738.761985,7846.182985
1060.120365,1685.410096,1480.411884,7105.977043
1060.120684,2604.724693,-666.185348,6587.832884
1060.121003,2528.115143,-2886.803174,6143.709319
1060.121322,2834.553343,-3256.906145,7624.121203
1060.121640,2298.286494,-2886.803174,8882.471304
1060.121959,1302.362347,-1628.453072,10658.965565
1060.122278,76.609550,-370.102971,12953.603985
1060.122597,-1302.362347,2146.597232,14137.933492
1060.122916,-1685.410096,3404.947333,13915.871710
1060.123235,-2145.067394,3997.112087,13397.727550
1060.123553,-2298.286494,4737.318029,12509.480420
1060.123872,-1225.752797,4959.379811,11325.150913
1060.124191,-229.828649,3775.050304,8660.409521
1060.124510,1149.143247,2516.700203,7254.018232
1060.124829,2834.553343,666.185348,7328.038826
1060.125148,3600.648841,-1628.453072,5329.482782
1060.125467,2757.943793,-3997.112087,6069.688724
1060.125785,2681.334243,-4071.132681,8364.327145
1060.126104,2068.457845,-3182.885551,9770.718434
1060.126423,689.485948,-2442.679609,11177.109724
1060.126742,-306.438199,222.061783,13619.789333
1060.127061,-1455.581446,2812.782580,14508.036463
1060.127380,-1532.190996,3627.009116,13693.809927
1060.127698,-1072.533697,5255.462188,12361.439231
1060.128017,0.000000,5995.668130,11103.089130
1060.128336,612.876398,4737.318029,8660.409521
1060.128655,2604.724693,3182.885551,6069.688724
1060.128974,3524.039291,1332.370696,5329.482782
1060.129293,4826.401637,-444.123565,4145.153275
1060.129612,4596.572988,-2368.659014,3330.926739
1060.129930,4136.915689,-3108.864956,4959.379811
1060.130249,2681.334243,-3627.009116,7328.038826
1060.130568,919.314598,-2516.700203,8734.430116
1060.130887,-689.485948,-1924.535449,11547.212695
1060.131206,-3064.381992,888.247130,13397.727550
1060.131525,-3600.648841,962.267725,14211.954086
1060.131843,-4290.134789,1924.535449,13323.706956
1060.132162,-3447.429741,2960.823768,13027.624579
1060.132481,-2374.896044,4367.215058,10140.821405
1060.132800,-612.876398,3552.988522,7402.059420
1060.133119,2068.457845,2368.659014,5477.523971
1060.133438,2681.334243,1110.308913,3997.112087
1060.133757,3907.087040,-962.267725,3552.988522
1060.134075,3907.087040,-3182.885551,2886.803174
1060.134394,3677.258390,-3923.091493,5181.441594
1060.134713,2374.896044,-3701.029710,7031.956449
1060.135032,306.438199,-3108.864956,8882.471304
1060.135351,-1608.800546,-2442.679609,11473.192101
1060.135670,-3600.648841,-296.082377,13397.727550
1060.135988,-3983.696590,444.123565,14137.933492
1060.136307,-4060.306139,1998.556043,13027.624579
1060.136626,-3600.648841,2886.803174,12509.480420
1060.136945,-2221.676944,3552.988522,10881.027347
1060.137264,-306.438199,3256.906145,8438.347739
1060.137583,1838.629195,2590.720797,6365.771101
1060.137901,3983.696590,2368.659014,4737.318029
1060.138220,5209.449386,-0.000000,3330.926739
1060.138539,5362.668486,-1776.494261,3923.091493
1060.138858,5822.325785,-2960.823768,6439.791695
1060.139177,3907.087040,-3627.009116,7698.141797
1060.139496,1915.238745,-3034.844362,9918.759623
1060.139815,-536.266849,-1406.391290,13471.748144
1060.140133,-2068.457845,888.247130,14211.954086
1060.140452,-2528.115143,2516.700203,14137.933492
1060.140771,-3370.820191,3775.050304,13545.768739
1060.141090,-2451.505594,4441.235652,13175.665768
1060.141409,-1455.581446,4811.338623,9844.739029
1060.141728,0.000000,3330.926739,7846.182985
1060.142046,1455.581446,2146.597232,6365.771101
1060.142365,3064.381992,296.082377,5181.441594
1060.142684,3677.258390,-1406.391290,4293.194464
1060.143003,3677.258390,-3478.967927,5773.606348
1060.143322,3217.601092,-3108.864956,8438.347739
1060.143641,2145.067394,-1776.494261,9104.533087
1060.143960,1072.533697,-296.082377,11695.253884
1060.144278,-766.095498,1110.308913,13989.892304
1060.144597,-1915.238745,2516.700203,14359.995275
1060.144916,-2451.505594,3627.009116,13323.706956
1060.145235,-3140.991542,4071.132681,12731.542202
1060.145554,-2528.115143,5033.400406,11991.336260
1060.145873,-1302.362347,4811.338623,9252.574275
1060.146191,76.609550,3182.885551,6735.874072
1060.146510,1991.848295,1258.350101,6513.812290
1060.146829,2528.115143,-1184.329507,5773.606348
1060.147148,3294.210641,-3552.988522,5255.462188
1060.147467,3447.429741,-4441.235652,7105.977043
1060.147786,2987.772442,-3627.009116,8808.450710
1060.148104,1838.629195,-2738.761985,10584.944971
1060.148423,1072.533697,-962.267725,12731.542202
1060.148742,-919.314598,1110.308913,13249.686362
1060.149061,-1225.752797,3108.864956,12953.603985
1060.149380,-1532.190996,4441.235652,11917.315666
1060.149699,-1072.533697,5255.462188,10732.986159
1060.150018,-842.705048,4737.318029,8882.471304
1060.150336,0.000000,3478.967927,7698.141797
1060.150655,1302.362347,1480.411884,6217.729913
1060.150974,2528.115143,-148.041188,5699.585753
1060.151293,3217.601092,-3330.926739,5625.565159
1060.151612,2987.772442,-4515.256246,6291.750507
1060.151931,2528.115143,-5329.482782,8512.368333
1060.152249,1762.019645,-4589.276840,9992.780217
1060.152568,383.047749,-3404.947333,11843.295072
1060.152887,-1455.581446,-592.164754,13101.645173
1060.153206,-2145.067394,2220.617826,12731.542202
1060.153525,-2451.505594,3552.988522,11769.274478
1060.153844,-1838.629195,4219.173869,10807.006753
1060.154163,-1225.752797,4367.215058,9696.697840
1060.154481,-153.219100,3552.988522,7846.182985
1060.154800,842.705048,1406.391290,5107.421000
1060.155119,2757.943793,-370.102971,4885.359217
1060.155438,2451.505594,-1702.473667,4811.338623
1060.155757,2528.115143,-3701.029710,3701.029710
1060.156076,1991.848295,-5255.462188,6291.750507
1060.156394,995.924147,-4219.173869,8142.265362
1060.156713,-153.219100,-3182.885551,9326.594869
1060.157032,-1838.629195,-1702.473667,11103.089130
1060.157351,-2987.772442,518.144159,13397.727550
1060.157670,-3524.039291,1702.473667,14434.015869
1060.157989,-3447.429741,4145.153275,11695.253884
1060.158308,-2068.457845,4811.338623,11103.089130
1060.158626,-536.266849,5921.647536,9696.697840
1060.158945,1302.362347,4663.297435,6735.874072
1060.159264,3370.820191,2738.761985,4441.235652
1060.159583,4213.525239,1332.370696,4515.256246
1060.159902,4826.401637,-1110.308913,3701.029710
1060.160221,4519.963438,-2738.761985,3478.967927
1060.160539,3753.867940,-3849.070898,6735.874072
1060.160858,1915.238745,-3701.029710,8882.471304
1060.161177,0.000000,-3108.864956,10658.965565
1060.161496,-2298.286494,-1406.391290,13767.830521
1060.161815,-3370.820191,518.144159,15322.262999
1060.162134,-4136.915689,2516.700203,15248.242405
1060.162452,-4136.915689,3923.091493,14211.954086
1060.162771,-2911.162892,4441.235652,13249.686362
1060.163090,-995.924147,5329.482782,10584.944971
1060.163409,1149.143247,4219.173869,7624.121203
1060.163728,2987.772442,2738.761985,6143.709319
1060.164047,4366.744339,222.061783,5403.503377
1060.164366,4519.963438,-2146.597232,4441.235652
1060.164684,4519.963438,-4219.173869,6143.709319
1060.165003,4060.306139,-3997.112087,8734.430116
1060.165322,2374.896044,-2960.823768,9474.636058
1060.165641,153.219100,-2072.576638,11695.253884
1060.165960,-1532.190996,-74.020594,14434.015869
1060.166279,-2681.334243,666.185348,15544.324782
1060.166597,-3753.867940,2220.617826,14508.036463
1060.166916,-4060.306139,2812.782580,13915.871710
1060.167235,-2298.286494,3627.009116,13397.727550
1060.167554,-1532.190996,3552.988522,10362.883188
1060.167873,536.266849,2368.659014,8142.265362
1060.168192,2451.505594,2146.597232,6291.750507
1060.168511,3524.039291,370.102971,4811.338623
1060.168829,4136.915689,-1702.473667,3997.112087
1060.169148,5056.230287,-2590.720797,5403.503377
1060.169467,4136.915689,-2886.803174,7476.080014
1060.169786,2374.896044,-2220.617826,8734.430116
1060.170105,766.095498,-1480.411884,11325.150913
1060.170424,-766.095498,370.102971,13915.871710
1060.170742,-2298.286494,1776.494261,13767.830521
1060.171061,-2911.162892,2516.700203,13101.645173
1060.171380,-3294.210641,3034.844362,11769.274478
1060.171699,-1838.629195,4071.132681,10510.924376
1060.172018,-995.924147,3182.885551,7772.162391
1060.172337,306.438199,1998.556043,5995.668130
1060.172655,2068.457845,888.247130,4663.297435
1060.172974,2834.553343,-1036.288319,3034.844362
1060.173293,3064.381992,-3256.906145,3627.009116
1060.173612,3370.820191,-4589.276840,6365.771101
1060.173931,2145.067394,-4589.276840,8956.491898
1060.174250,689.485948,-3997.112087,9178.553681
1060.174569,0.000000,-2146.597232,11917.315666
1060.174887,-2145.067394,-0.000000,13027.624579
1060.175206,-2374.896044,1554.432478,12583.501014
1060.175525,-2604.724693,3108.864956,11029.068536
1060.175844,-1608.800546,3701.029710,10214.842000
1060.176163,-612.876398,4515.256246,8290.306550
1060.176482,153.219100,3108.864956,6143.709319
1060.176800,1608.800546,1406.391290,5329.482782
1060.177119,2604.724693,-222.061783,4737.318029
1060.177438,2911.162892,-2664.741391,3923.091493
1060.177757,3217.601092,-4737.318029,5847.626942
1060.178076,2528.115143,-4737.318029,7994.224174
1060.178395,1762.019645,-3627.009116,9400.615463
1060.178714,612.876398,-2664.741391,11251.130318
1060.179032,-842.705048,-1110.308913,13323.706956
1060.179351,-1608.800546,962.267725,13989.892304
1060.179670,-2298.286494,2072.576638,12805.562797
1060.179989,-2298.286494,4071.132681,11325.150913
1060.180308,-766.095498,5551.544565,10066.800811
1060.180627,76.609550,4737.318029,8068.244768
1060.180945,1608.800546,3256.906145,6143.709319
1060.181264,2528.115143,1924.535449,5699.585753
1060.181583,3677.258390,-0.000000,5107.421000
1060.181902,2834.553343,-2516.700203,4959.379811
1060.182221,2834.553343,-4293.194464,7105.977043
1060.182540,1685.410096,-4811.338623,10214.842000
1060.182859,229.828649,-4663.297435,11251.130318
1060.183177,-1532.190996,-3552.988522,13249.686362
1060.183496,-2757.943793,-592.164754,14804.118840
1060.183815,-3830.477490,1406.391290,14285.974681
1060.184134,-3830.477490,3108.864956,13545.768739
1060.184453,-2834.553343,5255.462188,12213.398043
1060.184772,-2221.676944,5847.626942,11103.089130
1060.185090,-383.047749,5255.462188,8438.347739
1060.185409,1225.752797,3627.009116,7105.977043
1060.185728,3140.991542,1998.556043,6587.832884
1060.186047,3677.258390,-1184.329507,5181.441594
1060.186366,3830.477490,-3627.009116,4959.379811
1060.186685,3600.648841,-4885.359217,7994.224174
1060.187003,2374.896044,-4737.318029,9918.759623
1060.187322,1072.533697,-3330.926739,10658.965565
1060.187641,-306.438199,-1776.494261,13471.748144
1060.187960,-1915.238745,370.102971,14211.954086
1060.188279,-2451.505594,3034.844362,13767.830521
1060.188598,-2298.286494,5181.441594,12139.377449
1060.188917,-919.314598,6365.771101,11251.130318
1060.189235,536.266849,6365.771101,9400.615463
1060.189554,2451.505594,4885.359217,6439.791695
1060.189873,4060.306139,2812.782580,5329.482782
1060.190192,5209.449386,222.061783,4663.297435
1060.190511,5439.278036,-2146.597232,3552.988522
1060.190830,5056.230287,-3849.070898,4811.338623
1060.191148,4060.306139,-4071.132681,7550.100608
1060.191467,2298.286494,-3108.864956,9400.615463
1060.191786,459.657299,-1850.514855,11843.295072
1060.192105,-1762.019645,-74.020594,13175.665768
1060.192424,-2911.162892,1776.494261,13767.830521
1060.192743,-4366.744339,3256.906145,12583.501014
1060.193062,-4366.744339,3627.009116,12065.356855
1060.193380,-2757.943793,4441.235652,11177.109724
1060.193699,-2451.505594,4441.235652,8068.244768
1060.194018,153.219100,2738.761985,6439.791695
1060.194337,2145.067394,1332.370696,4589.276840
1060.194656,3217.601092,-1332.370696,4811.338623
1060.194975,3217.601092,-4367.215058,4145.153275
1060.195293,2757.943793,-5033.400406,6661.853478
1060.195612,2757.943793,-5181.441594,8734.430116
1060.195931,766.095498,-3478.967927,9178.553681
1060.196250,-459.657299,-2812.782580,11991.336260
1060.196569,-2451.505594,-370.102971,13693.809927
1060.196888,-3217.601092,2072.576638,12805.562797
1060.197206,-4443.353888,2368.659014,11843.295072
1060.197525,-2681.334243,3108.864956,12435.459826
1060.197844,-2451.505594,3701.029710,10732.986159
1060.198163,-842.705048,2812.782580,8660.409521
1060.198482,919.314598,962.267725,7254.018232
1060.198801,2911.162892,-0.000000,6143.709319
1060.199120,3907.087040,-1998.556043,4515.256246
1060.199438,4443.353888,-3849.070898,4589.276840
1060.199757,4443.353888,-4737.318029,6957.935855
1060.200076,3217.601092,-3997.112087,8216.285956
1060.200395,1608.800546,-2590.720797,10140.821405
1060.200714,459.657299,-1702.473667,12139.377449
1060.201033,-1455.581446,1184.329507,12287.418637
1060.201351,-1991.848295,2516.700203,12953.603985
1060.201670,-2221.676944,4145.153275,11695.253884
1060.201989,-1072.533697,4663.297435,11769.274478
1060.202308,-919.314598,4811.338623,9326.594869
1060.202627,306.438199,3849.070898,7994.224174
1060.202946,1685.410096,2738.761985,6217.729913
1060.203265,3217.601092,222.061783,5033.400406
1060.203583,3217.601092,-2368.659014,4885.359217
1060.203902,3064.381992,-3997.112087,5255.462188
1060.204221,2221.676944,-4145.153275,7920.203579
1060.204540,842.705048,-2960.823768,9548.656652
1060.204859,-306.438199,-2072.576638,11251.130318
1060.205178,-1608.800546,370.102971,13545.768739
1060.205496,-2451.505594,1924.535449,14211.954086
1060.205815,-3294.210641,3182.885551,12583.501014
1060.206134,-3217.601092,4515.256246,12287.418637
1060.206453,-1608.800546,5551.544565,10436.903782
1060.206772,-459.657299,5551.544565,8364.327145
1060.207091,1225.752797,4071.132681,6587.832884
1060.207410,2681.334243,2368.659014,6365.771101
1060.207728,3370.820191,-0.000000,5181.441594
1060.208047,3753.867940,-2220.617826,5477.523971
1060.208366,3677.258390,-3849.070898,7031.956449
1060.208685,2451.505594,-3330.926739,8808.450710
1060.209004,1225.752797,-2812.782580,10584.944971
1060.209323,-383.047749,-1332.370696,13027.624579
1060.209641,-1532.190996,518.144159,14211.954086
1060.209960,-1762.019645,1850.514855,13915.871710
1060.210279,-2298.286494,3552.988522,12657.521608
1060.210598,-1378.971896,4515.256246,11325.150913
1060.210917,-689.485948,4811.338623,9992.780217
1060.211236,1149.143247,4441.235652,7624.121203
1060.211554,2757.943793,2886.803174,5403.503377
1060.211873,4060.306139,962.267725,4811.338623
1060.212192,5056.230287,-1702.473667,4145.153275
1060.212511,4060.306139,-2886.803174,3404.947333
1060.212830,4136.915689,-3701.029710,6661.853478
1060.213149,2451.505594,-3478.967927,8808.450710
1060.213468,536.266849,-3330.926739,10881.027347
1060.213786,-766.095498,-2664.741391,14434.015869
1060.214105,-2528.115143,1184.329507,14952.160028
1060.214424,-2451.505594,3404.947333,14730.098246
1060.214743,-2374.896044,5699.585753,11473.192101
1060.215062,-1225.752797,6143.709319,11621.233289
1060.215381,0.000000,5773.606348,9030.512492
1060.215699,995.924147,4885.359217,6365.771101
1060.216018,2911.162892,3256.906145,4737.318029
1060.216337,3830.477490,592.164754,4441.235652
1060.216656,4213.525239,-2072.576638,3701.029710
1060.216975,3600.648841,-4441.235652,4885.359217
1060.217294,2681.334243,-6439.791695,8956.491898
1060.217612,306.438199,-5699.585753,10881.027347
1060.217931,-536.266849,-4885.359217,13397.727550
1060.218250,-2221.676944,-2072.576638,14359.995275
1060.218569,-4290.134789,962.267725,14656.077652
1060.218888,-4596.572988,2072.576638,14359.995275
1060.219206,-3524.039291,4959.379811,12065.356855
1060.219525,-2221.676944,4515.256246,10955.047942
1060.219844,-919.314598,5181.441594,8290.306550
1060.220163,612.876398,4071.132681,5921.647536
1060.220482,2528.115143,1184.329507,4959.379811
1060.220800,3447.429741,-1406.391290,5255.462188
1060.221119,3447.429741,-4737.318029,5255.462188
1060.221438,3294.210641,-5477.523971,6217.729913
1060.221757,2757.943793,-4959.379811,9030.512492
1060.222076,1762.019645,-3330.926739,10288.862594
1060.222394,842.705048,-1702.473667,12657.521608
1060.222713,-1762.019645,148.041188,13471.748144
1060.223032,-2987.772442,1110.308913,14137.933492
1060.223351,-4136.915689,2368.659014,12731.542202
1060.223670,-3140.991542,3997.112087,11621.233289
1060.223988,-2757.943793,5107.421000,9474.636058
1060.224307,-536.266849,5921.647536,6957.935855
1060.224626,1455.581446,4589.276840,4219.173869
1060.224945,3370.820191,2294.638420,4441.235652
1060.225264,4366.744339,-518.144159,4219.173869
1060.225582,3370.820191,-3478.967927,4663.297435
1060.225901,3370.820191,-4367.215058,7624.121203
1060.226220,1838.629195,-3997.112087,9770.718434
1060.226539,612.876398,-2886.803174,10214.842000
1060.226857,-689.485948,-592.164754,12509.480420
1060.227176,-2145.067394,888.247130,13767.830521
1060.227495,-2987.772442,2516.700203,13249.686362
1060.227814,-2987.772442,4737.318029,11103.089130
1060.228133,-2604.724693,6735.874072,10362.883188
1060.228451,-1838.629195,7031.956449,8586.388927
1060.228770,-766.095498,5403.503377,6661.853478
1060.229089,842.705048,2738.761985,5847.626942
1060.229408,2528.115143,148.041188,5773.606348
1060.229727,3370.820191,-2516.700203,5403.503377
1060.230045,3830.477490,-5329.482782,6661.853478
1060.230364,3217.601092,-6143.709319,9844.739029
1060.230683,2068.457845,-5255.462188,10584.944971
1060.231002,842.705048,-3034.844362,11769.274478
1060.231321,-229.828649,-1110.308913,14137.933492
1060.231639,-995.924147,1702.473667,14063.912898
1060.231958,-919.314598,4811.338623,11917.315666
1060.232277,-1149.143247,6883.915261,10584.944971
1060.232596,76.609550,7105.977043,10140.821405
1060.232915,842.705048,6143.709319,7550.100608
1060.233233,2145.067394,3330.926739,6143.709319
1060.233552,3370.820191,518.144159,6513.812290
1060.233871,3753.867940,-2738.761985,5181.441594
1060.234190,3983.696590,-4663.297435,5625.565159
1060.234509,3447.429741,-5995.668130,8290.306550
1060.234827,2528.115143,-5181.441594,10214.842000
1060.235146,1608.800546,-3775.050304,11029.068536
1060.235465,-153.219100,-1110.308913,13471.748144
1060.235784,-1608.800546,1332.370696,14137.933492
1060.236102,-2528.115143,3330.926739,12731.542202
1060.236421,-3294.210641,3997.112087,11843.295072
1060.236740,-2681.334243,4441.235652,11473.192101
1060.237059,-2068.457845,4811.338623,9400.615463
1060.237378,-1225.752797,3997.112087,7105.977043
1060.237696,536.266849,2368.659014,5699.585753
1060.238015,1762.019645,-0.000000,5551.544565
1060.238334,2987.772442,-1998.556043,4737.318029
1060.238653,2451.505594,-4367.215058,5699.585753
1060.238972,2298.286494,-5329.482782,8660.409521
1060.239290,1225.752797,-5107.421000,9474.636058
1060.239609,-306.438199,-3256.906145,10362.883188
1060.239928,-1685.410096,-1776.494261,12879.583391
1060.240247,-3370.820191,592.164754,13619.789333
1060.240566,-3753.867940,2368.659014,12731.542202
1060.240884,-3294.210641,4663.297435,11473.192101
1060.241203,-2298.286494,6217.729913,10510.924376
1060.241522,-842.705048,5773.606348,8364.327145
1060.241841,766.095498,4219.173869,6365.771101
1060.242160,2681.334243,2146.597232,5403.503377
1060.242478,4290.134789,-370.102971,4737.318029
1060.242797,4060.306139,-2886.803174,3923.091493
1060.243116,4596.572988,-5181.441594,6587.832884
1060.243435,3370.820191,-5773.606348,8808.450710
1060.243754,2145.067394,-4441.235652,9104.533087
1060.244072,1072.533697,-3552.988522,11917.315666
1060.244391,-842.705048,-666.185348,13693.809927
1060.244710,-2681.334243,1332.370696,12805.562797
1060.245029,-2604.724693,3701.029710,12731.542202
1060.245347,-2604.724693,5551.544565,11621.233289
1060.245666,-1225.752797,5995.668130,10214.842000
1060.245985,0.000000,5403.503377,7920.203579
1060.246304,1838.629195,3330.926739,6513.812290
1060.246623,2911.162892,1258.350101,4663.297435
1060.246941,3600.648841,-1702.473667,4219.173869
1060.247260,3600.648841,-3997.112087,5181.441594
1060.247579,3447.429741,-5477.523971,7105.977043
1060.247898,2298.286494,-5329.482782,9104.533087
1060.248217,766.095498,-3775.050304,10658.965565
1060.248535,-306.438199,-1554.432478,13693.809927
1060.248854,-1991.848295,1628.453072,13545.768739
1060.249173,-3217.601092,2960.823768,12953.603985
1060.249492,-3294.210641,4071.132681,12657.521608
1060.249811,-3064.381992,5477.523971,11473.192101
1060.250129,-2604.724693,5773.606348,9548.656652
1060.250448,-1762.019645,4737.318029,7846.182985
1060.250767,689.485948,3256.906145,5625.565159
1060.251086,1762.019645,1036.288319,4885.359217
1060.251405,2834.553343,-2220.617826,5551.544565
1060.251723,2298.286494,-4885.359217,6439.791695
1060.252042,1915.238745,-5403.503377,9326.594869
1060.252361,1608.800546,-4663.297435,10658.965565
1060.252680,689.485948,-3997.112087,12361.439231
1060.252999,-612.876398,-2146.597232,13915.871710
1060.253317,-1838.629195,888.247130,14434.015869
1060.253636,-2221.676944,3034.844362,12139.377449
1060.253955,-1225.752797,4885.359217,11473.192101
1060.254274,-919.314598,5995.668130,10658.965565
1060.254592,383.047749,6513.812290,8142.265362
1060.254911,1762.019645,5329.482782,5551.544565
1060.255230,3447.429741,2738.761985,5773.606348
1060.255549,4979.620737,-1480.411884,5921.647536
1060.255868,4443.353888,-3849.070898,4589.276840
1060.256186,4596.572988,-5773.606348,6957.935855
1060.256505,3753.867940,-5773.606348,9622.677246
1060.256824,2757.943793,-4737.318029,11399.171507
1060.257143,2298.286494,-3404.947333,13471.748144
1060.257462,459.657299,-0.000000,14508.036463
1060.257780,-995.924147,2146.597232,12879.583391
1060.258099,-1149.143247,4589.276840,11029.068536
1060.258418,-919.314598,5847.626942,9918.759623
1060.258737,0.000000,6735.874072,8512.368333
1060.259056,229.828649,5921.647536,5995.668130
1060.259374,1915.238745,3478.967927,5551.544565
1060.259693,3294.210641,814.226536,4515.256246
1060.260012,3140.991542,-1628.453072,4145.153275
1060.260331,2757.943793,-4441.235652,5107.421000
1060.260650,1838.629195,-5847.626942,7105.977043
1060.260968,383.047749,-5477.523971,9696.697840
1060.261287,-1685.410096,-4441.235652,11547.212695
1060.261606,-2451.505594,-2368.659014,13767.830521
1060.261925,-4290.134789,-666.185348,15026.180623
1060.262243,-4979.620737,1850.514855,14211.954086
1060.262562,-4903.011187,3256.906145,12583.501014
1060.262881,-4366.744339,5477.523971,10362.883188
1060.263200,-3140.991542,6217.729913,8660.409521
1060.263519,-1915.238745,5551.544565,6809.894666
1060.263837,153.219100,4293.194464,4663.297435
1060.264156,2068.457845,1628.453072,4589.276840
1060.264475,2451.505594,-2294.638420,4071.132681
1060.264794,2068.457845,-5995.668130,5921.647536
1060.265113,1991.848295,-7105.977043,9474.636058
1060.265431,1378.971896,-6809.894666,11177.109724
1060.265750,0.000000,-4885.359217,11547.212695
1060.266069,-1532.190996,-2368.659014,13915.871710
1060.266388,-2987.772442,-148.041188,14582.057057
1060.266707,-2145.067394,2812.782580,12731.542202
1060.267025,-1838.629195,5255.462188,11547.212695
1060.267344,-995.924147,6735.874072,10584.944971
1060.267663,229.828649,6291.750507,8142.265362
1060.267982,1991.848295,4737.318029,6291.750507
1060.268301,3983.696590,1702.473667,5329.482782
1060.268619,5362.668486,-1554.432478,4737.318029
1060.268938,5975.544884,-2960.823768,4811.338623
1060.269257,5975.544884,-5773.606348,5699.585753
1060.269576,4826.401637,-5847.626942,8734.430116
1060.269895,3753.867940,-4737.318029,11399.171507
1060.270213,1762.019645,-2368.659014,11325.150913
1060.270532,-612.876398,-888.247130,13101.645173
1060.270851,-2298.286494,2072.576638,13175.665768
1060.271170,-2911.162892,4737.318029,12583.501014
1060.271488,-3217.601092,5477.523971,11103.089130
1060.271807,-1532.190996,6069.688724,10584.944971
1060.272126,-1532.190996,5847.626942,8142.265362
1060.272445,76.609550,4959.379811,6735.874072
1060.272764,2221.676944,3404.947333,4811.338623
1060.273082,3140.991542,-518.144159,4219.173869
1060.273401,3064.381992,-3775.050304,5329.482782
1060.273720,2681.334243,-6291.750507,7105.977043
1060.274039,1762.019645,-5403.503377,8956.491898
1060.274358,995.924147,-3330.926739,9918.759623
1060.274676,-383.047749,-1036.288319,12731.542202
1060.274995,-1991.848295,1184.329507,13841.851115
1060.275314,-3677.258390,2516.700203,12435.459826
1060.275633,-3830.477490,4441.235652,11473.192101
1060.275952,-3217.601092,6365.771101,11029.068536
1060.276270,-2528.115143,7105.977043,9474.636058
1060.276589,-1225.752797,5403.503377,7402.059420
1060.276908,459.657299,3330.926739,6735.874072
1060.277227,2298.286494,222.061783,6809.894666
1060.277546,2987.772442,-3182.885551,5995.668130
1060.277864,3447.429741,-5699.585753,6735.874072
1060.278183,3753.867940,-6365.771101,9030.512492
1060.278502,3217.601092,-4663.297435,10362.883188
1060.278821,2374.896044,-2590.720797,10807.006753
1060.279140,1685.410096,-962.267725,13101.645173
1060.279458,-229.828649,962.267725,13545.768739
1060.279777,76.609550,3552.988522,12805.562797
1060.280096,-766.095498,5551.544565,10288.862594
1060.280415,76.609550,6439.791695,10214.842000
1060.280733,383.047749,5551.544565,8068.244768
1060.281052,1608.800546,3404.947333,6661.853478
1060.281371,2911.162892,1850.514855,6143.709319
1060.281690,3447.429741,-1480.411884,5329.482782
1060.282009,3524.039291,-4367.215058,5699.585753
1060.282327,2987.772442,-6439.791695,7772.162391
1060.282646,2298.286494,-6957.935855,10510.924376
1060.282965,766.095498,-5921.647536,11325.150913
1060.283284,-919.314598,-4293.194464,13915.871710
1060.283603,-1838.629195,-1184.329507,14359.995275
1060.283921,-2374.896044,1332.370696,14137.933492
1060.284240,-2681.334243,3478.967927,12435.459826
1060.284559,-2068.457845,5921.647536,10732.986159
1060.284878,-995.924147,7254.018232,8364.327145
1060.285197,-383.047749,6587.832884,5847.626942
1060.285515,1455.581446,4367.215058,5181.441594
1060.285834,1838.629195,1702.473667,4071.132681
1060.286153,2834.553343,-1628.453072,4145.153275
1060.286472,2221.676944,-4589.276840,4737.318029
1060.286791,1149.143247,-5995.668130,7476.080014
1060.287109,229.828649,-6217.729913,9622.677246
1060.287428,-1225.752797,-5033.400406,10881.027347
1060.287747,-2451.505594,-3478.967927,13989.892304
1060.288066,-3983.696590,-222.061783,14359.995275
1060.288385,-3983.696590,2294.638420,13989.892304
1060.288703,-3217.601092,5033.400406,11769.274478
1060.289022,-1838.629195,7402.059420,10066.800811
1060.289341,-1378.971896,7254.018232,7698.141797
1060.289660,536.266849,7105.977043,5773.606348
1060.289978,3217.601092,4811.338623,3923.091493
1060.290297,4673.182538,1924.535449,3701.029710
1060.290616,4903.011187,-1998.556043,3627.009116
1060.290935,4673.182538,-4219.173869,5403.503377
1060.291254,4290.134789,-6069.688724,8216.285956
1060.291572,2451.505594,-5329.482782,10288.862594
1060.291891,1302.362347,-4441.235652,11843.295072
1060.292210,0.000000,-1850.514855,14359.995275
1060.292529,-1378.971896,444.123565,14211.954086
1060.292848,-1838.629195,2146.597232,14137.933492
1060.293166,-2221.676944,5255.462188,12731.542202
1060.293485,-1149.143247,6217.729913,11251.130318
1060.293804,0.000000,6365.771101,7846.182985
1060.294123,919.314598,4441.235652,6291.750507
1060.294442,3294.210641,2960.823768,4959.379811
1060.294760,4596.572988,370.102971,3849.070898
1060.295079,5209.449386,-3182.885551,4811.338623
1060.295398,4290.134789,-5773.606348,7328.038826
1060.295717,3677.258390,-5625.565159,10658.965565
1060.296036,2145.067394,-4737.318029,10584.944971
1060.296354,306.438199,-2664.741391,12805.562797
1060.296673,-2068.457845,-518.144159,14211.954086
1060.296992,-2757.943793,1998.556043,13915.871710
1060.297311,-3447.429741,4737.318029,13027.624579
1060.297630,-3217.601092,6217.729913,11695.253884
1060.297948,-2528.115143,7179.997637,10066.800811
1060.298267,-1915.238745,6143.709319,8216.285956
1060.298586,76.609550,3997.112087,6735.874072
1060.298905,842.705048,1258.350101,5255.462188
1060.299223,1838.629195,-1850.514855,5551.544565
1060.299542,2834.553343,-3923.091493,6069.688724
1060.299861,3064.381992,-5181.441594,8364.327145
1060.300180,2757.943793,-5107.421000,9622.677246
1060.300499,1685.410096,-3478.967927,10881.027347
1060.300817,1378.971896,-1036.288319,12731.542202
1060.301136,306.438199,1110.308913,12435.459826
1060.301455,-842.705048,3627.009116,11843.295072
1060.301774,-1302.362347,5773.606348,10362.883188
1060.302093,-919.314598,7105.977043,9622.677246
1060.302411,-689.485948,6809.894666,7994.224174
1060.302730,459.657299,4737.318029,6809.894666
1060.303049,1762.019645,2812.782580,5329.482782
1060.303368,3064.381992,-0.000000,4885.359217
1060.303687,3217.601092,-4293.194464,5847.626942
1060.304005,3217.601092,-6809.894666,7550.100608
1060.304324,2757.943793,-7476.080014,10436.903782
1060.304643,1762.019645,-6143.709319,10807.006753
1060.304962,766.095498,-4145.153275,12361.439231
1060.305281,0.000000,-518.144159,13545.768739
1060.305599,-1072.533697,2442.679609,12065.356855
1060.305918,-1608.800546,4737.318029,10658.965565
1060.306237,-1532.190996,6809.894666,8808.450710
1060.306556,-459.657299,6661.853478,8364.327145
1060.306875,-1302.362347,6809.894666,6143.709319
1060.307193,0.000000,3775.050304,5995.668130
1060.307512,842.705048,1258.350101,5403.503377
1060.307831,1532.190996,-1998.556043,5699.585753
1060.308150,1302.362347,-4811.338623,5921.647536
1060.308468,995.924147,-6439.791695,8512.368333
1060.308787,229.828649,-6809.894666,11547.212695
1060.309106,-766.095498,-5107.421000,11547.212695
1060.309425,-1685.410096,-2442.679609,12287.418637
1060.309744,-1991.848295,-0.000000,14211.954086
1060.310062,-2987.772442,1998.556043,13175.665768
1060.310381,-3294.210641,4219.173869,10584.944971
1060.310700,-2681.334243,6365.771101,9474.636058
1060.311019,-2068.457845,7179.997637,7846.182985
1060.311338,-995.924147,6291.750507,6291.750507
1060.311656,383.047749,4145.153275,4737.318029
1060.311975,1762.019645,1406.391290,5403.503377
1060.312294,2451.505594,-2146.597232,6069.688724
1060.312613,2451.505594,-4589.276840,6439.791695
1060.312932,2451.505594,-6291.750507,9770.718434
1060.313250,1302.362347,-5995.668130,10955.047942
1060.313569,153.219100,-4515.256246,12287.418637
1060.313888,-459.657299,-2664.741391,13767.830521
1060.314207,-1149.143247,222.061783,14582.057057
1060.314526,-1149.143247,2664.741391,13323.706956
1060.314844,-1838.629195,4441.235652,11399.171507
1060.315163,-612.876398,6587.832884,10362.883188
1060.315482,536.266849,7254.018232,7994.224174
1060.315801,2451.505594,5921.647536,5995.668130
1060.316120,3907.087040,3108.864956,4737.318029
1060.316438,4749.792088,-74.020594,4441.235652
1060.316757,4903.011187,-3701.029710,4293.194464
1060.317076,4903.011187,-5551.544565,6365.771101
1060.317395,3064.381992,-6809.894666,9400.615463
1060.317714,2145.067394,-5329.482782,11399.171507
1060.318033,229.828649,-3034.844362,11769.274478
1060.318352,-1608.800546,-1554.432478,15100.201217
1060.318671,-2681.334243,962.267725,15026.180623
1060.318990,-3217.601092,3552.988522,13027.624579
1060.319309,-3064.381992,6143.709319,10658.965565
1060.319628,-1225.752797,7031.956449,10288.862594
1060.319947,-919.314598,6957.935855,8068.244768
1060.320266,995.924147,5699.585753,5625.565159
1060.320585,2451.505594,4441.235652,3701.029710
1060.320904,4136.915689,1998.556043,3330.926739
1060.321223,4443.353888,-814.226536,2886.803174
1060.321542,4366.744339,-3627.009116,5403.503377
1060.321861,2987.772442,-5329.482782,9178.553681
1060.322179,842.705048,-4367.215058,10140.821405
1060.322498,-306.438199,-3182.885551,12435.459826
1060.322817,-1915.238745,-1184.329507,14434.015869
1060.323136,-3524.039291,1406.391290,13693.809927
1060.323455,-3983.696590,3478.967927,12065.356855
1060.323774,-3677.258390,5625.565159,11621.233289
1060.324093,-2834.553343,6513.812290,9844.739029
1060.324412,-2145.067394,6513.812290,7105.977043
1060.324731,-383.047749,4811.338623,6587.832884
1060.325050,1762.019645,2072.576638,5625.565159
1060.325369,2757.943793,-1480.411884,5255.462188
1060.325688,2987.772442,-4737.318029,6217.729913
1060.326007,3064.381992,-7402.059420,9252.574275
1060.326326,3064.381992,-7476.080014,11103.089130
1060.326645,2374.896044,-5551.544565,11473.192101
1060.326964,1149.143247,-2442.679609,12509.480420
1060.327283,0.000000,-74.020594,13619.789333
1060.327602,-1455.581446,1480.411884,12879.583391
1060.327920,-2221.676944,3701.029710,10881.027347
1060.328239,-2298.286494,4885.359217,10140.821405
1060.328558,-2298.286494,5773.606348,8364.327145
1060.328877,-1532.190996,4441.235652,6883.915261
1060.329196,-153.219100,1554.432478,6587.832884
1060.329515,1302.362347,-962.267725,6513.812290
1060.329834,2068.457845,-4219.173869,6217.729913
1060.330153,2451.505594,-6735.874072,7402.059420
1060.330472,2298.286494,-7772.162391,10881.027347
1060.330791,1991.848295,-6069.688724,11325.150913
1060.331110,1378.971896,-3256.906145,11695.253884
1060.331429,306.438199,-740.205942,13693.809927
1060.331748,-689.485948,1628.453072,12361.439231
1060.332067,-1302.362347,4737.318029,10955.047942
1060.332386,-1608.800546,7254.018232,8068.244768
1060.332705,-1072.533697,8068.244768,7698.141797
1060.333024,-689.485948,7328.038826,6143.709319
1060.333343,153.219100,5255.462188,4959.379811
1060.333661,1149.143247,2146.597232,4737.318029
1060.333980,2374.896044,-1776.494261,5625.565159
1060.334299,1762.019645,-4441.235652,5847.626942
1060.334618,2221.676944,-6957.935855,8216.285956
1060.334937,1302.362347,-7179.997637,11103.089130
1060.335256,306.438199,-5995.668130,11843.295072
1060.335575,-842.705048,-3923.091493,12805.562797
1060.335894,-1838.629195,-592.164754,13989.892304
1060.336213,-2451.505594,1998.556043,11991.336260
1060.336532,-2145.067394,5033.400406,9844.739029
1060.336851,-1378.971896,7550.100608,8364.327145
1060.337170,-1072.533697,8660.409521,7105.977043
1060.337489,0.000000,7772.162391,5551.544565
1060.337808,1455.581446,5477.523971,4737.318029
1060.338127,2298.286494,1924.535449,5477.523971
1060.338446,2604.724693,-1776.494261,5699.585753
1060.338765,2374.896044,-5773.606348,7179.997637
1060.339084,2221.676944,-7179.997637,10362.883188
1060.339402,1685.410096,-7105.977043,12583.501014
1060.339721,689.485948,-5403.503377,13323.706956
1060.340040,-306.438199,-2738.761985,14656.077652
1060.340359,-842.705048,814.226536,14878.139434
1060.340678,-1378.971896,3627.009116,12361.439231
1060.340997,-842.705048,6143.709319,10288.862594
1060.341316,-153.219100,7846.182985,8734.430116
1060.341635,766.095498,8660.409521,6587.832884
1060.341954,1991.848295,6143.709319,5255.462188
1060.342273,3600.648841,3330.926739,5699.585753
1060.342592,4979.620737,-370.102971,5551.544565
1060.342911,4673.182538,-2960.823768,5477.523971
1060.343230,4290.134789,-5773.606348,8068.244768
1060.343549,3524.039291,-7105.977043,11103.089130
1060.343868,1762.019645,-5699.585753,11991.336260
1060.344187,229.828649,-3849.070898,13027.624579
1060.344506,-919.314598,-1258.350101,15026.180623
1060.344825,-2145.067394,1554.432478,14211.954086
1060.345143,-2451.505594,4071.132681,12435.459826
1060.345462,-2528.115143,5477.523971,10881.027347
1060.345781,-1378.971896,7031.956449,9326.594869
1060.346100,-1072.533697,6513.812290,7179.997637
1060.346419,612.876398,4737.318029,5255.462188
1060.346738,2451.505594,2294.638420,4663.297435
1060.347057,2987.772442,-888.247130,5033.400406
1060.347376,2757.943793,-5033.400406,5699.585753
1060.347695,2451.505594,-6809.894666,7772.162391
1060.348014,1685.410096,-6513.812290,10214.842000
1060.348333,76.609550,-5403.503377,11029.068536
1060.348652,-1608.800546,-3775.050304,12805.562797
1060.348971,-3217.601092,-740.205942,14137.933492
1060.349290,-4213.525239,1332.370696,13841.851115
1060.349609,-4366.744339,3627.009116,11843.295072
1060.349928,-3600.648841,5699.585753,10658.965565
1060.350247,-2451.505594,7031.956449,8956.491898
1060.350566,-842.705048,6217.729913,7402.059420
1060.350884,536.266849,4145.153275,5403.503377
1060.351203,2221.676944,1184.329507,4663.297435
1060.351522,3600.648841,-2516.700203,4885.359217
1060.351841,3830.477490,-5181.441594,5625.565159
1060.352160,3907.087040,-6957.935855,7772.162391
1060.352479,3140.991542,-6513.812290,9918.759623
1060.352798,1378.971896,-4441.235652,10214.842000
1060.353117,1072.533697,-2812.782580,11917.315666
1060.353436,-919.314598,222.061783,13101.645173
1060.353755,-1225.752797,2220.617826,12361.439231
1060.354074,-2145.067394,5107.421000,9992.780217
1060.354393,-1302.362347,6587.832884,9548.656652
1060.354712,-689.485948,6587.832884,8290.306550
1060.355031,306.438199,5477.523971,6365.771101
1060.355350,1838.629195,3256.906145,5329.482782
1060.355669,3370.820191,-74.020594,5033.400406
1060.355988,3907.087040,-3627.009116,5551.544565
1060.356307,4366.744339,-6217.729913,6957.935855
1060.356625,3447.429741,-7105.977043,9844.739029
1060.356944,2298.286494,-6143.709319,11251.130318
1060.357263,1225.752797,-4589.276840,11843.295072
1060.357582,153.219100,-1184.329507,13915.871710
1060.357901,-1302.362347,1924.535449,12583.501014
1060.358220,-1915.238745,4441.235652,11695.253884
1060.358539,-2451.505594,6661.853478,9844.739029
1060.358858,-1225.752797,7698.141797,8956.491898
1060.359177,-1378.971896,7031.956449,6957.935855
1060.359496,-383.047749,5181.441594,6513.812290
1060.359815,995.924147,2146.597232,5995.668130
1060.360134,1532.190996,-1406.391290,5625.565159
1060.360453,2221.676944,-4293.194464,6809.894666
1060.360772,2298.286494,-6291.750507,9548.656652
1060.361091,1762.019645,-6143.709319,11547.212695
1060.361410,919.314598,-4885.359217,12361.439231
1060.361729,383.047749,-2368.659014,14211.954086
1060.362048,-612.876398,-74.020594,14434.015869
1060.362366,-1149.143247,2812.782580,12435.459826
1060.362685,-1378.971896,5403.503377,10584.944971
1060.363004,-459.657299,7920.203579,9474.636058
1060.363323,-306.438199,8808.450710,7105.977043
1060.363642,1685.410096,7698.141797,5773.606348
1060.363961,1838.629195,5255.462188,4663.297435
1060.364280,2604.724693,1480.411884,5551.544565
1060.364599,2911.162892,-2590.720797,5773.606348
1060.364918,2451.505594,-5181.441594,7328.038826
1060.365237,2145.067394,-7179.997637,10807.006753
1060.365556,1302.362347,-6513.812290,12287.418637
1060.365875,-306.438199,-5551.544565,13471.748144
1060.366194,-459.657299,-2812.782580,15544.324782
1060.366513,-1532.190996,-0.000000,14878.139434
1060.366832,-1991.848295,2960.823768,12435.459826
1060.367151,-1685.410096,5847.626942,10140.821405
1060.367470,-842.705048,7698.141797,8364.327145
1060.367789,76.609550,8882.471304,5477.523971
1060.368108,1532.190996,7550.100608,3552.988522
1060.368426,2911.162892,3849.070898,3182.885551
1060.368745,4136.915689,-0.000000,4071.132681
1060.369064,3447.429741,-3997.112087,5255.462188
1060.369383,3217.601092,-7772.162391,8364.327145
1060.369702,1455.581446,-8882.471304,10881.027347
1060.370021,0.000000,-7402.059420,13471.748144
1060.370340,-1455.581446,-5107.421000,12731.542202
1060.370659,-2221.676944,-2368.659014,15396.283594
1060.370978,-2757.943793,666.185348,14137.933492
1060.371297,-3217.601092,3923.091493,11695.253884
1060.371616,-2834.553343,7105.977043,9622.677246
1060.371935,-2068.457845,8512.368333,7698.141797
1060.372254,-383.047749,7846.182985,5773.606348
1060.372573,1455.581446,5995.668130,4589.276840
1060.372892,2834.553343,2960.823768,3627.009116
1060.373211,4213.525239,-666.185348,4145.153275
1060.373530,3983.696590,-4071.132681,4737.318029
1060.373849,4060.306139,-7846.182985,8734.430116
1060.374167,2757.943793,-7772.162391,11177.109724
1060.374486,1685.410096,-6439.791695,11547.212695
1060.374805,-383.047749,-4737.318029,12583.501014
1060.375124,-2451.505594,-1776.494261,15026.180623
1060.375443,-3447.429741,1628.453072,13101.645173
1060.375762,-3370.820191,5773.606348,10362.883188
1060.376081,-2757.943793,7476.080014,9474.636058
1060.376400,-1685.410096,8142.265362,7624.121203
1060.376719,-995.924147,6883.915261,5995.668130
1060.377038,1991.848295,3627.009116,5477.523971
1060.377357,2757.943793,1480.411884,4071.132681
1060.377676,3677.258390,-2664.741391,5403.503377
1060.377995,3830.477490,-5329.482782,7031.956449
1060.378314,3370.820191,-7846.182985,10362.883188
1060.378633,2757.943793,-7105.977043,11621.233289
1060.378952,1149.143247,-3997.112087,11695.253884
1060.379271,612.876398,-1924.535449,13915.871710
1060.379590,-1149.143247,962.267725,13027.624579
1060.379908,-2451.505594,3627.009116,12731.542202
1060.380227,-2757.943793,5921.647536,11029.068536
1060.380546,-2604.724693,7328.038826,9770.718434
1060.380865,-1915.238745,7476.080014,7476.080014
1060.381184,-306.438199,5847.626942,7031.956449
1060.381503,1838.629195,3627.009116,6069.688724
1060.381822,3140.991542,444.123565,4589.276840
1060.382141,3753.867940,-3552.988522,5625.565159
1060.382460,3217.601092,-6291.750507,7846.182985
1060.382779,2987.772442,-7105.977043,10807.006753
1060.383098,2221.676944,-5329.482782,11399.171507
1060.383417,689.485948,-2886.803174,12583.501014
1060.383736,-459.657299,-518.144159,13841.851115
1060.384055,-2145.067394,2368.659014,12805.562797
1060.384374,-2451.505594,4589.276840,10881.027347
1060.384693,-2528.115143,6957.935855,9622.677246
1060.385012,-1378.971896,7920.203579,9622.677246
1060.385331,-1762.019645,7772.162391,6661.853478
1060.385649,0.000000,5699.585753,6439.791695
1060.385968,1991.848295,3108.864956,6513.812290
1060.386287,3294.210641,-1258.350101,5551.544565
1060.386606,3677.258390,-4663.297435,6291.750507
1060.386925,3217.601092,-7105.977043,9474.636058
1060.387244,3140.991542,-7179.997637,11991.336260
1060.387563,2068.457845,-5107.421000,10584.944971
1060.387882,1302.362347,-2590.720797,12953.603985
1060.388201,383.047749,-0.000000,14804.118840
1060.388520,-383.047749,2442.679609,11769.274478
1060.388839,-1302.362347,5403.503377,9474.636058
1060.389158,-919.314598,7031.956449,9030.512492
1060.389477,-842.705048,8438.347739,7179.997637
1060.389796,-229.828649,7476.080014,4959.379811
1060.390115,995.924147,4885.359217,5181.441594
1060.390434,2068.457845,1480.411884,5477.523971
1060.390753,2145.067394,-2886.803174,5847.626942
1060.391072,1838.629195,-5625.565159,8142.265362
1060.391390,1915.238745,-8068.244768,10732.986159
1060.391709,1072.533697,-6513.812290,12213.398043
1060.392028,153.219100,-4737.318029,13767.830521
1060.392347,-306.438199,-3108.864956,14878.139434
1060.392666,-1532.190996,-0.000000,13989.892304
1060.392985,-1991.848295,3627.009116,11695.253884
1060.393304,-1838.629195,6735.874072,9252.574275
1060.393623,-766.095498,8290.306550,7624.121203
1060.393942,-995.924147,7920.203579,5181.441594
1060.394261,-536.266849,5329.482782,5329.482782
1060.394580,536.266849,2368.659014,4811.338623
1060.394899,1302.362347,-1110.308913,5107.421000
1060.395218,1685.410096,-5181.441594,5847.626942
1060.395537,1378.971896,-7698.141797,8956.491898
1060.395856,459.657299,-8512.368333,12139.377449
1060.396175,0.000000,-7179.997637,12805.562797
1060.396494,-229.828649,-4737.318029,12953.603985
1060.396813,-766.095498,-592.164754,14804.118840
1060.397131,-1378.971896,1924.535449,13619.789333
1060.397450,-1378.971896,4737.318029,11177.109724
1060.397769,-1149.143247,7624.121203,8956.491898
1060.398088,-536.266849,8142.265362,7179.997637
1060.398407,0.000000,7994.224174,4811.338623
1060.398726,1838.629195,5255.462188,4367.215058
1060.399045,2451.505594,1776.494261,3923.091493
1060.399364,3370.820191,-2664.741391,3997.112087
1060.399683,2834.553343,-5995.668130,6069.688724
1060.400002,2528.115143,-8586.388927,9548.656652
1060.400321,1455.581446,-8216.285956,11769.274478
1060.400640,612.876398,-7031.956449,12953.603985
1060.400959,0.000000,-4219.173869,14063.912898
1060.401278,-1915.238745,-888.247130,15470.304188
1060.401597,-2987.772442,1406.391290,12879.583391
1060.401916,-2834.553343,5403.503377,10881.027347
1060.402235,-1915.238745,7624.121203,8882.471304
1060.402554,-1455.581446,9696.697840,6735.874072
1060.402872,0.000000,8142.265362,4663.297435
1060.403191,1762.019645,5921.647536,3997.112087
1060.403510,3370.820191,2812.782580,2812.782580
1060.403829,4213.525239,-2368.659014,4367.215058
1060.404148,3753.867940,-5551.544565,6661.853478
1060.404467,3447.429741,-8290.306550,10362.883188
1060.404786,2068.457845,-7031.956449,11991.336260
1060.405105,766.095498,-4737.318029,12805.562797
1060.405424,153.219100,-2664.741391,15026.180623
1060.405743,-1838.629195,1406.391290,13619.789333
1060.406062,-1915.238745,4515.256246,12583.501014
1060.406381,-1685.410096,8364.327145,9400.615463
1060.406700,-1762.019645,9326.594869,8216.285956
1060.407019,-919.314598,9030.512492,6439.791695
1060.407338,612.876398,7105.977043,5107.421000
1060.407657,2298.286494,4145.153275,5107.421000
1060.407976,3600.648841,-444.123565,4589.276840
1060.408295,3983.696590,-4145.153275,5773.606348
1060.408613,4290.134789,-7031.956449,8734.430116
1060.408932,3677.258390,-7772.162391,11843.295072
1060.409251,2298.286494,-6513.812290,13249.686362
1060.409570,842.705048,-4663.297435,13989.892304
1060.409889,-612.876398,-962.267725,14656.077652
1060.410208,-2068.457845,2294.638420,13693.809927
1060.410527,-2451.505594,4441.235652,11621.233289
1060.410846,-2987.772442,6291.750507,9844.739029
1060.411165,-1762.019645,7624.121203,8882.471304
1060.411484,-1378.971896,6957.935855,6069.688724
1060.411803,612.876398,5181.441594,5625.565159
1060.412122,2068.457845,1998.556043,5403.503377
1060.412441,2911.162892,-2368.659014,6291.750507
1060.412760,3064.381992,-5477.523971,7772.162391
1060.413079,2451.505594,-8142.265362,9992.780217
1060.413398,1532.190996,-8216.285956,12805.562797
1060.413717,995.924147,-6587.832884,13027.624579
1060.414036,0.000000,-3552.988522,14508.036463
1060.414354,-1991.848295,-814.226536,14285.974681
1060.414673,-2834.553343,1998.556043,12879.583391
1060.414992,-2987.772442,5181.441594,9918.759623
1060.415311,-2451.505594,7328.038826,8290.306550
1060.415630,-1608.800546,8438.347739,6809.894666
1060.415949,-766.095498,7328.038826,5107.421000
1060.416268,995.924147,4737.318029,4589.276840
1060.416587,1915.238745,1110.308913,4737.318029
1060.416906,2374.896044,-2886.803174,5255.462188
1060.417225,2681.334243,-5847.626942,7105.977043
1060.417544,2528.115143,-8068.244768,10288.862594
1060.417863,1378.971896,-7550.100608,12139.377449
1060.418182,459.657299,-6217.729913,12435.459826
1060.418501,-766.095498,-3256.906145,14137.933492
1060.418820,-1378.971896,-0.000000,14211.954086
1060.419138,-2911.162892,3034.844362,11029.068536
1060.419457,-2604.724693,6587.832884,9252.574275
1060.419776,-1225.752797,8956.491898,7994.224174
1060.420095,-383.047749,9252.574275,4959.379811
1060.420414,1378.971896,5921.647536,4959.379811
1060.420733,2374.896044,3256.906145,4145.153275
1060.421051,3830.477490,-1184.329507,4219.173869
1060.421370,3907.087040,-4885.359217,4515.256246
1060.421689,4213.525239,-7254.018232,7772.162391
1060.422008,2987.772442,-8882.471304,10510.924376
1060.422327,2451.505594,-6439.791695,10732.986159
1060.422646,1149.143247,-3404.947333,11769.274478
1060.422964,76.609550,-1036.288319,14582.057057
1060.423283,-1532.190996,2368.659014,12213.398043
1060.423602,-1532.190996,5181.441594,10658.965565
1060.423921,-1915.238745,7550.100608,8956.491898
1060.424240,-1072.533697,7920.203579,8068.244768
1060.424559,-1149.143247,8142.265362,5329.482782
1060.424878,1072.533697,5181.441594,4885.359217
1060.425196,2068.457845,2812.782580,4367.215058
1060.425515,3064.381992,-1406.391290,5255.462188
1060.425834,3064.381992,-4071.132681,6883.915261
1060.426153,2528.115143,-6587.832884,9622.677246
1060.426472,1838.629195,-7846.182985,12509.480420
1060.426791,229.828649,-5847.626942,12879.583391
1060.427109,-383.047749,-3330.926739,14656.077652
1060.427428,-2221.676944,-296.082377,14063.912898
1060.427747,-2911.162892,1702.473667,13323.706956
1060.428066,-2834.553343,4811.338623,11769.274478
1060.428385,-1991.848295,7994.224174,9770.718434
1060.428704,-1762.019645,9030.512492,7550.100608
1060.429023,-229.828649,7550.100608,6735.874072
1060.429341,1762.019645,4589.276840,5847.626942
1060.429660,2451.505594,1184.329507,5477.523971
1060.429979,3140.991542,-3108.864956,5773.606348
1060.430298,3140.991542,-5921.647536,7772.162391
1060.430617,2757.943793,-7994.224174,10881.027347
1060.430936,2298.286494,-7920.203579,13915.871710
1060.431254,1378.971896,-6069.688724,14434.015869
1060.431573,306.438199,-1998.556043,14804.118840
1060.431892,-919.314598,1480.411884,14211.954086
1060.432211,-1762.019645,4145.153275,11547.212695
1060.432530,-1608.800546,6957.935855,10288.862594
1060.432849,-1072.533697,8216.285956,8882.471304
1060.433168,-995.924147,8734.430116,6069.688724
1060.433486,229.828649,6365.771101,5107.421000
1060.433805,2068.457845,3552.988522,5107.421000
1060.434124,2757.943793,-518.144159,4737.318029
1060.434443,3370.820191,-4737.318029,6069.688724
1060.434762,3140.991542,-7402.059420,8364.327145
1060.435081,1915.238745,-9178.553681,11917.315666
1060.435399,1762.019645,-7994.224174,12509.480420
1060.435718,1072.533697,-4071.132681,14211.954086
1060.436037,-383.047749,-888.247130,15100.201217
1060.436356,-1685.410096,1998.556043,12213.398043
1060.436675,-2221.676944,5181.441594,10510.924376
1060.436994,-2221.676944,7698.141797,7994.224174
1060.437313,-1072.533697,8660.409521,5921.647536
1060.437631,-459.657299,7550.100608,4219.173869
1060.437950,1302.362347,5033.400406,3997.112087
1060.438269,2145.067394,1924.535449,2664.741391
1060.438588,2681.334243,-2812.782580,4515.256246
1060.438907,3064.381992,-6143.709319,6217.729913
1060.439226,2221.676944,-8512.368333,9400.615463
1060.439544,1302.362347,-7994.224174,11325.150913
1060.439863,459.657299,-6365.771101,11917.315666
1060.440182,-689.485948,-3997.112087,14359.995275
1060.440501,-2451.505594,-1702.473667,14137.933492
1060.440820,-3447.429741,888.247130,12657.521608
1060.441139,-3600.648841,4737.318029,9918.759623
1060.441458,-2451.505594,7254.018232,8290.306550
1060.441776,-1455.581446,9474.636058,6069.688724
1060.442095,-536.266849,8586.388927,4589.276840
1060.442414,2145.067394,6291.750507,3404.947333
1060.442733,3217.601092,2294.638420,3256.906145
1060.443052,4826.401637,-2738.761985,5329.482782
1060.443371,4060.306139,-6217.729913,7105.977043
1060.443689,3294.210641,-7550.100608,10436.903782
1060.444008,1991.848295,-7994.224174,12731.542202
1060.444327,459.657299,-6661.853478,13323.706956
1060.444646,-229.828649,-4145.153275,15766.386565
1060.444965,-2145.067394,-222.061783,14952.160028
1060.445284,-2221.676944,2738.761985,12287.418637
1060.445603,-2911.162892,6513.812290,9992.780217
1060.445921,-689.485948,8216.285956,9474.636058
1060.446240,-1225.752797,8290.306550,6069.688724
1060.446559,153.219100,6809.894666,5773.606348
1060.446878,2298.286494,3627.009116,5255.462188
1060.447197,4213.525239,-148.041188,4663.297435
1060.447516,4596.572988,-4367.215058,5329.482782
1060.447834,4596.572988,-6661.853478,9252.574275
1060.448153,3830.477490,-8290.306550,12361.439231
1060.448472,2987.772442,-6365.771101,13323.706956
1060.448791,1455.581446,-3701.029710,13471.748144
1060.449110,-383.047749,-666.185348,15840.407159
1060.449429,-1991.848295,2368.659014,14063.912898
1060.449747,-2374.896044,5477.523971,11547.212695
1060.450066,-2374.896044,8142.265362,9400.615463
1060.450385,-1838.629195,7994.224174,8216.285956
1060.450704,-1608.800546,7328.038826,6291.750507
1060.451023,0.000000,5551.544565,6365.771101
1060.451342,1608.800546,2516.700203,5181.441594
1060.451661,2834.553343,-1036.288319,5625.565159
1060.451979,2604.724693,-4737.318029,7402.059420
1060.452298,3064.381992,-7402.059420,10214.842000
1060.452617,2604.724693,-7105.977043,12583.501014
1060.452936,1685.410096,-4293.194464,11917.315666
1060.453255,1302.362347,-2072.576638,14137.933492
1060.453574,-1378.971896,1406.391290,13545.768739
1060.453892,-1685.410096,3701.029710,10807.006753
1060.454211,-2145.067394,7179.997637,8734.430116
1060.454530,-1991.848295,8216.285956,8586.388927
1060.454849,-1149.143247,8216.285956,6957.935855
1060.455168,-612.876398,6883.915261,5033.400406
1060.455487,689.485948,3997.112087,5551.544565
1060.455806,2068.457845,888.247130,4737.318029
1060.456124,2757.943793,-3997.112087,5921.647536
1060.456443,2987.772442,-7328.038826,8438.347739
1060.456762,2451.505594,-8882.471304,11177.109724
1060.457081,2374.896044,-8364.327145,12583.501014
1060.457400,1302.362347,-6217.729913,12435.459826
1060.457719,229.828649,-2812.782580,13693.809927
1060.458037,-1532.190996,-74.020594,12731.542202
1060.458356,-2604.724693,3108.864956,10288.862594
1060.458675,-1378.971896,7031.956449,8142.265362
1060.458994,-1378.971896,8956.491898,7105.977043
1060.459313,-383.047749,8586.388927,5033.400406
1060.459632,306.438199,6217.729913,4737.318029
1060.459951,1915.238745,2368.659014,5551.544565
1060.460269,2451.505594,-2072.576638,5107.421000
1060.460588,2451.505594,-6439.791695,6365.771101
1060.460907,2374.896044,-8438.347739,9548.656652
1060.461226,1915.238745,-8216.285956,12361.439231
1060.461545,1225.752797,-5995.668130,11843.295072
1060.461864,536.266849,-3997.112087,13323.706956
1060.462182,-766.095498,-1406.391290,14730.098246
1060.462501,-1302.362347,1184.329507,12065.356855
1060.462820,-2068.457845,5921.647536,9696.697840
1060.463139,-1302.362347,8290.306550,8068.244768
1060.463458,-766.095498,9474.636058,6439.791695
1060.463777,0.000000,8290.306550,3997.112087
1060.464096,2221.676944,5995.668130,4219.173869
1060.464414,3447.429741,2442.679609,2960.823768
1060.464733,3753.867940,-2146.597232,4145.153275
1060.465052,3753.867940,-5477.523971,6735.874072
1060.465371,2451.505594,-7846.182985,10510.924376
1060.465690,766.095498,-8586.388927,12509.480420
1060.466009,-383.047749,-7105.977043,13545.768739
1060.466327,-1225.752797,-4071.132681,16062.468941
1060.466646,-2681.334243,-1110.308913,15026.180623
1060.466965,-3217.601092,3034.844362,12953.603985
1060.467284,-2987.772442,5847.626942,11103.089130
1060.467603,-2145.067394,7846.182985,9326.594869
1060.467922,-1302.362347,9474.636058,6587.832884
1060.468241,0.000000,8290.306550,5995.668130
1060.468559,2068.457845,5107.421000,5477.523971
1060.468878,3370.820191,1702.473667,4589.276840
1060.469197,4213.525239,-2738.761985,5921.647536
1060.469516,4673.182538,-5699.585753,7920.203579
1060.469835,3600.648841,-7179.997637,11325.150913
1060.470154,2604.724693,-7328.038826,13545.768739
1060.470472,1302.362347,-5921.647536,14211.954086
1060.470791,0.000000,-2590.720797,15544.324782
1060.471110,-2528.115143,148.041188,15026.180623
1060.471429,-2681.334243,2812.782580,12435.459826
1060.471748,-2834.553343,6513.812290,9844.739029
1060.472067,-2221.676944,8586.388927,8882.471304
1060.472385,-1762.019645,9918.759623,5329.482782
1060.472704,0.000000,8068.244768,4367.215058
1060.473023,1838.629195,4885.359217,4145.153275
1060.473342,3064.381992,1332.370696,4515.256246
1060.473661,3524.039291,-3404.947333,5329.482782
1060.473980,3524.039291,-6365.771101,8438.347739
1060.474299,2834.553343,-8438.347739,12953.603985
1060.474617,1762.019645,-6883.915261,14211.954086
1060.474936,76.609550,-4737.318029,14952.160028
1060.475255,-919.314598,-1258.350101,15914.427753
1060.475574,-2221.676944,2072.576638,13397.727550
1060.475893,-1991.848295,6069.688724,10732.986159
1060.476212,-1225.752797,9178.553681,8438.347739
1060.476530,-919.314598,8956.491898,6661.853478
1060.476849,0.000000,7624.121203,4663.297435
1060.477168,1685.410096,5477.523971,3701.029710
1060.477487,3217.601092,1628.453072,2146.597232
1060.477806,3753.867940,-3404.947333,3552.988522
1060.478125,3217.601092,-6661.853478,5995.668130
1060.478444,2757.943793,-9252.574275,10214.842000
1060.478762,1762.019645,-8512.368333,13027.624579
1060.479081,536.266849,-6069.688724,12657.521608
1060.479400,-689.485948,-3775.050304,14582.057057
1060.479719,-3370.820191,-1332.370696,15100.201217
1060.480038,-4213.525239,518.144159,13471.748144
1060.480357,-4443.353888,3849.070898,10436.903782
1060.480675,-4903.011187,7179.997637,7402.059420
1060.480994,-2681.334243,8068.244768,6587.832884
1060.481313,-1762.019645,7624.121203,5847.626942
1060.481632,689.485948,4737.318029,4441.235652
1060.481951,2757.943793,1480.411884,3404.947333
1060.482270,2681.334243,-3701.029710,5847.626942
1060.482589,2834.553343,-8068.244768,7846.182985
1060.482907,2451.505594,-8882.471304,10881.027347
1060.483226,1991.848295,-8290.306550,14211.954086
1060.483545,1378.971896,-5773.606348,12435.459826
1060.483864,689.485948,-2664.741391,13323.706956
1060.484183,-1455.581446,-888.247130,13619.789333
1060.484502,-1762.019645,2960.823768,10214.842000
1060.484820,-2221.676944,7105.977043,7254.018232
1060.485139,-1455.581446,8512.368333,6809.894666
1060.485458,-1608.800546,8882.471304,5033.400406
1060.485777,-383.047749,6883.915261,4663.297435
1060.486096,1302.362347,3256.906145,4885.359217
1060.486415,3370.820191,-518.144159,5329.482782
1060.486734,4673.182538,-4737.318029,6513.812290
1060.487052,4136.915689,-6439.791695,9178.553681
1060.487371,2834.553343,-8068.244768,12657.521608
1060.487690,2221.676944,-7328.038826,12731.542202
1060.488009,689.485948,-4589.276840,13841.851115
1060.488328,-383.047749,-888.247130,16284.530724
1060.488647,-1149.143247,3256.906145,11547.212695
1060.488965,-1149.143247,7402.059420,8660.409521
1060.489284,-1149.143247,9474.636058,7402.059420
1060.489603,-995.924147,9400.615463,6883.915261
1060.489922,-612.876398,9030.512492,4219.173869
1060.490241,689.485948,5921.647536,5329.482782
1060.490560,1378.971896,1628.453072,5551.544565
1060.490879,2757.943793,-2368.659014,6143.709319
1060.491197,2528.115143,-5921.647536,8290.306550
1060.491516,2221.676944,-7772.162391,12139.377449
1060.491835,1302.362347,-7920.203579,13915.871710
1060.492154,536.266849,-5773.606348,14656.077652
1060.492473,0.000000,-3182.885551,15322.262999
1060.492792,-1915.238745,370.102971,14878.139434
1060.493110,-2757.943793,4145.153275,12435.459826
1060.493429,-1915.238745,7254.018232,9104.533087
1060.493748,-1685.410096,9548.656652,7624.121203
1060.494067,76.609550,9770.718434,6069.688724
1060.494386,689.485948,9030.512492,4441.235652
1060.494705,2528.115143,5551.544565,4737.318029
1060.495024,3370.820191,518.144159,5181.441594
1060.495342,3600.648841,-3923.091493,6439.791695
1060.495661,3064.381992,-7105.977043,9474.636058
1060.495980,2681.334243,-7846.182985,12731.542202
1060.496299,1532.190996,-7105.977043,13027.624579
1060.496618,1149.143247,-5329.482782,15470.304188
1060.496937,0.000000,-3182.885551,16358.551318
1060.497255,-842.705048,1036.288319,13249.686362
1060.497574,-1532.190996,4145.153275,10807.006753
1060.497893,-1838.629195,6661.853478,8882.471304
1060.498212,-1149.143247,7550.100608,7328.038826
1060.498531,-919.314598,8586.388927,3775.050304
1060.498850,536.266849,5921.647536,4071.132681
1060.499168,2757.943793,3330.926739,4441.235652
1060.499487,3294.210641,-888.247130,4071.132681
1060.499806,3524.039291,-5181.441594,5329.482782
1060.500125,2681.334243,-8512.368333,9844.739029
1060.500444,1455.581446,-9030.512492,12953.603985
1060.500763,306.438199,-9104.533087,12731.542202
1060.501082,-1302.362347,-5921.647536,14878.139434
1060.501400,-2221.676944,-2590.720797,16506.592507
1060.501719,-3524.039291,1554.432478,12953.603985
1060.502038,-2451.505594,4959.379811,10732.986159
1060.502357,-2911.162892,6883.915261,7994.224174
1060.502676,-2298.286494,8956.491898,5181.441594
1060.502995,-919.314598,8882.471304,3404.947333
1060.503313,1378.971896,5625.565159,2664.741391
1060.503632,2374.896044,2294.638420,2812.782580
1060.503951,3830.477490,-3330.926739,4663.297435
1060.504270,2911.162892,-6439.791695,5773.606348
1060.504589,2911.162892,-8808.450710,9770.718434
1060.504908,1685.410096,-8586.388927,12879.583391
1060.505227,995.924147,-6217.729913,12065.356855
1060.505545,0.000000,-3404.947333,13545.768739
1060.505864,-3140.991542,-74.020594,15174.221811
1060.506183,-3370.820191,1850.514855,13249.686362
1060.506502,-3524.039291,5921.647536,11103.089130
1060.506821,-2451.505594,8808.450710,8142.265362
1060.507140,-1685.410096,9252.574275,6217.729913
1060.507458,-995.924147,7550.100608,5329.482782
1060.507777,1762.019645,5181.441594,3775.050304
1060.508096,3677.258390,1406.391290,3182.885551
1060.508415,4366.744339,-3478.967927,4885.359217
1060.508734,4290.134789,-6735.874072,7550.100608
1060.509053,3753.867940,-8142.265362,11103.089130
1060.509372,2528.115143,-7105.977043,13471.748144
1060.509690,1455.581446,-5181.441594,13545.768739
1060.510009,0.000000,-3034.844362,15396.283594
1060.510328,-2298.286494,-370.102971,15396.283594
1060.510647,-2834.553343,2590.720797,12879.583391
1060.510966,-2987.772442,6587.832884,10436.903782
1060.511285,-2451.505594,7772.162391,8882.471304
1060.511603,-1455.581446,8734.430116,5773.606348
1060.511922,536.266849,7550.100608,4663.297435
1060.512241,2681.334243,5625.565159,3775.050304
1060.512560,4213.525239,888.247130,3404.947333
1060.512879,4903.011187,-3923.091493,5477.523971
1060.513198,3907.087040,-7624.121203,10066.800811
1060.513517,3294.210641,-9030.512492,13619.789333
1060.513835,2068.457845,-7179.997637,14434.015869
1060.514154,459.657299,-5033.400406,14359.995275
1060.514473,-1072.533697,-1554.432478,15396.283594
1060.514792,-2145.067394,2516.700203,13101.645173
1060.515111,-1302.362347,6069.688724,10436.903782
1060.515430,-2298.286494,9548.656652,8660.409521
1060.515748,-1149.143247,10140.821405,6957.935855
1060.516067,-1149.143247,9992.780217,3775.050304
1060.516386,1072.533697,6809.894666,4959.379811
1060.516705,1991.848295,2368.659014,3997.112087
1060.517024,3447.429741,-2146.597232,4145.153275
1060.517343,3677.258390,-5329.482782,6883.915261
1060.517662,3600.648841,-7550.100608,11177.109724
1060.517980,2911.162892,-8216.285956,13101.645173
1060.518299,2374.896044,-6661.853478,13249.686362
1060.518618,842.705048,-3552.988522,14211.954086
1060.518937,-1378.971896,444.123565,13915.871710
1060.519256,-2451.505594,3330.926739,11177.109724
1060.519575,-3064.381992,6439.791695,9474.636058
1060.519894,-3217.601092,8808.450710,7402.059420
1060.520213,-2834.553343,8290.306550,5773.606348
1060.520531,-1608.800546,7772.162391,4663.297435
1060.520850,0.000000,3404.947333,5625.565159
1060.521169,1072.533697,222.061783,5033.400406
1060.521488,2451.505594,-5181.441594,7994.224174
1060.521807,2451.505594,-8808.450710,11251.130318
1060.522126,2757.943793,-10510.924376,14359.995275
1060.522445,2911.162892,-9474.636058,14508.036463
1060.522764,2451.505594,-6957.935855,14211.954086
1060.523083,1532.190996,-3330.926739,15248.242405
1060.523401,689.485948,1184.329507,11695.253884
1060.523720,689.485948,5033.400406,8956.491898
1060.524039,0.000000,8438.347739,6439.791695
1060.524358,0.000000,9326.594869,4885.359217
1060.524677,1072.533697,8734.430116,2146.597232
1060.524996,1685.410096,6217.729913,2442.679609
1060.525315,2681.334243,1110.308913,4515.256246
1060.525634,2987.772442,-3330.926739,5033.400406
1060.525952,2757.943793,-6957.935855,7402.059420
1060.526271,2298.286494,-9326.594869,11473.192101
1060.526590,842.705048,-8734.430116,14137.933492
1060.526909,0.000000,-6957.935855,13175.665768
1060.527228,-1455.581446,-3849.070898,14952.160028
1060.527547,-2681.334243,-148.041188,14878.139434
1060.527866,-2834.553343,3330.926739,12139.377449
1060.528185,-3524.039291,5995.668130,9918.759623
1060.528503,-2834.553343,7772.162391,6587.832884
1060.528822,-2528.115143,9178.553681,4367.215058
1060.529141,-1149.143247,8512.368333,3923.091493
1060.529460,306.438199,6809.894666,2664.741391
1060.529779,2298.286494,2960.823768,2516.700203
1060.530098,2834.553343,-1406.391290,5107.421000
1060.530417,2834.553343,-5403.503377,7254.018232
1060.530736,2145.067394,-8068.244768,11991.336260
1060.531054,1225.752797,-9030.512492,14656.077652
1060.531373,-383.047749,-8216.285956,13767.830521
1060.531692,-229.828649,-4737.318029,15988.448347
1060.532011,-2451.505594,-1258.350101,14952.160028
1060.532330,-2911.162892,2886.803174,11843.295072
1060.532649,-1762.019645,7994.224174,9178.553681
1060.532968,-842.705048,10362.883188,8142.265362
1060.533287,229.828649,10732.986159,5625.565159
1060.533605,1455.581446,8216.285956,4515.256246
1060.533924,2834.553343,4219.173869,4885.359217
1060.534243,3677.258390,222.061783,4737.318029
1060.534562,3983.696590,-4367.215058,6217.729913
1060.534881,5132.839837,-7031.956449,8956.491898
1060.535200,4060.306139,-8290.306550,12953.603985
1060.535519,2834.553343,-6217.729913,13915.871710
1060.535838,1915.238745,-4367.215058,14730.098246
1060.536157,-306.438199,-1628.453072,16432.571912
1060.536475,-1685.410096,2368.659014,13545.768739
1060.536794,-2374.896044,5033.400406,11843.295072
1060.537113,-2451.505594,7328.038826,10140.821405
1060.537432,-1455.581446,8364.327145,9178.553681
1060.537751,-689.485948,9030.512492,5921.647536
1060.538070,1378.971896,6883.915261,4811.338623
1060.538389,3524.039291,3997.112087,3627.009116
1060.538708,4366.744339,-666.185348,3478.967927
1060.539026,4136.915689,-5107.421000,6365.771101
1060.539345,3370.820191,-7550.100608,10362.883188
1060.539664,2221.676944,-7772.162391,12361.439231
1060.539983,842.705048,-6365.771101,13619.789333
1060.540302,0.000000,-3701.029710,14730.098246
1060.540621,-2451.505594,-1702.473667,15322.262999
1060.540940,-3600.648841,1184.329507,12213.398043
1060.541259,-4290.134789,4515.256246,10584.944971
1060.541577,-4290.134789,6587.832884,8290.306550
1060.541896,-3830.477490,7772.162391,6439.791695
1060.542215,-2451.505594,7031.956449,5699.585753
1060.542534,-842.705048,5995.668130,4885.359217
1060.542853,1149.143247,3256.906145,2960.823768
1060.543172,3140.991542,-962.267725,4589.276840
1060.543491,3524.039291,-5255.462188,7402.059420
1060.543810,3140.991542,-8660.409521,11325.150913
1060.544128,2298.286494,-8142.265362,13397.727550
1060.544447,1685.410096,-7105.977043,13767.830521
1060.544766,766.095498,-4515.256246,13471.748144
1060.545085,-689.485948,-1776.494261,13471.748144
1060.545404,-1225.752797,2812.782580,10658.965565
1060.545723,-1225.752797,6957.935855,7624.121203
1060.546042,-919.314598,8882.471304,6957.935855
1060.546361,-459.657299,9622.677246,4737.318029
1060.546679,306.438199,8068.244768,3330.926739
1060.546998,2451.505594,3923.091493,4441.235652
1060.547317,3064.381992,-1110.308913,4145.153275
1060.547636,4366.744339,-5773.606348,6069.688724
1060.547955,4366.744339,-8068.244768,8882.471304
1060.548274,3294.210641,-8808.450710,12287.418637
1060.548593,2604.724693,-8808.450710,13619.789333
1060.548912,1991.848295,-5403.503377,14730.098246
1060.549231,689.485948,-2738.761985,15396.283594
1060.549549,-1532.190996,518.144159,12065.356855
1060.549868,-2145.067394,5699.585753,9548.656652
1060.550187,-1302.362347,8290.306550,7402.059420
1060.550506,-1225.752797,9474.636058,5551.544565
1060.550825,-1072.533697,9474.636058,3775.050304
1060.551144,-306.438199,6365.771101,4071.132681
1060.551463,1072.533697,2738.761985,4071.132681
1060.551782,1532.190996,-2072.576638,4515.256246
1060.552100,1608.800546,-5551.544565,7105.977043
1060.552419,842.705048,-7994.224174,10584.944971
1060.552738,76.609550,-9474.636058,14285.974681
1060.553057,-153.219100,-7698.141797,15840.407159
1060.553376,-995.924147,-4811.338623,15766.386565
1060.553695,-2681.334243,-1480.411884,14656.077652
1060.554014,-3524.039291,1850.514855,12657.521608
1060.554333,-3370.820191,5699.585753,9474.636058
1060.554651,-3064.381992,8068.244768,6883.915261
1060.554970,-2374.896044,10584.944971,4737.318029
1060.555289,-842.705048,9844.739029,4737.318029
1060.555608,1455.581446,7698.141797,3701.029710
1060.555927,2987.772442,4145.153275,3108.864956
1060.556246,4749.792088,-1776.494261,6661.853478
1060.556565,3830.477490,-5625.565159,8290.306550
1060.556884,3524.039291,-8660.409521,12731.542202
1060.557202,2451.505594,-9622.677246,16136.489536
1060.557521,1838.629195,-6439.791695,15618.345376
1060.557840,1072.533697,-3775.050304,15692.365970
1060.558159,-1378.971896,-0.000000,15618.345376
1060.558478,-1378.971896,3849.070898,12657.521608
1060.558797,-1991.848295,8290.306550,7846.182985
1060.559116,-1378.971896,10066.800811,7328.038826
1060.559435,-1072.533697,9252.574275,6069.688724
1060.559753,0.000000,7254.018232,5107.421000
1060.560072,2145.067394,3404.947333,5181.441594
1060.560391,3217.601092,-222.061783,5773.606348
1060.560710,4903.011187,-4441.235652,6957.935855
1060.561029,4826.401637,-6143.709319,9622.677246
1060.561348,4519.963438,-7772.162391,13471.748144
1060.561667,3447.429741,-6883.915261,13397.727550
1060.561986,1915.238745,-5107.421000,13175.665768
1060.562305,459.657299,-1998.556043,15100.201217
1060.562623,-1532.190996,1628.453072,12657.521608
1060.562942,-1838.629195,5107.421000,9548.656652
1060.563261,-2911.162892,8068.244768,8068.244768
1060.563580,-2221.676944,8068.244768,7105.977043
1060.563899,-1915.238745,9104.533087,4145.153275
1060.564218,-1149.143247,5995.668130,4219.173869
1060.564537,842.705048,2368.659014,4441.235652
1060.564856,1532.190996,-1924.535449,5403.503377
1060.565174,1532.190996,-6217.729913,7550.100608
1060.565493,919.314598,-8882.471304,10881.027347
1060.565812,383.047749,-9992.780217,13915.871710
1060.566131,0.000000,-7624.121203,13693.809927
1060.566450,-1302.362347,-4589.276840,13471.748144
1060.566769,-2221.676944,-518.144159,13545.768739
1060.567088,-3064.381992,2294.638420,11103.089130
1060.567407,-2987.772442,5847.626942,8660.409521
1060.567725,-3294.210641,8068.244768,6069.688724
1060.568044,-1991.848295,9326.594869,4589.276840
1060.568363,-1072.533697,7920.203579,3701.029710
1060.568682,306.438199,4367.215058,3701.029710
1060.569001,1838.629195,518.144159,3849.070898
1060.569320,3600.648841,-3775.050304,5847.626942
1060.569639,3294.210641,-7328.038826,8290.306550
1060.569958,3140.991542,-9474.636058,12213.398043
1060.570276,2757.943793,-8586.388927,13249.686362
1060.570595,1915.238745,-6365.771101,12361.439231
1060.570914,1072.533697,-3775.050304,14582.057057
1060.571233,-766.095498,-592.164754,13545.768739
1060.571552,-919.314598,3701.029710,10584.944971
1060.571871,-612.876398,7994.224174,7179.997637
1060.572190,-153.219100,9696.697840,6735.874072
1060.572509,612.876398,9622.677246,4219.173869
1060.572828,1685.410096,7105.977043,2960.823768
1060.573146,3140.991542,3404.947333,3997.112087
1060.573465,3524.039291,-592.164754,3775.050304
1060.573784,4136.915689,-4885.359217,5847.626942
1060.574103,3753.867940,-7698.141797,9770.718434
1060.574422,2528.115143,-9030.512492,13693.809927
1060.574741,1302.362347,-7920.203579,14063.912898
1060.575060,-229.828649,-5255.462188,15026.180623
1060.575379,-995.924147,-1332.370696,17320.819043
1060.575697,-2681.334243,1628.453072,13101.645173
1060.576016,-3064.381992,4959.379811,11103.089130
1060.576335,-3294.210641,8290.306550,8660.409521
1060.576654,-3140.991542,9400.615463,6587.832884
1060.576973,-1608.800546,9548.656652,4589.276840
1060.577292,-383.047749,6439.791695,5181.441594
1060.577611,612.876398,3478.967927,3923.091493
1060.577930,1608.800546,-888.247130,5477.523971
1060.578248,2374.896044,-5329.482782,8660.409521
1060.578567,1532.190996,-8882.471304,12657.521608
1060.578886,1302.362347,-8882.471304,15174.221811
1060.579205,306.438199,-7328.038826,15766.386565
1060.579524,229.828649,-4441.235652,16210.510130
1060.579843,-766.095498,-1184.329507,15322.262999
1060.580162,-1532.190996,4071.132681,12361.439231
1060.580481,-1225.752797,7476.080014,8956.491898
1060.580799,-842.705048,10658.965565,6883.915261
1060.581118,459.657299,11177.109724,4367.215058
1060.581437,919.314598,9548.656652,2516.700203
1060.581756,2451.505594,5477.523971,3404.947333
1060.582075,3370.820191,888.247130,4441.235652
1060.582394,3447.429741,-3552.988522,5403.503377
1060.582713,4673.182538,-7179.997637,9474.636058
1060.583032,2987.772442,-8142.265362,13323.706956
1060.583350,1685.410096,-7624.121203,14137.933492
1060.583669,919.314598,-6143.709319,15100.201217
1060.583988,-383.047749,-2294.638420,16950.716072
1060.584307,-1685.410096,1184.329507,14285.974681
1060.584626,-1991.848295,5403.503377,9696.697840
1060.584945,-1762.019645,7402.059420,8216.285956
1060.585264,-1378.971896,7846.182985,6809.894666
1060.585583,-1072.533697,9104.533087,3478.967927
1060.585902,229.828649,6069.688724,2738.761985
1060.586220,1915.238745,2886.803174,3627.009116
1060.586539,2987.772442,-666.185348,3552.988522
1060.586858,3217.601092,-5255.462188,6365.771101
1060.587177,2604.724693,-8512.368333,10584.944971
1060.587496,1532.190996,-9474.636058,13915.871710
1060.587815,842.705048,-8586.388927,14878.139434
1060.588134,0.000000,-5699.585753,14359.995275
1060.588453,-1149.143247,-2072.576638,15026.180623
1060.588771,-2911.162892,740.205942,11991.336260
1060.589090,-2604.724693,4293.194464,9992.780217
1060.589409,-2681.334243,7476.080014,6883.915261
1060.589728,-1532.190996,9474.636058,5181.441594
1060.590047,-459.657299,8808.450710,3108.864956
1060.590366,306.438199,5625.565159,4145.153275
1060.590685,1991.848295,1332.370696,4293.194464
1060.591004,3217.601092,-3108.864956,5551.544565
1060.591322,3447.429741,-7031.956449,8068.244768
1060.591641,2681.334243,-9400.615463,12139.377449
1060.591960,2145.067394,-8586.388927,13619.789333
1060.592279,2221.676944,-6587.832884,14211.954086
1060.592598,1225.752797,-3404.947333,13693.809927
1060.592917,-459.657299,-296.082377,14137.933492
1060.593236,-1378.971896,3034.844362,10881.027347
1060.593555,-1685.410096,7031.956449,7994.224174
1060.593873,-1455.581446,9844.739029,5847.626942
1060.594192,-306.438199,10140.821405,3849.070898
1060.594511,0.000000,8216.285956,2590.720797
1060.594830,1149.143247,3256.906145,3997.112087
1060.595149,1685.410096,-148.041188,5033.400406
1060.595468,2681.334243,-4367.215058,6587.832884
1060.595787,2451.505594,-6809.894666,9696.697840
1060.596106,1378.971896,-8512.368333,13249.686362
1060.596424,229.828649,-7846.182985,14211.954086
1060.596743,-1072.533697,-5477.523971,14285.974681
1060.597062,-1455.581446,-2146.597232,15618.345376
1060.597381,-2374.896044,1924.535449,13471.748144
1060.597700,-2757.943793,4811.338623,10807.006753
1060.598019,-2681.334243,7550.100608,8808.450710
1060.598338,-1608.800546,9474.636058,7254.018232
1060.598657,-1378.971896,8882.471304,4885.359217
1060.598976,536.266849,7179.997637,4145.153275
1060.599294,1915.238745,4441.235652,3923.091493
1060.599613,3524.039291,222.061783,5033.400406
1060.599932,4290.134789,-3701.029710,7328.038826
1060.600251,3447.429741,-7105.977043,11399.171507
1060.600570,2604.724693,-8216.285956,14582.057057
1060.600889,1915.238745,-7698.141797,14434.015869
1060.601208,612.876398,-4663.297435,15174.221811
1060.601527,-1225.752797,-1776.494261,15692.365970
1060.601845,-1608.800546,1998.556043,12657.521608
1060.602164,-1991.848295,5773.606348,10436.903782
1060.602483,-1532.190996,7328.038826,9104.533087
1060.602802,-612.876398,9548.656652,6957.935855
1060.603121,0.000000,9030.512492,4145.153275
1060.603440,1455.581446,5995.668130,4663.297435
1060.603759,3064.381992,2368.659014,4959.379811
1060.604078,3677.258390,-2368.659014,4959.379811
1060.604396,4749.792088,-5181.441594,8808.450710
1060.604715,3677.258390,-7624.121203,11769.274478
1060.605034,3140.991542,-7698.141797,13175.665768
1060.605353,2451.505594,-6661.853478,14137.933492
1060.605672,995.924147,-4293.194464,15618.345376
1060.605991,-536.266849,-962.267725,13471.748144
1060.606310,-1378.971896,3330.926739,10584.944971
1060.606629,-1991.848295,5551.544565,9474.636058
1060.606947,-1838.629195,7920.203579,7179.997637
1060.607266,-1225.752797,8660.409521,4885.359217
1060.607585,-383.047749,7328.038826,3627.009116
1060.607904,1225.752797,4663.297435,4441.235652
1060.608223,2298.286494,1184.329507,3330.926739
1060.608542,2987.772442,-3701.029710,5329.482782
1060.608861,2451.505594,-6883.915261,9400.615463
1060.609180,1762.019645,-8808.450710,12287.418637
1060.609498,842.705048,-8660.409521,12509.480420
1060.609817,229.828649,-6587.832884,14211.954086
1060.610136,-689.485948,-2664.741391,16876.695478
1060.610455,-2145.067394,888.247130,12731.542202
1060.610774,-2221.676944,4071.132681,10732.986159
1060.611093,-2221.676944,6957.935855,8956.491898
1060.611412,-2374.896044,7846.182985,6365.771101
1060.611731,-1608.800546,8290.306550,3997.112087
1060.612050,-383.047749,5847.626942,4441.235652
1060.612368,995.924147,2442.679609,3849.070898
1060.612687,2528.115143,-888.247130,3849.070898
1060.613006,3753.867940,-5033.400406,6809.894666
1060.613325,3140.991542,-7624.121203,9474.636058
1060.613644,2451.505594,-8142.265362,12361.439231
1060.613963,1915.238745,-7476.080014,13915.871710
1060.614282,1072.533697,-4885.359217,12657.521608
1060.614601,-536.266849,-1702.473667,15100.201217
1060.614919,-2528.115143,1628.453072,13101.645173
1060.615238,-1685.410096,4515.256246,11029.068536
1060.615557,-2068.457845,8142.265362,7846.182985
1060.615876,-1149.143247,9400.615463,5773.606348
1060.616195,-383.047749,8438.347739,3478.967927
1060.616514,995.924147,4885.359217,3997.112087
1060.616833,2298.286494,1406.391290,3997.112087
1060.617152,3140.991542,-2886.803174,4589.276840
1060.617470,3907.087040,-5921.647536,7846.182985
1060.617789,3140.991542,-8586.388927,11325.150913
1060.618108,1991.848295,-8438.347739,13693.809927
1060.618427,1455.581446,-6661.853478,14211.954086
1060.618746,459.657299,-3775.050304,14434.015869
1060.619065,-1378.971896,-1036.288319,14211.954086
