#time,accel_x,accel_y,accel_z
1671.657297,995.924147,370.102971,9548.656652
1671.657615,459.657299,296.082377,9326.594869
1671.657932,919.314598,-0.000000,9474.636058
1671.658249,842.705048,296.082377,9474.636058
1671.658567,689.485948,148.041188,9548.656652
1671.658884,995.924147,296.082377,9474.636058
1671.659201,612.876398,148.041188,9474.636058
1671.659519,689.485948,296.082377,9474.636058
1671.659836,842.705048,296.082377,9474.636058
1671.660153,842.705048,148.041188,9400.615463
1671.660471,842.705048,148.041188,9400.615463
1671.660788,536.266849,296.082377,9474.636058
1671.661106,766.095498,-148.041188,9252.574275
1671.661423,766.095498,-0.000000,9474.636058
1671.661740,842.705048,370.102971,9474.636058
1671.662058,766.095498,-0.000000,9400.615463
1671.662375,995.924147,148.041188,9326.594869
1671.662692,612.876398,296.082377,9400.615463
1671.663010,766.095498,222.061783,9474.636058
1671.663327,995.924147,148.041188,9400.615463
1671.663644,919.314598,148.041188,9474.636058
1671.663962,536.266849,222.061783,9474.636058
1671.664279,842.705048,444.123565,9474.636058
1671.664597,766.095498,370.102971,9474.636058
1671.664914,689.485948,296.082377,9326.594869
1671.665231,766.095498,296.082377,9178.553681
1671.665549,919.314598,222.061783,9548.656652
1671.665866,842.705048,-0.000000,9474.636058
1671.666183,689.485948,222.061783,9474.636058
1671.666501,766.095498,222.061783,9326.594869
1671.666818,766.095498,296.082377,9400.615463
1671.667135,766.095498,-0.000000,9400.615463
1671.667453,536.266849,-0.000000,9400.615463
1671.667770,995.924147,148.041188,9400.615463
1671.668088,536.266849,148.041188,9474.636058
1671.668405,612.876398,222.061783,9400.615463
1671.668722,995.924147,-0.000000,9326.594869
1671.669040,766.095498,296.082377,9400.615463
1671.669357,919.314598,148.041188,9474.636058
1671.669674,689.485948,222.061783,9326.594869
1671.669992,1302.362347,296.082377,9474.636058
1671.670309,995.924147,222.061783,9548.656652
1671.670626,766.095498,-0.000000,9474.636058
1671.670944,536.266849,444.123565,9548.656652
1671.671261,612.876398,296.082377,9474.636058
1671.671579,995.924147,296.082377,9400.615463
1671.671896,919.314598,148.041188,9474.636058
1671.672213,766.095498,148.041188,9474.636058
1671.672531,919.314598,370.102971,9474.636058
1671.672848,995.924147,-0.000000,9178.553681
1671.673165,766.095498,148.041188,9474.636058
1671.673483,689.485948,222.061783,9548.656652
1671.673800,842.705048,222.061783,9474.636058
1671.674118,689.485948,222.061783,9400.615463
1671.674435,766.095498,370.102971,9326.594869
1671.674752,536.266849,-0.000000,9474.636058
1671.675070,689.485948,296.082377,9474.636058
1671.675387,689.485948,-0.000000,9474.636058
1671.675704,612.876398,222.061783,9474.636058
1671.676022,612.876398,148.041188,9474.636058
1671.676339,1302.362347,222.061783,9474.636058
1671.676656,1072.533697,370.102971,9474.636058
1671.676974,766.095498,-74.020594,9326.594869
1671.677291,766.095498,222.061783,9474.636058
1671.677609,689.485948,148.041188,9400.615463
1671.677926,689.485948,370.102971,9474.636058
1671.678243,842.705048,-0.000000,9474.636058
1671.678561,689.485948,370.102971,9474.636058
1671.678878,995.924147,148.041188,9474.636058
1671.679195,995.924147,148.041188,9548.656652
1671.679513,612.876398,370.102971,9844.739029
1671.679830,842.705048,370.102971,9326.594869
1671.680147,689.485948,296.082377,9770.718434
1671.680465,842.705048,-0.000000,9474.636058
1671.680782,459.657299,370.102971,9474.636058
1671.681100,766.095498,296.082377,9400.615463
1671.681417,612.876398,222.061783,9104.533087
1671.681734,612.876398,148.041188,9474.636058
1671.682052,842.705048,222.061783,9400.615463
1671.682369,689.485948,148.041188,9622.677246
1671.682686,919.314598,222.061783,9474.636058
1671.683004,766.095498,222.061783,9474.636058
1671.683321,842.705048,518.144159,9326.594869
1671.683638,842.705048,148.041188,9474.636058
1671.683956,766.095498,222.061783,9622.677246
1671.684273,842.705048,222.061783,9474.636058
1671.684591,842.705048,370.102971,9474.636058
1671.684908,536.266849,-0.000000,9400.615463
1671.685225,995.924147,148.041188,9400.615463
1671.685543,766.095498,-0.000000,9474.636058
1671.685860,766.095498,370.102971,9548.656652
1671.686177,842.705048,296.082377,9252.574275
1671.686495,842.705048,-0.000000,9474.636058
1671.686812,919.314598,222.061783,9622.677246
1671.687129,842.705048,370.102971,9474.636058
1671.687447,766.095498,-0.000000,9400.615463
1671.687764,766.095498,-0.000000,9474.636058
1671.688082,919.314598,370.102971,9474.636058
1671.688399,536.266849,222.061783,9474.636058
1671.688716,689.485948,370.102971,9474.636058
1671.689034,689.485948,370.102971,9474.636058
1671.689351,766.095498,148.041188,9252.574275
1671.689668,306.438199,-222.061783,9104.533087
1671.689986,229.828649,-74.020594,9178.553681
1671.690303,76.609550,-518.144159,9178.553681
1671.690620,76.609550,-518.144159,9252.574275
1671.690938,0.000000,-666.185348,9400.615463
1671.691255,0.000000,-814.226536,9548.656652
1671.691573,-76.609550,-518.144159,9548.656652
1671.691890,-459.657299,-518.144159,9178.553681
1671.692207,-612.876398,-518.144159,9030.512492
1671.692525,-842.705048,-814.226536,8882.471304
1671.692842,-842.705048,-1036.288319,9178.553681
1671.693159,-1149.143247,-1036.288319,8956.491898
1671.693477,-766.095498,-1480.411884,8956.491898
1671.693794,-1149.143247,-2072.576638,9400.615463
1671.694111,-919.314598,-1776.494261,9474.636058
1671.694429,-919.314598,-1406.391290,9474.636058
1671.694746,-842.705048,-1036.288319,9326.594869
1671.695064,-612.876398,-962.267725,8808.450710
1671.695381,-459.657299,-666.185348,8438.347739
1671.695698,-536.266849,-888.247130,7846.182985
1671.696016,-306.438199,-1332.370696,8142.265362
1671.696333,-689.485948,-2368.659014,8808.450710
1671.696650,-383.047749,-2738.761985,9474.636058
1671.696968,-612.876398,-2960.823768,9844.739029
1671.697285,-612.876398,-3627.009116,10140.821405
1671.697602,-766.095498,-2516.700203,10066.800811
1671.697920,-995.924147,-1924.535449,9474.636058
1671.698237,-612.876398,-1480.411884,9104.533087
1671.698555,-612.876398,-1480.411884,8660.409521
1671.698872,-919.314598,-1924.535449,8734.430116
1671.699189,-1149.143247,-2664.741391,8956.491898
1671.699507,-1991.848295,-3330.926739,9104.533087
1671.699824,-2681.334243,-4441.235652,9992.780217
1671.700141,-3294.210641,-4589.276840,10436.903782
1671.700459,-3830.477490,-4589.276840,10732.986159
1671.700776,-4443.353888,-4441.235652,10510.924376
1671.701094,-4519.963438,-4219.173869,10732.986159
1671.701411,-4749.792088,-3997.112087,10510.924376
1671.701728,-4366.744339,-3627.009116,10214.842000
1671.702046,-4903.011187,-3849.070898,10362.883188
1671.702363,-5286.058936,-3701.029710,10214.842000
1671.702680,-5515.887586,-3849.070898,9770.718434
1671.702998,-5592.497135,-3775.050304,9844.739029
1671.703315,-5592.497135,-3997.112087,10140.821405
1671.703632,-5592.497135,-3701.029710,10436.903782
1671.703950,-5362.668486,-3701.029710,10214.842000
1671.704267,-4903.011187,-3552.988522,11029.068536
1671.704585,-4443.353888,-3108.864956,11103.089130
1671.704902,-3907.087040,-2590.720797,10658.965565
1671.705219,-3600.648841,-1998.556043,10140.821405
1671.705537,-2604.724693,-1628.453072,9474.636058
1671.705854,-2221.676944,-1406.391290,8660.409521
1671.706171,-1608.800546,-1184.329507,8586.388927
1671.706489,-1225.752797,-1480.411884,8882.471304
1671.706806,-1149.143247,-2146.597232,8734.430116
1671.707123,-1149.143247,-2960.823768,9474.636058
1671.707441,-919.314598,-3923.091493,10510.924376
1671.707758,-842.705048,-3923.091493,10732.986159
1671.708076,-459.657299,-3775.050304,10288.862594
1671.708393,76.609550,-2738.761985,9844.739029
1671.708710,842.705048,-1924.535449,8882.471304
1671.709028,1838.629195,-1184.329507,8438.347739
1671.709345,2374.896044,-1110.308913,8142.265362
1671.709662,2451.505594,-1702.473667,8512.368333
1671.709980,2298.286494,-2146.597232,9252.574275
1671.710297,1532.190996,-2442.679609,8882.471304
1671.710614,1302.362347,-2960.823768,9326.594869
1671.710932,842.705048,-3182.885551,9770.718434
1671.711249,612.876398,-2516.700203,9178.553681
1671.711567,1302.362347,-1998.556043,9326.594869
1671.711884,995.924147,-1776.494261,8882.471304
1671.712201,153.219100,-2146.597232,9252.574275
1671.712519,383.047749,-1850.514855,9622.677246
1671.712836,0.000000,-1332.370696,9104.533087
1671.713153,-229.828649,-1554.432478,9918.759623
1671.713471,-536.266849,-888.247130,9770.718434
1671.713788,-383.047749,-740.205942,9844.739029
1671.714105,-306.438199,-518.144159,9696.697840
1671.714423,-383.047749,-962.267725,9844.739029
1671.714740,-153.219100,-666.185348,9326.594869
1671.715058,-153.219100,-74.020594,8882.471304
1671.715375,153.219100,222.061783,8068.244768
1671.715692,153.219100,222.061783,8142.265362
1671.716010,0.000000,-222.061783,8364.327145
1671.716327,-306.438199,-222.061783,8438.347739
1671.716644,-536.266849,444.123565,8734.430116
1671.716962,-1149.143247,888.247130,8808.450710
1671.717279,-1608.800546,1332.370696,8808.450710
1671.717596,-3140.991542,1184.329507,8734.430116
1671.717914,-4136.915689,518.144159,8956.491898
1671.718231,-5056.230287,-296.082377,9030.512492
1671.718549,-5898.935335,-666.185348,9474.636058
1671.718866,-5669.106685,-1480.411884,10436.903782
1671.719183,-6435.202183,-1628.453072,10732.986159
1671.719501,-6665.030833,-2368.659014,11251.130318
1671.719818,-6511.811733,-2294.638420,12509.480420
1671.720135,-6741.640382,-2294.638420,12213.398043
1671.720453,-6128.763984,-1850.514855,11917.315666
1671.720770,-4826.401637,-296.082377,11843.295072
1671.721087,-3983.696590,296.082377,10881.027347
1671.721405,-2834.553343,370.102971,9622.677246
1671.721722,-2145.067394,518.144159,9104.533087
1671.722040,-1302.362347,-666.185348,9252.574275
1671.722357,-1072.533697,-1702.473667,9548.656652
1671.722674,-689.485948,-2516.700203,9474.636058
1671.722992,0.000000,-3552.988522,9474.636058
1671.723309,-612.876398,-3923.091493,9918.759623
1671.723626,-766.095498,-4219.173869,10362.883188
1671.723944,-919.314598,-3997.112087,10881.027347
1671.724261,-1532.190996,-3627.009116,9474.636058
1671.724579,-1149.143247,-2812.782580,10140.821405
1671.724896,-1915.238745,-2960.823768,10658.965565
1671.725213,-1378.971896,-3256.906145,11473.192101
1671.725531,-1225.752797,-3404.947333,11325.150913
1671.725848,-1072.533697,-3552.988522,11769.274478
1671.726165,-919.314598,-3775.050304,12065.356855
1671.726483,153.219100,-3404.947333,11991.336260
1671.726800,1072.533697,-2590.720797,10807.006753
1671.727117,2145.067394,-2664.741391,10288.862594
1671.727435,2604.724693,-2516.700203,9622.677246
1671.727752,2987.772442,-2960.823768,9030.512492
1671.728070,3524.039291,-2590.720797,7772.162391
1671.728387,3447.429741,-3330.926739,6809.894666
1671.728704,3064.381992,-3923.091493,6809.894666
1671.729026,2145.067394,-3997.112087,6735.874072
1671.729344,1225.752797,-3997.112087,5921.647536
1671.729661,306.438199,-4811.338623,6883.915261
1671.729978,-459.657299,-5477.523971,8808.450710
1671.730296,-1225.752797,-5329.482782,9474.636058
1671.730613,-2298.286494,-4441.235652,9548.656652
1671.730930,-3064.381992,-4071.132681,10362.883188
1671.731248,-2834.553343,-3108.864956,10732.986159
1671.731565,-1991.848295,-2072.576638,10066.800811
1671.731882,-1378.971896,-1332.370696,9474.636058
1671.732200,-919.314598,-962.267725,9400.615463
1671.732517,-306.438199,-1184.329507,8290.306550
1671.732834,0.000000,-1332.370696,7105.977043
1671.733152,0.000000,-2146.597232,6439.791695
1671.733469,-1455.581446,-3330.926739,6143.709319
1671.733786,-1991.848295,-4441.235652,5551.544565
1671.734104,-3370.820191,-4737.318029,6661.853478
1671.734421,-4060.306139,-5255.462188,7254.018232
1671.734738,-4903.011187,-5625.565159,7846.182985
1671.735056,-6052.154434,-6439.791695,8956.491898
1671.735373,-6052.154434,-5699.585753,10066.800811
1671.735690,-6435.202183,-4885.359217,10807.006753
1671.736008,-5669.106685,-3552.988522,11621.233289
1671.736325,-4366.744339,-888.247130,10584.944971
1671.736642,-2604.724693,444.123565,9326.594869
1671.736960,-1991.848295,666.185348,9696.697840
1671.737277,-919.314598,444.123565,9326.594869
1671.737594,-459.657299,518.144159,7476.080014
1671.737912,-459.657299,-222.061783,7920.203579
1671.738229,-306.438199,-1184.329507,8512.368333
1671.738547,-842.705048,-1702.473667,6883.915261
1671.738864,-1838.629195,-2664.741391,7179.997637
1671.739181,-2987.772442,-3849.070898,9474.636058
1671.739499,-2911.162892,-3552.988522,9918.759623
1671.739816,-3140.991542,-2368.659014,10732.986159
1671.740133,-3217.601092,-1776.494261,11695.253884
1671.740451,-2604.724693,-518.144159,12435.459826
1671.740768,-2068.457845,1480.411884,11843.295072
1671.741085,-459.657299,1776.494261,11473.192101
1671.741403,229.828649,3182.885551,9622.677246
1671.741720,1685.410096,2812.782580,9326.594869
1671.742037,2451.505594,1628.453072,9696.697840
1671.742355,2451.505594,-518.144159,8660.409521
1671.742672,1378.971896,-1332.370696,8956.491898
1671.742989,995.924147,-2146.597232,9844.739029
1671.743307,1072.533697,-2368.659014,10510.924376
1671.743624,0.000000,-2812.782580,10510.924376
1671.743941,0.000000,-2368.659014,12435.459826
1671.744259,-459.657299,-666.185348,12953.603985
1671.744576,919.314598,1036.288319,12213.398043
1671.744893,1685.410096,1184.329507,13027.624579
1671.745211,2298.286494,2368.659014,13545.768739
1671.745528,4213.525239,3182.885551,12213.398043
1671.745845,5286.058936,2738.761985,9400.615463
1671.746163,6588.421283,2146.597232,9104.533087
1671.746480,7201.297681,962.267725,7846.182985
1671.746797,6741.640382,666.185348,5773.606348
1671.747115,5286.058936,666.185348,6365.771101
1671.747432,4749.792088,-296.082377,8660.409521
1671.747749,3370.820191,-740.205942,8512.368333
1671.748067,1532.190996,-1036.288319,8068.244768
1671.748384,459.657299,-1480.411884,10732.986159
1671.748701,-1149.143247,-962.267725,11695.253884
1671.749019,-919.314598,-0.000000,12287.418637
1671.749336,0.000000,814.226536,14730.098246
1671.749653,-306.438199,2294.638420,14137.933492
1671.749971,536.266849,3701.029710,11991.336260
1671.750288,1685.410096,5477.523971,9992.780217
1671.750605,3064.381992,5477.523971,7624.121203
1671.750923,3983.696590,5625.565159,4589.276840
1671.751240,3600.648841,4885.359217,1850.514855
1671.751557,2451.505594,2442.679609,1702.473667
1671.751875,1072.533697,-1184.329507,3330.926739
1671.752192,-612.876398,-3404.947333,5995.668130
1671.752509,-2068.457845,-5477.523971,7920.203579
1671.752827,-4826.401637,-4589.276840,8438.347739
1671.753144,-5362.668486,-4293.194464,11843.295072
1671.753462,-5745.716235,-3627.009116,15470.304188
1671.753779,-5822.325785,-2442.679609,14804.118840
1671.754096,-4060.306139,370.102971,12435.459826
1671.754414,-4060.306139,3478.967927,12065.356855
1671.754731,-2451.505594,5033.400406,9992.780217
1671.755048,766.095498,6957.935855,8068.244768
1671.755366,2298.286494,8438.347739,3701.029710
1671.755683,3064.381992,5847.626942,4145.153275
1671.756000,1762.019645,1406.391290,3552.988522
1671.756318,383.047749,-2368.659014,6661.853478
1671.756635,459.657299,-5551.544565,10584.944971
1671.756952,-383.047749,-4811.338623,8142.265362
1671.757270,-153.219100,-6069.688724,10140.821405
1671.757587,-2604.724693,-5255.462188,11695.253884
1671.757904,-3217.601092,-5329.482782,15248.242405
1671.758222,-3447.429741,-2664.741391,15174.221811
1671.758539,-2451.505594,740.205942,14434.015869
1671.758856,-689.485948,2812.782580,12583.501014
1671.759174,-842.705048,4589.276840,9104.533087
1671.759491,2451.505594,4885.359217,10140.821405
1671.759808,4749.792088,5477.523971,5107.421000
1671.760126,7124.688131,4219.173869,3997.112087
1671.760443,6511.811733,1554.432478,3330.926739
1671.760760,5056.230287,-1924.535449,6809.894666
1671.761078,4673.182538,-5255.462188,9992.780217
1671.761395,2757.943793,-5699.585753,9252.574275
1671.761712,2145.067394,-6661.853478,11177.109724
1671.762030,-383.047749,-4293.194464,11621.233289
1671.762347,-1455.581446,-3182.885551,14211.954086
1671.762664,-536.266849,-666.185348,15026.180623
1671.762982,-306.438199,740.205942,13989.892304
1671.763299,919.314598,1702.473667,12213.398043
1671.763616,1455.581446,2886.803174,11029.068536
1671.763934,3217.601092,5107.421000,9992.780217
1671.764251,6435.202183,5847.626942,6069.688724
1671.764568,7507.735880,6513.812290,1850.514855
1671.764886,7737.564530,3849.070898,2368.659014
1671.765203,5439.278036,1184.329507,2516.700203
1671.765520,4290.134789,-2590.720797,5847.626942
1671.765838,1838.629195,-4219.173869,6587.832884
1671.766155,842.705048,-5847.626942,9252.574275
1671.766472,-1455.581446,-5181.441594,10436.903782
1671.766790,-3753.867940,-3997.112087,13915.871710
1671.767107,-2528.115143,-3775.050304,17838.963202
1671.767424,-3217.601092,-2294.638420,15692.365970
1671.767742,-1608.800546,814.226536,13175.665768
1671.768059,-919.314598,2738.761985,13693.809927
1671.768377,-766.095498,8364.327145,8512.368333
1671.768694,3140.991542,10214.842000,8068.244768
1671.769011,4213.525239,13767.830521,592.164754
1671.769329,4213.525239,9622.677246,-222.061783
1671.769646,2834.553343,4663.297435,0.000000
1671.769963,0.000000,-2812.782580,6809.894666
1671.770281,-536.266849,-7402.059420,10140.821405
1671.770598,-1149.143247,-7994.224174,9104.533087
1671.770915,-1225.752797,-8364.327145,11251.130318
1671.771233,-3907.087040,-7920.203579,14063.912898
1671.771550,-4749.792088,-6883.915261,18653.189738
1671.771867,-4826.401637,-2368.659014,15914.427753
1671.772185,-3140.991542,2590.720797,12583.501014
1671.772502,-995.924147,6217.729913,11991.336260
1671.772819,-1149.143247,9918.759623,7254.018232
1671.773137,2528.115143,13397.727550,6587.832884
1671.773454,4519.963438,15470.304188,0.000000
1671.773771,6281.983084,12213.398043,-740.205942
1671.774089,4213.525239,6809.894666,-518.144159
1671.774406,2604.724693,-444.123565,6513.812290
1671.774723,1225.752797,-5847.626942,11843.295072
1671.775041,612.876398,-7920.203579,11473.192101
1671.775358,612.876398,-10288.862594,13249.686362
1671.775675,-3064.381992,-8660.409521,13693.809927
1671.775993,-3830.477490,-7105.977043,19245.354492
1671.776310,-4136.915689,-1628.453072,18949.272115
1671.776627,-3217.601092,814.226536,15100.201217
1671.776945,76.609550,3923.091493,11251.130318
1671.777262,-229.828649,8068.244768,9178.553681
1671.777579,2604.724693,11621.233289,9400.615463
1671.777897,6894.859482,13175.665768,3034.844362
1671.778214,9422.974625,12583.501014,-1258.350101
1671.778531,8197.221829,7698.141797,-1036.288319
1671.778849,5822.325785,1628.453072,4219.173869
1671.779166,4749.792088,-6217.729913,10584.944971
1671.779483,3447.429741,-8956.491898,10732.986159
1671.779801,2987.772442,-11991.336260,13249.686362
1671.780118,-1838.629195,-10955.047942,13989.892304
1671.780435,-3140.991542,-9400.615463,18801.230927
1671.780753,-3983.696590,-5403.503377,21021.848753
1671.781070,-3907.087040,-3256.906145,16876.695478
1671.781387,-1149.143247,370.102971,14211.954086
1671.781705,1225.752797,4367.215058,12879.583391
1671.782022,1685.410096,10807.006753,8660.409521
1671.782339,8273.831378,14359.995275,8068.244768
1671.782657,10189.070123,18801.230927,-814.226536
1671.782974,9652.803275,14211.954086,-3182.885551
1671.783291,7277.907231,7476.080014,-2220.617826
1671.783609,3294.210641,-1998.556043,6735.874072
1671.783926,2374.896044,-10214.842000,11621.233289
1671.784244,1532.190996,-12509.480420,9992.780217
1671.784561,-919.314598,-15174.221811,13175.665768
1671.784878,-4903.011187,-13545.768739,16728.654289
1671.785196,-6052.154434,-10214.842000,20059.581028
1671.785513,-5362.668486,-6143.709319,18431.127956
1671.785830,-5745.716235,-1628.453072,14211.954086
1671.786148,-2298.286494,2590.720797,12583.501014
1671.786465,-2451.505594,11029.068536,7476.080014
1671.786782,3140.991542,15248.242405,7105.977043
1671.787100,6741.640382,19245.354492,2516.700203
1671.787417,6511.811733,18875.251521,-5181.441594
1671.787734,4903.011187,12731.542202,-5033.400406
1671.788052,2911.162892,3256.906145,518.144159
1671.788369,1072.533697,-9474.636058,13693.809927
1671.788686,536.266849,-12139.377449,10732.986159
1671.789004,995.924147,-14359.995275,9474.636058
1671.789321,-4443.353888,-15544.324782,10140.821405
1671.789638,-5286.058936,-14804.118840,20281.642811
1671.789956,-5898.935335,-8068.244768,19911.539840
1671.790273,-6971.469032,-1924.535449,12879.583391
1671.790590,-4749.792088,-0.000000,9474.636058
1671.790908,-3370.820191,4885.359217,9696.697840
1671.791225,-3677.258390,11769.274478,9252.574275
1671.791542,6818.249932,13249.686362,12065.356855
1671.791860,7660.954980,22206.178260,-6513.812290
1671.792177,7507.735880,17690.922014,-5255.462188
1671.792494,9882.631924,9770.718434,1332.370696
1671.792812,4213.525239,2368.659014,-1406.391290
1671.793129,7890.783629,-10436.903782,15322.262999
1671.793446,3830.477490,-14063.912898,12213.398043
1671.793764,1378.971896,-16580.613101,9548.656652
1671.794081,-4673.182538,-15322.262999,11843.295072
1671.794398,-5592.497135,-11029.068536,24500.816680
1671.794716,-6665.030833,-7476.080014,19319.375086
1671.795033,-7124.688131,-2368.659014,14211.954086
1671.795350,-2681.334243,-2072.576638,13471.748144
1671.795668,-5056.230287,7772.162391,11473.192101
1671.795985,3753.867940,15988.448347,11251.130318
1671.796302,10955.165621,16432.571912,10214.842000
1671.796620,9499.584175,21317.931130,-5773.606348
1671.796937,8580.269578,18135.045579,74.020594
1671.797254,8580.269578,10436.903782,-6217.729913
1671.797572,6818.249932,-2368.659014,2220.617826
1671.797889,10955.165621,-11843.295072,21984.116477
1671.798206,2451.505594,-13841.851115,11547.212695
1671.798524,-1455.581446,-15248.242405,7550.100608
1671.798841,-4673.182538,-15840.407159,16950.716072
1671.799159,-7048.078582,-13545.768739,27165.558071
1671.799476,-8656.879127,-9252.574275,16284.530724
1671.799793,-8656.879127,-4589.276840,12065.356855
1671.800111,-6818.249932,-2812.782580,14952.160028
1671.800428,-7354.516781,10658.965565,12805.562797
1671.800745,4903.011187,12435.459826,13101.645173
1671.801063,8120.612279,20355.663405,5255.462188
1671.801380,6894.859482,19911.539840,-2146.597232
1671.801697,4596.572988,16432.571912,-3923.091493
1671.802015,5132.839837,7772.162391,-4071.132681
1671.802332,5745.716235,-4515.256246,12953.603985
1671.802649,9346.365076,-12065.356855,17394.839637
1671.802967,4136.915689,-11177.109724,6587.832884
1671.803284,2145.067394,-13249.686362,9770.718434
1671.803601,-4673.182538,-16950.716072,13175.665768
1671.803919,-6741.640382,-14952.160028,21243.910535
1671.804236,-7124.688131,-10807.006753,17024.736666
1671.804553,-9039.926876,-3108.864956,14211.954086
1671.804871,-7814.174080,-1480.411884,10510.924376
1671.805188,-5592.497135,12509.480420,9400.615463
1671.805505,6435.202183,13989.892304,17172.777854
1671.805823,9652.803275,18801.230927,7920.203579
1671.806140,6358.592633,21021.848753,-2442.679609
1671.806457,7737.564530,18727.210333,-2812.782580
1671.806775,8656.879127,9992.780217,-7624.121203
1671.807092,10495.508323,-2664.741391,2738.761985
1671.807409,12947.013916,-10658.965565,17542.880825
1671.807727,3677.258390,-13545.768739,8216.285956
1671.808044,0.000000,-12953.603985,4737.318029
1671.808361,-3217.601092,-13767.830521,11399.171507
1671.808679,-6665.030833,-14137.933492,22872.363608
1671.808996,-11491.432470,-13323.706956,16950.716072
1671.809313,-12947.013916,-10510.924376,16358.551318
1671.809631,-14325.985813,-5107.421000,10436.903782
1671.809948,-8044.002729,9030.512492,16506.592507
1671.810265,3830.477490,13841.851115,18579.169144
1671.810583,9269.755526,25833.187376,5625.565159
1671.810900,8120.612279,27609.681637,-2294.638420
1671.811217,6588.421283,23094.425390,-7254.018232
1671.811535,10495.508323,11029.068536,-4663.297435
1671.811852,9959.241474,2072.576638,-5625.565159
1671.812169,14862.252661,-10140.821405,16062.468941
1671.812487,4826.401637,-16580.613101,9252.574275
1671.812804,-1455.581446,-11695.253884,5033.400406
1671.813121,-612.876398,-19171.333898,18431.127956
1671.813439,-8656.879127,-17912.983796,16876.695478
1671.813756,-9729.412825,-17912.983796,19763.498651
1671.814074,-14325.985813,-11843.295072,21836.075289
1671.814391,-14632.424012,-2220.617826,8290.306550
1671.814708,-6358.592633,7550.100608,12953.603985
1671.815026,2911.162892,11917.315666,19393.395680
1671.815343,8273.831378,22132.157666,11695.253884
1671.815660,6511.811733,31754.834912,-9252.574275
1671.815978,7660.954980,20429.683999,-5773.606348
1671.816295,7124.688131,11547.212695,-1702.473667
1671.816612,9959.241474,-74.020594,-148.041188
1671.816930,12104.308868,-5033.400406,11991.336260
1671.817247,7890.783629,-10807.006753,13249.686362
1671.817564,1762.019645,-15470.304188,7550.100608
1671.817882,-4213.525239,-20355.663405,16284.530724
1671.818199,-5822.325785,-18653.189738,22502.260637
1671.818516,-10725.336972,-14359.995275,20725.766376
1671.818834,-9806.022374,-16062.468941,21836.075289
1671.819151,-14019.547613,-5403.503377,10066.800811
1671.819468,-8963.317327,4071.132681,14211.954086
1671.819786,-4290.134789,14285.974681,16802.674883
1671.820103,5209.449386,21169.889941,11991.336260
1671.820420,7354.516781,23760.610738,-2146.597232
1671.820738,5439.278036,22650.301825,-4515.256246
1671.821055,4290.134789,14137.933492,-5181.441594
1671.821372,9193.145976,4515.256246,-6143.709319
1671.821690,14402.595362,-10140.821405,14952.160028
1671.822007,6894.859482,-20059.581028,13101.645173
1671.822324,2298.286494,-16432.571912,8734.430116
1671.822642,-2911.162892,-15766.386565,15100.201217
1671.822959,-6435.202183,-14656.077652,18283.086767
1671.823276,-7814.174080,-20873.807564,20207.622217
1671.823594,-11338.213370,-17320.819043,19467.416275
1671.823911,-14019.547613,-6291.750507,15026.180623
1671.824228,-11338.213370,6661.853478,6291.750507
1671.824546,-4903.011187,10066.800811,12361.439231
1671.824863,6588.421283,10732.986159,22354.219448
1671.825180,7584.345430,26499.372724,4145.153275
1671.825498,8656.879127,29682.258274,-7624.121203
1671.825815,10189.070123,20059.581028,-4737.318029
1671.826132,13789.718964,4811.338623,-8142.265362
1671.826450,14555.814462,-2368.659014,-6883.915261
1671.826767,16088.005458,-13767.830521,17172.777854
1671.827084,3524.039291,-20133.601622,10362.883188
1671.827402,-2987.772442,-14656.077652,4737.318029
1671.827719,-1608.800546,-13693.809927,14878.139434
1671.828036,-5745.716235,-16210.510130,21910.095883
1671.828354,-6741.640382,-24426.796086,27017.516883
1671.828671,-13713.109414,-11029.068536,18579.169144
1671.828989,-14938.862211,296.082377,4145.153275
1671.829306,-4136.915689,14508.036463,8808.450710
1671.829623,7354.516781,16950.716072,18431.127956
1671.829941,9116.536426,27683.702231,7772.162391
1671.830258,10112.460574,35529.885216,-8586.388927
1671.830575,10342.289223,26943.496289,-13027.624579
1671.830893,10265.679673,12213.398043,-10584.944971
1671.831210,13023.623466,-2590.720797,-962.267725
1671.831527,12257.527968,-15840.407159,12509.480420
1671.831845,-1762.019645,-17987.004391,7698.141797
1671.832162,-2298.286494,-20059.581028,14285.974681
1671.832479,-4136.915689,-19615.457463,19911.539840
1671.832797,-10418.898773,-14063.912898,19689.478057
1671.833114,-6511.811733,-22354.219448,29534.217086
1671.833431,-16930.710506,-14878.139434,22872.363608
1671.833749,-18003.244203,-0.000000,7994.224174
1671.834066,-7737.564530,10584.944971,5329.482782
1671.834383,1149.143247,15322.262999,21095.869347
1671.834701,5822.325785,21391.951724,17468.860231
1671.835018,4749.792088,35307.823433,-4885.359217
1671.835336,8197.221829,32791.123231,-16506.592507
1671.835653,8733.488677,15544.324782,-8734.430116
1671.835971,10035.851024,-2220.617826,2146.597232
1671.836288,11184.994271,-6883.915261,15248.242405
1671.836605,4979.620737,-15840.407159,7772.162391
1671.836923,842.705048,-20873.807564,12879.583391
1671.837240,-7967.393179,-22428.240043,20281.642811
1671.837558,-9499.584175,-17838.963202,25981.228564
1671.837875,-6665.030833,-19763.498651,27535.661042
1671.838192,-9193.145976,-17246.798449,25981.228564
1671.838510,-17773.415554,-4737.318029,13915.871710
1671.838827,-12027.699319,12731.542202,5773.606348
1671.839145,-536.266849,21984.116477,7402.059420
1671.839462,10648.727422,20651.745782,19097.313304
1671.839779,7201.297681,25389.063811,2294.638420
1671.840097,6511.811733,31384.731941,-16210.510130
1671.840414,10955.165621,21762.054695,-12435.459826
1671.840732,15551.738609,3108.864956,-4293.194464
1671.841049,12640.575717,-18061.024985,17838.963202
1671.841367,3907.087040,-18949.272115,8438.347739
1671.841684,-612.876398,-18875.251521,12509.480420
1671.842001,-2528.115143,-17542.880825,20577.725188
1671.842319,-7277.907231,-18579.169144,19763.498651
1671.842636,-8810.098227,-19393.395680,28868.031738
1671.842954,-6588.421283,-19541.436869,29904.320057
1671.843271,-15551.738609,-4145.153275,14211.954086
1671.843588,-11184.994271,6957.935855,6809.894666
1671.843906,3140.991542,21317.931130,6809.894666
1671.844223,12257.527968,22058.137072,17394.839637
1671.844541,8886.707777,31014.628970,4959.379811
1671.844858,7507.735880,33827.411549,-10658.965565
1671.845175,11261.603821,24500.816680,-13323.706956
1671.845493,16700.881856,3256.906145,-13027.624579
1671.845810,15321.909960,-11695.253884,7994.224174
1671.846128,8427.050478,-14730.098246,9252.574275
1671.846445,-1072.533697,-22502.260637,11103.089130
1671.846763,-3140.991542,-19319.375086,12139.377449
1671.847080,-6435.202183,-15396.283594,18135.045579
1671.847397,-7354.516781,-20799.786970,28423.908173
1671.847715,-7124.688131,-18653.189738,26277.310941
1671.848032,-9116.536426,-10214.842000,19689.478057
1671.848350,-17083.929605,4441.235652,6809.894666
1671.848667,-1838.629195,19319.375086,8364.327145
1671.848984,7967.393179,24204.734303,14656.077652
1671.849302,8963.317327,32421.020260,6069.688724
1671.849619,7354.516781,29534.217086,-10510.924376
1671.849937,8120.612279,28423.908173,-22132.157666
1671.850254,11108.384721,11251.130318,-18653.189738
1671.850571,11874.480219,-9030.512492,10140.821405
1671.850889,6358.592633,-24722.878463,12139.377449
1671.851206,-5669.106685,-18505.148550,10362.883188
1671.851524,-7277.907231,-22650.301825,17246.798449
1671.851841,-10955.165621,-18357.107362,21021.848753
1671.852159,-7048.078582,-23020.404796,28942.052332
1671.852476,-8656.879127,-18727.210333,22428.240043
1671.852793,-15628.348159,-12805.562797,18653.189738
1671.853111,-16394.443657,2368.659014,11399.171507
1671.853428,-3140.991542,21465.972318,10510.924376
1671.853746,5515.887586,21688.034101,14656.077652
1671.854063,1532.190996,32272.979071,148.041188
1671.854380,10035.851024,31606.793723,-4959.379811
1671.854698,6511.811733,27979.784608,-20207.622217
1671.855015,12410.747068,1406.391290,-9696.697840
1671.855333,9652.803275,-11177.109724,12435.459826
1671.855650,7890.783629,-14063.912898,14211.954086
1671.855967,3830.477490,-17690.922014,16136.489536
1671.856285,-5132.839837,-21169.889941,18283.086767
1671.856602,-7890.783629,-18949.272115,23242.466579
1671.856920,-7507.735880,-15470.304188,23834.631332
1671.857237,-2528.115143,-12879.583391,24426.796086
1671.857555,-4673.182538,-7254.018232,20651.745782
1671.857872,-6435.202183,5477.523971,8882.471304
1671.858189,-3830.477490,20059.581028,2294.638420
1671.858507,9499.584175,18283.086767,19171.333898
1671.858824,7584.345430,26869.475695,3034.844362
1671.859142,7660.954980,21169.889941,-7402.059420
1671.859459,9193.145976,20725.766376,-13915.871710
1671.859776,12027.699319,12065.356855,-16432.571912
1671.860094,14325.985813,-10214.842000,16210.510130
1671.860411,8810.098227,-24204.734303,21317.931130
1671.860729,-3983.696590,-21095.869347,8438.347739
1671.861046,-4749.792088,-17172.777854,18579.169144
1671.861363,-11797.870669,-12583.501014,16136.489536
1671.861681,-3447.429741,-16432.571912,33531.329173
1671.861998,-5898.935335,-9696.697840,16876.695478
1671.862316,-5898.935335,-7550.100608,15248.242405
1671.862633,-11261.603821,4293.194464,14952.160028
1671.862951,-4136.915689,18283.086767,13471.748144
1671.863268,9806.022374,15248.242405,17764.942608
1671.863585,1455.581446,31310.711347,-2812.782580
1671.863903,11031.775171,29682.258274,-1628.453072
1671.864220,9499.584175,28497.928767,-15618.345376
1671.864538,18769.339701,1480.411884,-9992.780217
1671.864855,15551.738609,-7698.141797,3552.988522
1671.865172,10418.898773,-12805.562797,11695.253884
1671.865490,2834.553343,-18283.086767,12435.459826
1671.865807,-3064.381992,-20133.601622,18209.066173
1671.866125,-7431.126331,-12879.583391,12731.542202
1671.866442,-5975.544884,-13619.789333,21539.992912
1671.866759,-2681.334243,-10362.883188,18949.272115
1671.867077,-3064.381992,-3478.967927,10510.924376
1671.867394,-6665.030833,2812.782580,4293.194464
1671.867712,-6435.202183,17320.819043,2664.741391
1671.868029,1532.190996,17468.860231,17468.860231
1671.868346,3447.429741,22798.343014,7179.997637
1671.868664,3217.601092,22576.281231,-13471.748144
1671.868981,1302.362347,20207.622217,-11547.212695
1671.869299,4519.963438,8660.409521,-1554.432478
1671.869616,7507.735880,-12139.377449,27313.599260
1671.869934,2451.505594,-19245.354492,13619.789333
1671.870251,-2528.115143,-17764.942608,13841.851115
1671.870568,-8963.317327,-13471.748144,19097.313304
1671.870886,-9806.022374,-13545.768739,9992.780217
1671.871203,-4519.963438,-10214.842000,14730.098246
1671.871521,-4366.744339,-7476.080014,18727.210333
1671.871838,-7048.078582,-3108.864956,9326.594869
1671.872155,-8810.098227,8142.265362,2072.576638
1671.872473,-689.485948,6735.874072,12361.439231
1671.872790,-5362.668486,6291.750507,17024.736666
1671.873108,229.828649,17098.757260,6809.894666
1671.873425,5362.668486,22872.363608,-8290.306550
1671.873742,5439.278036,18283.086767,-7031.956449
1671.874060,12180.918418,-5625.565159,5847.626942
1671.874377,9806.022374,-5995.668130,18875.251521
1671.874695,13636.499864,-8068.244768,14952.160028
1671.875012,9039.926876,-15470.304188,12213.398043
1671.875330,-3907.087040,-14063.912898,11769.274478
1671.875647,-5745.716235,-11843.295072,14359.995275
1671.875964,-1149.143247,-2886.803174,11399.171507
1671.876282,-1302.362347,-2886.803174,16136.489536
1671.876599,-4136.915689,-518.144159,10288.862594
1671.876917,-4979.620737,6143.709319,4071.132681
1671.877234,-2451.505594,6587.832884,9992.780217
1671.877551,1991.848295,1702.473667,24056.693115
1671.877869,4596.572988,9326.594869,14878.139434
1671.878186,4749.792088,16062.468941,-10362.883188
1671.878504,5822.325785,18431.127956,-8512.368333
1671.878821,10035.851024,4515.256246,8438.347739
1671.879138,12257.527968,-10584.944971,26795.455100
1671.879456,13023.623466,-11103.089130,15618.345376
1671.879773,4826.401637,-6957.935855,2368.659014
1671.880091,766.095498,-9474.636058,10362.883188
1671.880408,612.876398,-14285.974681,15914.427753
1671.880726,-919.314598,-3330.926739,5403.503377
1671.881043,-6894.859482,-74.020594,4589.276840
1671.881360,-8197.221829,740.205942,5107.421000
1671.881678,-5822.325785,1036.288319,8882.471304
1671.881995,-5745.716235,-1924.535449,15026.180623
1671.882313,-6281.983084,-8290.306550,24352.775492
1671.882630,-2145.067394,-962.267725,24722.878463
1671.882947,-1072.533697,14656.077652,3849.070898
1671.883265,5898.935335,9992.780217,5477.523971
1671.883582,9116.536426,5107.421000,4885.359217
1671.883900,9499.584175,7698.141797,11843.295072
1671.884217,20301.530697,5107.421000,16580.613101
1671.884534,13176.842566,8438.347739,-6735.874072
1671.884852,11031.775171,3478.967927,-2960.823768
1671.885169,6358.592633,-3034.844362,5033.400406
1671.885487,3753.867940,-6735.874072,3256.906145
1671.885804,-5056.230287,-7550.100608,-1258.350101
1671.886122,-11338.213370,-8216.285956,7105.977043
1671.886439,-14632.424012,-9548.656652,10510.924376
1671.886756,-11797.870669,-5995.668130,14063.912898
1671.887074,-10495.508323,-15100.201217,26573.393318
1671.887391,-14325.985813,-16284.530724,32865.143825
1671.887709,-13023.623466,-1850.514855,19837.519246
1671.888026,-3753.867940,17912.983796,7920.203579
1671.888343,4673.182538,18357.107362,2368.659014
1671.888661,9652.803275,13249.686362,4219.173869
1671.888978,8427.050478,15840.407159,-222.061783
1671.889296,11338.213370,14359.995275,-3627.009116
1671.889613,9652.803275,8956.491898,518.144159
1671.889930,10418.898773,-3997.112087,8216.285956
1671.890248,5132.839837,-1258.350101,4885.359217
1671.890565,689.485948,-9030.512492,4293.194464
1671.890883,-9576.193725,-12509.480420,2664.741391
1671.891200,-13789.718964,-18653.189738,17246.798449
1671.891518,-12334.137518,-15100.201217,19689.478057
1671.891835,-10265.679673,-10288.862594,13841.851115
1671.892152,-9193.145976,-9918.759623,18579.169144
1671.892470,-10035.851024,-10732.986159,28423.908173
1671.892787,-7814.174080,-518.144159,15692.365970
1671.893105,4213.525239,11695.253884,12583.501014
1671.893422,8350.440928,21169.889941,3256.906145
1671.893739,11414.822920,22576.281231,-1110.308913
1671.894057,19305.606550,18357.107362,7031.956449
1671.894374,16164.615008,18579.169144,-7772.162391
1671.894692,19995.092498,5625.565159,666.185348
1671.895009,21527.283494,-6809.894666,14285.974681
1671.895326,10648.727422,-7550.100608,5995.668130
1671.895644,4673.182538,-14063.912898,3478.967927
1671.895961,-6435.202183,-11917.315666,8882.471304
1671.896279,-5515.887586,-13915.871710,17987.004391
1671.896596,-8733.488677,-9030.512492,18949.272115
1671.896914,-8273.831378,-11473.192101,13323.706956
1671.897231,-12717.185267,-12213.398043,15988.448347
1671.897548,-11414.822920,-5625.565159,27683.702231
1671.897866,-2451.505594,2886.803174,25092.981434
1671.898183,1455.581446,16284.530724,8216.285956
1671.898501,7660.954980,23168.445985,-3034.844362
1671.898818,6511.811733,23020.404796,-2368.659014
1671.899135,12334.137518,15026.180623,2590.720797
1671.899453,15168.690860,10955.047942,-4589.276840
1671.899770,18922.558801,740.205942,9696.697840
1671.900088,12257.527968,-3182.885551,9474.636058
1671.900405,7354.516781,-9252.574275,10214.842000
1671.900722,229.828649,-15026.180623,12139.377449
1671.901040,-9039.926876,-12805.562797,9474.636058
1671.901357,-8350.440928,-12361.439231,11917.315666
1671.901675,-10955.165621,-5107.421000,13027.624579
1671.901992,-8197.221829,-1998.556043,10214.842000
1671.902309,-14785.643111,-4589.276840,4367.215058
1671.902627,-13866.328514,-4959.379811,24426.796086
1671.902944,-8427.050478,-2886.803174,25315.043216
1671.903262,-1532.190996,15988.448347,9992.780217
1671.903579,3370.820191,16802.674883,-1110.308913
1671.903897,3140.991542,16210.510130,-1332.370696
1671.904214,8963.317327,14285.974681,3256.906145
1671.904531,14938.862211,13693.809927,7254.018232
1671.904849,16011.395908,-222.061783,7254.018232
1671.905166,12947.013916,-5329.482782,9844.739029
1671.905484,6205.373534,-5921.647536,6365.771101
1671.905801,-1762.019645,-11843.295072,5181.441594
1671.906118,-5439.278036,-14137.933492,10288.862594
1671.906436,-9269.755526,-9844.739029,12509.480420
1671.906753,-12793.794817,-5181.441594,10807.006753
1671.907071,-9882.631924,-2886.803174,3034.844362
1671.907388,-13866.328514,-4737.318029,9548.656652
1671.907705,-12870.404366,-10955.047942,32643.082042
1671.908023,-9882.631924,-0.000000,19763.498651
1671.908340,1915.238745,15766.386565,9030.512492
1671.908658,4443.353888,20651.745782,-1924.535449
1671.908975,3140.991542,15322.262999,-3034.844362
1671.909293,8503.660028,10510.924376,814.226536
1671.909610,11721.261119,7624.121203,7624.121203
1671.909927,13866.328514,-2886.803174,12805.562797
1671.910245,10648.727422,-6217.729913,8142.265362
1671.910562,6358.592633,-5181.441594,6365.771101
1671.910880,0.000000,-12879.583391,12213.398043
1671.911197,-6971.469032,-13101.645173,12583.501014
1671.911514,-7737.564530,-12213.398043,12879.583391
1671.911832,-10725.336972,-3627.009116,8438.347739
1671.912149,-7814.174080,1258.350101,962.267725
1671.912467,-7737.564530,-1850.514855,5699.585753
1671.912784,-8044.002729,-7550.100608,29756.278868
1671.913101,-2681.334243,-3256.906145,24944.940245
1671.913419,3524.039291,13767.830521,7179.997637
1671.913736,7737.564530,16950.716072,1850.514855
1671.914054,9576.193725,11029.068536,2368.659014
1671.914371,14096.157163,8512.368333,6661.853478
1671.914689,17466.977354,11695.253884,2220.617826
1671.915006,21603.893044,3997.112087,5033.400406
1671.915323,15934.786358,-4071.132681,7550.100608
1671.915641,10878.556072,-3701.029710,3849.070898
1671.915958,7201.297681,-9400.615463,7624.121203
1671.916276,-3907.087040,-9696.697840,7846.182985
1671.916593,-6818.249932,-16580.613101,16802.674883
1671.916910,-13330.061665,-7772.162391,13249.686362
1671.917228,-6971.469032,-3701.029710,9104.533087
1671.917545,-9499.584175,-4737.318029,7994.224174
1671.917863,-8120.612279,-10881.027347,30200.402434
1671.918180,-8044.002729,-370.102971,20577.725188
1671.918497,0.000000,15840.407159,13767.830521
1671.918815,4596.572988,21391.951724,-1332.370696
1671.919132,6128.763984,19097.313304,-5329.482782
1671.919450,11568.042020,12879.583391,5107.421000
1671.919767,10955.165621,11843.295072,-2146.597232
1671.920085,14096.157163,1850.514855,8808.450710
1671.920402,9499.584175,-5477.523971,11029.068536
1671.920719,6358.592633,-7105.977043,6365.771101
1671.921037,0.000000,-11917.315666,11917.315666
1671.921354,-10112.460574,-10658.965565,12583.501014
1671.921672,-10418.898773,-14063.912898,14359.995275
1671.921989,-13636.499864,-10658.965565,10881.027347
1671.922306,-11414.822920,-1332.370696,3404.947333
1671.922624,-11568.042020,-3775.050304,11251.130318
1671.922941,-14785.643111,-5181.441594,23834.631332
1671.923259,-7967.393179,-1628.453072,21243.910535
1671.923576,-3294.210641,14804.118840,10214.842000
1671.923893,1149.143247,22946.384202,1184.329507
1671.924211,5745.716235,17987.004391,-2220.617826
1671.924528,10495.508323,15692.365970,3108.864956
1671.924846,13176.842566,13323.706956,3108.864956
1671.925163,14325.985813,3627.009116,5699.585753
1671.925481,10112.460574,-4811.338623,8660.409521
1671.925798,8197.221829,-7698.141797,7550.100608
1671.926115,1225.752797,-11991.336260,13471.748144
1671.926433,-5669.106685,-16210.510130,13619.789333
1671.926750,-8656.879127,-15692.365970,15248.242405
1671.927068,-8503.660028,-12139.377449,17468.860231
1671.927385,-8733.488677,-1776.494261,7846.182985
1671.927702,-5056.230287,-2442.679609,6217.729913
1671.928020,-9499.584175,-3108.864956,22650.301825
1671.928337,-4443.353888,-74.020594,20429.683999
1671.928655,2834.553343,15988.448347,11843.295072
1671.928972,5515.887586,27091.537477,-8068.244768
1671.929289,9806.022374,18209.066173,1332.370696
1671.929607,13176.842566,11399.171507,814.226536
1671.929924,14402.595362,9992.780217,-6439.791695
1671.930241,17466.977354,-592.164754,10584.944971
1671.930558,8733.488677,-6587.832884,10584.944971
1671.930876,6435.202183,-12879.583391,9844.739029
1671.931193,-536.266849,-14582.057057,15248.242405
1671.931510,-9193.145976,-13397.727550,18283.086767
1671.931828,-8886.707777,-13767.830521,18949.272115
1671.932145,-11644.651570,-10436.903782,14952.160028
1671.932462,-5056.230287,-4663.297435,11325.150913
1671.932780,-7737.564530,-2738.761985,7254.018232
1671.933097,-7737.564530,-1406.391290,19763.498651
1671.933414,-2911.162892,1184.329507,22132.157666
1671.933732,3677.258390,16950.716072,10510.924376
1671.934049,6818.249932,24130.713709,-7105.977043
1671.934366,9806.022374,18283.086767,2590.720797
1671.934683,12027.699319,11991.336260,1924.535449
1671.935001,17160.539155,11547.212695,-3997.112087
1671.935318,19382.216099,-74.020594,3256.906145
1671.935635,9269.755526,-7994.224174,7105.977043
1671.935953,7048.078582,-14804.118840,6513.812290
1671.936270,2834.553343,-17394.839637,15692.365970
1671.936587,-6358.592633,-15248.242405,18061.024985
1671.936905,-9116.536426,-14434.015869,17172.777854
1671.937222,-11414.822920,-9252.574275,14211.954086
1671.937539,-5439.278036,-4293.194464,13027.624579
1671.937856,-7507.735880,1998.556043,7179.997637
1671.938174,-9729.412825,-1406.391290,18283.086767
1671.938491,-7277.907231,1480.411884,20133.601622
1671.938808,229.828649,20799.786970,8142.265362
1671.939126,2681.334243,27757.722825,-9548.656652
1671.939443,7584.345430,18283.086767,1258.350101
1671.939760,7814.174080,11547.212695,-5847.626942
1671.940078,14785.643111,9918.759623,444.123565
1671.940395,14709.033562,-3849.070898,14730.098246
1671.940712,2681.334243,-9548.656652,7624.121203
1671.941030,3524.039291,-14211.954086,7698.141797
1671.941347,-7660.954980,-13323.706956,12213.398043
1671.941664,-11031.775171,-17320.819043,19837.519246
1671.941981,-14632.424012,-10955.047942,15026.180623
1671.942299,-13253.452115,-9844.739029,12065.356855
1671.942616,-7201.297681,-5403.503377,8512.368333
1671.942933,-11338.213370,962.267725,7476.080014
1671.943251,-12563.966167,-4663.297435,21317.931130
1671.943568,-7967.393179,-0.000000,23612.569550
1671.943885,-306.438199,20207.622217,6735.874072
1671.944203,5286.058936,25167.002028,-2960.823768
1671.944520,9116.536426,18579.169144,3997.112087
1671.944837,12563.966167,13841.851115,-296.082377
1671.945154,19841.873398,12287.418637,296.082377
1671.945472,17007.320056,2590.720797,3923.091493
1671.945789,9806.022374,-12213.398043,11769.274478
1671.946106,4903.011187,-14508.036463,7698.141797
1671.946424,0.000000,-13989.892304,16284.530724
1671.946741,-4366.744339,-18727.210333,19837.519246
1671.947058,-8963.317327,-13397.727550,17764.942608
1671.947376,-4979.620737,-11473.192101,16062.468941
1671.947693,-1608.800546,-222.061783,12953.603985
1671.948010,-1378.971896,-0.000000,3997.112087
1671.948328,-3217.601092,-370.102971,18209.066173
1671.948645,-1762.019645,3552.988522,18431.127956
1671.948962,7354.516781,22872.363608,4811.338623
1671.949279,7354.516781,27535.661042,-13101.645173
1671.949597,12257.527968,15840.407159,6365.771101
1671.949914,14938.862211,7031.956449,-1406.391290
1671.950231,15781.567259,8808.450710,-1184.329507
1671.950549,19228.997000,-6883.915261,15766.386565
1671.950866,4136.915689,-11547.212695,10584.944971
1671.951183,3064.381992,-14434.015869,6957.935855
1671.951501,-2068.457845,-12657.521608,12361.439231
1671.951818,-9576.193725,-13989.892304,17912.983796
1671.952135,-12870.404366,-10288.862594,18209.066173
1671.952452,-12180.918418,-7920.203579,13101.645173
1671.952770,-5132.839837,-3034.844362,8512.368333
1671.953087,-9039.926876,740.205942,10584.944971
1671.953404,-12947.013916,-7772.162391,21836.075289
1671.953722,-9806.022374,-1776.494261,21762.054695
1671.954039,-1532.190996,17912.983796,7846.182985
1671.954356,2451.505594,21391.951724,-1850.514855
1671.954674,6205.373534,18357.107362,4737.318029
1671.954991,11184.994271,17394.839637,-3701.029710
1671.955308,19152.387450,13989.892304,-2886.803174
1671.955626,15321.909960,1998.556043,5255.462188
1671.955943,7660.954980,-7994.224174,4885.359217
1671.956260,4596.572988,-14656.077652,5107.421000
1671.956577,-4136.915689,-17024.736666,11547.212695
1671.956895,-8656.879127,-18283.086767,19097.313304
1671.957212,-12640.575717,-11917.315666,14063.912898
1671.957529,-11184.994271,-9696.697840,12879.583391
1671.957847,-6205.373534,-3182.885551,8216.285956
1671.958164,-9576.193725,-3701.029710,14359.995275
1671.958481,-12563.966167,-4737.318029,22058.137072
1671.958799,-7431.126331,1850.514855,19023.292709
1671.959116,612.876398,27535.661042,5699.585753
1671.959433,3907.087040,27091.537477,-7920.203579
1671.959750,7660.954980,16802.674883,5329.482782
1671.960068,8733.488677,10732.986159,-3552.988522
1671.960385,15398.519510,10584.944971,4663.297435
1671.960702,13942.938064,-5773.606348,12731.542202
1671.961020,5056.230287,-10066.800811,10066.800811
1671.961337,5439.278036,-13841.851115,11695.253884
1671.961654,-2681.334243,-10881.027347,14359.995275
1671.961972,-7584.345430,-18579.169144,20059.581028
1671.962289,-13406.671215,-9030.512492,10881.027347
1671.962606,-6128.763984,-7402.059420,14137.933492
1671.962924,-2528.115143,1998.556043,5551.544565
1671.963241,-3907.087040,-518.144159,4885.359217
1671.963558,-9576.193725,-8882.471304,20503.704593
1671.963875,-6818.249932,-5107.421000,23612.569550
1671.964193,1455.581446,15322.262999,11029.068536
1671.964510,7354.516781,22206.178260,-1850.514855
1671.964827,8580.269578,14063.912898,4441.235652
1671.965145,14402.595362,12805.562797,2294.638420
1671.965462,18079.853753,14508.036463,2516.700203
1671.965779,18079.853753,1184.329507,3330.926739
1671.966097,11261.603821,-11621.233289,5699.585753
1671.966414,5592.497135,-14359.995275,12139.377449
1671.966731,1455.581446,-13101.645173,12879.583391
1671.967049,-5669.106685,-12879.583391,12583.501014
1671.967366,-8656.879127,-9992.780217,18209.066173
1671.967683,-5362.668486,-7772.162391,18431.127956
1671.968000,-1991.848295,1480.411884,10584.944971
1671.968318,-2068.457845,-4145.153275,11177.109724
1671.968635,-10035.851024,-3108.864956,14582.057057
1671.968952,-6281.983084,666.185348,20059.581028
1671.969270,2911.162892,21317.931130,7772.162391
1671.969587,6435.202183,25981.228564,-7254.018232
1671.969904,8197.221829,16580.613101,2590.720797
1671.970222,8963.317327,10955.047942,-4515.256246
1671.970539,15015.471761,9918.759623,3182.885551
1671.970856,14555.814462,-5033.400406,14656.077652
1671.971173,6052.154434,-10584.944971,5551.544565
1671.971491,3907.087040,-13693.809927,8734.430116
1671.971808,-1991.848295,-9696.697840,12287.418637
1671.972125,-8427.050478,-12953.603985,15026.180623
1671.972443,-11721.261119,-8956.491898,13397.727550
1671.972760,-9499.584175,-7402.059420,9548.656652
1671.973077,-4749.792088,444.123565,6291.750507
1671.973395,-8963.317327,444.123565,7328.038826
1671.973712,-11797.870669,-8586.388927,21614.013506
1671.974029,-10035.851024,-9474.636058,25389.063811
1671.974347,-3524.039291,16358.551318,10288.862594
1671.974664,3907.087040,22354.219448,518.144159
1671.974981,5745.716235,18875.251521,-148.041188
1671.975298,11491.432470,15248.242405,666.185348
1671.975616,16930.710506,16136.489536,2516.700203
1671.975933,13176.842566,3552.988522,2368.659014
1671.976250,8580.269578,-8142.265362,3923.091493
1671.976568,3677.258390,-11547.212695,9030.512492
1671.976885,-4060.306139,-10214.842000,8734.430116
1671.977202,-5745.716235,-17838.963202,14730.098246
1671.977520,-12487.356617,-11251.130318,15396.283594
1671.977837,-7354.516781,-11621.233289,21021.848753
1671.978154,-7584.345430,-4959.379811,12361.439231
1671.978471,-7737.564530,-6957.935855,10066.800811
1671.978789,-12257.527968,-6217.729913,21614.013506
1671.979106,-9576.193725,-666.185348,22946.384202
1671.979423,0.000000,23760.610738,9696.697840
1671.979741,5822.325785,31162.670158,-9252.574275
1671.980058,8350.440928,20281.642811,518.144159
1671.980375,9422.974625,13693.809927,-2368.659014
1671.980693,14709.033562,9992.780217,1924.535449
1671.981010,15092.081311,-5625.565159,17394.839637
1671.981327,4519.963438,-12879.583391,4737.318029
1671.981645,5209.449386,-16062.468941,13027.624579
1671.981962,-2145.067394,-11917.315666,17468.860231
1671.982279,-4290.134789,-16358.551318,23760.610738
1671.982596,-9346.365076,-6735.874072,8882.471304
1671.982914,-3370.820191,-4515.256246,16210.510130
1671.983231,-1149.143247,2960.823768,10510.924376
1671.983548,-3447.429741,814.226536,1406.391290
1671.983866,-6511.811733,-5477.523971,14359.995275
1671.984183,-5669.106685,-5033.400406,26203.290347
1671.984500,536.266849,16580.613101,8512.368333
1671.984818,9116.536426,25611.125593,-2960.823768
1671.985135,10495.508323,15840.407159,3701.029710
1671.985452,14249.376263,11547.212695,4737.318029
1671.985769,16241.224558,10214.842000,3552.988522
1671.986087,15398.519510,814.226536,6439.791695
1671.986404,11721.261119,-9104.533087,7550.100608
1671.986721,6281.983084,-12213.398043,7698.141797
1671.987039,2068.457845,-10288.862594,10955.047942
1671.987356,-2221.676944,-11769.274478,13915.871710
1671.987673,-7277.907231,-9696.697840,13545.768739
1671.987991,-9346.365076,-7031.956449,14211.954086
1671.988308,-5975.544884,148.041188,9918.759623
1671.988625,-7124.688131,-2072.576638,7254.018232
1671.988943,-10801.946522,-7254.018232,19023.292709
1671.989260,-11797.870669,-5773.606348,23168.445985
1671.989577,-3983.696590,16210.510130,9252.574275
1671.989894,5056.230287,23982.672521,-370.102971
1671.990212,7507.735880,17246.798449,-2516.700203
1671.990529,6435.202183,13471.748144,-1480.411884
1671.990846,10112.460574,8734.430116,6069.688724
1671.991164,8810.098227,-3108.864956,10955.047942
1671.991481,5669.106685,-10214.842000,5477.523971
1671.991798,2987.772442,-12065.356855,10214.842000
1671.992116,-2757.943793,-10732.986159,14508.036463
1671.992433,-3217.601092,-16284.530724,14434.015869
1671.992750,-9346.365076,-8142.265362,7772.162391
1671.993067,-7507.735880,-7550.100608,15026.180623
1671.993385,-8733.488677,1406.391290,3923.091493
1671.993702,-6281.983084,2516.700203,222.061783
1671.994019,-10955.165621,-6587.832884,16136.489536
1671.994337,-9269.755526,-10140.821405,29682.258274
1671.994654,-5362.668486,8808.450710,9548.656652
1671.994971,1838.629195,22872.363608,3034.844362
1671.995289,11261.603821,13989.892304,5255.462188
1671.995606,7967.393179,12731.542202,740.205942
1671.995923,12717.185267,8438.347739,8290.306550
1671.996241,12334.137518,7105.977043,3923.091493
1671.996558,11184.994271,-2368.659014,2072.576638
1671.996875,9039.926876,-7624.121203,11473.192101
1671.997192,2298.286494,-9252.574275,14730.098246
1671.997510,0.000000,-11251.130318,10362.883188
1671.997827,-7277.907231,-6143.709319,2812.782580
1671.998144,-3907.087040,-8734.430116,19615.457463
1671.998462,-9422.974625,-2960.823768,9548.656652
1671.998779,-6511.811733,-1924.535449,2516.700203
1671.999096,-6665.030833,-9326.594869,18801.230927
1671.999414,-13483.280765,-10732.986159,25759.166782
1671.999731,-4749.792088,2072.576638,21021.848753
1672.000048,2451.505594,22576.281231,1332.370696
1672.000366,10035.851024,19023.292709,370.102971
1672.000683,6665.030833,13693.809927,-4145.153275
1672.001000,7507.735880,12139.377449,2368.659014
1672.001317,10878.556072,4219.173869,11917.315666
1672.001635,10265.679673,-3627.009116,7254.018232
1672.001952,7584.345430,-11843.295072,5995.668130
1672.002269,3524.039291,-9548.656652,17616.901420
1672.002587,0.000000,-8290.306550,13989.892304
1672.002904,-1838.629195,-9252.574275,5847.626942
1672.003221,-4673.182538,-12065.356855,20577.725188
1672.003539,-8810.098227,-3923.091493,11621.233289
1672.003856,-4826.401637,6661.853478,-4293.194464
1672.004173,-2145.067394,-0.000000,7328.038826
1672.004490,-8350.440928,-10510.924376,22650.301825
1672.004808,-4903.011187,-7179.997637,25092.981434
1672.005125,612.876398,18949.272115,518.144159
1672.005442,9806.022374,19689.478057,2590.720797
1672.005760,11951.089769,10807.006753,6143.709319
1672.006077,9959.241474,8290.306550,3256.906145
1672.006394,14632.424012,8808.450710,7550.100608
1672.006712,13100.233016,4737.318029,1184.329507
1672.007029,12793.794817,-6365.771101,5773.606348
1672.007346,8963.317327,-12361.439231,17320.819043
1672.007664,2987.772442,-4441.235652,9918.759623
1672.007981,536.266849,-3701.029710,1332.370696
1672.008298,-7277.907231,-7476.080014,12139.377449
1672.008615,-8273.831378,-9252.574275,13545.768739
1672.008933,-9959.241474,666.185348,4663.297435
1672.009250,-8350.440928,-8216.285956,11547.212695
1672.009567,-14096.157163,-13323.706956,20429.683999
1672.009885,-13253.452115,-9474.636058,26647.413912
1672.010202,-4673.182538,14878.139434,11695.253884
1672.010519,4903.011187,23538.548956,3256.906145
1672.010837,6511.811733,16358.551318,0.000000
1672.011154,2987.772442,13027.624579,-4293.194464
1672.011471,7354.516781,9622.677246,3182.885551
1672.011788,7277.907231,2886.803174,9844.739029
1672.012106,5286.058936,-7105.977043,5181.441594
1672.012423,3140.991542,-11399.171507,11991.336260
1672.012740,-383.047749,-6217.729913,16728.654289
1672.013058,-383.047749,-9400.615463,15988.448347
1672.013375,-8733.488677,-11251.130318,6069.688724
1672.013692,-5592.497135,-13397.727550,17394.839637
1672.014010,-10648.727422,-1184.329507,4811.338623
1672.014327,-7737.564530,3330.926739,-370.102971
1672.014644,-6894.859482,-4441.235652,11917.315666
1672.014962,-10955.165621,-5477.523971,22132.157666
1672.015279,-2068.457845,3627.009116,22428.240043
1672.015596,2604.724693,23020.404796,-740.205942
1672.015913,9576.193725,13027.624579,4219.173869
1672.016231,11951.089769,10732.986159,5477.523971
1672.016548,11644.651570,6661.853478,4293.194464
1672.016865,12487.356617,5847.626942,3775.050304
1672.017183,12947.013916,2960.823768,2960.823768
1672.017500,12104.308868,-6143.709319,11473.192101
1672.017817,9116.536426,-10214.842000,16432.571912
1672.018135,4519.963438,-6809.894666,10436.903782
1672.018452,-1838.629195,-4885.359217,2664.741391
1672.018769,-1225.752797,-9844.739029,17616.901420
1672.019086,-7124.688131,-6513.812290,11103.089130
1672.019404,-7814.174080,-518.144159,3404.947333
1672.019721,-5132.839837,-5921.647536,12435.459826
1672.020038,-8963.317327,-8290.306550,21465.972318
1672.020356,-6358.592633,-4959.379811,21836.075289
1672.020673,3370.820191,17024.736666,6957.935855
1672.020990,8580.269578,23686.590144,1110.308913
1672.021308,11108.384721,16210.510130,-1998.556043
1672.021625,6894.859482,5625.565159,1258.350101
1672.021942,5592.497135,3923.091493,7031.956449
1672.022260,9499.584175,-2664.741391,12287.418637
1672.022577,4060.306139,-5773.606348,3775.050304
1672.022894,6971.469032,-11991.336260,19837.519246
1672.023211,1302.362347,-6291.750507,16432.571912
1672.023529,689.485948,-2738.761985,9844.739029
1672.023846,-6665.030833,-6365.771101,7179.997637
1672.024163,-7737.564530,-11547.212695,16580.613101
1672.024481,-10342.289223,-3330.926739,5477.523971
1672.024798,-6818.249932,-74.020594,6587.832884
1672.025115,-10035.851024,-5181.441594,12361.439231
1672.025433,-8963.317327,-2886.803174,21243.910535
1672.025750,0.000000,10362.883188,14211.954086
1672.026067,3217.601092,23242.466579,-888.247130
1672.026384,9959.241474,11325.150913,4071.132681
1672.026702,9116.536426,4663.297435,6883.915261
1672.027019,8044.002729,4515.256246,8882.471304
1672.027336,10112.460574,7624.121203,5181.441594
1672.027654,8350.440928,4515.256246,-1628.453072
1672.027971,6818.249932,-5329.482782,11695.253884
1672.028288,5745.716235,-8290.306550,17394.839637
1672.028606,1608.800546,-3775.050304,6883.915261
1672.028923,-9346.365076,-4219.173869,296.082377
1672.029240,-3983.696590,-13323.706956,19763.498651
1672.029558,-12717.185267,-7105.977043,10288.862594
1672.029875,-9422.974625,-6365.771101,8290.306550
1672.030192,-12257.527968,-7179.997637,17246.798449
1672.030509,-14632.424012,-4663.297435,19097.313304
1672.030827,-3677.258390,4885.359217,20355.663405
1672.031144,1915.238745,25537.104999,-2664.741391
1672.031461,10265.679673,20577.725188,3330.926739
1672.031778,8350.440928,9622.677246,1702.473667
1672.032096,5132.839837,1850.514855,3849.070898
1672.032413,2834.553343,3404.947333,5847.626942
1672.032730,6665.030833,888.247130,7624.121203
1672.033048,3983.696590,-7920.203579,10436.903782
1672.033365,6818.249932,-14211.954086,21910.095883
1672.033682,-1225.752797,-8216.285956,14804.118840
1672.033999,-3140.991542,-5403.503377,6957.935855
1672.034317,-2911.162892,-10807.006753,15174.221811
1672.034634,-5822.325785,-12287.418637,17542.880825
1672.034951,-7814.174080,-2368.659014,8586.388927
1672.035268,-7201.297681,5477.523971,3627.009116
1672.035586,-4903.011187,2812.782580,7031.956449
1672.035903,-2298.286494,-148.041188,17690.922014
1672.036220,7507.735880,8586.388927,14434.015869
1672.036537,8044.002729,18579.169144,-2146.597232
1672.036855,13789.718964,10807.006753,1850.514855
1672.037172,11414.822920,-2072.576638,10732.986159
1672.037489,8886.707777,-370.102971,10510.924376
1672.037806,10878.556072,4293.194464,4515.256246
1672.038124,10878.556072,4071.132681,3701.029710
1672.038441,8733.488677,-6365.771101,9474.636058
1672.038758,6665.030833,-5921.647536,14656.077652
1672.039076,3294.210641,-3108.864956,11029.068536
1672.039393,-1991.848295,-3182.885551,7550.100608
1672.039710,-2528.115143,-10732.986159,14359.995275
1672.040027,-10418.898773,-5921.647536,9030.512492
1672.040345,-9269.755526,-4885.359217,9104.533087
1672.040662,-8350.440928,-1554.432478,13175.665768
1672.040979,-7967.393179,-2442.679609,14952.160028
1672.041296,1072.533697,3701.029710,17616.901420
1672.041614,2911.162892,19319.375086,1480.411884
1672.041931,9729.412825,14582.057057,2886.803174
1672.042248,6894.859482,5551.544565,2368.659014
1672.042565,4979.620737,-1776.494261,9400.615463
1672.042883,1302.362347,4663.297435,4811.338623
1672.043200,6281.983084,7994.224174,-666.185348
1672.043517,6205.373534,-2886.803174,6735.874072
1672.043834,5439.278036,-12509.480420,17468.860231
1672.044152,-1225.752797,-5625.565159,13397.727550
1672.044469,-6358.592633,-2812.782580,3701.029710
1672.044786,-5745.716235,-9918.759623,16210.510130
1672.045104,-12410.747068,-16210.510130,16432.571912
1672.045421,-14785.643111,-4959.379811,7550.100608
1672.045738,-10801.946522,2146.597232,11103.089130
1672.046055,-11644.651570,666.185348,8660.409521
1672.046373,-4749.792088,-3404.947333,19467.416275
1672.046690,2528.115143,10066.800811,13693.809927
1672.047007,6281.983084,19393.395680,2294.638420
1672.047324,11338.213370,13471.748144,1406.391290
1672.047642,7277.907231,3627.009116,8216.285956
1672.047959,7890.783629,5181.441594,6513.812290
1672.048276,9039.926876,13545.768739,-2738.761985
1672.048593,10265.679673,6587.832884,-3108.864956
1672.048911,6588.421283,-9030.512492,14508.036463
1672.049228,4060.306139,-12287.418637,21243.910535
1672.049545,0.000000,-5033.400406,10288.862594
1672.049863,-5515.887586,-7624.121203,8586.388927
1672.050180,-5209.449386,-16580.613101,18949.272115
1672.050497,-14555.814462,-10807.006753,12583.501014
1672.050814,-10189.070123,-1480.411884,7920.203579
1672.051132,-7737.564530,2738.761985,8438.347739
1672.051449,-6435.202183,-1776.494261,15840.407159
1672.051766,2374.896044,5107.421000,20503.704593
1672.052083,7507.735880,20947.828159,5181.441594
1672.052401,9882.631924,17616.901420,-296.082377
1672.052718,11338.213370,4293.194464,7328.038826
1672.053035,5898.935335,1850.514855,4367.215058
1672.053352,3983.696590,8438.347739,2960.823768
1672.053670,12027.699319,6883.915261,2516.700203
1672.053987,7124.688131,-6217.729913,8438.347739
1672.054304,9499.584175,-19467.416275,26795.455100
1672.054621,459.657299,-9326.594869,17172.777854
1672.054939,-2221.676944,-3849.070898,6587.832884
1672.055256,-2374.896044,-10140.821405,16062.468941
1672.055573,-8886.707777,-15026.180623,16802.674883
1672.055891,-11797.870669,-1998.556043,5181.441594
1672.056208,-6971.469032,7328.038826,6661.853478
1672.056525,-4443.353888,4367.215058,6143.709319
1672.056842,76.609550,-2960.823768,17468.860231
1672.057160,7737.564530,6365.771101,15692.365970
1672.057477,6971.469032,17987.004391,1110.308913
1672.057794,11491.432470,9178.553681,1406.391290
1672.058111,7967.393179,-2294.638420,10584.944971
1672.058429,6128.763984,2220.617826,7772.162391
1672.058746,9729.412825,10658.965565,666.185348
1672.059063,10112.460574,5403.503377,-518.144159
1672.059380,7660.954980,-8216.285956,14508.036463
1672.059698,4903.011187,-8660.409521,18209.066173
1672.060015,-383.047749,-1036.288319,5995.668130
1672.060332,-4826.401637,-1406.391290,6661.853478
1672.060649,-6358.592633,-15914.427753,15692.365970
1672.060967,-17237.148705,-9844.739029,5773.606348
1672.061284,-12257.527968,-2442.679609,7254.018232
1672.061601,-9806.022374,222.061783,11029.068536
1672.061919,-9882.631924,-5255.462188,16358.551318
1672.062236,-1072.533697,-1924.535449,22132.157666
1672.062553,306.438199,16284.530724,6143.709319
1672.062870,5209.449386,16506.592507,2664.741391
1672.063188,5362.668486,7031.956449,2368.659014
1672.063505,3064.381992,3923.091493,5033.400406
1672.063822,2911.162892,11843.295072,1998.556043
1672.064139,10112.460574,10066.800811,518.144159
1672.064457,4826.401637,-4663.297435,6661.853478
1672.064774,7660.954980,-18653.189738,24944.940245
1672.065091,459.657299,-8512.368333,18727.210333
1672.065408,-5362.668486,-2664.741391,2220.617826
1672.065726,-5515.887586,-7920.203579,11917.315666
1672.066043,-10725.336972,-13989.892304,16062.468941
1672.066360,-14479.204912,-2368.659014,7254.018232
1672.066677,-8580.269578,3552.988522,5773.606348
1672.066995,-6818.249932,2220.617826,6365.771101
1672.067312,-2528.115143,-10066.800811,24278.754898
1672.067629,4826.401637,2664.741391,20725.766376
1672.067947,5515.887586,17912.983796,4515.256246
1672.068264,10342.289223,13545.768739,814.226536
1672.068581,10878.556072,2072.576638,10732.986159
1672.068898,9039.926876,3997.112087,5181.441594
1672.069216,13406.671215,12065.356855,2368.659014
1672.069533,15015.471761,6883.915261,1036.288319
1672.069850,11338.213370,-6735.874072,11325.150913
1672.070167,11184.994271,-11473.192101,23982.672521
1672.070485,4213.525239,-1332.370696,9992.780217
1672.070802,-2068.457845,-2886.803174,296.082377
1672.071119,-4443.353888,-12065.356855,12065.356855
1672.071436,-10878.556072,-11843.295072,11251.130318
1672.071754,-10418.898773,-2516.700203,5181.441594
1672.072071,-5898.935335,2368.659014,9474.636058
1672.072388,-3600.648841,-5995.668130,19615.457463
1672.072705,-3907.087040,-4737.318029,23686.590144
1672.073023,2681.334243,10807.006753,13619.789333
1672.073340,4136.915689,21910.095883,888.247130
1672.073657,6281.983084,12065.356855,1406.391290
1672.073975,8503.660028,962.267725,10732.986159
1672.074292,3294.210641,10436.903782,-1480.411884
1672.074609,10801.946522,11695.253884,518.144159
1672.074926,7890.783629,-1110.308913,1406.391290
1672.075244,7431.126331,-16136.489536,23168.445985
1672.075561,5209.449386,-13323.706956,21910.095883
1672.075878,-2681.334243,-1998.556043,3330.926739
1672.076195,-7507.735880,-4145.153275,3849.070898
1672.076513,-9576.193725,-13323.706956,17024.736666
1672.076830,-12793.794817,-5995.668130,11547.212695
1672.077147,-9422.974625,1998.556043,7105.977043
1672.077464,-9039.926876,1258.350101,4441.235652
1672.077782,-7737.564530,-3552.988522,17987.004391
1672.078099,689.485948,-2442.679609,25759.166782
1672.078416,1378.971896,13619.789333,6217.729913
1672.078734,6052.154434,14211.954086,-1258.350101
1672.079051,4903.011187,5699.585753,9992.780217
1672.079368,6665.030833,-222.061783,11769.274478
1672.079685,7967.393179,13249.686362,148.041188
1672.080003,13176.842566,11103.089130,962.267725
1672.080320,8503.660028,-1924.535449,9030.512492
1672.080637,10801.946522,-9844.739029,20873.807564
1672.080954,1455.581446,-2220.617826,13841.851115
1672.081272,-4060.306139,-2886.803174,592.164754
1672.081589,-3447.429741,-7920.203579,9696.697840
1672.081906,-10342.289223,-11177.109724,9548.656652
1672.082223,-8733.488677,-7031.956449,7254.018232
1672.082541,-9116.536426,-888.247130,7105.977043
1672.082858,-8197.221829,-3478.967927,11399.171507
1672.083175,-6358.592633,-8734.430116,23908.651927
1672.083492,-2374.896044,2812.782580,19541.436869
1672.083810,612.876398,16580.613101,5773.606348
1672.084127,3983.696590,16136.489536,-888.247130
1672.084444,5439.278036,2442.679609,11695.253884
1672.084762,8273.831378,666.185348,9326.594869
1672.085079,7814.174080,13915.871710,-1480.411884
1672.085396,9576.193725,7846.182985,-666.185348
1672.085713,6665.030833,-5477.523971,11103.089130
1672.086031,8427.050478,-11473.192101,21021.848753
1672.086348,1532.190996,-7105.977043,11325.150913
1672.086665,-4366.744339,-6143.709319,4219.173869
1672.086982,-7967.393179,-10066.800811,9474.636058
1672.087300,-9269.755526,-10436.903782,13915.871710
1672.087617,-5669.106685,-3182.885551,10584.944971
1672.087934,-7277.907231,1036.288319,5995.668130
1672.088251,-5515.887586,1110.308913,5033.400406
1672.088569,612.876398,-2442.679609,22650.301825
1672.088886,3370.820191,4885.359217,15100.201217
1672.089203,8120.612279,10955.047942,6587.832884
1672.089520,8427.050478,10807.006753,0.000000
1672.089838,11261.603821,2146.597232,13693.809927
1672.090155,12257.527968,7476.080014,4589.276840
1672.090472,16777.491406,11621.233289,-962.267725
1672.090790,11951.089769,2590.720797,3034.844362
1672.091107,12947.013916,-5403.503377,11547.212695
1672.091424,7814.174080,-4885.359217,16358.551318
1672.091741,536.266849,-4885.359217,6735.874072
1672.092059,-2911.162892,-7402.059420,7624.121203
1672.092376,-5975.544884,-9696.697840,10658.965565
1672.092693,-7890.783629,-8068.244768,13841.851115
1672.093010,-5439.278036,-4145.153275,11769.274478
1672.093328,-9959.241474,2072.576638,2664.741391
1672.093645,-4979.620737,-962.267725,11843.295072
1672.093962,153.219100,-1998.556043,23760.610738
1672.094279,-1302.362347,7179.997637,10362.883188
1672.094597,3677.258390,13175.665768,3182.885551
1672.094914,2451.505594,12509.480420,2664.741391
1672.095231,4826.401637,2072.576638,9992.780217
1672.095548,4290.134789,7698.141797,2442.679609
1672.095866,6281.983084,8660.409521,1036.288319
1672.096183,2145.067394,-222.061783,7179.997637
1672.096500,6128.763984,-8734.430116,17912.983796
1672.096818,-919.314598,-7402.059420,17616.901420
1672.097135,-3677.258390,-10288.862594,9622.677246
1672.097452,-8197.221829,-3997.112087,6661.853478
1672.097769,-11414.822920,-4367.215058,8438.347739
1672.098087,-11951.089769,-444.123565,4959.379811
1672.098404,-8733.488677,-1258.350101,7920.203579
1672.098721,-12487.356617,1184.329507,4293.194464
1672.099038,-12563.966167,-1480.411884,17246.798449
1672.099356,-2374.896044,1332.370696,20725.766376
1672.099673,-2374.896044,5551.544565,10807.006753
1672.099990,2451.505594,5995.668130,9474.636058
1672.100307,2374.896044,7920.203579,13841.851115
1672.100625,5898.935335,7031.956449,8586.388927
1672.100942,10265.679673,12509.480420,1776.494261
1672.101259,11644.651570,6587.832884,5181.441594
1672.101576,8044.002729,-1924.535449,14952.160028
1672.101894,9422.974625,-4293.194464,16654.633695
1672.102211,7814.174080,-370.102971,13101.645173
1672.102528,766.095498,-6883.915261,6587.832884
1672.102846,2757.943793,-8512.368333,11917.315666
1672.103163,-1455.581446,-6809.894666,5107.421000
1672.103480,-3753.867940,-2960.823768,-296.082377
1672.103797,-3294.210641,-7772.162391,11843.295072
1672.104115,-6435.202183,-2664.741391,10214.842000
1672.104432,-1915.238745,-518.144159,19689.478057
1672.104749,3064.381992,7105.977043,14211.954086
1672.105066,3140.991542,4367.215058,13397.727550
1672.105384,4366.744339,1628.453072,8438.347739
1672.105701,6894.859482,4293.194464,9474.636058
1672.106018,9882.631924,6809.894666,7031.956449
1672.106335,12257.527968,11547.212695,2368.659014
1672.106653,11951.089769,3478.967927,2886.803174
1672.106970,5822.325785,-2294.638420,9992.780217
1672.107287,6358.592633,-7179.997637,20577.725188
1672.107605,3064.381992,-2886.803174,9104.533087
1672.107922,1225.752797,-5773.606348,3478.967927
1672.108239,-1302.362347,-9622.677246,8734.430116
1672.108556,-7814.174080,-7254.018232,9252.574275
1672.108874,-7660.954980,-2146.597232,4515.256246
1672.109191,-7048.078582,-4811.338623,6661.853478
1672.109508,-6128.763984,-4811.338623,9400.615463
1672.109825,-5439.278036,-3256.906145,19541.436869
1672.110143,-1685.410096,5403.503377,11843.295072
1672.110460,2604.724693,8512.368333,5181.441594
1672.110777,3140.991542,2590.720797,5551.544565
1672.111094,2451.505594,-1850.514855,14656.077652
1672.111412,5592.497135,8068.244768,7994.224174
1672.111729,7354.516781,15766.386565,-7328.038826
1672.112046,10035.851024,4885.359217,1480.411884
1672.112363,7201.297681,-4145.153275,16284.530724
1672.112681,4826.401637,-5773.606348,16580.613101
1672.112998,3983.696590,-592.164754,4219.173869
1672.113315,-4366.744339,-2664.741391,1110.308913
1672.113633,-5362.668486,-14211.954086,17912.983796
1672.113950,-8427.050478,-7105.977043,11177.109724
1672.114267,-6741.640382,518.144159,2368.659014
1672.114584,-7201.297681,-1776.494261,6883.915261
1672.114902,-6511.811733,-2294.638420,8068.244768
1672.115219,-3677.258390,-3552.988522,22206.178260
1672.115536,-2374.896044,6735.874072,12139.377449
1672.115853,3907.087040,9918.759623,11547.212695
1672.116171,766.095498,7698.141797,4885.359217
1672.116488,1532.190996,4441.235652,9770.718434
1672.116805,6128.763984,11843.295072,814.226536
1672.117122,6894.859482,15470.304188,-7328.038826
1672.117440,7507.735880,518.144159,7476.080014
1672.117757,2987.772442,-9474.636058,18875.251521
1672.118074,-2757.943793,-8956.491898,22428.240043
1672.118391,-2681.334243,-4885.359217,14211.954086
1672.118709,-8044.002729,-4663.297435,7698.141797
1672.119026,-7124.688131,-13619.789333,17764.942608
1672.119343,-7737.564530,-5995.668130,14730.098246
1672.119661,-7507.735880,5551.544565,1184.329507
1672.119978,-8044.002729,4959.379811,-1850.514855
1672.120295,-5822.325785,1628.453072,7105.977043
1672.120612,3140.991542,-5107.421000,28423.908173
1672.120930,-3447.429741,6587.832884,9326.594869
1672.121247,5745.716235,10436.903782,9918.759623
1672.121564,3753.867940,6661.853478,7179.997637
1672.121881,6588.421283,2146.597232,17098.757260
1672.122199,9882.631924,7846.182985,8882.471304
1672.122516,9039.926876,18061.024985,-6809.894666
1672.122833,12257.527968,4737.318029,8660.409521
1672.123150,12257.527968,-9104.533087,19763.498651
1672.123468,4903.011187,-10658.965565,18875.251521
1672.123785,2987.772442,-6439.791695,11695.253884
1672.124102,-995.924147,296.082377,7105.977043
1672.124419,-2068.457845,-8290.306550,9252.574275
1672.124737,-3983.696590,-4367.215058,9474.636058
1672.125054,-4979.620737,-3330.926739,8364.327145
1672.125371,-7124.688131,4441.235652,666.185348
1672.125689,-1608.800546,-2960.823768,12287.418637
1672.126006,2145.067394,-7994.224174,25389.063811
1672.126323,459.657299,1036.288319,14804.118840
1672.126640,7354.516781,11251.130318,8734.430116
1672.126958,8656.879127,9548.656652,6957.935855
1672.127275,9806.022374,3404.947333,11325.150913
1672.127592,10878.556072,8660.409521,1036.288319
1672.127909,11874.480219,18579.169144,-11917.315666
1672.128227,11644.651570,7179.997637,1110.308913
1672.128544,9576.193725,-11251.130318,16210.510130
1672.128861,-2145.067394,-18505.148550,20799.786970
1672.129178,-4903.011187,-9918.759623,16580.613101
1672.129496,-7660.954980,-5255.462188,3997.112087
1672.129813,-10878.556072,-9474.636058,8734.430116
1672.130130,-7660.954980,-10436.903782,13915.871710
1672.130447,-11568.042020,-2442.679609,5773.606348
1672.130765,-10801.946522,4811.338623,-1924.535449
1672.131082,-8810.098227,888.247130,6365.771101
1672.131399,-2604.724693,-7105.977043,27017.516883
1672.131717,-2451.505594,-2590.720797,15544.324782
1672.132034,-1532.190996,12583.501014,2886.803174
1672.132351,4290.134789,12805.562797,5921.647536
1672.132669,3524.039291,9326.594869,6143.709319
1672.132986,8733.488677,7846.182985,3256.906145
1672.133303,8197.221829,16654.633695,-8290.306550
1672.133621,8044.002729,7105.977043,8808.450710
1672.133938,11491.432470,-11621.233289,13693.809927
1672.134255,2757.943793,-15914.427753,16136.489536
1672.134573,-4826.401637,-11473.192101,13619.789333
1672.134890,-3524.039291,-3701.029710,12361.439231
1672.135207,-7277.907231,-2442.679609,2590.720797
1672.135525,-5592.497135,-5107.421000,8290.306550
1672.135842,-8350.440928,-3627.009116,6291.750507
1672.136159,-8427.050478,7476.080014,-592.164754
1672.136477,-4136.915689,2072.576638,6661.853478
1672.136794,536.266849,-8142.265362,25611.125593
1672.137111,-1149.143247,-6587.832884,20651.745782
1672.137429,1762.019645,8364.327145,9844.739029
1672.137746,7431.126331,11325.150913,8660.409521
1672.138063,8733.488677,5551.544565,11991.336260
1672.138381,10418.898773,7476.080014,4663.297435
1672.138698,13176.842566,17912.983796,-7476.080014
1672.139015,11108.384721,14730.098246,1702.473667
1672.139333,11108.384721,-7402.059420,14582.057057
1672.139650,3907.087040,-18653.189738,24130.713709
1672.139967,-4596.572988,-12509.480420,16506.592507
1672.140285,-7507.735880,-6661.853478,11103.089130
1672.140602,-9193.145976,-7179.997637,10436.903782
1672.140919,-5669.106685,-7476.080014,12805.562797
1672.141237,-7660.954980,-6513.812290,7772.162391
1672.141554,-8886.707777,3478.967927,4145.153275
1672.141871,-4903.011187,1998.556043,12657.521608
1672.142189,612.876398,-1258.350101,20725.766376
1672.142506,6741.640382,-5329.482782,23686.590144
1672.142823,-536.266849,5625.565159,9178.553681
1672.143141,9039.926876,13767.830521,10955.047942
1672.143458,13713.109414,17172.777854,1702.473667
1672.143775,12947.013916,18579.169144,-7772.162391
1672.144093,18386.291952,11029.068536,1480.411884
1672.144410,9652.803275,11251.130318,0.000000
1672.144727,11797.870669,-5625.565159,13915.871710
1672.145045,6281.983084,-18579.169144,19467.416275
1672.145362,-5669.106685,-17838.963202,20355.663405
1672.145679,-6281.983084,-10881.027347,18949.272115
1672.145997,-6818.249932,222.061783,7179.997637
1672.146314,-5669.106685,-740.205942,4293.194464
1672.146631,-7507.735880,-4589.276840,4737.318029
1672.146949,-9499.584175,2812.782580,1258.350101
1672.147266,-1915.238745,3108.864956,12657.521608
1672.147583,-689.485948,-0.000000,15174.221811
1672.147901,76.609550,-5033.400406,20207.622217
1672.148218,-1762.019645,3330.926739,11399.171507
1672.148535,4979.620737,12731.542202,7994.224174
1672.148853,8656.879127,13175.665768,2516.700203
1672.149170,7431.126331,14582.057057,-6439.791695
1672.149487,9806.022374,13175.665768,-3997.112087
1672.149805,8197.221829,12879.583391,2664.741391
1672.150122,7048.078582,-7994.224174,13027.624579
1672.150439,-995.924147,-21465.972318,21095.869347
1672.150757,-11338.213370,-19985.560434,18357.107362
1672.151074,-15551.738609,-10881.027347,14804.118840
1672.151391,-13100.233016,-4811.338623,11547.212695
1672.151709,-9039.926876,222.061783,5033.400406
1672.152026,-11644.651570,-3775.050304,-3404.947333
1672.152343,-13866.328514,2294.638420,1628.453072
1672.152661,-8273.831378,-666.185348,20725.766376
1672.152978,-4443.353888,740.205942,16728.654289
1672.153295,4903.011187,-3330.926739,22058.137072
1672.153613,1838.629195,4219.173869,15914.427753
1672.153930,4596.572988,15322.262999,10881.027347
1672.154247,12640.575717,22132.157666,-2664.741391
1672.154565,10418.898773,21539.992912,-9030.512492
1672.154882,18999.168350,8216.285956,2294.638420
1672.155199,13636.499864,12139.377449,3552.988522
1672.155517,10648.727422,-3701.029710,13249.686362
1672.155834,6435.202183,-20799.786970,16210.510130
1672.156151,-3753.867940,-24056.693115,22058.137072
1672.156469,-6588.421283,-19689.478057,23982.672521
1672.156786,-5515.887586,-1776.494261,9770.718434
1672.157103,-4903.011187,3997.112087,-2960.823768
1672.157421,-8656.879127,-888.247130,-2368.659014
1672.157738,-4979.620737,888.247130,7105.977043
1672.158055,1762.019645,3182.885551,23020.404796
1672.158373,1072.533697,4885.359217,9696.697840
1672.158690,9193.145976,-1036.288319,18357.107362
1672.159007,4903.011187,-0.000000,14359.995275
1672.159325,8886.707777,7920.203579,15766.386565
1672.159642,15858.176809,18505.148550,-2220.617826
1672.159959,13559.890315,24056.693115,-13249.686362
1672.160277,15015.471761,10214.842000,-2442.679609
1672.160594,13100.233016,6587.832884,7402.059420
1672.160911,5056.230287,-4811.338623,10140.821405
1672.161229,-1072.533697,-19097.313304,17320.819043
1672.161546,-12027.699319,-27239.578666,19763.498651
1672.161863,-16624.272307,-22798.343014,24426.796086
1672.162181,-14632.424012,-11103.089130,20059.581028
1672.162498,-9959.241474,-1110.308913,7624.121203
1672.162815,-13023.623466,-1628.453072,-3330.926739
1672.163133,-10648.727422,-3849.070898,12213.398043
1672.163450,-4136.915689,-3923.091493,30940.608376
1672.163767,-842.705048,12139.377449,8290.306550
1672.164085,8733.488677,15914.427753,7476.080014
1672.164402,10648.727422,7920.203579,8882.471304
1672.164719,5209.449386,12435.459826,6513.812290
1672.165037,14402.595362,20947.828159,-3330.926739
1672.165354,16854.100956,27017.516883,-15618.345376
1672.165672,13483.280765,7105.977043,-7031.956449
1672.165989,15704.957709,-9178.553681,21614.013506
1672.166306,-766.095498,-13323.706956,16432.571912
1672.166624,-2068.457845,-18209.066173,15396.283594
1672.166941,-12870.404366,-26425.352129,17764.942608
1672.167258,-17237.148705,-30422.464216,30866.587781
1672.167576,-12410.747068,-12805.562797,21317.931130
1672.167893,-14172.766713,7105.977043,-3627.009116
1672.168210,-13406.671215,5699.585753,-4293.194464
1672.168528,-9576.193725,3552.988522,10584.944971
1672.168845,3830.477490,-0.000000,31902.876100
1672.169162,2681.334243,16210.510130,962.267725
1672.169480,10955.165621,22576.281231,1332.370696
1672.169797,12793.794817,11103.089130,6069.688724
1672.170114,7890.783629,8216.285956,5181.441594
1672.170432,15398.519510,14137.933492,4589.276840
1672.170749,12947.013916,23834.631332,-12361.439231
1672.171066,10342.289223,7105.977043,-4959.379811
1672.171384,9346.365076,-11991.336260,17098.757260
1672.171701,-3983.696590,-16802.674883,19837.519246
1672.172018,-9499.584175,-16728.654289,14952.160028
1672.172336,-16547.662757,-20651.745782,11843.295072
1672.172653,-20837.797546,-30052.361245,23760.610738
1672.172970,-18386.291952,-19023.292709,21317.931130
1672.173288,-17390.367805,-6069.688724,9622.677246
1672.173605,-11261.603821,4071.132681,2220.617826
1672.173922,-2681.334243,4219.173869,25167.002028
1672.174240,4826.401637,10288.862594,21391.951724
1672.174557,9882.631924,23390.507767,-370.102971
1672.174874,14325.985813,28127.825796,-1924.535449
1672.175192,16088.005458,13989.892304,13027.624579
1672.175509,19612.044749,5921.647536,-740.205942
1672.175826,22523.207641,21465.972318,-10584.944971
1672.176144,25357.760984,16580.613101,-10584.944971
1672.176461,12027.699319,3775.050304,-1258.350101
1672.176778,12793.794817,-22650.301825,26203.290347
1672.177096,-2987.772442,-21095.869347,15766.386565
1672.177413,-8120.612279,-16950.716072,20873.807564
1672.177730,-14019.547613,-19393.395680,16580.613101
1672.178048,-17237.148705,-28497.928767,20725.766376
1672.178365,-15628.348159,-27239.578666,25907.207970
1672.178682,-14785.643111,-9474.636058,16876.695478
1672.179000,-11414.822920,3404.947333,15470.304188
1672.179317,3753.867940,15248.242405,23612.569550
1672.179634,12717.185267,24426.796086,4811.338623
1672.179952,15092.081311,34641.638086,-13915.871710
1672.180269,15092.081311,29090.093521,-222.061783
1672.180586,16164.615008,15766.386565,-1628.453072
1672.180904,21603.893044,11843.295072,-15322.262999
1672.181221,23442.522239,7624.121203,-14656.077652
1672.181538,9499.584175,3108.864956,740.205942
1672.181856,6741.640382,-19319.375086,23908.651927
1672.182173,-4443.353888,-24056.693115,23686.590144
1672.182490,-10495.508323,-18727.210333,21465.972318
1672.182808,-19995.092498,-12361.439231,20503.704593
1672.183125,-20148.311597,-21984.116477,14878.139434
1672.183442,-25204.541884,-16284.530724,5033.400406
1672.183760,-23212.693589,-25315.043216,25833.187376
1672.184077,-25051.322785,-18135.045579,26425.352129
1672.184394,-10189.070123,-518.144159,30792.567187
1672.184712,1685.410096,30052.361245,14359.995275
1672.185029,10189.070123,40267.203245,-6365.771101
1672.185346,8810.098227,32198.958477,-9992.780217
1672.185664,6205.373534,21169.889941,-7846.182985
1672.185981,18769.339701,18357.107362,0.000000
1672.186298,18462.901502,12953.603985,-15470.304188
1672.186616,18003.244203,5551.544565,-20577.725188
1672.186933,14019.547613,-15692.365970,26055.249158
1672.187250,2298.286494,-25463.084405,29460.196492
1672.187568,-4136.915689,-23686.590144,23390.507767
1672.187885,-13176.842566,-12139.377449,17172.777854
1672.188202,-18003.244203,-17320.819043,14434.015869
1672.188520,-13789.718964,-23686.590144,21465.972318
1672.188837,-14862.252661,-15396.283594,12805.562797
1672.189154,-13789.718964,-11843.295072,17320.819043
1672.189472,-9729.412825,-5995.668130,24870.919651
1672.189789,2451.505594,13545.768739,27831.743419
1672.190106,15398.519510,40785.347404,-444.123565
1672.190424,15475.129060,44560.397708,-13027.624579
1672.190741,15321.909960,27313.599260,-11991.336260
1672.191058,17543.586904,16580.613101,-10510.924376
1672.191376,25127.932334,18505.148550,-12731.542202
1672.191693,21680.502593,6957.935855,-24500.816680
1672.192010,13483.280765,-21539.992912,18801.230927
1672.192328,229.828649,-33827.411549,31236.690752
1672.192645,-7354.516781,-25685.146187,35085.761651
1672.192962,-10878.556072,-11177.109724,28423.908173
1672.193280,-18386.291952,-10436.903782,13397.727550
1672.193597,-11491.432470,-24796.899057,26647.413912
1672.193914,-14479.204912,-12065.356855,15026.180623
1672.194232,-12104.308868,-2738.761985,15470.304188
1672.194549,-9729.412825,2146.597232,15766.386565
1672.194866,2834.553343,6587.832884,23168.445985
1672.195184,7584.345430,37898.544230,-3849.070898
1672.195501,12027.699319,47373.180288,-13767.830521
1672.195818,16088.005458,29090.093521,-17838.963202
1672.196136,14709.033562,9104.533087,-16210.510130
1672.196453,17160.539155,1776.494261,-3478.967927
1672.196770,13406.671215,-2812.782580,0.000000
1672.197088,6205.373534,-12731.542202,5255.462188
1672.197405,4443.353888,-31606.793723,29682.258274
1672.197722,-4596.572988,-29756.278868,42117.718100
1672.198040,-13330.061665,-16654.633695,28053.805202
1672.198357,-14709.033562,-13841.851115,16432.571912
1672.198674,-8886.707777,-15396.283594,14656.077652
1672.198992,-8197.221829,3182.885551,5551.544565
1672.199309,-6741.640382,7476.080014,12509.480420
1672.199626,-10801.946522,13841.851115,1998.556043
1672.199944,-2068.457845,10214.842000,14582.057057
1672.200261,-76.609550,25389.063811,-4515.256246
1672.200578,5592.497135,25018.960840,-7920.203579
1672.200896,6971.469032,15396.283594,-12657.521608
1672.201213,5745.716235,4737.318029,-592.164754
1672.201530,4596.572988,-4071.132681,9918.759623
1672.201848,2298.286494,-8216.285956,15914.427753
1672.202165,4596.572988,-9104.533087,18283.086767
1672.202482,6741.640382,-18283.086767,25611.125593
1672.202800,306.438199,-25389.063811,35085.761651
1672.203117,-7277.907231,-12287.418637,17690.922014
1672.203434,-5822.325785,-8956.491898,21243.910535
1672.203752,-4290.134789,1332.370696,7105.977043
1672.204069,-1225.752797,11695.253884,-2072.576638
1672.204387,-5745.716235,16284.530724,-2886.803174
1672.204704,-7890.783629,13175.665768,296.082377
1672.205021,-4213.525239,4145.153275,4367.215058
1672.205339,-3217.601092,8808.450710,-3701.029710
1672.205656,459.657299,7772.162391,-6439.791695
1672.205973,919.314598,-1110.308913,-3256.906145
1672.206291,-1915.238745,-10510.924376,17542.880825
1672.206608,-1685.410096,-22502.260637,31236.690752
1672.206925,-2374.896044,-14508.036463,27313.599260
1672.207243,5362.668486,-5847.626942,28127.825796
1672.207560,9959.241474,-2516.700203,27905.764013
1672.207877,14325.985813,3997.112087,23464.528361
1672.208195,12257.527968,14878.139434,8512.368333
1672.208512,12563.966167,19689.478057,-3404.947333
1672.208829,10801.946522,23242.466579,-12583.501014
1672.209147,11108.384721,15174.221811,-5181.441594
1672.209464,7431.126331,13323.706956,-6513.812290
1672.209781,7201.297681,3108.864956,-7179.997637
1672.210099,-1302.362347,-666.185348,-9844.739029
1672.210416,-3830.477490,-12953.603985,7772.162391
1672.210733,-8580.269578,-19171.333898,14656.077652
1672.211051,-12793.794817,-20355.663405,17024.736666
1672.211368,-11874.480219,-21391.951724,28645.969955
1672.211685,-12104.308868,-21243.910535,33383.287984
1672.212003,-3830.477490,-14285.974681,40267.203245
1672.212320,4596.572988,7105.977043,22354.219448
1672.212637,12180.918418,18579.169144,11473.192101
1672.212955,17160.539155,23538.548956,4367.215058
1672.213272,18003.244203,27535.661042,-6587.832884
1672.213589,16930.710506,29312.155303,-13397.727550
1672.213907,14019.547613,25167.002028,-15100.201217
1672.214224,9806.022374,5551.544565,-9696.697840
1672.214541,4060.306139,-6069.688724,962.267725
1672.214859,-689.485948,-12435.459826,9474.636058
1672.215176,-7354.516781,-10881.027347,10214.842000
1672.215493,-11031.775171,-19393.395680,15914.427753
1672.215811,-14172.766713,-25241.022622,22502.260637
1672.216128,-15015.471761,-22206.178260,25907.207970
1672.216445,-16164.615008,-17764.942608,22724.322419
1672.216763,-15475.129060,-15544.324782,22206.178260
1672.217080,-8427.050478,-8586.388927,27461.640448
1672.217397,-1608.800546,6365.771101,17468.860231
1672.217715,7201.297681,21243.910535,5033.400406
1672.218032,9959.241474,30644.525999,-7846.182985
1672.218349,9346.365076,29386.175897,-14952.160028
1672.218667,7814.174080,21243.910535,-5033.400406
1672.218984,7814.174080,15470.304188,-3108.864956
1672.219301,6971.469032,8512.368333,-1258.350101
1672.219619,2068.457845,-1850.514855,6735.874072
1672.219936,-2451.505594,-12509.480420,14285.974681
1672.220253,-6281.983084,-17246.798449,14730.098246
1672.220571,-7277.907231,-20873.807564,16432.571912
1672.220888,-9039.926876,-21614.013506,23242.466579
1672.221205,-11338.213370,-23834.631332,30200.402434
1672.221523,-11644.651570,-18431.127956,26203.290347
1672.221840,-8273.831378,-9844.739029,25463.084405
1672.222157,-4673.182538,8512.368333,15174.221811
1672.222475,3830.477490,20355.663405,-1258.350101
1672.222792,9193.145976,28201.846390,-10288.862594
1672.223109,8350.440928,23908.651927,-12435.459826
1672.223427,14096.157163,20133.601622,-10510.924376
1672.223744,15168.690860,14730.098246,-13545.768739
1672.224061,13330.061665,-2220.617826,-962.267725
1672.224379,7354.516781,-14582.057057,18505.148550
1672.224696,-383.047749,-18135.045579,22798.343014
1672.225013,-6435.202183,-13101.645173,10214.842000
1672.225331,-6435.202183,-13175.665768,19393.395680
1672.225648,-6971.469032,-15248.242405,28645.969955
1672.225965,-6511.811733,-16802.674883,29904.320057
1672.226283,-2834.553343,-10807.006753,28497.928767
1672.226600,-2145.067394,-6587.832884,22724.322419
1672.226917,2681.334243,5477.523971,18431.127956
1672.227235,12487.356617,12805.562797,13841.851115
1672.227552,14249.376263,28645.969955,-13693.809927
1672.227869,14709.033562,36418.132346,-15840.407159
1672.228187,17007.320056,25018.960840,-17542.880825
1672.228504,17543.586904,13323.706956,-22872.363608
1672.228821,14938.862211,1702.473667,-8438.347739
1672.229139,1225.752797,-10584.944971,9178.553681
1672.229456,-10189.070123,-20725.766376,12953.603985
1672.229773,-12410.747068,-23242.466579,21614.013506
1672.230091,-11951.089769,-22724.322419,33827.411549
1672.230408,-14402.595362,-19763.498651,29016.072926
1672.230725,-15704.957709,-19763.498651,20577.725188
1672.231043,-9729.412825,-20799.786970,31976.896694
1672.231360,-383.047749,-13545.768739,35974.008781
1672.231677,2528.115143,5181.441594,15396.283594
1672.231995,10648.727422,20651.745782,11177.109724
1672.232312,6128.763984,37898.544230,0.000000
1672.232629,10342.289223,45670.706621,-8660.409521
1672.232946,15398.519510,41451.532752,-16136.489536
1672.233264,18462.901502,30422.464216,-18875.251521
1672.233581,23672.350888,15470.304188,-20577.725188
1672.233898,14785.643111,8216.285956,-28423.908173
1672.234216,842.705048,-14211.954086,-12953.603985
1672.234533,-6665.030833,-32124.937883,38712.770767
1672.234850,-17313.758255,-31384.731941,30496.484810
1672.235168,-11414.822920,-23686.590144,32198.958477
1672.235485,-16624.272307,-23686.590144,29164.114115
1672.235802,-24055.398637,-27831.743419,31014.628970
1672.236120,-18462.901502,-35825.967593,37380.400071
1672.236437,-13176.842566,-22280.198854,32495.040854
1672.236754,-9346.365076,2516.700203,18727.210333
1672.237071,-3677.258390,28497.928767,15100.201217
1672.237389,1378.971896,52480.601288,-17542.880825
1672.237706,14402.595362,52184.518911,-15100.201217
1672.238023,17696.806004,39304.935520,-12287.418637
1672.238341,18845.949251,18949.272115,-18875.251521
1672.238658,20607.968896,9400.615463,-21539.992912
1672.238975,9576.193725,5551.544565,-24870.919651
1672.239293,995.924147,-13471.748144,-5625.565159
1672.239610,-7660.954980,-29830.299463,48113.386230
1672.239927,-13253.452115,-32421.020260,42339.779882
1672.240245,-20607.968896,-30718.546593,36418.132346
1672.240562,-21374.064394,-30792.567187,42043.697506
1672.240879,-15704.957709,-24722.878463,47817.303853
1672.241196,-6205.373534,-17764.942608,28201.846390
1672.241514,3830.477490,-4885.359217,17394.839637
1672.241831,-1225.752797,13323.706956,-592.164754
1672.242148,5056.230287,25167.002028,5773.606348
1672.242466,8886.707777,40415.244433,-19171.333898
1672.242783,23136.084040,33235.246796,-12361.439231
1672.243100,19918.482948,28868.031738,-20207.622217
1672.243418,19075.777900,17987.004391,-30200.402434
1672.243735,13636.499864,5773.606348,-20503.704593
1672.244052,6894.859482,-18949.272115,19689.478057
1672.244370,-5822.325785,-27831.743419,12435.459826
1672.244687,-2834.553343,-26573.393318,25167.002028
1672.245004,-3677.258390,-30422.464216,44634.418303
1672.245321,-8350.440928,-29682.258274,47521.221476
1672.245639,-9652.803275,-26055.249158,35233.802839
1672.245956,-612.876398,-7105.977043,36270.091158
1672.246273,10189.070123,11621.233289,24796.899057
1672.246591,10265.679673,35529.885216,-10288.862594
1672.246908,10035.851024,33975.452738,-25315.043216
1672.247225,10035.851024,24130.713709,1702.473667
1672.247543,7354.516781,16654.633695,-8216.285956
1672.247860,18309.682402,16580.613101,-32865.143825
1672.248177,18233.072852,10955.047942,-29608.237680
1672.248495,6588.421283,-5699.585753,4441.235652
1672.248812,-919.314598,-22428.240043,12435.459826
1672.249129,-7124.688131,-20355.663405,11177.109724
1672.249446,-9116.536426,-21095.869347,25018.960840
1672.249764,-13483.280765,-25241.022622,36196.070564
1672.250081,-11338.213370,-27313.599260,38268.647201
1672.250398,-7814.174080,-21984.116477,33383.287984
1672.250716,-5822.325785,-11399.171507,29386.175897
1672.251033,-1378.971896,6069.688724,18727.210333
1672.251350,3830.477490,26351.331535,8882.471304
1672.251668,10342.289223,37602.461854,-9326.594869
1672.251985,5745.716235,39749.059085,-13249.686362
1672.252302,7660.954980,30792.567187,-10362.883188
1672.252620,11644.651570,19245.354492,-14730.098246
1672.252937,14172.766713,9770.718434,-19023.292709
1672.253254,766.095498,-4737.318029,-8364.327145
1672.253571,-4596.572988,-17542.880825,18875.251521
1672.253889,-13559.890315,-20577.725188,16210.510130
1672.254206,-11184.994271,-23686.590144,20133.601622
1672.254523,-17773.415554,-23316.487173,28127.825796
1672.254841,-17237.148705,-19837.519246,39823.079680
1672.255158,-14172.766713,-31310.711347,42931.944636
1672.255475,-13023.623466,-15248.242405,21762.054695
1672.255793,-6358.592633,-3256.906145,21169.889941
1672.256110,-1455.581446,11325.150913,17838.963202
1672.256427,0.000000,19541.436869,-1332.370696
1672.256745,3677.258390,33605.349767,-7698.141797
1672.257062,8044.002729,40563.285622,-15840.407159
1672.257379,20607.968896,34419.576303,-14211.954086
1672.257697,21910.331243,24130.713709,-25241.022622
1672.258014,19841.873398,15470.304188,-17468.860231
1672.258331,10342.289223,7254.018232,-12953.603985
1672.258648,-5362.668486,-12287.418637,21910.095883
1672.258966,-10495.508323,-27535.661042,24426.796086
1672.259283,-14709.033562,-31310.711347,27757.722825
1672.259600,-12257.527968,-29608.237680,45152.562462
1672.259918,-18003.244203,-27313.599260,40193.182651
1672.260235,-13789.718964,-28423.908173,36492.152941
1672.260552,-4136.915689,-22872.363608,32865.143825
1672.260870,-1915.238745,-1554.432478,18949.272115
1672.261187,3830.477490,19615.457463,10288.862594
1672.261504,8120.612279,37010.297100,-12879.583391
1672.261822,13100.233016,39971.120868,-12657.521608
1672.262139,19612.044749,27757.722825,-14508.036463
1672.262456,23748.960438,27017.516883,-20355.663405
1672.262773,23748.960438,19393.395680,-29534.217086
1672.263091,16164.615008,1184.329507,-7328.038826
1672.263408,6358.592633,-16876.695478,4515.256246
1672.263725,-4366.744339,-19393.395680,12213.398043
1672.264043,-7201.297681,-29534.217086,29090.093521
1672.264360,-10495.508323,-29312.155303,32643.082042
1672.264677,-13866.328514,-29904.320057,38712.770767
1672.264995,-10189.070123,-26425.352129,45596.686027
1672.265312,-6281.983084,-12435.459826,32495.040854
1672.265629,1685.410096,3182.885551,22502.260637
1672.265947,6741.640382,20207.622217,4367.215058
1672.266264,8044.002729,30718.546593,-7698.141797
1672.266581,7814.174080,32495.040854,-8808.450710
1672.266898,12257.527968,29386.175897,-6809.894666
1672.267216,14555.814462,23020.404796,-20429.683999
1672.267533,17160.539155,16580.613101,-26943.496289
1672.267850,7890.783629,-0.000000,-5477.523971
1672.268168,5056.230287,-15544.324782,18357.107362
1672.268485,-6052.154434,-19837.519246,6069.688724
1672.268802,-6971.469032,-20355.663405,18653.189738
1672.269120,-10189.070123,-27609.681637,31088.649564
1672.269437,-12257.527968,-25759.166782,31532.773129
1672.269754,-11108.384721,-25315.043216,32569.061448
1672.270072,-10572.117872,-17912.983796,34863.699868
1672.270389,-2834.553343,-3627.009116,25167.002028
1672.270706,2221.676944,18949.272115,8290.306550
1672.271023,11797.870669,30126.381839,1332.370696
1672.271341,5898.935335,41599.573940,-16432.571912
1672.271658,9806.022374,37084.317694,-10436.903782
1672.271975,12334.137518,26573.393318,-15248.242405
1672.272293,17160.539155,16432.571912,-22946.384202
1672.272610,10035.851024,3627.009116,-23464.528361
1672.272927,76.609550,-13915.871710,21021.848753
1672.273245,-12640.575717,-23982.672521,14285.974681
1672.273562,-12487.356617,-21021.848753,22798.343014
1672.273879,-10801.946522,-23538.548956,32050.917289
1672.274197,-23212.693589,-14137.933492,21169.889941
1672.274514,-19688.654299,-29164.114115,36418.132346
1672.274831,-17466.977354,-28571.949361,42931.944636
1672.275148,-12717.185267,-16876.695478,25611.125593
1672.275466,-2528.115143,518.144159,22576.281231
1672.275783,1915.238745,17690.922014,14211.954086
1672.276100,7660.954980,36344.111752,-5181.441594
1672.276418,9882.631924,48557.509795,-15396.283594
1672.276735,17083.929605,40859.367998,-16284.530724
1672.277052,21144.235745,23686.590144,-19985.560434
1672.277370,23519.131789,12953.603985,-22798.343014
1672.277687,15628.348159,7624.121203,-22428.240043
1672.278004,7354.516781,-4071.132681,-9918.759623
1672.278322,-11568.042020,-22058.137072,26721.434506
1672.278639,-9269.755526,-30940.608376,40637.306216
1672.278956,-15015.471761,-23020.404796,29238.134709
1672.279273,-16777.491406,-21243.910535,37158.338288
1672.279591,-18769.339701,-35529.885216,46484.933158
1672.279908,-10878.556072,-33975.452738,46040.809592
1672.280225,-2451.505594,-27757.722825,31458.752535
1672.280543,2298.286494,4737.318029,15988.448347
1672.280860,2757.943793,22650.301825,9474.636058
1672.281177,13483.280765,48409.468607,-17838.963202
1672.281495,24055.398637,50704.107027,-12139.377449
1672.281812,23519.131789,34493.596897,-18949.272115
1672.282129,26660.123330,24056.693115,-26869.475695
1672.282447,22676.426741,12805.562797,-36344.111752
1672.282764,14555.814462,-3404.947333,-20799.786970
1672.283081,5056.230287,-19023.292709,-6217.729913
1672.283398,-13330.061665,-23686.590144,27017.516883
1672.283716,-11338.213370,-26943.496289,37528.441259
1672.284033,-13253.452115,-29608.237680,35529.885216
1672.284350,-19918.482948,-29904.320057,40119.162056
1672.284668,-12793.794817,-34271.535115,58920.392983
1672.284985,-6205.373534,-20947.828159,38120.606013
1672.285302,-2987.772442,-4441.235652,17320.819043
1672.285620,995.924147,9696.697840,7328.038826
1672.285937,-383.047749,30348.443622,1554.432478
1672.286254,9193.145976,43894.212361,-12065.356855
1672.286572,19995.092498,48557.509795,-16432.571912
1672.286889,18539.511052,30792.567187,-17616.901420
1672.287206,23748.960438,19763.498651,-27461.640448
1672.287523,15628.348159,5329.482782,-29164.114115
1672.287841,2068.457845,-11917.315666,-13693.809927
1672.288158,-4443.353888,-32495.040854,18579.169144
1672.288475,-11874.480219,-28127.825796,29312.155303
1672.288793,-9959.241474,-20133.601622,26573.393318
1672.289110,-15858.176809,-25167.002028,35825.967593
1672.289427,-20224.921147,-34641.638086,47299.159694
1672.289745,-12027.699319,-26499.372724,45300.603650
1672.290062,-8427.050478,-10807.006753,25833.187376
1672.290379,-5515.887586,5551.544565,8808.450710
1672.290697,995.924147,25611.125593,-3108.864956
1672.291014,766.095498,41895.656317,-12065.356855
1672.291331,10265.679673,37602.461854,-5699.585753
1672.291648,17390.367805,35974.008781,-19097.313304
1672.291966,20071.702048,24796.899057,-28201.846390
1672.292283,18003.244203,15618.345376,-21762.054695
1672.292600,6205.373534,2146.597232,-14730.098246
1672.292918,-4136.915689,-14211.954086,7698.141797
1672.293235,-12717.185267,-27461.640448,27831.743419
1672.293552,-13483.280765,-25981.228564,36788.235317
1672.293870,-16700.881856,-21391.951724,39601.017897
1672.294187,-17390.367805,-26869.475695,42635.862259
1672.294504,-14555.814462,-31680.814318,44264.315332
1672.294822,-5439.278036,-22280.198854,37010.297100
1672.295139,-229.828649,-1110.308913,22428.240043
1672.295456,7124.688131,20281.642811,9252.574275
1672.295773,7354.516781,41673.594535,-15840.407159
1672.296091,14785.643111,44412.356520,-7476.080014
1672.296408,23978.789087,36196.070564,-16432.571912
1672.296725,26966.561530,29312.155303,-27609.681637
1672.297043,24361.836836,14434.015869,-32569.061448
1672.297360,15321.909960,3701.029710,-20207.622217
1672.297677,2451.505594,-18505.148550,3404.947333
1672.297995,-8733.488677,-24796.899057,18357.107362
1672.298312,-12257.527968,-31532.773129,35307.823433
1672.298629,-15704.957709,-28275.866984,37528.441259
1672.298947,-20301.530697,-27609.681637,40563.285622
1672.299264,-20148.311597,-34049.473332,51888.436534
1672.299581,-10342.289223,-24722.878463,45374.624245
1672.299898,-1685.410096,-5403.503377,29534.217086
1672.300216,2834.553343,13471.748144,17024.736666
1672.300533,5898.935335,33901.432144,-4293.194464
1672.300850,6741.640382,43598.129984,-13841.851115
1672.301168,16624.272307,39675.038491,-5625.565159
1672.301485,20991.016645,35603.905810,-18801.230927
1672.301802,25434.370534,25092.981434,-26721.434506
1672.302120,17620.196454,10436.903782,-28645.969955
1672.302437,7507.735880,-5033.400406,-8290.306550
1672.302754,-2604.724693,-18875.251521,5329.482782
1672.303072,-10265.679673,-28868.031738,25389.063811
1672.303389,-12793.794817,-29386.175897,33161.226202
1672.303706,-15858.176809,-22354.219448,33235.246796
1672.304023,-15398.519510,-26499.372724,42783.903448
1672.304341,-13100.233016,-29534.217086,46410.912563
1672.304658,-8350.440928,-23464.528361,33013.185013
1672.304975,-4290.134789,-3552.988522,18949.272115
1672.305293,2528.115143,19467.416275,5477.523971
1672.305610,5132.839837,38046.585419,-11991.336260
1672.305927,10112.460574,41081.429781,-6439.791695
1672.306245,20224.921147,38638.750172,-13175.665768
1672.306562,21297.454844,30792.567187,-25981.228564
1672.306879,19841.873398,18061.024985,-26055.249158
1672.307197,12640.575717,3108.864956,-18431.127956
1672.307514,2298.286494,-10066.800811,-8586.388927
1672.307831,-7431.126331,-23168.445985,21762.054695
1672.308148,-11031.775171,-28053.805202,32050.917289
1672.308466,-12257.527968,-25907.207970,30718.546593
1672.308783,-10418.898773,-26721.434506,44412.356520
1672.309100,-13253.452115,-26943.496289,48483.489201
1672.309418,-5822.325785,-22872.363608,40267.203245
1672.309735,459.657299,-5033.400406,20059.581028
1672.310052,6971.469032,20133.601622,5403.503377
1672.310370,7354.516781,37306.379477,-12805.562797
1672.310687,10725.336972,40785.347404,-14952.160028
1672.311004,21986.940793,36344.111752,-15322.262999
1672.311322,24668.275036,30866.587781,-31162.670158
1672.311639,22216.769442,17616.901420,-33161.226202
1672.311956,9422.974625,-222.061783,-5329.482782
1672.312273,1991.848295,-18283.086767,13323.706956
1672.312591,-4060.306139,-22946.384202,12879.583391
1672.312908,-8427.050478,-25315.043216,27165.558071
1672.313225,-12104.308868,-27091.537477,41303.491564
1672.313543,-8044.002729,-22354.219448,45744.727216
1672.313860,-3524.039291,-15470.304188,39749.059085
1672.314177,2221.676944,2368.659014,35085.761651
1672.314495,8044.002729,19023.292709,16580.613101
1672.314812,14479.204912,39082.873738,-6291.750507
1672.315129,13253.452115,41229.470969,-16580.613101
1672.315447,8350.440928,31754.834912,-14878.139434
1672.315764,10418.898773,23094.425390,-20577.725188
1672.316081,12870.404366,15840.407159,-30422.464216
1672.316398,9269.755526,-5255.462188,1702.473667
1672.316716,-1072.533697,-18505.148550,22058.137072
1672.317033,-7201.297681,-21910.095883,25981.228564
1672.317350,-7354.516781,-19171.333898,26055.249158
1672.317668,-9269.755526,-19541.436869,36122.049970
1672.317985,-7890.783629,-15100.201217,40711.326810
1672.318302,-2451.505594,-3997.112087,28275.866984
1672.318620,1302.362347,10881.027347,18135.045579
1672.318937,3907.087040,22206.178260,12361.439231
1672.319254,10495.508323,33605.349767,-9400.615463
1672.319572,13559.890315,27535.661042,-14730.098246
1672.319889,10035.851024,18505.148550,-9622.677246
1672.320206,5362.668486,11473.192101,-12657.521608
1672.320523,2911.162892,4589.276840,-10510.924376
1672.320841,5362.668486,-9696.697840,11621.233289
1672.321158,1455.581446,-13767.830521,27387.619854
1672.321475,-306.438199,-9696.697840,31532.773129
1672.321793,-5898.935335,-4959.379811,20133.601622
1672.322110,-2451.505594,-6069.688724,24352.775492
1672.322427,-4903.011187,148.041188,12953.603985
1672.322745,-1378.971896,3404.947333,15988.448347
1672.323062,2987.772442,8808.450710,20503.704593
1672.323379,2451.505594,17172.777854,2220.617826
1672.323697,6358.592633,11621.233289,-3478.967927
1672.324014,6665.030833,1628.453072,518.144159
1672.324331,4136.915689,-7328.038826,8734.430116
1672.324648,2068.457845,-5773.606348,5477.523971
1672.324966,2221.676944,-3552.988522,5847.626942
1672.325283,5745.716235,1406.391290,11399.171507
1672.325600,7660.954980,9548.656652,12065.356855
1672.325918,7048.078582,9030.512492,9622.677246
1672.326235,5592.497135,3478.967927,14211.954086
1672.326552,153.219100,5033.400406,7179.997637
1672.326870,459.657299,3034.844362,5773.606348
1672.327187,536.266849,2664.741391,5847.626942
1672.327504,3064.381992,1998.556043,14508.036463
1672.327822,3140.991542,-1628.453072,15840.407159
1672.328139,1072.533697,-3182.885551,10066.800811
1672.328456,-306.438199,-6661.853478,12361.439231
1672.328773,2298.286494,-4219.173869,12805.562797
1672.329091,4596.572988,1258.350101,6661.853478
1672.329408,6818.249932,8364.327145,592.164754
1672.329725,6665.030833,12065.356855,1332.370696
1672.330043,5286.058936,10436.903782,3404.947333
1672.330360,5362.668486,7179.997637,4737.318029
1672.330677,5056.230287,3478.967927,9400.615463
1672.330995,4443.353888,666.185348,12435.459826
1672.331312,4136.915689,-444.123565,8734.430116
1672.331629,3447.429741,-2664.741391,8068.244768
1672.331947,2681.334243,-5625.565159,13323.706956
1672.332264,3524.039291,-3182.885551,14656.077652
1672.332581,2451.505594,222.061783,8068.244768
1672.332898,4596.572988,4663.297435,5551.544565
1672.333216,2911.162892,5181.441594,2960.823768
1672.333533,5056.230287,4515.256246,5477.523971
1672.333850,4290.134789,1332.370696,5995.668130
1672.334168,2834.553343,-2516.700203,9104.533087
1672.334485,-536.266849,-4293.194464,10214.842000
1672.334802,-2374.896044,-3849.070898,13989.892304
1672.335120,-995.924147,-1998.556043,14582.057057
1672.335437,383.047749,1924.535449,11177.109724
1672.335754,306.438199,3256.906145,10732.986159
1672.336072,995.924147,4219.173869,9770.718434
1672.336389,842.705048,5181.441594,5403.503377
1672.336706,2987.772442,5329.482782,6365.771101
1672.337023,3677.258390,3034.844362,8290.306550
1672.337341,4060.306139,2368.659014,9252.574275
1672.337658,5439.278036,2516.700203,7254.018232
1672.337975,5745.716235,3108.864956,7846.182985
1672.338293,5745.716235,1998.556043,8882.471304
1672.338610,5362.668486,1480.411884,8216.285956
1672.338927,2757.943793,2590.720797,6957.935855
1672.339245,995.924147,3923.091493,9770.718434
1672.339562,-1991.848295,2368.659014,12139.377449
1672.339879,-1378.971896,1998.556043,14211.954086
1672.340196,-842.705048,3701.029710,11991.336260
1672.340514,689.485948,4737.318029,13027.624579
1672.340831,2068.457845,3775.050304,11695.253884
1672.341148,3907.087040,2664.741391,10362.883188
1672.341466,5592.497135,3182.885551,7105.977043
1672.341783,6205.373534,4219.173869,6735.874072
1672.342100,6205.373534,3256.906145,7772.162391
1672.342418,6588.421283,3997.112087,6587.832884
1672.342735,4596.572988,4367.215058,6069.688724
1672.343052,3370.820191,3256.906145,8586.388927
1672.343370,1991.848295,2220.617826,10362.883188
1672.343687,383.047749,-222.061783,13841.851115
1672.344004,-612.876398,-1332.370696,15914.427753
1672.344321,-1072.533697,962.267725,14952.160028
1672.344639,229.828649,3775.050304,11843.295072
1672.344956,2757.943793,6661.853478,9548.656652
1672.345273,4979.620737,8142.265362,9030.512492
1672.345591,5439.278036,8438.347739,6143.709319
1672.345908,5592.497135,6291.750507,5551.544565
1672.346225,4596.572988,3330.926739,8660.409521
1672.346543,4366.744339,1628.453072,11325.150913
1672.346860,3524.039291,2590.720797,11917.315666
1672.347177,2528.115143,2960.823768,10881.027347
1672.347495,2221.676944,3182.885551,10214.842000
1672.347812,2681.334243,3775.050304,7920.203579
1672.348129,3830.477490,4145.153275,5847.626942
1672.348446,3983.696590,2960.823768,5773.606348
1672.348764,3830.477490,1776.494261,7846.182985
1672.349081,3677.258390,1850.514855,9992.780217
1672.349398,3600.648841,2368.659014,11103.089130
1672.349716,3370.820191,3034.844362,11991.336260
1672.350033,2221.676944,2812.782580,12139.377449
1672.350350,2068.457845,3182.885551,10066.800811
1672.350668,2298.286494,3627.009116,8586.388927
1672.350985,2528.115143,2294.638420,7846.182985
1672.351302,2911.162892,1776.494261,7920.203579
1672.351620,3830.477490,1554.432478,6809.894666
1672.351937,3753.867940,1036.288319,5625.565159
1672.352254,3524.039291,296.082377,6883.915261
1672.352571,2451.505594,-518.144159,6735.874072
1672.352889,1838.629195,-0.000000,7105.977043
1672.353206,-306.438199,-296.082377,9252.574275
1672.353523,-2528.115143,-1480.411884,12065.356855
1672.353841,-3830.477490,-1184.329507,13471.748144
1672.354158,-3677.258390,-1258.350101,14508.036463
1672.354475,-2987.772442,-1036.288319,13841.851115
1672.354793,-689.485948,-888.247130,13767.830521
1672.355110,1762.019645,444.123565,12435.459826
1672.355427,3830.477490,2146.597232,9548.656652
1672.355745,5362.668486,3849.070898,9104.533087
1672.356062,6971.469032,5477.523971,7550.100608
1672.356379,7737.564530,8068.244768,3330.926739
1672.356696,8120.612279,8660.409521,962.267725
1672.357014,7048.078582,5773.606348,1998.556043
1672.357331,4903.011187,1406.391290,5255.462188
1672.357648,2911.162892,-1998.556043,8364.327145
1672.357966,536.266849,-3627.009116,11177.109724
1672.358283,-1378.971896,-5847.626942,14582.057057
1672.358600,-1991.848295,-8142.265362,17690.922014
1672.358918,-2374.896044,-7402.059420,16950.716072
1672.359235,-536.266849,-3034.844362,14952.160028
1672.359552,995.924147,1628.453072,11029.068536
1672.359869,3524.039291,4515.256246,8882.471304
1672.360187,5515.887586,7105.977043,6365.771101
1672.360504,4903.011187,7624.121203,4441.235652
1672.360821,4749.792088,7328.038826,5107.421000
1672.361139,4673.182538,7254.018232,4515.256246
1672.361456,4443.353888,5847.626942,4441.235652
1672.361773,3983.696590,4811.338623,4367.215058
1672.362091,2068.457845,1850.514855,7772.162391
1672.362408,536.266849,-1924.535449,10807.006753
1672.362725,-766.095498,-4737.318029,13693.809927
1672.363043,-1378.971896,-4441.235652,14656.077652
1672.363360,-1225.752797,-3256.906145,14804.118840
1672.363677,383.047749,-74.020594,14063.912898
1672.363994,1302.362347,3404.947333,10881.027347
1672.364312,2528.115143,5625.565159,10288.862594
1672.364629,2451.505594,7550.100608,8142.265362
1672.364946,2681.334243,7920.203579,7698.141797
1672.365264,3294.210641,6883.915261,9030.512492
1672.365581,3753.867940,5329.482782,9474.636058
1672.365898,4136.915689,2664.741391,10436.903782
1672.366216,4443.353888,740.205942,10732.986159
1672.366533,5362.668486,-74.020594,11399.171507
1672.366850,6205.373534,148.041188,11177.109724
1672.367168,6971.469032,740.205942,11473.192101
1672.367485,6818.249932,1332.370696,10140.821405
1672.367802,5669.106685,2368.659014,8364.327145
1672.368119,4443.353888,3478.967927,8586.388927
1672.368437,2757.943793,3182.885551,8808.450710
1672.368754,1608.800546,3849.070898,7920.203579
1672.369071,76.609550,3256.906145,7105.977043
1672.369389,-1915.238745,1406.391290,9326.594869
1672.369706,-2528.115143,-888.247130,12657.521608
1672.370023,-2145.067394,-1480.411884,12361.439231
1672.370341,-1532.190996,-888.247130,11251.130318
1672.370658,536.266849,-814.226536,12953.603985
1672.370975,1838.629195,1554.432478,11621.233289
1672.371293,3217.601092,3330.926739,9918.759623
1672.371610,4596.572988,5403.503377,7920.203579
1672.371927,4366.744339,7254.018232,6439.791695
1672.372244,5745.716235,8734.430116,4071.132681
1672.372562,5975.544884,10066.800811,2442.679609
1672.372879,5209.449386,8808.450710,2516.700203
1672.373196,3907.087040,6883.915261,3552.988522
1672.373514,2068.457845,4589.276840,4959.379811
1672.373831,1072.533697,1776.494261,8290.306550
1672.374148,-612.876398,518.144159,10214.842000
1672.374466,-1149.143247,296.082377,11473.192101
1672.374783,-1302.362347,518.144159,12139.377449
1672.375100,0.000000,1406.391290,11991.336260
1672.375418,1378.971896,3256.906145,11473.192101
1672.375735,2221.676944,4737.318029,9474.636058
1672.376052,4060.306139,5699.585753,8438.347739
1672.376369,5669.106685,6291.750507,6513.812290
1672.376687,7354.516781,5403.503377,6735.874072
1672.377004,8810.098227,4293.194464,6735.874072
1672.377321,9882.631924,2664.741391,6143.709319
1672.377639,10189.070123,1850.514855,6587.832884
1672.377956,10035.851024,1776.494261,7402.059420
1672.378273,9806.022374,2368.659014,7550.100608
1672.378591,9499.584175,2442.679609,8364.327145
1672.378908,8197.221829,2442.679609,9104.533087
1672.379225,7124.688131,1554.432478,10140.821405
1672.379542,5745.716235,1924.535449,10362.883188
1672.379860,5132.839837,2590.720797,10584.944971
1672.380177,5362.668486,2590.720797,11399.171507
1672.380494,4443.353888,2664.741391,11769.274478
1672.380812,4290.134789,3330.926739,11917.315666
1672.381129,3830.477490,3923.091493,10955.047942
1672.381446,4290.134789,3923.091493,11251.130318
1672.381764,3983.696590,3552.988522,12361.439231
1672.382081,3983.696590,3478.967927,11399.171507
1672.382398,3677.258390,3775.050304,10510.924376
1672.382716,3140.991542,3256.906145,10658.965565
1672.383033,3217.601092,2960.823768,10510.924376
1672.383350,2834.553343,2146.597232,9548.656652
1672.383667,2068.457845,1258.350101,8956.491898
1672.383985,919.314598,592.164754,8808.450710
1672.384302,-842.705048,-518.144159,9030.512492
1672.384619,-1149.143247,-1924.535449,9400.615463
1672.384937,-2374.896044,-2146.597232,9474.636058
1672.385254,-3140.991542,-2294.638420,10807.006753
1672.385571,-4136.915689,-1850.514855,10510.924376
1672.385889,-4060.306139,-1110.308913,10510.924376
1672.386206,-3983.696590,148.041188,10807.006753
1672.386523,-3447.429741,1184.329507,10732.986159
1672.386841,-2757.943793,1554.432478,10584.944971
1672.387158,-2298.286494,1554.432478,10510.924376
1672.387475,-1685.410096,1924.535449,10288.862594
1672.387792,-1149.143247,2368.659014,9030.512492
1672.388110,536.266849,2146.597232,9622.677246
1672.388427,1685.410096,2146.597232,9770.718434
1672.388744,2451.505594,2146.597232,9844.739029
1672.389062,3524.039291,1850.514855,10066.800811
1672.389379,4136.915689,2220.617826,9622.677246
1672.389696,4979.620737,2368.659014,8216.285956
1672.390014,5898.935335,3478.967927,6513.812290
1672.390331,6281.983084,4589.276840,4885.359217
1672.390648,6358.592633,4737.318029,3627.009116
1672.390966,6128.763984,4589.276840,3108.864956
1672.391283,5669.106685,3330.926739,3775.050304
1672.391600,5132.839837,1480.411884,6365.771101
1672.391917,3830.477490,-444.123565,7698.141797
1672.392235,2221.676944,-888.247130,10140.821405
1672.392552,1072.533697,-1406.391290,12361.439231
1672.392869,459.657299,-444.123565,13175.665768
1672.393187,1149.143247,1036.288319,12879.583391
1672.393504,1225.752797,2664.741391,11547.212695
1672.393821,2145.067394,4441.235652,10140.821405
1672.394139,3370.820191,5107.421000,8364.327145
1672.394456,4826.401637,5033.400406,7624.121203
1672.394773,5439.278036,3849.070898,6957.935855
1672.395090,6205.373534,3034.844362,6883.915261
1672.395408,6281.983084,2294.638420,7105.977043
1672.395725,6818.249932,1110.308913,7920.203579
1672.396042,6205.373534,666.185348,7698.141797
1672.396360,5975.544884,1036.288319,7476.080014
1672.396677,5822.325785,2294.638420,7105.977043
1672.396994,5515.887586,1924.535449,7550.100608
1672.397312,4979.620737,1554.432478,8068.244768
1672.397629,4213.525239,1998.556043,8586.388927
1672.397946,2911.162892,2442.679609,9474.636058
1672.398264,3064.381992,2146.597232,10362.883188
1672.398581,2451.505594,1998.556043,11325.150913
1672.398898,2374.896044,2590.720797,11843.295072
1672.399215,2068.457845,3849.070898,10955.047942
1672.399533,2451.505594,5403.503377,10436.903782
1672.399850,3677.258390,5995.668130,11325.150913
1672.400167,3600.648841,6069.688724,11621.233289
1672.400485,3983.696590,6513.812290,9548.656652
1672.400802,4443.353888,6809.894666,8586.388927
1672.401119,4443.353888,5773.606348,8290.306550
1672.401437,4826.401637,3552.988522,9548.656652
1672.401754,4290.134789,2146.597232,9178.553681
1672.402071,4060.306139,1702.473667,8808.450710
1672.402389,2911.162892,-0.000000,9918.759623
1672.402706,1608.800546,-1406.391290,11325.150913
1672.403023,306.438199,-740.205942,10584.944971
1672.403340,153.219100,666.185348,9696.697840
1672.403658,-1225.752797,1332.370696,9992.780217
1672.403975,-1838.629195,1702.473667,11621.233289
1672.404292,-1455.581446,2812.782580,10881.027347
1672.404610,-1762.019645,4293.194464,10214.842000
1672.404927,-1915.238745,3627.009116,11251.130318
1672.405244,-1608.800546,3923.091493,11251.130318
1672.405562,-1455.581446,3849.070898,10510.924376
1672.405879,-612.876398,2960.823768,10510.924376
1672.406196,-1072.533697,1702.473667,11547.212695
1672.406514,306.438199,1332.370696,12583.501014
1672.406831,1225.752797,2886.803174,11621.233289
1672.407148,1762.019645,3552.988522,10955.047942
1672.407465,2528.115143,3923.091493,10807.006753
1672.407783,3447.429741,4885.359217,9178.553681
1672.408100,4749.792088,5329.482782,7328.038826
1672.408417,4826.401637,5403.503377,6365.771101
1672.408735,4903.011187,4663.297435,6513.812290
1672.409052,5286.058936,3552.988522,5255.462188
1672.409369,5286.058936,2146.597232,5773.606348
1672.409687,4903.011187,518.144159,8512.368333
1672.410004,4290.134789,-444.123565,9474.636058
1672.410321,3830.477490,-518.144159,9400.615463
1672.410639,3217.601092,-740.205942,10658.965565
1672.410956,3217.601092,-888.247130,13397.727550
1672.411273,3600.648841,-0.000000,13397.727550
1672.411590,4826.401637,2220.617826,12213.398043
1672.411908,6052.154434,3849.070898,11769.274478
1672.412225,7124.688131,4811.338623,10658.965565
1672.412542,8580.269578,5773.606348,8142.265362
1672.412860,9039.926876,6809.894666,5181.441594
1672.413177,9116.536426,6291.750507,4959.379811
1672.413494,8503.660028,4145.153275,4885.359217
1672.413812,7048.078582,2368.659014,4441.235652
1672.414129,5745.716235,-74.020594,6069.688724
1672.414446,3370.820191,-1850.514855,7698.141797
1672.414763,1532.190996,-4145.153275,9918.759623
1672.415081,76.609550,-5551.544565,10955.047942
1672.415398,-612.876398,-5403.503377,11621.233289
1672.415715,-1762.019645,-4663.297435,12213.398043
1672.416033,-2451.505594,-2960.823768,12509.480420
1672.416350,-2451.505594,-1554.432478,11177.109724
1672.416667,-1991.848295,1184.329507,9992.780217
1672.416985,-1762.019645,2960.823768,9770.718434
1672.417302,-1378.971896,5477.523971,7105.977043
1672.417619,-1072.533697,5033.400406,7105.977043
1672.417937,-1225.752797,4811.338623,7328.038826
1672.418254,-1378.971896,3034.844362,8956.491898
1672.418571,-1225.752797,1554.432478,8142.265362
1672.418888,-2068.457845,148.041188,8364.327145
1672.419206,-1991.848295,-2442.679609,9548.656652
1672.419523,-2528.115143,-3997.112087,9178.553681
1672.419840,-2298.286494,-4959.379811,9622.677246
