#time,accel_x,accel_y,accel_z
1542.426913,2681.334243,-222.061783,7105.977043
1542.427231,2298.286494,-1110.308913,8586.388927
1542.427548,1302.362347,-740.205942,8734.430116
1542.427865,1302.362347,-148.041188,8586.388927
1542.428183,1225.752797,444.123565,8364.327145
1542.428500,1455.581446,1036.288319,7624.121203
1542.428817,1378.971896,1258.350101,7031.956449
1542.429135,842.705048,1258.350101,6883.915261
1542.429452,459.657299,888.247130,7550.100608
1542.429770,-153.219100,370.102971,8216.285956
1542.430087,-766.095498,-148.041188,8512.368333
1542.430404,-1685.410096,-1406.391290,9622.677246
1542.430722,-2451.505594,-2516.700203,11177.109724
1542.431039,-2757.943793,-2368.659014,11399.171507
1542.431357,-2451.505594,-1110.308913,11547.212695
1542.431674,-1149.143247,-0.000000,11029.068536
1542.431991,-1608.800546,814.226536,10288.862594
1542.432309,-1762.019645,888.247130,10584.944971
1542.432626,-1685.410096,444.123565,10436.903782
1542.432943,-1915.238745,370.102971,11029.068536
1542.433261,-2221.676944,296.082377,11103.089130
1542.433578,-2451.505594,222.061783,12213.398043
1542.433896,-2145.067394,-296.082377,12361.439231
1542.434213,-2834.553343,-74.020594,12213.398043
1542.434530,-2298.286494,-518.144159,12509.480420
1542.434848,-1838.629195,814.226536,10510.924376
1542.435165,-766.095498,1332.370696,9770.718434
1542.435483,-229.828649,518.144159,9400.615463
1542.435800,-689.485948,740.205942,9474.636058
1542.436117,-459.657299,-518.144159,9326.594869
1542.436435,-919.314598,-222.061783,9474.636058
1542.436752,-1608.800546,-666.185348,9474.636058
1542.437069,-2068.457845,-888.247130,10140.821405
1542.437387,-2451.505594,-222.061783,9622.677246
1542.437704,-2451.505594,-296.082377,9770.718434
1542.438022,-2374.896044,-444.123565,9474.636058
1542.438339,-2221.676944,-296.082377,9178.553681
1542.438656,-1608.800546,-0.000000,8882.471304
1542.438974,-1532.190996,-74.020594,8660.409521
1542.439291,-612.876398,-1702.473667,9326.594869
1542.439608,-1302.362347,-1480.411884,8956.491898
1542.439926,-1991.848295,-1332.370696,8956.491898
1542.440243,-2221.676944,-1110.308913,9474.636058
1542.440561,-2068.457845,-1480.411884,9030.512492
1542.440878,-1762.019645,-1850.514855,9770.718434
1542.441195,-1915.238745,-2368.659014,10288.862594
1542.441513,-1455.581446,-3775.050304,10214.842000
1542.441830,-1685.410096,-4515.256246,9992.780217
1542.442148,-995.924147,-5255.462188,11103.089130
1542.442465,-689.485948,-5477.523971,10881.027347
1542.442782,-383.047749,-4885.359217,11103.089130
1542.443100,-153.219100,-4441.235652,10436.903782
1542.443417,-536.266849,-3997.112087,9844.739029
1542.443734,-459.657299,-3330.926739,9548.656652
1542.444052,-1302.362347,-3182.885551,9252.574275
1542.444369,-1762.019645,-3923.091493,9400.615463
1542.444687,-2451.505594,-4737.318029,9474.636058
1542.445004,-2681.334243,-5329.482782,10510.924376
1542.445321,-2451.505594,-5329.482782,11917.315666
1542.445639,-1378.971896,-6735.874072,12509.480420
1542.445956,-1378.971896,-5625.565159,12213.398043
1542.446273,0.000000,-5403.503377,12805.562797
1542.446591,153.219100,-3330.926739,11991.336260
1542.446908,919.314598,-1628.453072,11325.150913
1542.447226,1532.190996,-148.041188,8660.409521
1542.447543,1378.971896,444.123565,7105.977043
1542.447860,1302.362347,1036.288319,5551.544565
1542.448178,1302.362347,-740.205942,4293.194464
1542.448495,306.438199,-2146.597232,4959.379811
1542.448813,-1072.533697,-4441.235652,6365.771101
1542.449130,-2834.553343,-6883.915261,7550.100608
1542.449447,-4443.353888,-7624.121203,8290.306550
1542.449765,-5975.544884,-7772.162391,9844.739029
1542.450082,-7584.345430,-6291.750507,9622.677246
1542.450399,-9039.926876,-5181.441594,9178.553681
1542.450717,-9346.365076,-4515.256246,9844.739029
1542.451034,-9652.803275,-4441.235652,10436.903782
1542.451352,-10418.898773,-4737.318029,9030.512492
1542.451669,-10418.898773,-4959.379811,10732.986159
1542.451986,-10878.556072,-5551.544565,11103.089130
1542.452304,-9193.145976,-5107.421000,11473.192101
1542.452621,-7354.516781,-4071.132681,10658.965565
1542.452938,-5592.497135,-3627.009116,10140.821405
1542.453256,-3600.648841,-3182.885551,9474.636058
1542.453573,-1532.190996,-2664.741391,8216.285956
1542.453891,0.000000,-2590.720797,7994.224174
1542.454208,1455.581446,-2516.700203,8068.244768
1542.454525,1838.629195,-2442.679609,7550.100608
1542.454843,1149.143247,-2812.782580,7328.038826
1542.455160,1762.019645,-3404.947333,9474.636058
1542.455478,1991.848295,-3997.112087,9474.636058
1542.455795,2604.724693,-3404.947333,9474.636058
1542.456112,2681.334243,-2368.659014,9104.533087
1542.456430,2834.553343,-2072.576638,8586.388927
1542.456747,3447.429741,-1850.514855,9030.512492
1542.457065,4290.134789,-2072.576638,10658.965565
1542.457382,5439.278036,-1406.391290,11547.212695
1542.457699,6358.592633,222.061783,11769.274478
1542.458017,7584.345430,1332.370696,11917.315666
1542.458334,8886.707777,1924.535449,12287.418637
1542.458652,9576.193725,4145.153275,10732.986159
1542.458969,10112.460574,6069.688724,7772.162391
1542.459286,10878.556072,7179.997637,6143.709319
1542.459604,10265.679673,6883.915261,4885.359217
1542.459921,10955.165621,6069.688724,5033.400406
1542.460239,10342.289223,4737.318029,5033.400406
1542.460556,8427.050478,2590.720797,6143.709319
1542.460873,6894.859482,962.267725,7994.224174
1542.461191,4749.792088,1776.494261,7698.141797
1542.461508,2834.553343,2220.617826,6957.935855
1542.461826,1225.752797,2664.741391,7476.080014
1542.462143,-1225.752797,3478.967927,7698.141797
1542.462460,-3217.601092,3404.947333,8142.265362
1542.462778,-4443.353888,2072.576638,9918.759623
1542.463095,-5822.325785,1480.411884,11695.253884
1542.463413,-6052.154434,1924.535449,12879.583391
1542.463730,-6358.592633,1776.494261,13101.645173
1542.464047,-6435.202183,2146.597232,12583.501014
1542.464365,-6665.030833,2960.823768,11917.315666
1542.464682,-5745.716235,4515.256246,11103.089130
1542.465000,-5439.278036,5551.544565,9992.780217
1542.465317,-4826.401637,6217.729913,9474.636058
1542.465634,-4596.572988,5477.523971,9696.697840
1542.465952,-4596.572988,2960.823768,9992.780217
1542.466269,-4749.792088,962.267725,11251.130318
1542.466587,-4903.011187,-740.205942,11917.315666
1542.466904,-4519.963438,-1258.350101,12583.501014
1542.467222,-3600.648841,-592.164754,12065.356855
1542.467539,-2604.724693,518.144159,11769.274478
1542.467856,-2911.162892,1406.391290,11029.068536
1542.468174,-2145.067394,1480.411884,11251.130318
1542.468491,-2145.067394,1184.329507,10807.006753
1542.468809,-2528.115143,296.082377,10955.047942
1542.469126,-2145.067394,-1406.391290,11695.253884
1542.469443,-2528.115143,-2442.679609,12805.562797
1542.469761,-1838.629195,-3330.926739,13989.892304
1542.470078,-766.095498,-3256.906145,14359.995275
1542.470396,383.047749,-2146.597232,13767.830521
1542.470713,2068.457845,-814.226536,12583.501014
1542.471030,3677.258390,740.205942,10658.965565
1542.471348,4213.525239,1554.432478,9326.594869
1542.471665,4903.011187,962.267725,8068.244768
1542.471983,4749.792088,-444.123565,7994.224174
1542.472300,4290.134789,-2664.741391,8290.306550
1542.472617,3907.087040,-3404.947333,8068.244768
1542.472935,3524.039291,-4515.256246,9178.553681
1542.473252,3217.601092,-4811.338623,9770.718434
1542.473570,3830.477490,-4885.359217,9474.636058
1542.473887,3600.648841,-5107.421000,9622.677246
1542.474204,3447.429741,-5773.606348,9474.636058
1542.474522,3907.087040,-4737.318029,8956.491898
1542.474839,4519.963438,-4071.132681,7994.224174
1542.475157,4290.134789,-3404.947333,7846.182985
1542.475474,4136.915689,-3034.844362,8216.285956
1542.475792,3830.477490,-2886.803174,7772.162391
1542.476109,3677.258390,-2590.720797,7698.141797
1542.476426,3524.039291,-2294.638420,7698.141797
1542.476744,3907.087040,-1850.514855,6957.935855
1542.477061,4213.525239,-1554.432478,6217.729913
1542.477379,4366.744339,-1850.514855,5625.565159
1542.477696,4366.744339,-2220.617826,5773.606348
1542.478013,4443.353888,-2368.659014,5625.565159
1542.478331,3907.087040,-2516.700203,5995.668130
1542.478648,2987.772442,-2368.659014,6439.791695
1542.478966,1991.848295,-1702.473667,6587.832884
1542.479283,689.485948,-740.205942,7254.018232
1542.479600,-229.828649,-148.041188,6809.894666
1542.479918,-306.438199,370.102971,6365.771101
1542.480235,-766.095498,740.205942,6661.853478
1542.480553,-995.924147,814.226536,6217.729913
1542.480870,-995.924147,962.267725,5921.647536
1542.481187,-995.924147,296.082377,6957.935855
1542.481505,-842.705048,-0.000000,7402.059420
1542.481822,-1302.362347,222.061783,7402.059420
1542.482140,-2068.457845,888.247130,8068.244768
1542.482457,-2681.334243,1332.370696,9030.512492
1542.482774,-3217.601092,2516.700203,8734.430116
1542.483092,-4136.915689,2664.741391,8364.327145
1542.483409,-3983.696590,2590.720797,8660.409521
1542.483727,-4519.963438,2442.679609,9252.574275
1542.484044,-4673.182538,2220.617826,9400.615463
1542.484362,-4596.572988,1628.453072,9696.697840
1542.484679,-4290.134789,1776.494261,10362.883188
1542.484996,-4060.306139,1628.453072,10807.006753
1542.485314,-4060.306139,1406.391290,11251.130318
1542.485631,-3447.429741,1554.432478,11991.336260
1542.485949,-3064.381992,1776.494261,12657.521608
1542.486266,-2604.724693,2812.782580,11917.315666
1542.486583,-1991.848295,3478.967927,11769.274478
1542.486901,-1378.971896,4145.153275,11547.212695
1542.487218,-459.657299,4145.153275,11103.089130
1542.487536,76.609550,3923.091493,10881.027347
1542.487853,766.095498,3478.967927,11251.130318
1542.488170,1302.362347,3108.864956,11991.336260
1542.488488,1685.410096,2738.761985,12435.459826
1542.488805,1685.410096,2368.659014,12361.439231
1542.489123,2374.896044,2368.659014,13545.768739
1542.489440,2374.896044,2294.638420,13693.809927
1542.489757,3294.210641,2886.803174,13545.768739
1542.490075,4519.963438,3997.112087,13101.645173
1542.490392,5056.230287,4071.132681,12139.377449
1542.490710,5898.935335,4663.297435,11251.130318
1542.491027,6511.811733,4441.235652,10732.986159
1542.491344,6741.640382,3997.112087,10140.821405
1542.491662,6665.030833,3404.947333,10510.924376
1542.491979,6971.469032,2738.761985,10214.842000
1542.492297,6511.811733,2442.679609,9474.636058
1542.492614,6511.811733,1924.535449,9770.718434
1542.492931,6205.373534,962.267725,10658.965565
1542.493249,5286.058936,222.061783,11547.212695
1542.493566,4826.401637,-0.000000,11029.068536
1542.493884,3830.477490,-370.102971,10881.027347
1542.494201,3217.601092,296.082377,10362.883188
1542.494519,3217.601092,-0.000000,10288.862594
1542.494836,2068.457845,-0.000000,9844.739029
1542.495153,1455.581446,-370.102971,9326.594869
1542.495471,766.095498,-888.247130,9474.636058
1542.495788,229.828649,-1184.329507,8882.471304
1542.496106,0.000000,-1406.391290,8956.491898
1542.496423,-689.485948,-2072.576638,8808.450710
1542.496740,-919.314598,-2072.576638,8512.368333
1542.497058,-1915.238745,-2516.700203,8290.306550
1542.497375,-2068.457845,-1924.535449,8438.347739
1542.497693,-1762.019645,-1924.535449,7994.224174
1542.498010,-1685.410096,-1258.350101,7920.203579
1542.498327,-1762.019645,-888.247130,7254.018232
1542.498645,-1762.019645,-1110.308913,6883.915261
1542.498962,-2145.067394,-1036.288319,6735.874072
1542.499280,-1838.629195,-740.205942,6587.832884
1542.499597,-1685.410096,-740.205942,6661.853478
1542.499914,-1378.971896,-592.164754,6143.709319
1542.500232,-1149.143247,-814.226536,6143.709319
1542.500549,-766.095498,-518.144159,6143.709319
1542.500867,-689.485948,-1036.288319,6809.894666
1542.501184,0.000000,-814.226536,6587.832884
1542.501501,0.000000,-370.102971,6735.874072
1542.501819,536.266849,-0.000000,6587.832884
1542.502136,536.266849,-0.000000,6661.853478
1542.502454,1302.362347,-74.020594,6513.812290
1542.502771,1225.752797,1184.329507,6587.832884
1542.503089,919.314598,962.267725,6587.832884
1542.503406,1149.143247,1110.308913,7254.018232
1542.503723,1532.190996,962.267725,7402.059420
1542.504041,1532.190996,888.247130,7994.224174
1542.504358,1685.410096,814.226536,8364.327145
1542.504676,1991.848295,296.082377,8586.388927
1542.504993,2145.067394,444.123565,9104.533087
1542.505310,2757.943793,740.205942,9548.656652
1542.505628,2374.896044,1258.350101,9918.759623
1542.505945,2528.115143,1480.411884,10140.821405
1542.506263,2528.115143,1702.473667,10288.862594
1542.506580,2298.286494,1998.556043,10510.924376
1542.506897,2221.676944,2072.576638,10807.006753
1542.507215,2221.676944,1998.556043,11325.150913
1542.507532,1838.629195,1924.535449,11547.212695
1542.507850,1685.410096,1554.432478,11695.253884
1542.508167,1608.800546,1406.391290,12065.356855
1542.508484,1838.629195,1332.370696,12805.562797
1542.508802,1608.800546,1554.432478,13175.665768
1542.509119,1302.362347,814.226536,12953.603985
1542.509437,1072.533697,1924.535449,11991.336260
1542.509754,1225.752797,2368.659014,12065.356855
1542.510071,1149.143247,2442.679609,11843.295072
1542.510389,842.705048,2590.720797,11251.130318
1542.510706,536.266849,2442.679609,10732.986159
1542.511024,459.657299,2294.638420,10732.986159
1542.511341,229.828649,2368.659014,10732.986159
1542.511658,-459.657299,1702.473667,10881.027347
1542.511976,-459.657299,1406.391290,10955.047942
1542.512293,-995.924147,740.205942,11251.130318
1542.512611,-995.924147,814.226536,11473.192101
1542.512928,-919.314598,1258.350101,11843.295072
1542.513246,-536.266849,1702.473667,11103.089130
1542.513563,0.000000,1998.556043,10214.842000
1542.513880,0.000000,2368.659014,9622.677246
1542.514198,383.047749,2442.679609,9400.615463
1542.514515,536.266849,2146.597232,8734.430116
1542.514833,995.924147,2368.659014,8512.368333
1542.515150,766.095498,2442.679609,8142.265362
1542.515467,1149.143247,1998.556043,8512.368333
1542.515785,1455.581446,1184.329507,8512.368333
1542.516102,1455.581446,814.226536,8586.388927
1542.516420,1762.019645,296.082377,9252.574275
1542.516737,1838.629195,370.102971,9104.533087
1542.517054,1685.410096,518.144159,8512.368333
1542.517372,1762.019645,740.205942,8734.430116
1542.517689,1991.848295,-0.000000,8142.265362
1542.518007,1608.800546,-148.041188,8216.285956
1542.518324,1302.362347,-888.247130,8142.265362
1542.518641,1072.533697,-1036.288319,8364.327145
1542.518959,689.485948,-1184.329507,8586.388927
1542.519276,612.876398,-1850.514855,8512.368333
1542.519594,383.047749,-2368.659014,9400.615463
1542.519911,306.438199,-2960.823768,9474.636058
1542.520228,0.000000,-3330.926739,9252.574275
1542.520546,919.314598,-2960.823768,9474.636058
1542.520863,842.705048,-1998.556043,8364.327145
1542.521181,1225.752797,-1628.453072,7994.224174
1542.521498,1455.581446,-888.247130,7772.162391
1542.521816,1225.752797,-370.102971,7402.059420
1542.522133,1149.143247,-1406.391290,7105.977043
1542.522450,919.314598,-1184.329507,7105.977043
1542.522768,919.314598,-1184.329507,7328.038826
1542.523085,1072.533697,-1480.411884,7402.059420
1542.523403,842.705048,-2294.638420,8068.244768
1542.523720,459.657299,-2368.659014,8438.347739
1542.524037,995.924147,-1924.535449,8808.450710
1542.524355,1225.752797,-1258.350101,8216.285956
1542.524672,1378.971896,-1036.288319,8290.306550
1542.524990,1762.019645,-222.061783,8586.388927
1542.525307,1762.019645,296.082377,7994.224174
1542.525624,1838.629195,1036.288319,7772.162391
1542.525942,1838.629195,1036.288319,8142.265362
1542.526259,1762.019645,962.267725,8290.306550
1542.526577,1532.190996,962.267725,8956.491898
1542.526894,1532.190996,518.144159,9844.739029
1542.527211,1532.190996,-74.020594,10066.800811
1542.527529,1762.019645,-370.102971,10584.944971
1542.527846,1302.362347,-296.082377,10955.047942
1542.528164,1608.800546,-0.000000,10732.986159
1542.528481,1838.629195,-0.000000,10658.965565
1542.528798,1378.971896,666.185348,10658.965565
1542.529116,919.314598,370.102971,10955.047942
1542.529433,842.705048,592.164754,10955.047942
1542.529751,306.438199,592.164754,11103.089130
1542.530068,-76.609550,592.164754,11251.130318
1542.530385,-536.266849,370.102971,11399.171507
1542.530703,-919.314598,-0.000000,11991.336260
1542.531020,-689.485948,-518.144159,12509.480420
1542.531338,-689.485948,-444.123565,13027.624579
1542.531655,-842.705048,-592.164754,12361.439231
1542.531973,-459.657299,-0.000000,12065.356855
1542.532290,-536.266849,444.123565,11547.212695
1542.532607,-229.828649,592.164754,11325.150913
1542.532925,-842.705048,1628.453072,10362.883188
1542.533242,-919.314598,1480.411884,10214.842000
1542.533560,-1685.410096,1702.473667,9918.759623
1542.533877,-995.924147,1332.370696,10066.800811
1542.534194,-1378.971896,1480.411884,10140.821405
1542.534512,-1302.362347,962.267725,10140.821405
1542.534829,-1302.362347,888.247130,10288.862594
1542.535147,-1455.581446,-148.041188,9770.718434
1542.535464,-1378.971896,-444.123565,9696.697840
1542.535781,-1149.143247,148.041188,10362.883188
1542.536099,-612.876398,740.205942,9474.636058
1542.536416,0.000000,1628.453072,8734.430116
1542.536734,76.609550,1406.391290,8660.409521
1542.537051,919.314598,1480.411884,8438.347739
1542.537368,689.485948,1258.350101,8290.306550
1542.537686,1225.752797,1036.288319,7550.100608
1542.538003,1455.581446,888.247130,7476.080014
1542.538321,2145.067394,592.164754,7624.121203
1542.538638,2528.115143,-0.000000,7846.182985
1542.538955,2604.724693,-1036.288319,8438.347739
1542.539273,2068.457845,-1332.370696,8364.327145
1542.539590,2374.896044,-1924.535449,9104.533087
1542.539908,2374.896044,-1258.350101,8734.430116
1542.540225,2911.162892,-1258.350101,8512.368333
1542.540543,1991.848295,-888.247130,8216.285956
1542.540860,1608.800546,-740.205942,8142.265362
1542.541177,1302.362347,-1110.308913,7772.162391
1542.541495,1378.971896,-1776.494261,8142.265362
1542.541812,1225.752797,-2294.638420,8512.368333
1542.542130,1072.533697,-1998.556043,8512.368333
1542.542447,995.924147,-1776.494261,8586.388927
1542.542764,842.705048,-2220.617826,9104.533087
1542.543082,0.000000,-2442.679609,9326.594869
1542.543399,842.705048,-2072.576638,9548.656652
1542.543717,766.095498,-1628.453072,9178.553681
1542.544034,1225.752797,-962.267725,8734.430116
1542.544351,1378.971896,-1184.329507,8438.347739
1542.544669,1685.410096,-888.247130,8068.244768
1542.544986,1225.752797,-962.267725,7698.141797
1542.545304,842.705048,-888.247130,7402.059420
1542.545621,612.876398,-592.164754,7846.182985
1542.545938,536.266849,-740.205942,8364.327145
1542.546256,612.876398,-1184.329507,9252.574275
1542.546573,76.609550,-1406.391290,9178.553681
1542.546891,0.000000,-1628.453072,9474.636058
1542.547208,-383.047749,-1702.473667,9992.780217
1542.547525,0.000000,-1258.350101,10066.800811
1542.547843,-306.438199,-0.000000,9696.697840
1542.548160,0.000000,518.144159,8512.368333
1542.548478,0.000000,888.247130,8512.368333
1542.548795,306.438199,666.185348,8956.491898
1542.549112,-153.219100,296.082377,9178.553681
1542.549430,-229.828649,-370.102971,9770.718434
1542.549747,-612.876398,-148.041188,9918.759623
1542.550065,-536.266849,-74.020594,10807.006753
1542.550382,-459.657299,-814.226536,11103.089130
1542.550700,-383.047749,-370.102971,11251.130318
1542.551017,-306.438199,-666.185348,11917.315666
1542.551334,0.000000,148.041188,11103.089130
1542.551652,459.657299,518.144159,11029.068536
1542.551969,995.924147,1406.391290,10807.006753
1542.552287,766.095498,1184.329507,11621.233289
1542.552604,1149.143247,1406.391290,10510.924376
1542.552921,536.266849,666.185348,10584.944971
1542.553239,536.266849,740.205942,11251.130318
1542.553556,1455.581446,592.164754,11547.212695
1542.553874,1608.800546,888.247130,10955.047942
1542.554191,1532.190996,370.102971,10955.047942
1542.554508,1685.410096,296.082377,11399.171507
1542.554826,1838.629195,592.164754,11399.171507
1542.555143,2528.115143,1258.350101,10732.986159
1542.555461,2298.286494,2146.597232,9252.574275
1542.555778,2221.676944,2072.576638,9178.553681
1542.556095,1608.800546,1850.514855,9400.615463
1542.556413,1532.190996,1258.350101,9548.656652
1542.556730,1302.362347,1184.329507,9326.594869
1542.557048,766.095498,1258.350101,9030.512492
1542.557365,383.047749,1406.391290,9326.594869
1542.557682,383.047749,962.267725,9400.615463
1542.558000,229.828649,-0.000000,9400.615463
1542.558317,-383.047749,-296.082377,9918.759623
1542.558634,-689.485948,-0.000000,9992.780217
1542.558952,-383.047749,592.164754,9326.594869
1542.559269,306.438199,1554.432478,8660.409521
1542.559586,0.000000,1480.411884,8438.347739
1542.559903,-383.047749,1184.329507,8660.409521
1542.560221,-612.876398,962.267725,7920.203579
1542.560538,-383.047749,518.144159,8068.244768
1542.560855,-229.828649,370.102971,8290.306550
1542.561172,0.000000,888.247130,7846.182985
1542.561490,306.438199,444.123565,7920.203579
1542.561807,536.266849,-0.000000,8216.285956
1542.562124,536.266849,-592.164754,8660.409521
1542.562441,536.266849,-592.164754,8660.409521
1542.562759,1378.971896,-74.020594,8660.409521
1542.563076,1149.143247,444.123565,7920.203579
1542.563393,1072.533697,296.082377,8142.265362
1542.563710,995.924147,148.041188,8068.244768
1542.564028,919.314598,-0.000000,7920.203579
1542.564345,1532.190996,-518.144159,7920.203579
1542.564662,689.485948,-518.144159,8142.265362
1542.564979,766.095498,-1184.329507,9030.512492
1542.565297,536.266849,-1184.329507,9474.636058
1542.565614,459.657299,-1776.494261,9474.636058
1542.565931,306.438199,-1998.556043,9770.718434
1542.566248,153.219100,-1850.514855,10140.821405
1542.566566,229.828649,-1184.329507,9992.780217
1542.566883,536.266849,-592.164754,9770.718434
1542.567200,689.485948,-370.102971,9696.697840
1542.567517,459.657299,-0.000000,9178.553681
1542.567835,536.266849,296.082377,8882.471304
1542.568152,919.314598,222.061783,8512.368333
1542.568469,919.314598,-0.000000,9030.512492
1542.568787,306.438199,-370.102971,9326.594869
1542.569104,689.485948,-740.205942,9918.759623
1542.569421,76.609550,-1184.329507,10436.903782
1542.569738,689.485948,-1406.391290,11029.068536
1542.570056,306.438199,-888.247130,10658.965565
1542.570373,612.876398,-740.205942,10510.924376
1542.570690,1072.533697,296.082377,10140.821405
1542.571007,1302.362347,962.267725,10140.821405
1542.571325,1608.800546,1406.391290,9474.636058
1542.571642,1532.190996,1924.535449,9030.512492
1542.571959,1378.971896,1184.329507,9474.636058
1542.572276,1455.581446,814.226536,9474.636058
1542.572594,1072.533697,296.082377,10288.862594
1542.572911,1455.581446,370.102971,10214.842000
1542.573228,1378.971896,740.205942,10362.883188
1542.573545,1762.019645,-0.000000,10362.883188
1542.573863,1455.581446,444.123565,10584.944971
1542.574180,1532.190996,592.164754,10066.800811
1542.574497,1608.800546,1480.411884,9844.739029
1542.574814,1915.238745,1850.514855,9696.697840
1542.575132,2374.896044,2294.638420,9326.594869
1542.575449,1838.629195,2738.761985,8734.430116
1542.575766,1838.629195,2220.617826,9104.533087
1542.576083,1302.362347,1406.391290,9030.512492
1542.576401,1302.362347,814.226536,10140.821405
1542.576718,1072.533697,888.247130,9992.780217
1542.577035,1149.143247,518.144159,10658.965565
1542.577353,1455.581446,666.185348,10436.903782
1542.577670,1455.581446,1036.288319,10214.842000
1542.577987,1532.190996,1924.535449,9844.739029
1542.578304,1991.848295,2294.638420,8956.491898
1542.578622,1302.362347,2516.700203,8882.471304
1542.578939,1915.238745,2960.823768,8586.388927
1542.579256,1378.971896,3108.864956,8290.306550
1542.579573,1455.581446,2738.761985,8216.285956
1542.579891,459.657299,2294.638420,8438.347739
1542.580208,153.219100,1924.535449,8660.409521
1542.580525,153.219100,1332.370696,9400.615463
1542.580842,229.828649,444.123565,9548.656652
1542.581160,-612.876398,-74.020594,10066.800811
1542.581477,-306.438199,74.020594,10584.944971
1542.581794,306.438199,1184.329507,9474.636058
1542.582111,459.657299,1850.514855,9400.615463
1542.582429,919.314598,1702.473667,8882.471304
1542.582746,153.219100,2072.576638,8068.244768
1542.583063,612.876398,1776.494261,8290.306550
1542.583380,995.924147,1406.391290,8512.368333
1542.583698,612.876398,592.164754,8660.409521
1542.584015,689.485948,592.164754,8586.388927
1542.584332,383.047749,592.164754,8956.491898
1542.584649,919.314598,-148.041188,9622.677246
1542.584967,1149.143247,-74.020594,9030.512492
1542.585284,1302.362347,148.041188,9030.512492
1542.585601,995.924147,1036.288319,8882.471304
1542.585919,459.657299,1184.329507,8956.491898
1542.586236,919.314598,370.102971,9696.697840
1542.586553,306.438199,888.247130,9548.656652
1542.586870,383.047749,1258.350101,8882.471304
1542.587188,306.438199,1036.288319,9030.512492
1542.587505,383.047749,962.267725,9178.553681
1542.587822,766.095498,-0.000000,9474.636058
1542.588139,76.609550,-0.000000,9252.574275
1542.588457,766.095498,-814.226536,10510.924376
1542.588774,612.876398,-518.144159,10362.883188
1542.589091,1378.971896,-444.123565,10807.006753
1542.589408,1225.752797,-0.000000,10362.883188
1542.589726,1225.752797,-0.000000,10584.944971
1542.590043,842.705048,296.082377,9474.636058
1542.590360,1608.800546,-222.061783,10140.821405
1542.590677,1838.629195,-0.000000,9918.759623
1542.590995,1991.848295,148.041188,9622.677246
1542.591312,1838.629195,444.123565,8734.430116
1542.591629,1532.190996,-148.041188,8882.471304
1542.591946,1302.362347,-888.247130,9474.636058
1542.592264,1072.533697,-1702.473667,10214.842000
1542.592581,689.485948,-1480.411884,10214.842000
1542.592898,306.438199,-1184.329507,10362.883188
1542.593215,383.047749,-296.082377,9918.759623
1542.593533,1225.752797,-814.226536,10288.862594
1542.593850,76.609550,-0.000000,9326.594869
1542.594167,1149.143247,-740.205942,9696.697840
1542.594484,612.876398,370.102971,8068.244768
1542.594802,1455.581446,444.123565,9178.553681
1542.595119,689.485948,148.041188,8734.430116
1542.595436,383.047749,962.267725,8512.368333
1542.595754,306.438199,-296.082377,8956.491898
1542.596071,-1149.143247,-592.164754,8438.347739
1542.596388,-536.266849,-1554.432478,10140.821405
1542.596705,0.000000,-814.226536,9474.636058
1542.597023,-153.219100,-0.000000,9400.615463
1542.597340,383.047749,444.123565,8734.430116
1542.597657,-306.438199,-74.020594,8512.368333
1542.597974,306.438199,-0.000000,8364.327145
1542.598292,536.266849,-814.226536,9030.512492
1542.598609,842.705048,222.061783,9622.677246
1542.598926,1608.800546,444.123565,9104.533087
1542.599243,1225.752797,1702.473667,7920.203579
1542.599561,1762.019645,1628.453072,7920.203579
1542.599878,1685.410096,666.185348,8586.388927
1542.600195,2221.676944,-444.123565,9104.533087
1542.600512,2145.067394,-148.041188,9400.615463
1542.600830,2451.505594,-0.000000,9474.636058
1542.601147,2604.724693,-370.102971,9326.594869
1542.601464,3140.991542,444.123565,9030.512492
1542.601781,2834.553343,-0.000000,9178.553681
1542.602099,2068.457845,518.144159,7772.162391
1542.602416,1455.581446,-222.061783,8512.368333
1542.602733,689.485948,148.041188,9326.594869
1542.603050,1149.143247,-666.185348,10584.944971
1542.603368,0.000000,-0.000000,9622.677246
1542.603685,-536.266849,-444.123565,10288.862594
1542.604002,-995.924147,-296.082377,10288.862594
1542.604320,-459.657299,-666.185348,10732.986159
1542.604637,-229.828649,-0.000000,10658.965565
1542.604954,-229.828649,592.164754,11029.068536
1542.605271,383.047749,962.267725,10807.006753
1542.605589,0.000000,1184.329507,9770.718434
1542.605906,383.047749,1924.535449,9548.656652
1542.606223,306.438199,2072.576638,8808.450710
1542.606540,842.705048,1924.535449,8734.430116
1542.606858,306.438199,1850.514855,8290.306550
1542.607175,-76.609550,1628.453072,8882.471304
1542.607492,0.000000,814.226536,10214.842000
1542.607809,-459.657299,-0.000000,10658.965565
1542.608127,0.000000,222.061783,10436.903782
1542.608444,-306.438199,518.144159,9770.718434
1542.608761,76.609550,518.144159,9992.780217
1542.609078,383.047749,888.247130,10066.800811
1542.609396,612.876398,1184.329507,9918.759623
1542.609713,306.438199,1332.370696,9474.636058
1542.610030,0.000000,1554.432478,9030.512492
1542.610347,-153.219100,1036.288319,9548.656652
1542.610665,-229.828649,814.226536,9770.718434
1542.610982,153.219100,222.061783,9844.739029
1542.611299,459.657299,444.123565,9844.739029
1542.611616,306.438199,-222.061783,10584.944971
1542.611934,229.828649,-666.185348,10140.821405
1542.612251,919.314598,-740.205942,10362.883188
1542.612568,1072.533697,-370.102971,9844.739029
1542.612885,919.314598,-0.000000,9992.780217
1542.613203,1149.143247,666.185348,9178.553681
1542.613520,842.705048,370.102971,9252.574275
1542.613837,689.485948,-148.041188,9400.615463
1542.614155,1072.533697,-222.061783,10140.821405
1542.614472,919.314598,-518.144159,9992.780217
1542.614789,1225.752797,-370.102971,9474.636058
1542.615106,1608.800546,-666.185348,9696.697840
1542.615424,2145.067394,-888.247130,9696.697840
1542.615741,2528.115143,-1628.453072,9992.780217
1542.616058,2451.505594,-1110.308913,9844.739029
1542.616375,2374.896044,-740.205942,9178.553681
1542.616693,2528.115143,444.123565,9178.553681
1542.617010,2681.334243,962.267725,7994.224174
1542.617327,2374.896044,814.226536,8438.347739
1542.617644,1991.848295,-0.000000,8512.368333
1542.617962,1149.143247,-666.185348,8216.285956
1542.618279,766.095498,-814.226536,8586.388927
1542.618596,919.314598,-1480.411884,9622.677246
1542.618913,842.705048,-1258.350101,8808.450710
1542.619231,306.438199,-1628.453072,8734.430116
1542.619548,153.219100,-1480.411884,9030.512492
1542.619865,-153.219100,-1258.350101,9178.553681
1542.620182,536.266849,-518.144159,8956.491898
1542.620500,612.876398,-0.000000,8512.368333
1542.620817,0.000000,296.082377,8216.285956
1542.621134,-153.219100,-370.102971,7920.203579
1542.621451,0.000000,-518.144159,7624.121203
1542.621769,-229.828649,-814.226536,7772.162391
1542.622086,-612.876398,-740.205942,7994.224174
1542.622403,-306.438199,-740.205942,8216.285956
1542.622721,-766.095498,-1184.329507,8734.430116
1542.623038,-919.314598,-2072.576638,9918.759623
1542.623355,-1455.581446,-2368.659014,10288.862594
1542.623672,-1378.971896,-1998.556043,10214.842000
1542.623990,-919.314598,-888.247130,10214.842000
1542.624307,-919.314598,444.123565,9252.574275
1542.624624,-383.047749,814.226536,9178.553681
1542.624941,-383.047749,592.164754,8660.409521
1542.625259,0.000000,-0.000000,8956.491898
1542.625576,229.828649,-74.020594,9326.594869
1542.625893,0.000000,-296.082377,9104.533087
1542.626210,-76.609550,148.041188,9326.594869
1542.626528,459.657299,-592.164754,10510.924376
1542.626845,459.657299,-888.247130,10732.986159
1542.627162,536.266849,-1554.432478,10732.986159
1542.627479,0.000000,-1258.350101,10584.944971
1542.627797,1072.533697,-444.123565,10658.965565
1542.628114,1762.019645,1184.329507,9992.780217
1542.628431,1991.848295,1184.329507,9622.677246
1542.628748,1608.800546,1628.453072,9104.533087
1542.629066,1149.143247,1406.391290,8956.491898
1542.629383,1762.019645,444.123565,9696.697840
1542.629700,1378.971896,592.164754,9844.739029
1542.630017,1915.238745,962.267725,9474.636058
1542.630335,1532.190996,370.102971,9696.697840
1542.630652,1685.410096,-0.000000,9918.759623
1542.630969,1378.971896,-444.123565,9992.780217
1542.631287,1838.629195,-0.000000,10584.944971
1542.631604,1991.848295,1258.350101,9844.739029
1542.631921,1991.848295,2146.597232,8956.491898
1542.632238,1915.238745,2294.638420,8586.388927
1542.632556,1991.848295,2220.617826,8808.450710
1542.632873,995.924147,1850.514855,8808.450710
1542.633190,1072.533697,1332.370696,9474.636058
1542.633507,919.314598,740.205942,9400.615463
1542.633825,842.705048,888.247130,9474.636058
1542.634142,1225.752797,814.226536,10214.842000
1542.634459,919.314598,-0.000000,9992.780217
1542.634776,766.095498,-296.082377,9918.759623
1542.635094,1072.533697,-296.082377,10140.821405
1542.635411,1378.971896,370.102971,9992.780217
1542.635728,1838.629195,962.267725,9992.780217
1542.636045,1838.629195,1184.329507,9400.615463
1542.636363,1608.800546,1184.329507,9178.553681
1542.636680,1149.143247,1258.350101,8734.430116
1542.636997,1225.752797,592.164754,8956.491898
1542.637314,689.485948,888.247130,8956.491898
1542.637632,919.314598,518.144159,9326.594869
1542.637949,842.705048,-0.000000,9844.739029
1542.638266,306.438199,-444.123565,9770.718434
1542.638583,0.000000,-1184.329507,10214.842000
1542.638901,0.000000,-666.185348,9992.780217
1542.639218,153.219100,222.061783,9622.677246
1542.639535,306.438199,518.144159,9252.574275
1542.639852,0.000000,740.205942,8956.491898
1542.640170,-383.047749,888.247130,8956.491898
1542.640487,-766.095498,592.164754,8586.388927
1542.640804,-689.485948,222.061783,8438.347739
1542.641122,-1149.143247,-0.000000,9252.574275
1542.641439,-1302.362347,74.020594,9770.718434
1542.641756,-1838.629195,-592.164754,9400.615463
1542.642073,-1762.019645,-444.123565,10066.800811
1542.642391,-1991.848295,-888.247130,10214.842000
1542.642708,-1915.238745,-888.247130,10214.842000
1542.643025,-1685.410096,-444.123565,9844.739029
1542.643342,-689.485948,-0.000000,9770.718434
1542.643660,-612.876398,518.144159,9178.553681
1542.643977,-153.219100,1184.329507,8660.409521
1542.644294,0.000000,592.164754,8734.430116
1542.644611,459.657299,-0.000000,8364.327145
1542.644929,689.485948,-0.000000,8808.450710
1542.645246,919.314598,-74.020594,9030.512492
1542.645563,995.924147,-74.020594,9178.553681
1542.645880,1455.581446,-444.123565,9474.636058
1542.646198,1685.410096,-1110.308913,9918.759623
1542.646515,1608.800546,-518.144159,9696.697840
1542.646832,1685.410096,-444.123565,9474.636058
1542.647149,2145.067394,-370.102971,9178.553681
1542.647467,2528.115143,-0.000000,9326.594869
1542.647784,2451.505594,370.102971,9252.574275
1542.648101,1991.848295,592.164754,8660.409521
1542.648418,2145.067394,444.123565,8956.491898
1542.648736,2298.286494,444.123565,9252.574275
1542.649053,2757.943793,-148.041188,9326.594869
1542.649370,1991.848295,-148.041188,9178.553681
1542.649688,1685.410096,-370.102971,9622.677246
1542.650005,1608.800546,-962.267725,10362.883188
1542.650322,1608.800546,-444.123565,10288.862594
1542.650639,1991.848295,370.102971,9992.780217
1542.650957,1762.019645,962.267725,9548.656652
1542.651274,2068.457845,1184.329507,9252.574275
1542.651591,2068.457845,1184.329507,9030.512492
1542.651908,1762.019645,1036.288319,9030.512492
1542.652226,1915.238745,888.247130,8882.471304
1542.652543,1378.971896,518.144159,8882.471304
1542.652860,1378.971896,666.185348,8956.491898
1542.653177,1149.143247,666.185348,9326.594869
1542.653495,766.095498,666.185348,9770.718434
1542.653812,766.095498,518.144159,9844.739029
1542.654129,1149.143247,666.185348,9844.739029
1542.654446,842.705048,1036.288319,9844.739029
1542.654764,1225.752797,1554.432478,9252.574275
1542.655081,1072.533697,2220.617826,9474.636058
1542.655398,1072.533697,1628.453072,8512.368333
1542.655715,689.485948,1628.453072,8068.244768
1542.656033,229.828649,1406.391290,8290.306550
1542.656350,383.047749,1110.308913,8956.491898
1542.656667,0.000000,1036.288319,9326.594869
1542.656984,-306.438199,814.226536,9548.656652
1542.657302,-766.095498,592.164754,9844.739029
1542.657619,-995.924147,296.082377,9622.677246
1542.657936,-842.705048,148.041188,10436.903782
1542.658254,-306.438199,370.102971,9696.697840
1542.658571,-459.657299,1110.308913,9548.656652
1542.658888,0.000000,1554.432478,9252.574275
1542.659206,229.828649,1776.494261,8956.491898
1542.659523,383.047749,2146.597232,8956.491898
1542.659841,76.609550,1480.411884,9178.553681
1542.660158,153.219100,1258.350101,9252.574275
1542.660475,0.000000,740.205942,9030.512492
1542.660793,842.705048,592.164754,9992.780217
1542.661110,536.266849,-0.000000,10881.027347
1542.661427,689.485948,444.123565,10584.944971
1542.661745,1225.752797,370.102971,10362.883188
1542.662062,1455.581446,888.247130,10066.800811
1542.662379,1608.800546,1332.370696,9696.697840
1542.662697,2451.505594,1702.473667,9252.574275
1542.663014,1915.238745,1702.473667,9030.512492
1542.663331,1915.238745,1554.432478,9252.574275
1542.663649,1762.019645,1184.329507,9104.533087
1542.663966,1608.800546,666.185348,9474.636058
1542.664284,1608.800546,370.102971,9622.677246
1542.664601,1608.800546,-0.000000,9918.759623
1542.664918,1149.143247,-296.082377,10066.800811
1542.665236,1378.971896,-814.226536,10658.965565
1542.665553,1455.581446,-1036.288319,10584.944971
1542.665870,1685.410096,-444.123565,10510.924376
1542.666188,1685.410096,222.061783,9844.739029
1542.666505,1608.800546,666.185348,9326.594869
1542.666822,1378.971896,592.164754,9178.553681
1542.667140,1149.143247,-74.020594,8956.491898
1542.667457,919.314598,-0.000000,9252.574275
1542.667774,459.657299,-148.041188,9326.594869
1542.668092,0.000000,-814.226536,9474.636058
1542.668409,153.219100,-962.267725,9918.759623
1542.668727,229.828649,-1036.288319,10584.944971
1542.669044,383.047749,-1184.329507,9918.759623
1542.669361,766.095498,-814.226536,9622.677246
1542.669679,842.705048,-296.082377,9326.594869
1542.669996,1532.190996,-0.000000,9104.533087
1542.670313,1532.190996,666.185348,8586.388927
1542.670631,1455.581446,740.205942,8290.306550
1542.670948,1302.362347,962.267725,7846.182985
1542.671265,1072.533697,740.205942,7550.100608
1542.671583,842.705048,222.061783,8290.306550
1542.671900,919.314598,-0.000000,8734.430116
1542.672217,306.438199,-740.205942,9104.533087
1542.672535,229.828649,-962.267725,9474.636058
1542.672852,229.828649,-1036.288319,9992.780217
1542.673169,306.438199,-888.247130,10066.800811
1542.673487,383.047749,-444.123565,9400.615463
1542.673804,536.266849,296.082377,9326.594869
1542.674122,1149.143247,962.267725,8808.450710
1542.674439,1532.190996,1258.350101,8290.306550
1542.674756,1225.752797,1184.329507,7994.224174
1542.675074,1455.581446,1258.350101,7772.162391
1542.675391,1225.752797,888.247130,8068.244768
1542.675708,995.924147,444.123565,8216.285956
1542.676026,1072.533697,-222.061783,9178.553681
1542.676343,229.828649,-592.164754,9918.759623
1542.676660,689.485948,-592.164754,9844.739029
1542.676978,459.657299,-296.082377,9696.697840
1542.677295,612.876398,-0.000000,9918.759623
1542.677612,842.705048,592.164754,9326.594869
1542.677930,612.876398,1036.288319,9474.636058
1542.678247,536.266849,1480.411884,8882.471304
1542.678565,536.266849,1554.432478,8734.430116
1542.678882,229.828649,1184.329507,8808.450710
1542.679199,0.000000,814.226536,9400.615463
1542.679517,76.609550,518.144159,9548.656652
1542.679834,-383.047749,370.102971,9622.677246
1542.680151,-306.438199,-370.102971,10732.986159
1542.680469,-229.828649,-814.226536,10658.965565
1542.680786,0.000000,-370.102971,11177.109724
1542.681103,0.000000,-0.000000,10807.006753
1542.681421,383.047749,814.226536,10436.903782
1542.681738,689.485948,1110.308913,9918.759623
1542.682055,995.924147,1110.308913,9770.718434
1542.682373,1072.533697,1332.370696,9622.677246
1542.682690,995.924147,1110.308913,9252.574275
1542.683008,766.095498,888.247130,9252.574275
1542.683325,766.095498,814.226536,9104.533087
1542.683642,1302.362347,-0.000000,9696.697840
1542.683960,1225.752797,-222.061783,9918.759623
1542.684277,1532.190996,-592.164754,10362.883188
1542.684594,1225.752797,-370.102971,10140.821405
1542.684912,1302.362347,-0.000000,10288.862594
1542.685229,1838.629195,444.123565,9696.697840
1542.685546,1455.581446,1036.288319,9622.677246
1542.685864,1455.581446,666.185348,9622.677246
1542.686181,995.924147,814.226536,8956.491898
1542.686498,1149.143247,592.164754,9474.636058
1542.686816,689.485948,296.082377,9474.636058
1542.687133,612.876398,-0.000000,9696.697840
1542.687451,306.438199,-740.205942,9992.780217
1542.687768,0.000000,-740.205942,9844.739029
1542.688085,306.438199,-1036.288319,10436.903782
1542.688403,459.657299,-814.226536,9992.780217
1542.688720,612.876398,-296.082377,9622.677246
1542.689037,842.705048,-0.000000,9400.615463
1542.689355,1302.362347,-74.020594,9326.594869
1542.689672,689.485948,-370.102971,8364.327145
1542.689989,1072.533697,-0.000000,8290.306550
1542.690307,1149.143247,296.082377,8364.327145
1542.690624,919.314598,-222.061783,8290.306550
1542.690941,383.047749,-444.123565,8660.409521
1542.691259,766.095498,-740.205942,9326.594869
1542.691576,689.485948,-666.185348,9474.636058
1542.691894,842.705048,-1036.288319,9474.636058
1542.692211,766.095498,-1258.350101,9696.697840
1542.692528,383.047749,-740.205942,9474.636058
1542.692846,1225.752797,-148.041188,9104.533087
1542.693163,1378.971896,296.082377,8660.409521
1542.693480,1225.752797,592.164754,8364.327145
1542.693798,1302.362347,740.205942,7994.224174
1542.694115,1072.533697,888.247130,7698.141797
1542.694432,689.485948,-0.000000,8290.306550
1542.694750,383.047749,-518.144159,8734.430116
1542.695067,0.000000,-740.205942,8956.491898
1542.695384,0.000000,-888.247130,9326.594869
1542.695702,0.000000,-1110.308913,9918.759623
1542.696019,-306.438199,-1776.494261,9622.677246
1542.696337,689.485948,-1036.288319,10066.800811
1542.696654,766.095498,-518.144159,9474.636058
1542.696971,1072.533697,-0.000000,9400.615463
1542.697289,1072.533697,444.123565,8734.430116
1542.697606,1762.019645,814.226536,8512.368333
1542.697923,1685.410096,962.267725,8290.306550
1542.698241,1608.800546,444.123565,8808.450710
1542.698558,1378.971896,-0.000000,8882.471304
1542.698875,1149.143247,-0.000000,9252.574275
1542.699193,995.924147,-74.020594,9844.739029
1542.699510,1378.971896,-518.144159,10214.842000
1542.699827,766.095498,-740.205942,10658.965565
1542.700145,612.876398,-518.144159,10362.883188
1542.700462,612.876398,-370.102971,10140.821405
1542.700779,612.876398,518.144159,9844.739029
1542.701097,459.657299,962.267725,9622.677246
1542.701414,76.609550,962.267725,9400.615463
1542.701732,0.000000,1110.308913,9474.636058
1542.702049,-536.266849,592.164754,9696.697840
1542.702366,-1149.143247,-74.020594,9992.780217
1542.702684,-1225.752797,-222.061783,10658.965565
1542.703001,-1762.019645,-518.144159,10510.924376
1542.703318,-1378.971896,-592.164754,10510.924376
1542.703636,-1225.752797,-1036.288319,10881.027347
1542.703953,-1072.533697,-370.102971,10807.006753
1542.704270,-383.047749,518.144159,9844.739029
1542.704588,-229.828649,1184.329507,9474.636058
1542.704905,536.266849,1628.453072,9326.594869
1542.705222,229.828649,1554.432478,8808.450710
1542.705540,153.219100,1628.453072,8586.388927
1542.705857,153.219100,1036.288319,8586.388927
1542.706175,-383.047749,444.123565,9030.512492
1542.706492,306.438199,-370.102971,9474.636058
1542.706809,76.609550,-370.102971,9992.780217
1542.707127,536.266849,-1110.308913,10658.965565
1542.707444,842.705048,-1110.308913,10510.924376
1542.707761,1532.190996,-888.247130,10140.821405
1542.708079,2145.067394,296.082377,9770.718434
1542.708396,2298.286494,1184.329507,8956.491898
1542.708713,2221.676944,1480.411884,8438.347739
1542.709031,2145.067394,1554.432478,8216.285956
1542.709348,1685.410096,1628.453072,8216.285956
1542.709665,1838.629195,888.247130,8734.430116
1542.709983,1608.800546,370.102971,8956.491898
1542.710300,1762.019645,-222.061783,9400.615463
1542.710618,1302.362347,-740.205942,9548.656652
1542.710935,1455.581446,-814.226536,10436.903782
1542.711252,1608.800546,-1702.473667,9918.759623
1542.711570,1378.971896,-1184.329507,9992.780217
1542.711887,1762.019645,-296.082377,9696.697840
1542.712204,1685.410096,444.123565,9400.615463
1542.712522,1838.629195,814.226536,9104.533087
1542.712839,1532.190996,962.267725,8660.409521
1542.713156,1455.581446,740.205942,8364.327145
1542.713474,1225.752797,592.164754,8364.327145
1542.713791,536.266849,-0.000000,9178.553681
1542.714108,689.485948,-444.123565,8956.491898
1542.714426,842.705048,-740.205942,9400.615463
1542.714743,1302.362347,-1184.329507,9622.677246
1542.715061,995.924147,-1036.288319,9474.636058
1542.715378,1072.533697,-1184.329507,9696.697840
1542.715695,842.705048,148.041188,9474.636058
1542.716013,1302.362347,666.185348,8438.347739
1542.716330,1072.533697,888.247130,8438.347739
1542.716647,536.266849,962.267725,8290.306550
1542.716965,459.657299,1036.288319,8364.327145
1542.717282,306.438199,740.205942,8364.327145
1542.717599,153.219100,444.123565,8734.430116
1542.717917,-153.219100,148.041188,9030.512492
1542.718234,76.609550,-0.000000,9030.512492
1542.718551,76.609550,-370.102971,9844.739029
1542.718869,-229.828649,-740.205942,10214.842000
1542.719186,-306.438199,-148.041188,9844.739029
1542.719504,76.609550,222.061783,9918.759623
1542.719821,229.828649,814.226536,9474.636058
1542.720138,459.657299,888.247130,9400.615463
1542.720456,306.438199,1184.329507,8660.409521
1542.720773,383.047749,1554.432478,8660.409521
1542.721090,229.828649,1184.329507,8512.368333
1542.721408,229.828649,518.144159,8512.368333
1542.721725,229.828649,296.082377,9030.512492
1542.722042,-153.219100,-518.144159,9622.677246
1542.722360,-306.438199,-814.226536,10436.903782
1542.722677,-306.438199,-1036.288319,10881.027347
1542.722994,-153.219100,-666.185348,10955.047942
1542.723312,0.000000,-0.000000,10658.965565
1542.723629,76.609550,666.185348,10066.800811
1542.723946,76.609550,1110.308913,9770.718434
1542.724264,383.047749,1258.350101,9622.677246
1542.724581,536.266849,1110.308913,8956.491898
1542.724899,612.876398,814.226536,9326.594869
1542.725216,842.705048,148.041188,9770.718434
1542.725533,459.657299,-74.020594,10510.924376
1542.725851,689.485948,-296.082377,10732.986159
1542.726168,306.438199,-962.267725,10732.986159
1542.726485,689.485948,-518.144159,10955.047942
1542.726803,1302.362347,-0.000000,10732.986159
1542.727120,1838.629195,592.164754,9992.780217
1542.727437,2374.896044,962.267725,9696.697840
1542.727755,2604.724693,1110.308913,8956.491898
1542.728072,2451.505594,1554.432478,9104.533087
1542.728389,2451.505594,1406.391290,8512.368333
1542.728707,2145.067394,962.267725,8882.471304
1542.729024,1915.238745,222.061783,9104.533087
1542.729342,1762.019645,148.041188,9474.636058
1542.729659,1455.581446,-0.000000,9474.636058
1542.729976,1685.410096,-148.041188,9918.759623
1542.730294,1838.629195,-444.123565,9992.780217
1542.730611,1838.629195,-0.000000,9548.656652
1542.730928,2068.457845,-148.041188,9178.553681
1542.731246,2068.457845,814.226536,9178.553681
1542.731563,2145.067394,1258.350101,8290.306550
1542.731880,1685.410096,1702.473667,8364.327145
1542.732198,1072.533697,2146.597232,7476.080014
1542.732515,612.876398,1332.370696,7402.059420
1542.732832,153.219100,814.226536,7920.203579
1542.733150,-306.438199,-0.000000,8882.471304
1542.733467,-995.924147,-518.144159,9178.553681
1542.733785,-919.314598,-1110.308913,9548.656652
1542.734102,-1608.800546,-1036.288319,9992.780217
1542.734419,-1455.581446,-1036.288319,10140.821405
1542.734737,-1532.190996,-370.102971,9918.759623
1542.735054,-842.705048,-74.020594,9770.718434
1542.735371,-306.438199,740.205942,9548.656652
1542.735689,0.000000,1480.411884,8660.409521
1542.736006,0.000000,1702.473667,8068.244768
1542.736323,306.438199,1702.473667,8216.285956
1542.736641,459.657299,740.205942,8660.409521
1542.736958,306.438199,370.102971,8808.450710
1542.737275,995.924147,222.061783,9400.615463
1542.737593,766.095498,148.041188,9474.636058
1542.737910,842.705048,-518.144159,9918.759623
1542.738228,1455.581446,-0.000000,9844.739029
1542.738545,919.314598,-0.000000,9770.718434
1542.738862,1149.143247,592.164754,9474.636058
1542.739180,1455.581446,740.205942,9326.594869
1542.739497,1378.971896,1258.350101,9030.512492
1542.739814,919.314598,1332.370696,8586.388927
1542.740132,1149.143247,1258.350101,9252.574275
1542.740449,919.314598,888.247130,9178.553681
1542.740766,612.876398,296.082377,9918.759623
1542.741084,459.657299,-0.000000,9918.759623
1542.741401,612.876398,-296.082377,10288.862594
1542.741718,766.095498,-518.144159,11103.089130
1542.742036,1532.190996,-370.102971,10807.006753
1542.742353,1915.238745,148.041188,10436.903782
1542.742671,1838.629195,1036.288319,9844.739029
1542.742988,2451.505594,1406.391290,9400.615463
1542.743305,2145.067394,2146.597232,8882.471304
1542.743623,2374.896044,2368.659014,8808.450710
1542.743940,1762.019645,1702.473667,8882.471304
1542.744257,1685.410096,962.267725,9400.615463
1542.744575,2068.457845,370.102971,9770.718434
1542.744892,1455.581446,-74.020594,10288.862594
1542.745209,1072.533697,-814.226536,10807.006753
1542.745527,1302.362347,-1036.288319,11251.130318
1542.745844,1455.581446,-740.205942,11103.089130
1542.746161,1532.190996,148.041188,10288.862594
1542.746479,1915.238745,814.226536,10066.800811
1542.746796,2221.676944,1776.494261,9252.574275
1542.747114,1915.238745,1554.432478,8660.409521
1542.747431,1762.019645,1554.432478,8438.347739
1542.747748,1455.581446,1184.329507,8142.265362
1542.748066,995.924147,518.144159,8808.450710
1542.748383,766.095498,-222.061783,9252.574275
1542.748700,0.000000,-814.226536,9622.677246
1542.749018,0.000000,-962.267725,9696.697840
1542.749335,-842.705048,-1036.288319,10288.862594
1542.749652,-919.314598,-740.205942,9918.759623
1542.749970,-919.314598,-370.102971,10288.862594
1542.750287,-689.485948,-0.000000,9844.739029
1542.750604,-766.095498,-74.020594,9992.780217
1542.750922,-306.438199,370.102971,9178.553681
1542.751239,0.000000,518.144159,8734.430116
1542.751556,-153.219100,740.205942,8290.306550
1542.751874,0.000000,888.247130,8290.306550
1542.752191,153.219100,370.102971,8882.471304
1542.752509,459.657299,296.082377,8586.388927
1542.752826,536.266849,-148.041188,9030.512492
1542.753143,689.485948,-370.102971,9104.533087
1542.753461,919.314598,-814.226536,9622.677246
1542.753778,842.705048,-148.041188,9030.512492
1542.754095,1072.533697,222.061783,8808.450710
1542.754413,1455.581446,888.247130,8660.409521
1542.754730,1149.143247,1036.288319,8364.327145
1542.755047,995.924147,1184.329507,8142.265362
1542.755365,995.924147,1406.391290,8438.347739
1542.755682,995.924147,1184.329507,8586.388927
1542.755999,459.657299,444.123565,8956.491898
1542.756317,459.657299,-222.061783,9548.656652
1542.756634,1072.533697,-1110.308913,9918.759623
1542.756952,689.485948,-1258.350101,10436.903782
1542.757269,766.095498,-962.267725,10584.944971
1542.757586,1072.533697,-518.144159,10288.862594
1542.757904,1455.581446,-0.000000,9696.697840
1542.758221,1532.190996,592.164754,9178.553681
1542.758538,1532.190996,962.267725,8438.347739
1542.758855,1608.800546,1036.288319,8660.409521
1542.759173,1378.971896,1184.329507,8290.306550
1542.759490,1072.533697,814.226536,8586.388927
1542.759807,1225.752797,296.082377,8956.491898
1542.760124,459.657299,-370.102971,9622.677246
1542.760442,383.047749,-1110.308913,10288.862594
1542.760759,153.219100,-1406.391290,10955.047942
1542.761076,536.266849,-1184.329507,11325.150913
1542.761393,612.876398,-444.123565,10658.965565
1542.761711,612.876398,-0.000000,10510.924376
1542.762028,612.876398,518.144159,10214.842000
1542.762345,919.314598,814.226536,9548.656652
1542.762662,842.705048,814.226536,8808.450710
1542.762980,995.924147,740.205942,9178.553681
1542.763297,612.876398,888.247130,9400.615463
1542.763614,536.266849,518.144159,9400.615463
1542.763931,536.266849,148.041188,9918.759623
1542.764249,919.314598,148.041188,10955.047942
1542.764566,536.266849,-444.123565,10288.862594
1542.764883,1072.533697,-370.102971,10362.883188
1542.765200,1455.581446,-222.061783,10214.842000
1542.765518,1378.971896,-0.000000,9696.697840
1542.765835,1149.143247,-370.102971,9548.656652
1542.766152,1302.362347,222.061783,8808.450710
1542.766470,1072.533697,740.205942,9030.512492
1542.766787,919.314598,888.247130,8290.306550
1542.767104,689.485948,814.226536,8512.368333
1542.767421,1072.533697,740.205942,9030.512492
1542.767739,229.828649,-0.000000,9548.656652
1542.768056,612.876398,-592.164754,10140.821405
1542.768373,229.828649,-1332.370696,10288.862594
1542.768690,766.095498,-1184.329507,10732.986159
1542.769008,995.924147,-666.185348,10288.862594
1542.769325,919.314598,222.061783,9770.718434
1542.769642,1149.143247,814.226536,8882.471304
1542.769959,1302.362347,1036.288319,8438.347739
1542.770277,1149.143247,1258.350101,7772.162391
1542.770594,1072.533697,1332.370696,8142.265362
1542.770911,919.314598,518.144159,8290.306550
1542.771228,459.657299,-0.000000,8734.430116
1542.771546,536.266849,-370.102971,8956.491898
1542.771863,76.609550,-1184.329507,9474.636058
1542.772180,459.657299,-1258.350101,9696.697840
1542.772497,306.438199,-814.226536,10214.842000
1542.772815,842.705048,-222.061783,9696.697840
1542.773132,766.095498,222.061783,9252.574275
1542.773449,1072.533697,444.123565,9252.574275
1542.773766,1072.533697,814.226536,8438.347739
1542.774084,1532.190996,1110.308913,7920.203579
1542.774401,1378.971896,1184.329507,8068.244768
1542.774718,1608.800546,962.267725,7920.203579
1542.775036,1378.971896,518.144159,8438.347739
1542.775353,1378.971896,-0.000000,8808.450710
1542.775670,919.314598,-740.205942,9622.677246
1542.775987,766.095498,-888.247130,10066.800811
1542.776305,536.266849,-962.267725,10066.800811
1542.776622,0.000000,-888.247130,10362.883188
1542.776939,229.828649,-0.000000,9548.656652
1542.777256,689.485948,444.123565,9178.553681
1542.777574,229.828649,518.144159,8956.491898
1542.777891,0.000000,1036.288319,8882.471304
1542.778208,-306.438199,666.185348,9104.533087
1542.778525,-459.657299,518.144159,9252.574275
1542.778843,-459.657299,222.061783,9548.656652
1542.779160,-995.924147,-370.102971,9992.780217
1542.779477,-842.705048,-518.144159,10510.924376
1542.779794,-689.485948,-814.226536,10658.965565
1542.780112,-76.609550,-740.205942,10732.986159
1542.780429,-229.828649,-222.061783,10362.883188
1542.780746,229.828649,148.041188,9918.759623
1542.781063,919.314598,370.102971,9474.636058
1542.781381,766.095498,444.123565,9326.594869
1542.781698,842.705048,962.267725,8882.471304
1542.782015,766.095498,814.226536,8808.450710
1542.782332,919.314598,592.164754,8956.491898
1542.782650,689.485948,-148.041188,9474.636058
1542.782967,689.485948,-148.041188,9844.739029
1542.783284,766.095498,-518.144159,10140.821405
1542.783602,842.705048,-888.247130,10658.965565
1542.783919,1532.190996,-888.247130,10881.027347
1542.784236,1149.143247,-444.123565,10436.903782
1542.784553,1532.190996,444.123565,10066.800811
1542.784871,1455.581446,814.226536,9696.697840
1542.785188,1915.238745,1110.308913,9400.615463
1542.785505,1838.629195,1628.453072,8734.430116
1542.785822,1455.581446,1258.350101,8512.368333
1542.786140,1302.362347,740.205942,8660.409521
1542.786457,1072.533697,-0.000000,9104.533087
1542.786774,612.876398,-370.102971,9400.615463
1542.787091,383.047749,-1110.308913,10066.800811
1542.787409,306.438199,-1184.329507,10140.821405
1542.787726,0.000000,-1554.432478,10362.883188
1542.788043,229.828649,-1332.370696,10436.903782
1542.788360,383.047749,-444.123565,9918.759623
1542.788678,689.485948,-0.000000,9474.636058
1542.788995,689.485948,444.123565,8956.491898
1542.789312,919.314598,740.205942,8290.306550
1542.789629,995.924147,888.247130,8512.368333
1542.789947,919.314598,-0.000000,8364.327145
1542.790264,1149.143247,-0.000000,8808.450710
1542.790581,1072.533697,-222.061783,9030.512492
1542.790898,1072.533697,-592.164754,9178.553681
1542.791216,1762.019645,-296.082377,9844.739029
1542.791533,1532.190996,-370.102971,9474.636058
1542.791850,2068.457845,370.102971,9178.553681
1542.792168,1915.238745,444.123565,8364.327145
1542.792485,2068.457845,1184.329507,8290.306550
1542.792802,2221.676944,1184.329507,7846.182985
1542.793119,1378.971896,1258.350101,7476.080014
1542.793437,995.924147,1110.308913,7772.162391
1542.793754,153.219100,888.247130,8068.244768
1542.794071,-153.219100,518.144159,8660.409521
1542.794388,153.219100,-74.020594,9474.636058
1542.794706,-689.485948,-1036.288319,10066.800811
1542.795023,-1378.971896,-1184.329507,10436.903782
1542.795340,-1225.752797,-1184.329507,10658.965565
1542.795657,-1149.143247,-888.247130,11103.089130
1542.795975,-153.219100,-222.061783,10732.986159
1542.796292,-306.438199,592.164754,9696.697840
1542.796609,0.000000,1480.411884,9252.574275
1542.796926,229.828649,1702.473667,8956.491898
1542.797244,536.266849,1998.556043,8512.368333
1542.797561,1378.971896,1554.432478,8364.327145
1542.797878,689.485948,962.267725,8364.327145
1542.798195,153.219100,74.020594,9474.636058
1542.798513,536.266849,-222.061783,9918.759623
1542.798830,459.657299,-888.247130,10288.862594
1542.799147,1072.533697,-1184.329507,11103.089130
1542.799464,842.705048,-296.082377,10955.047942
1542.799782,1225.752797,370.102971,10362.883188
1542.800099,1378.971896,962.267725,9992.780217
1542.800416,1378.971896,1480.411884,9622.677246
1542.800734,1455.581446,1628.453072,9400.615463
1542.801051,1378.971896,1628.453072,9252.574275
1542.801368,995.924147,1554.432478,9178.553681
1542.801685,1149.143247,962.267725,9548.656652
1542.802003,919.314598,370.102971,9696.697840
1542.802320,995.924147,-0.000000,10658.965565
1542.802637,919.314598,-592.164754,10881.027347
1542.802954,919.314598,-962.267725,10732.986159
1542.803272,689.485948,-962.267725,10732.986159
1542.803589,1225.752797,-148.041188,10807.006753
1542.803906,995.924147,518.144159,10066.800811
1542.804223,1378.971896,1036.288319,9474.636058
1542.804541,995.924147,1110.308913,9252.574275
1542.804858,842.705048,1036.288319,8660.409521
1542.805175,995.924147,814.226536,8660.409521
1542.805492,459.657299,222.061783,9252.574275
1542.805810,459.657299,-148.041188,9474.636058
1542.806127,229.828649,-296.082377,9474.636058
1542.806444,383.047749,-666.185348,10288.862594
1542.806761,536.266849,-888.247130,10214.842000
1542.807079,842.705048,-148.041188,9770.718434
1542.807396,1149.143247,370.102971,9326.594869
1542.807713,1608.800546,1110.308913,9178.553681
1542.808030,1838.629195,1406.391290,8586.388927
1542.808348,2145.067394,1702.473667,8216.285956
1542.808665,1532.190996,1628.453072,8068.244768
1542.808982,1225.752797,1258.350101,8068.244768
1542.809300,995.924147,814.226536,8142.265362
1542.809617,612.876398,296.082377,8586.388927
1542.809934,612.876398,-444.123565,9474.636058
1542.810251,0.000000,-592.164754,9474.636058
1542.810569,0.000000,-1036.288319,9992.780217
1542.810886,0.000000,-814.226536,10140.821405
1542.811203,459.657299,-370.102971,9844.739029
1542.811520,229.828649,370.102971,9178.553681
1542.811838,612.876398,740.205942,8734.430116
1542.812155,842.705048,1258.350101,8142.265362
1542.812472,995.924147,1554.432478,7772.162391
1542.812789,995.924147,1110.308913,8364.327145
1542.813107,766.095498,888.247130,8068.244768
1542.813424,689.485948,518.144159,8660.409521
1542.813741,459.657299,-0.000000,8956.491898
1542.814058,612.876398,-370.102971,9474.636058
1542.814376,536.266849,-962.267725,9992.780217
1542.814693,383.047749,-518.144159,9992.780217
1542.815010,689.485948,-0.000000,9696.697840
1542.815327,306.438199,518.144159,9326.594869
1542.815645,383.047749,1258.350101,9104.533087
1542.815962,0.000000,1480.411884,8586.388927
1542.816279,306.438199,1332.370696,8512.368333
1542.816596,0.000000,814.226536,8734.430116
1542.816914,0.000000,592.164754,9400.615463
1542.817231,-536.266849,-0.000000,10066.800811
1542.817548,-459.657299,-444.123565,10362.883188
1542.817866,-306.438199,-518.144159,10658.965565
1542.818183,229.828649,-444.123565,11103.089130
1542.818500,383.047749,-148.041188,10658.965565
1542.818817,1072.533697,222.061783,10362.883188
1542.819135,1608.800546,1406.391290,9474.636058
1542.819452,2068.457845,1406.391290,9400.615463
1542.819769,1838.629195,1924.535449,9030.512492
1542.820086,1915.238745,1776.494261,8808.450710
1542.820404,1762.019645,1184.329507,8586.388927
1542.820721,1455.581446,740.205942,9104.533087
1542.821038,1608.800546,222.061783,9474.636058
1542.821355,919.314598,-222.061783,9918.759623
1542.821673,766.095498,-666.185348,10510.924376
1542.821990,766.095498,-1184.329507,11251.130318
1542.822307,919.314598,-1110.308913,11029.068536
1542.822624,842.705048,-740.205942,10881.027347
1542.822942,1149.143247,-0.000000,10140.821405
1542.823259,1225.752797,370.102971,10140.821405
1542.823576,919.314598,814.226536,9548.656652
1542.823893,1455.581446,1332.370696,8956.491898
1542.824211,842.705048,1036.288319,8734.430116
1542.824528,842.705048,592.164754,9474.636058
1542.824845,612.876398,370.102971,9696.697840
1542.825162,766.095498,-0.000000,9474.636058
1542.825480,459.657299,-444.123565,9918.759623
1542.825797,459.657299,-888.247130,10510.924376
1542.826114,306.438199,-814.226536,10288.862594
1542.826432,995.924147,-444.123565,10362.883188
1542.826749,612.876398,-0.000000,9548.656652
1542.827066,1072.533697,1036.288319,9030.512492
1542.827383,1225.752797,1332.370696,8734.430116
1542.827701,1072.533697,1332.370696,8142.265362
1542.828018,995.924147,1406.391290,7994.224174
1542.828335,919.314598,962.267725,8068.244768
1542.828652,842.705048,518.144159,8364.327145
1542.828970,995.924147,-0.000000,8956.491898
1542.829287,919.314598,-370.102971,9474.636058
1542.829604,1149.143247,-740.205942,9844.739029
1542.829921,1532.190996,-296.082377,9474.636058
1542.830239,1532.190996,-0.000000,9326.594869
1542.830556,1608.800546,1036.288319,8586.388927
1542.830873,1991.848295,1184.329507,8068.244768
1542.831190,1915.238745,1184.329507,7772.162391
1542.831508,1685.410096,1332.370696,7402.059420
1542.831825,995.924147,888.247130,7402.059420
1542.832142,995.924147,370.102971,8068.244768
1542.832459,383.047749,-518.144159,8512.368333
1542.832777,-153.219100,-592.164754,9252.574275
1542.833094,-383.047749,-1110.308913,9918.759623
1542.833411,-842.705048,-1406.391290,10288.862594
1542.833728,-459.657299,-1036.288319,10807.006753
1542.834046,0.000000,-370.102971,10510.924376
1542.834363,0.000000,148.041188,9992.780217
1542.834680,76.609550,962.267725,9400.615463
1542.834998,306.438199,962.267725,8956.491898
1542.835315,383.047749,1406.391290,8660.409521
1542.835632,306.438199,1036.288319,8586.388927
1542.835949,306.438199,888.247130,8956.491898
1542.836267,229.828649,962.267725,9474.636058
1542.836584,306.438199,222.061783,9918.759623
1542.836901,153.219100,-444.123565,10288.862594
1542.837218,153.219100,-1184.329507,10955.047942
1542.837536,383.047749,-1184.329507,11177.109724
1542.837853,612.876398,-666.185348,10732.986159
1542.838170,689.485948,148.041188,10066.800811
1542.838487,459.657299,666.185348,9992.780217
1542.838805,1072.533697,592.164754,9030.512492
1542.839122,1149.143247,1036.288319,8882.471304
1542.839439,1149.143247,814.226536,8660.409521
1542.839756,612.876398,666.185348,8956.491898
1542.840074,766.095498,148.041188,9696.697840
1542.840391,229.828649,-370.102971,10140.821405
1542.840708,0.000000,-962.267725,10510.924376
1542.841025,153.219100,-1406.391290,10807.006753
1542.841343,0.000000,-1258.350101,11103.089130
1542.841660,459.657299,-666.185348,10436.903782
1542.841977,842.705048,-0.000000,10288.862594
1542.842294,612.876398,222.061783,9696.697840
1542.842612,995.924147,1036.288319,9474.636058
1542.842929,995.924147,962.267725,9030.512492
1542.843246,1225.752797,740.205942,8808.450710
1542.843564,919.314598,814.226536,8734.430116
1542.843881,1149.143247,148.041188,9178.553681
1542.844198,1072.533697,-370.102971,9474.636058
1542.844515,842.705048,-1036.288319,10214.842000
1542.844833,1378.971896,-962.267725,10955.047942
1542.845150,1532.190996,-888.247130,10140.821405
1542.845467,2298.286494,-148.041188,9696.697840
1542.845784,2451.505594,518.144159,9252.574275
1542.846102,2451.505594,1554.432478,8290.306550
1542.846419,2528.115143,1628.453072,8068.244768
1542.846736,2374.896044,1702.473667,7772.162391
1542.847053,2298.286494,1554.432478,8068.244768
1542.847371,1991.848295,814.226536,8068.244768
1542.847688,1225.752797,-222.061783,9030.512492
1542.848005,612.876398,-74.020594,8956.491898
1542.848322,766.095498,-666.185348,9696.697840
1542.848640,383.047749,-1258.350101,9696.697840
1542.848957,536.266849,-1110.308913,10066.800811
1542.849274,995.924147,-740.205942,9400.615463
1542.849591,689.485948,-0.000000,9104.533087
1542.849909,842.705048,814.226536,8660.409521
1542.850226,842.705048,1110.308913,8290.306550
1542.850543,612.876398,1110.308913,7920.203579
1542.850860,229.828649,814.226536,7476.080014
1542.851178,76.609550,444.123565,8142.265362
1542.851495,76.609550,74.020594,8364.327145
1542.851812,383.047749,-148.041188,8882.471304
1542.852130,0.000000,-222.061783,9474.636058
1542.852447,229.828649,-444.123565,9992.780217
1542.852764,383.047749,-370.102971,10066.800811
1542.853081,459.657299,-370.102971,10140.821405
1542.853399,536.266849,148.041188,9474.636058
1542.853716,0.000000,962.267725,9474.636058
1542.854033,229.828649,1258.350101,8734.430116
1542.854350,-153.219100,1332.370696,8364.327145
1542.854668,0.000000,888.247130,8956.491898
1542.854985,0.000000,666.185348,9178.553681
1542.855302,-153.219100,-222.061783,9474.636058
1542.855619,0.000000,-518.144159,9992.780217
1542.855937,-229.828649,-962.267725,10510.924376
1542.856254,-229.828649,-1332.370696,11029.068536
1542.856571,76.609550,-1480.411884,10658.965565
1542.856888,76.609550,-148.041188,10362.883188
1542.857206,612.876398,296.082377,10066.800811
1542.857523,919.314598,962.267725,9326.594869
1542.857840,1072.533697,1184.329507,8882.471304
1542.858157,842.705048,1258.350101,8660.409521
1542.858475,919.314598,1036.288319,8882.471304
1542.858792,842.705048,592.164754,9252.574275
1542.859109,612.876398,-0.000000,9474.636058
1542.859427,766.095498,-74.020594,9770.718434
1542.859744,459.657299,-370.102971,10658.965565
1542.860061,689.485948,-962.267725,11103.089130
1542.860378,459.657299,-962.267725,11103.089130
1542.860696,766.095498,-518.144159,10584.944971
1542.861013,1685.410096,-0.000000,10362.883188
1542.861330,1762.019645,888.247130,9770.718434
1542.861648,1532.190996,1406.391290,9104.533087
1542.861965,2068.457845,1554.432478,8438.347739
1542.862282,1838.629195,1554.432478,8068.244768
1542.862599,1838.629195,740.205942,8512.368333
1542.862917,1608.800546,-0.000000,8956.491898
1542.863234,1302.362347,-444.123565,9252.574275
1542.863551,995.924147,-1258.350101,9918.759623
1542.863869,383.047749,-1628.453072,10584.944971
1542.864186,536.266849,-1110.308913,10584.944971
1542.864503,995.924147,-222.061783,10436.903782
1542.864820,1072.533697,370.102971,9844.739029
1542.865138,1608.800546,814.226536,9030.512492
1542.865455,1685.410096,1406.391290,8512.368333
1542.865772,1915.238745,1628.453072,8142.265362
1542.866090,1455.581446,1406.391290,8142.265362
1542.866407,919.314598,666.185348,8142.265362
1542.866724,842.705048,-0.000000,8364.327145
1542.867041,766.095498,-222.061783,8734.430116
1542.867359,383.047749,-296.082377,9770.718434
1542.867676,-76.609550,-1036.288319,9548.656652
1542.867993,0.000000,-1036.288319,10066.800811
1542.868311,0.000000,-592.164754,9622.677246
1542.868628,-153.219100,-222.061783,9548.656652
1542.868945,153.219100,-0.000000,8660.409521
1542.869262,76.609550,666.185348,8808.450710
1542.869580,0.000000,1406.391290,8364.327145
1542.869897,-306.438199,1554.432478,8142.265362
1542.870214,-306.438199,1184.329507,8512.368333
1542.870532,-766.095498,740.205942,9178.553681
1542.870849,-995.924147,-0.000000,9696.697840
1542.871166,-689.485948,-444.123565,9696.697840
1542.871483,-1072.533697,-592.164754,10362.883188
1542.871801,-842.705048,-1036.288319,10436.903782
1542.872118,0.000000,-666.185348,10214.842000
1542.872435,0.000000,222.061783,9622.677246
1542.872753,383.047749,518.144159,9474.636058
1542.873070,459.657299,1332.370696,8808.450710
1542.873387,612.876398,1332.370696,8734.430116
1542.873704,919.314598,1110.308913,8808.450710
1542.874022,383.047749,888.247130,8734.430116
1542.874339,229.828649,592.164754,8882.471304
1542.874656,229.828649,148.041188,9474.636058
1542.874974,612.876398,-296.082377,9918.759623
1542.875291,612.876398,-888.247130,10362.883188
1542.875608,919.314598,-1110.308913,10881.027347
1542.875925,1225.752797,-962.267725,10510.924376
1542.876243,1838.629195,-74.020594,10362.883188
1542.876560,2068.457845,296.082377,9770.718434
1542.876877,2145.067394,1406.391290,9252.574275
1542.877195,2068.457845,1554.432478,8364.327145
1542.877512,1685.410096,1258.350101,8586.388927
1542.877829,1762.019645,962.267725,8882.471304
1542.878146,1532.190996,444.123565,9474.636058
1542.878464,1225.752797,-0.000000,9622.677246
1542.878781,1149.143247,-370.102971,10140.821405
1542.879098,1149.143247,-740.205942,10510.924376
1542.879416,995.924147,-1480.411884,11029.068536
1542.879733,1685.410096,-740.205942,10732.986159
1542.880050,1608.800546,148.041188,10362.883188
1542.880367,1915.238745,814.226536,9770.718434
1542.880685,1915.238745,1258.350101,9030.512492
1542.881002,1991.848295,1332.370696,8734.430116
1542.881319,1991.848295,1776.494261,8364.327145
1542.881637,1915.238745,1332.370696,8586.388927
1542.881954,1608.800546,962.267725,8882.471304
1542.882271,1455.581446,444.123565,9400.615463
1542.882588,1072.533697,-444.123565,9622.677246
1542.882906,1072.533697,-666.185348,9992.780217
1542.883223,1072.533697,-592.164754,10362.883188
1542.883540,766.095498,-444.123565,9844.739029
1542.883858,612.876398,444.123565,9474.636058
1542.884175,919.314598,1184.329507,9178.553681
1542.884492,383.047749,1258.350101,8512.368333
1542.884809,383.047749,1406.391290,8586.388927
1542.885127,-459.657299,1480.411884,8142.265362
1542.885444,-536.266849,1258.350101,8586.388927
1542.885761,-612.876398,444.123565,9178.553681
1542.886079,-919.314598,-0.000000,9474.636058
1542.886396,-1225.752797,-518.144159,9696.697840
1542.886713,-1302.362347,-1110.308913,10214.842000
1542.887030,-995.924147,-1110.308913,10362.883188
1542.887348,-842.705048,-1184.329507,10214.842000
1542.887665,-689.485948,-0.000000,9474.636058
1542.887982,-459.657299,888.247130,9252.574275
1542.888300,306.438199,1184.329507,8734.430116
1542.888617,459.657299,1628.453072,8290.306550
1542.888934,0.000000,1480.411884,8512.368333
1542.889251,383.047749,1406.391290,8216.285956
1542.889569,536.266849,888.247130,8290.306550
1542.889886,766.095498,-0.000000,9474.636058
1542.890203,612.876398,-370.102971,9844.739029
1542.890521,612.876398,-444.123565,10214.842000
1542.890838,1225.752797,-666.185348,10362.883188
1542.891155,1762.019645,-444.123565,10732.986159
1542.891472,2068.457845,296.082377,10066.800811
1542.891790,2374.896044,740.205942,9104.533087
1542.892107,2374.896044,1258.350101,8956.491898
1542.892424,2911.162892,1406.391290,8290.306550
1542.892742,2681.334243,1258.350101,7772.162391
1542.893059,2451.505594,740.205942,8068.244768
1542.893376,2145.067394,592.164754,8290.306550
1542.893693,1685.410096,-0.000000,8586.388927
1542.894011,1532.190996,-222.061783,9178.553681
1542.894328,1149.143247,-518.144159,9622.677246
1542.894645,612.876398,-1258.350101,10436.903782
1542.894963,612.876398,-1036.288319,10732.986159
1542.895280,383.047749,-1184.329507,10955.047942
1542.895597,153.219100,-296.082377,10288.862594
1542.895914,76.609550,814.226536,10362.883188
1542.896232,229.828649,888.247130,9326.594869
1542.896549,612.876398,1110.308913,9400.615463
1542.896866,689.485948,1258.350101,8956.491898
1542.897184,229.828649,1184.329507,9030.512492
1542.897501,536.266849,296.082377,9400.615463
1542.897818,536.266849,-222.061783,9770.718434
1542.898135,153.219100,-814.226536,10658.965565
1542.898453,0.000000,-1406.391290,10955.047942
1542.898770,0.000000,-962.267725,10436.903782
1542.899087,612.876398,-370.102971,10436.903782
1542.899405,1225.752797,370.102971,10140.821405
1542.899722,1072.533697,1184.329507,9104.533087
1542.900039,1225.752797,1554.432478,8438.347739
1542.900356,1302.362347,1406.391290,8438.347739
1542.900674,1149.143247,1036.288319,8586.388927
1542.900991,1225.752797,740.205942,8882.471304
1542.901308,229.828649,592.164754,9178.553681
1542.901626,229.828649,222.061783,9992.780217
1542.901943,0.000000,-222.061783,10066.800811
1542.902260,383.047749,-740.205942,10584.944971
1542.902577,229.828649,-888.247130,10732.986159
1542.902895,229.828649,-444.123565,10214.842000
1542.903212,459.657299,518.144159,9474.636058
1542.903529,766.095498,888.247130,8882.471304
1542.903847,766.095498,666.185348,8734.430116
1542.904164,306.438199,1110.308913,8216.285956
1542.904481,153.219100,1406.391290,7994.224174
1542.904798,76.609550,1480.411884,8142.265362
1542.905116,306.438199,1110.308913,8808.450710
1542.905433,995.924147,222.061783,9474.636058
1542.905750,689.485948,-296.082377,9844.739029
1542.906068,229.828649,-962.267725,9992.780217
1542.906385,612.876398,-666.185348,10214.842000
1542.906702,1302.362347,-148.041188,9548.656652
1542.907019,1608.800546,888.247130,9104.533087
1542.907337,1991.848295,1702.473667,8438.347739
1542.907654,1991.848295,2146.597232,8142.265362
1542.907971,1762.019645,1702.473667,8068.244768
1542.908289,1149.143247,1480.411884,8216.285956
1542.908606,689.485948,1332.370696,8734.430116
1542.908923,766.095498,666.185348,9252.574275
1542.909240,383.047749,-296.082377,9770.718434
1542.909558,306.438199,-444.123565,10214.842000
1542.909875,153.219100,-740.205942,10362.883188
1542.910192,689.485948,-814.226536,10140.821405
1542.910510,1072.533697,-222.061783,9918.759623
1542.910827,1302.362347,444.123565,9622.677246
1542.911144,1225.752797,1110.308913,9178.553681
1542.911462,995.924147,1036.288319,8734.430116
1542.911779,1072.533697,888.247130,8734.430116
1542.912096,766.095498,370.102971,8956.491898
1542.912413,766.095498,518.144159,8660.409521
1542.912731,383.047749,222.061783,9030.512492
1542.913048,1072.533697,-74.020594,10362.883188
1542.913365,459.657299,-814.226536,10362.883188
1542.913683,459.657299,-1258.350101,10807.006753
1542.914000,383.047749,-962.267725,10658.965565
1542.914317,383.047749,-592.164754,10510.924376
1542.914634,766.095498,-0.000000,10140.821405
1542.914952,689.485948,740.205942,9474.636058
1542.915269,1072.533697,1184.329507,8882.471304
1542.915586,842.705048,1480.411884,8660.409521
1542.915904,842.705048,740.205942,8660.409521
1542.916221,842.705048,370.102971,8956.491898
1542.916538,383.047749,-222.061783,9622.677246
1542.916855,229.828649,-666.185348,9844.739029
1542.917173,0.000000,-1554.432478,10362.883188
1542.917490,-153.219100,-1702.473667,11029.068536
1542.917807,229.828649,-1480.411884,10584.944971
1542.918125,612.876398,-518.144159,10436.903782
1542.918442,383.047749,-0.000000,9992.780217
1542.918759,995.924147,592.164754,9548.656652
1542.919076,1225.752797,888.247130,9030.512492
1542.919394,919.314598,1184.329507,8660.409521
1542.919711,1149.143247,592.164754,8290.306550
1542.920028,1149.143247,444.123565,8586.388927
1542.920346,1455.581446,-148.041188,8660.409521
1542.920663,1915.238745,-296.082377,8734.430116
1542.920980,1225.752797,-666.185348,9844.739029
1542.921297,1685.410096,-1332.370696,9844.739029
1542.921615,1378.971896,-1628.453072,10436.903782
1542.921932,1302.362347,-814.226536,10140.821405
1542.922249,1762.019645,-0.000000,9548.656652
1542.922567,1608.800546,740.205942,8808.450710
1542.922884,1762.019645,1554.432478,8142.265362
1542.923201,1762.019645,1628.453072,8068.244768
1542.923518,1302.362347,1036.288319,7476.080014
1542.923836,766.095498,370.102971,8438.347739
1542.924153,919.314598,-74.020594,9104.533087
1542.924470,536.266849,-444.123565,9474.636058
1542.924788,76.609550,-962.267725,10066.800811
1542.925105,-153.219100,-1332.370696,10658.965565
1542.925422,0.000000,-666.185348,10288.862594
1542.925739,459.657299,-0.000000,10140.821405
1542.926057,612.876398,666.185348,9400.615463
1542.926374,995.924147,1110.308913,9104.533087
1542.926691,842.705048,1850.514855,8142.265362
1542.927009,1302.362347,1332.370696,8142.265362
1542.927326,459.657299,1258.350101,8142.265362
1542.927643,306.438199,1110.308913,8068.244768
1542.927960,536.266849,814.226536,8438.347739
1542.928278,76.609550,592.164754,9252.574275
1542.928595,-306.438199,-222.061783,10288.862594
1542.928912,-536.266849,-1110.308913,10658.965565
1542.929230,-383.047749,-666.185348,10510.924376
1542.929547,-383.047749,-222.061783,10510.924376
1542.929864,0.000000,888.247130,9474.636058
1542.930181,689.485948,1702.473667,8734.430116
1542.930499,536.266849,1480.411884,8660.409521
1542.930816,383.047749,1702.473667,8290.306550
1542.931133,536.266849,1480.411884,8660.409521
1542.931451,536.266849,1110.308913,8882.471304
1542.931768,459.657299,518.144159,9474.636058
1542.932085,0.000000,222.061783,9548.656652
1542.932402,0.000000,-740.205942,10732.986159
1542.932720,-229.828649,-888.247130,10510.924376
1542.933037,153.219100,-666.185348,10881.027347
1542.933354,689.485948,-222.061783,10288.862594
1542.933672,919.314598,222.061783,10288.862594
1542.933989,1455.581446,592.164754,9548.656652
1542.934306,1608.800546,814.226536,9918.759623
1542.934623,1072.533697,1036.288319,9252.574275
1542.934941,1149.143247,1258.350101,8808.450710
1542.935258,1072.533697,814.226536,9400.615463
1542.935575,1225.752797,592.164754,10066.800811
1542.935893,1225.752797,-0.000000,9770.718434
1542.936210,995.924147,-888.247130,10658.965565
1542.936527,1225.752797,-1406.391290,11177.109724
1542.936844,1532.190996,-1554.432478,11103.089130
1542.937162,1455.581446,-1184.329507,10658.965565
1542.937479,1991.848295,-222.061783,10066.800811
1542.937796,1608.800546,370.102971,9474.636058
1542.938114,2528.115143,888.247130,9030.512492
1542.938431,2221.676944,1110.308913,8290.306550
1542.938748,1838.629195,518.144159,8512.368333
1542.939065,1608.800546,-74.020594,9104.533087
1542.939383,1149.143247,-592.164754,9030.512492
1542.939700,919.314598,-740.205942,9326.594869
1542.940017,689.485948,-1036.288319,9918.759623
1542.940335,229.828649,-1258.350101,9474.636058
1542.940652,612.876398,-1554.432478,10140.821405
1542.940969,612.876398,-888.247130,10066.800811
1542.941286,689.485948,-518.144159,9474.636058
1542.941604,842.705048,-0.000000,9178.553681
1542.941921,459.657299,592.164754,8438.347739
1542.942238,383.047749,1184.329507,7846.182985
1542.942556,383.047749,1258.350101,7476.080014
1542.942873,383.047749,666.185348,8438.347739
1542.943190,153.219100,444.123565,8216.285956
1542.943507,-306.438199,-222.061783,9178.553681
1542.943825,76.609550,-666.185348,9770.718434
1542.944142,153.219100,-962.267725,10436.903782
1542.944459,612.876398,-370.102971,9992.780217
1542.944777,1072.533697,-74.020594,9474.636058
1542.945094,383.047749,1036.288319,8512.368333
1542.945411,995.924147,1036.288319,8512.368333
1542.945728,1072.533697,1184.329507,7994.224174
1542.946046,842.705048,1184.329507,8438.347739
1542.946363,689.485948,1184.329507,8290.306550
1542.946680,306.438199,370.102971,8216.285956
1542.946998,536.266849,592.164754,8660.409521
1542.947315,153.219100,-148.041188,9770.718434
1542.947632,-229.828649,-296.082377,9622.677246
1542.947949,-536.266849,-370.102971,9474.636058
1542.948267,-536.266849,-148.041188,9992.780217
1542.948584,-153.219100,370.102971,10658.965565
1542.948901,0.000000,444.123565,9992.780217
1542.949219,-229.828649,222.061783,9770.718434
1542.949536,0.000000,962.267725,9474.636058
1542.949853,306.438199,1702.473667,9104.533087
1542.950170,612.876398,1850.514855,8438.347739
1542.950488,689.485948,1776.494261,8142.265362
1542.950805,459.657299,1110.308913,8660.409521
1542.951122,0.000000,370.102971,9252.574275
1542.951440,0.000000,-370.102971,9844.739029
1542.951757,76.609550,-740.205942,10807.006753
1542.952074,0.000000,-888.247130,10732.986159
1542.952391,306.438199,-444.123565,11029.068536
1542.952709,76.609550,148.041188,10140.821405
1542.953026,995.924147,592.164754,10214.842000
1542.953343,919.314598,1036.288319,9918.759623
1542.953661,995.924147,1776.494261,9178.553681
1542.953978,1302.362347,1702.473667,8660.409521
1542.954295,1225.752797,1184.329507,9252.574275
1542.954612,919.314598,592.164754,9474.636058
1542.954930,689.485948,-0.000000,10288.862594
1542.955247,919.314598,-0.000000,10658.965565
1542.955564,1072.533697,-370.102971,10955.047942
1542.955882,1149.143247,-962.267725,11029.068536
1542.956199,1225.752797,-222.061783,10807.006753
1542.956516,1991.848295,-74.020594,10436.903782
1542.956833,2451.505594,666.185348,9770.718434
1542.957151,2681.334243,962.267725,9030.512492
1542.957468,2681.334243,666.185348,8808.450710
1542.957785,2374.896044,1036.288319,8364.327145
1542.958103,2451.505594,370.102971,8882.471304
1542.958420,1991.848295,222.061783,9252.574275
1542.958737,1838.629195,-74.020594,9622.677246
1542.959054,1225.752797,-814.226536,9918.759623
1542.959372,1378.971896,-1184.329507,10584.944971
1542.959689,1149.143247,-1554.432478,11103.089130
1542.960006,1455.581446,-1110.308913,10658.965565
1542.960324,1378.971896,-0.000000,9400.615463
1542.960641,1762.019645,962.267725,8734.430116
1542.960958,2145.067394,1406.391290,7994.224174
1542.961276,2145.067394,1036.288319,7846.182985
1542.961593,1608.800546,1332.370696,7772.162391
1542.961911,919.314598,1110.308913,7920.203579
1542.962228,0.000000,518.144159,8364.327145
1542.962545,153.219100,-0.000000,8512.368333
1542.962863,-383.047749,-666.185348,9548.656652
1542.963180,-842.705048,-1110.308913,9030.512492
1542.963498,-1072.533697,-1406.391290,9326.594869
1542.963815,-1149.143247,-1258.350101,9844.739029
1542.964132,-153.219100,-518.144159,10066.800811
1542.964450,-76.609550,222.061783,8882.471304
1542.964767,-306.438199,962.267725,8808.450710
1542.965085,-383.047749,1702.473667,7772.162391
1542.965402,153.219100,1998.556043,7624.121203
1542.965719,0.000000,1480.411884,7328.038826
1542.966037,383.047749,518.144159,8364.327145
1542.966354,-459.657299,222.061783,8290.306550
1542.966672,76.609550,-148.041188,9252.574275
1542.966989,76.609550,-1036.288319,10066.800811
1542.967306,229.828649,-1850.514855,10214.842000
1542.967624,383.047749,-888.247130,9844.739029
1542.967941,1072.533697,-518.144159,9770.718434
1542.968259,766.095498,740.205942,9178.553681
1542.968576,1072.533697,1702.473667,8512.368333
1542.968893,1378.971896,1776.494261,8808.450710
1542.969211,995.924147,1702.473667,8586.388927
1542.969528,766.095498,1406.391290,8512.368333
1542.969846,153.219100,740.205942,9326.594869
1542.970163,229.828649,-74.020594,10510.924376
1542.970480,459.657299,-148.041188,10881.027347
1542.970798,153.219100,-592.164754,10955.047942
1542.971115,0.000000,-740.205942,11029.068536
1542.971433,383.047749,-444.123565,11547.212695
1542.971750,1149.143247,-0.000000,10881.027347
1542.972067,1302.362347,518.144159,10436.903782
1542.972385,1838.629195,1850.514855,9918.759623
1542.972702,1762.019645,2368.659014,9252.574275
1542.973020,1838.629195,2072.576638,9104.533087
1542.973337,1838.629195,1554.432478,9326.594869
1542.973654,1991.848295,1332.370696,9474.636058
1542.973972,1991.848295,814.226536,9622.677246
1542.974289,2145.067394,444.123565,9992.780217
1542.974607,2068.457845,-592.164754,10436.903782
1542.974924,1685.410096,-1628.453072,10658.965565
1542.975241,1455.581446,-1480.411884,10955.047942
1542.975559,1608.800546,-0.000000,9844.739029
1542.975876,1762.019645,592.164754,9696.697840
1542.976194,1532.190996,1258.350101,8734.430116
1542.976511,1838.629195,1184.329507,8734.430116
1542.976828,1149.143247,74.020594,9178.553681
1542.977146,766.095498,148.041188,9474.636058
1542.977463,612.876398,-0.000000,9030.512492
1542.977781,0.000000,814.226536,9030.512492
1542.978098,0.000000,148.041188,9474.636058
1542.978415,229.828649,-222.061783,9918.759623
1542.978733,-766.095498,-1554.432478,10436.903782
1542.979050,-842.705048,-1554.432478,10732.986159
1542.979368,-689.485948,-222.061783,10288.862594
1542.979685,153.219100,518.144159,10140.821405
1542.980002,459.657299,1554.432478,9104.533087
1542.980320,536.266849,1036.288319,8438.347739
1542.980637,153.219100,814.226536,7476.080014
1542.980955,306.438199,592.164754,7994.224174
1542.981272,766.095498,888.247130,7846.182985
1542.981589,995.924147,666.185348,8142.265362
1542.981907,306.438199,222.061783,8956.491898
1542.982224,306.438199,-888.247130,9474.636058
1542.982542,0.000000,-888.247130,9696.697840
1542.982859,76.609550,-1110.308913,9992.780217
1542.983176,459.657299,-0.000000,9474.636058
1542.983494,689.485948,814.226536,8364.327145
1542.983811,689.485948,1036.288319,8290.306550
1542.984129,612.876398,444.123565,8438.347739
1542.984446,766.095498,592.164754,8734.430116
1542.984763,536.266849,222.061783,7994.224174
1542.985081,919.314598,518.144159,8216.285956
1542.985398,229.828649,444.123565,8216.285956
1542.985716,-229.828649,-740.205942,9474.636058
1542.986033,-536.266849,-1184.329507,9918.759623
1542.986350,0.000000,-1628.453072,10881.027347
1542.986668,0.000000,-962.267725,9918.759623
1542.986985,766.095498,-148.041188,9696.697840
1542.987303,995.924147,-0.000000,9178.553681
1542.987620,842.705048,-74.020594,8734.430116
1542.987937,842.705048,-0.000000,9326.594869
1542.988255,689.485948,-0.000000,9252.574275
1542.988572,383.047749,740.205942,8956.491898
1542.988890,1532.190996,962.267725,9178.553681
1542.989207,995.924147,1184.329507,8660.409521
1542.989524,919.314598,296.082377,10214.842000
1542.989842,612.876398,-666.185348,10584.944971
1542.990159,1225.752797,-1332.370696,11621.233289
1542.990477,1608.800546,-814.226536,10584.944971
1542.990794,1762.019645,148.041188,10807.006753
1542.991111,2298.286494,1110.308913,9770.718434
1542.991429,2911.162892,1406.391290,9474.636058
1542.991746,2528.115143,1406.391290,8660.409521
1542.992064,2451.505594,1480.411884,8586.388927
1542.992381,1838.629195,1776.494261,8364.327145
1542.992698,1838.629195,1258.350101,8438.347739
1542.993016,1378.971896,814.226536,9252.574275
1542.993333,766.095498,-1184.329507,10214.842000
1542.993651,-306.438199,-1332.370696,10807.006753
1542.993968,0.000000,-2072.576638,11547.212695
1542.994285,-153.219100,-1184.329507,11029.068536
1542.994603,766.095498,-666.185348,10732.986159
1542.994920,383.047749,296.082377,9992.780217
1542.995238,383.047749,666.185348,9474.636058
1542.995555,612.876398,592.164754,9548.656652
1542.995872,919.314598,444.123565,9030.512492
1542.996190,306.438199,666.185348,9104.533087
1542.996507,612.876398,740.205942,8882.471304
1542.996825,689.485948,740.205942,9178.553681
1542.997142,536.266849,74.020594,9622.677246
1542.997459,766.095498,-740.205942,9844.739029
1542.997777,536.266849,-888.247130,10288.862594
1542.998094,995.924147,-666.185348,10066.800811
1542.998412,1302.362347,-148.041188,9622.677246
1542.998729,1072.533697,222.061783,9548.656652
1542.999046,1225.752797,740.205942,8364.327145
1542.999364,842.705048,1480.411884,7994.224174
1542.999681,766.095498,2368.659014,7698.141797
1542.999999,1149.143247,1184.329507,8438.347739
1543.000316,0.000000,296.082377,8290.306550
1543.000633,-153.219100,-1110.308913,9696.697840
1543.000951,0.000000,-1036.288319,10288.862594
1543.001268,459.657299,-592.164754,10214.842000
1543.001586,383.047749,-0.000000,9622.677246
1543.001903,459.657299,-0.000000,9104.533087
1543.002220,536.266849,370.102971,8808.450710
1543.002538,1149.143247,740.205942,8808.450710
1543.002855,1149.143247,666.185348,8882.471304
1543.003173,689.485948,1184.329507,8734.430116
1543.003490,766.095498,1628.453072,8068.244768
1543.003807,842.705048,1036.288319,7772.162391
1543.004125,1072.533697,296.082377,8142.265362
1543.004442,766.095498,-0.000000,7920.203579
1543.004760,229.828649,-296.082377,8734.430116
1543.005077,383.047749,-518.144159,9474.636058
1543.005394,919.314598,-1110.308913,10066.800811
1543.005712,306.438199,-1258.350101,10732.986159
1543.006029,306.438199,-962.267725,10881.027347
1543.006347,459.657299,222.061783,9770.718434
1543.006664,1225.752797,1332.370696,8956.491898
1543.006982,1455.581446,1406.391290,8660.409521
1543.007299,1455.581446,1628.453072,8068.244768
1543.007616,919.314598,1110.308913,8290.306550
1543.007934,919.314598,518.144159,9030.512492
1543.008251,995.924147,-296.082377,9474.636058
1543.008569,0.000000,222.061783,9474.636058
1543.008886,76.609550,-74.020594,10066.800811
1543.009203,-229.828649,-296.082377,10066.800811
1543.009521,0.000000,-1036.288319,10881.027347
1543.009838,-229.828649,-1036.288319,11621.233289
1543.010156,-306.438199,-74.020594,11177.109724
1543.010473,612.876398,592.164754,10066.800811
1543.010790,1072.533697,962.267725,9474.636058
1543.011108,1149.143247,1776.494261,8512.368333
1543.011425,1149.143247,1258.350101,8808.450710
1543.011743,842.705048,1036.288319,8512.368333
1543.012060,919.314598,518.144159,9104.533087
1543.012377,919.314598,-148.041188,9844.739029
1543.012695,995.924147,-666.185348,10955.047942
1543.013012,995.924147,-1110.308913,10807.006753
1543.013330,842.705048,-1480.411884,10732.986159
1543.013647,919.314598,-1110.308913,10288.862594
1543.013964,1378.971896,-148.041188,10066.800811
1543.014282,1685.410096,962.267725,9030.512492
1543.014599,1991.848295,1332.370696,8882.471304
1543.014917,1915.238745,1554.432478,8438.347739
1543.015234,1685.410096,1184.329507,8586.388927
1543.015551,842.705048,666.185348,8660.409521
1543.015869,689.485948,-0.000000,9474.636058
1543.016186,612.876398,-666.185348,10140.821405
1543.016504,459.657299,-814.226536,10362.883188
1543.016821,306.438199,-1184.329507,10436.903782
1543.017138,459.657299,-1332.370696,10658.965565
1543.017456,153.219100,-1480.411884,10807.006753
1543.017773,1302.362347,-518.144159,9696.697840
1543.018091,1455.581446,296.082377,9104.533087
1543.018408,1378.971896,1184.329507,8512.368333
1543.018725,1378.971896,1110.308913,8142.265362
1543.019043,1225.752797,1036.288319,7994.224174
1543.019360,842.705048,962.267725,8068.244768
1543.019678,536.266849,740.205942,8808.450710
1543.019995,612.876398,518.144159,8660.409521
1543.020312,459.657299,-0.000000,8882.471304
1543.020630,1149.143247,-740.205942,9622.677246
1543.020947,612.876398,-1258.350101,9770.718434
1543.021265,842.705048,-1184.329507,9622.677246
1543.021582,995.924147,-0.000000,8956.491898
1543.021899,1302.362347,888.247130,8290.306550
1543.022217,1302.362347,1776.494261,7328.038826
1543.022534,766.095498,1924.535449,7254.018232
1543.022852,383.047749,1554.432478,7402.059420
1543.023169,383.047749,740.205942,8512.368333
1543.023486,0.000000,518.144159,8808.450710
1543.023804,-306.438199,222.061783,9030.512492
1543.024121,-306.438199,296.082377,9178.553681
1543.024439,0.000000,-0.000000,9696.697840
1543.024756,0.000000,-888.247130,10214.842000
1543.025073,-153.219100,-518.144159,10362.883188
1543.025391,-153.219100,222.061783,10214.842000
1543.025708,306.438199,1184.329507,9474.636058
1543.026026,0.000000,1406.391290,9104.533087
1543.026343,76.609550,1628.453072,8734.430116
1543.026660,0.000000,1850.514855,8660.409521
1543.026978,-383.047749,1184.329507,8660.409521
1543.027295,0.000000,444.123565,9474.636058
1543.027613,153.219100,222.061783,9770.718434
1543.027930,153.219100,-444.123565,10362.883188
1543.028247,153.219100,-814.226536,11325.150913
1543.028565,76.609550,-1406.391290,11325.150913
1543.028882,76.609550,-518.144159,11177.109724
1543.029200,536.266849,444.123565,10584.944971
1543.029517,1302.362347,1406.391290,10066.800811
1543.029834,1225.752797,1998.556043,9252.574275
1543.030152,1149.143247,1480.411884,9030.512492
1543.030469,383.047749,740.205942,9400.615463
1543.030787,1302.362347,222.061783,10214.842000
1543.031104,1072.533697,-74.020594,10288.862594
1543.031421,919.314598,-222.061783,9918.759623
1543.031739,766.095498,-592.164754,10288.862594
1543.032056,459.657299,-1258.350101,10658.965565
1543.032374,536.266849,-2368.659014,11695.253884
1543.032691,612.876398,-2220.617826,11547.212695
1543.033008,306.438199,-592.164754,10732.986159
1543.033326,842.705048,518.144159,10066.800811
1543.033643,1685.410096,1110.308913,9474.636058
1543.033961,2145.067394,1036.288319,9178.553681
1543.034278,1762.019645,296.082377,8438.347739
1543.034595,1455.581446,-0.000000,8586.388927
1543.034913,2068.457845,-0.000000,8956.491898
1543.035230,2451.505594,222.061783,9104.533087
1543.035548,2757.943793,-0.000000,9474.636058
1543.035865,2068.457845,-518.144159,9992.780217
1543.036182,2451.505594,-518.144159,9696.697840
1543.036500,2374.896044,-592.164754,9844.739029
1543.036817,2451.505594,222.061783,9400.615463
1543.037135,2987.772442,1184.329507,9030.512492
1543.037452,2528.115143,1628.453072,7994.224174
1543.037769,2068.457845,1554.432478,7698.141797
1543.038087,1915.238745,1110.308913,7624.121203
1543.038404,1225.752797,592.164754,7920.203579
1543.038722,919.314598,-0.000000,7994.224174
1543.039039,766.095498,-74.020594,8660.409521
1543.039356,-229.828649,-666.185348,9400.615463
1543.039674,-76.609550,-740.205942,9844.739029
1543.039991,0.000000,-666.185348,9992.780217
1543.040309,76.609550,-518.144159,9770.718434
1543.040626,536.266849,518.144159,8882.471304
1543.040943,612.876398,1332.370696,7994.224174
1543.041261,612.876398,1406.391290,7772.162391
1543.041578,766.095498,1702.473667,7402.059420
1543.041896,76.609550,1480.411884,7254.018232
1543.042213,-459.657299,1110.308913,7846.182985
1543.042530,-612.876398,814.226536,8142.265362
1543.042848,-842.705048,-0.000000,8808.450710
1543.043165,-842.705048,-1036.288319,9474.636058
1543.043483,-1378.971896,-1258.350101,10732.986159
1543.043800,-1149.143247,-888.247130,10955.047942
1543.044117,-229.828649,-222.061783,10436.903782
1543.044435,-229.828649,592.164754,9622.677246
1543.044752,459.657299,1554.432478,9030.512492
1543.045070,689.485948,2220.617826,8290.306550
1543.045387,1302.362347,2738.761985,8290.306550
1543.045704,995.924147,2368.659014,7846.182985
1543.046022,689.485948,1850.514855,8290.306550
1543.046339,689.485948,1258.350101,8808.450710
1543.046657,383.047749,444.123565,9696.697840
1543.046974,0.000000,-444.123565,10732.986159
1543.047291,76.609550,-1184.329507,11325.150913
1543.047609,0.000000,-1628.453072,11399.171507
1543.047926,76.609550,-962.267725,11547.212695
1543.048244,306.438199,-296.082377,11177.109724
1543.048561,766.095498,296.082377,10881.027347
1543.048878,1072.533697,1332.370696,10066.800811
1543.049196,1378.971896,1554.432478,9622.677246
1543.049513,1378.971896,1480.411884,9252.574275
1543.049831,1532.190996,1258.350101,9326.594869
1543.050148,1532.190996,148.041188,9474.636058
1543.050465,1149.143247,-370.102971,10584.944971
1543.050783,1378.971896,-1406.391290,11103.089130
1543.051100,612.876398,-1702.473667,11399.171507
1543.051418,1225.752797,-1480.411884,11843.295072
1543.051735,1762.019645,-1258.350101,10658.965565
1543.052052,1532.190996,-444.123565,10362.883188
1543.052370,1838.629195,-0.000000,9992.780217
1543.052687,1915.238745,1036.288319,9326.594869
1543.053005,1838.629195,1406.391290,8808.450710
1543.053322,1991.848295,1480.411884,8660.409521
1543.053639,1302.362347,1184.329507,8660.409521
1543.053957,1149.143247,740.205942,8660.409521
1543.054274,1149.143247,222.061783,9178.553681
1543.054592,995.924147,-518.144159,9844.739029
1543.054909,612.876398,-1184.329507,10066.800811
1543.055227,766.095498,-1184.329507,10214.842000
1543.055544,842.705048,-740.205942,9918.759623
1543.055861,1072.533697,-444.123565,9622.677246
1543.056179,1149.143247,222.061783,8956.491898
1543.056496,1225.752797,518.144159,8438.347739
1543.056814,1225.752797,1184.329507,7624.121203
1543.057131,1149.143247,814.226536,7476.080014
1543.057448,842.705048,1036.288319,7476.080014
1543.057766,536.266849,666.185348,7550.100608
1543.058083,306.438199,148.041188,7994.224174
1543.058401,383.047749,-444.123565,8586.388927
1543.058718,383.047749,-1406.391290,9474.636058
1543.059035,229.828649,-1628.453072,9844.739029
1543.059353,76.609550,-1036.288319,9992.780217
1543.059670,306.438199,-666.185348,9844.739029
1543.059987,383.047749,-0.000000,9030.512492
1543.060305,612.876398,740.205942,8290.306550
1543.060622,459.657299,1406.391290,7994.224174
1543.060940,229.828649,1332.370696,7550.100608
1543.061257,536.266849,1110.308913,7846.182985
1543.061574,306.438199,296.082377,8290.306550
1543.061892,-229.828649,-74.020594,8808.450710
1543.062209,-383.047749,-444.123565,9400.615463
1543.062527,-383.047749,-962.267725,9992.780217
1543.062844,-612.876398,-1036.288319,10362.883188
1543.063161,-306.438199,-740.205942,10584.944971
1543.063479,-306.438199,-222.061783,10214.842000
1543.063796,76.609550,592.164754,9844.739029
1543.064113,689.485948,1258.350101,9178.553681
1543.064431,689.485948,1776.494261,8808.450710
1543.064748,1378.971896,2146.597232,8142.265362
1543.065066,1072.533697,1850.514855,8364.327145
1543.065383,995.924147,1554.432478,8290.306550
1543.065700,1149.143247,962.267725,9030.512492
1543.066018,842.705048,666.185348,9918.759623
1543.066335,459.657299,-296.082377,10436.903782
1543.066653,536.266849,-814.226536,10584.944971
1543.066970,689.485948,-814.226536,10955.047942
1543.067287,995.924147,-222.061783,10955.047942
1543.067605,995.924147,592.164754,10214.842000
1543.067922,1302.362347,814.226536,9400.615463
1543.068240,1302.362347,1332.370696,9104.533087
1543.068557,995.924147,1258.350101,9252.574275
1543.068874,842.705048,740.205942,9770.718434
1543.069192,536.266849,518.144159,9548.656652
1543.069509,536.266849,222.061783,10066.800811
1543.069826,383.047749,-370.102971,11029.068536
1543.070144,0.000000,-740.205942,11103.089130
1543.070461,689.485948,-1036.288319,11325.150913
1543.070779,766.095498,-962.267725,11325.150913
1543.071096,995.924147,-666.185348,11029.068536
1543.071413,1302.362347,-0.000000,10807.006753
1543.071731,1991.848295,518.144159,10214.842000
1543.072048,2068.457845,962.267725,9326.594869
1543.072366,1455.581446,1110.308913,9030.512492
1543.072683,1532.190996,740.205942,9178.553681
1543.073000,1532.190996,370.102971,9030.512492
1543.073318,1685.410096,148.041188,9474.636058
1543.073635,1532.190996,-0.000000,10066.800811
1543.073952,1532.190996,-518.144159,10066.800811
1543.074270,1762.019645,-962.267725,10510.924376
1543.074587,1532.190996,-962.267725,9992.780217
1543.074905,1991.848295,-370.102971,9770.718434
1543.075222,2145.067394,296.082377,9030.512492
1543.075539,2451.505594,740.205942,8142.265362
1543.075857,2145.067394,1258.350101,7624.121203
1543.076174,1991.848295,1184.329507,7179.997637
1543.076492,1149.143247,888.247130,7476.080014
1543.076809,689.485948,518.144159,7402.059420
1543.077126,0.000000,-148.041188,8512.368333
1543.077444,0.000000,-592.164754,8882.471304
1543.077761,-536.266849,-814.226536,9622.677246
1543.078078,-842.705048,-1110.308913,9696.697840
1543.078396,-612.876398,-1036.288319,9770.718434
1543.078713,-536.266849,-740.205942,9992.780217
1543.079031,-229.828649,148.041188,9178.553681
1543.079348,383.047749,1110.308913,8512.368333
1543.079665,612.876398,1480.411884,7846.182985
1543.079983,1149.143247,1924.535449,7254.018232
1543.080300,459.657299,1924.535449,7254.018232
1543.080618,459.657299,1184.329507,7624.121203
1543.080935,229.828649,-0.000000,8142.265362
1543.081252,0.000000,-518.144159,9178.553681
1543.081570,-229.828649,-1110.308913,9770.718434
1543.081887,-459.657299,-1184.329507,10214.842000
1543.082205,0.000000,-1036.288319,10288.862594
1543.082522,153.219100,-740.205942,10140.821405
1543.082839,612.876398,-0.000000,9474.636058
1543.083157,612.876398,740.205942,9104.533087
1543.083474,842.705048,1258.350101,8586.388927
1543.083791,919.314598,1406.391290,8586.388927
1543.084109,689.485948,814.226536,8512.368333
1543.084426,153.219100,370.102971,8882.471304
1543.084744,153.219100,222.061783,9474.636058
1543.085061,0.000000,-444.123565,10140.821405
1543.085378,229.828649,-1036.288319,10436.903782
1543.085696,229.828649,-1480.411884,10881.027347
1543.086013,306.438199,-1258.350101,10955.047942
1543.086331,536.266849,-740.205942,10807.006753
1543.086648,536.266849,-0.000000,10066.800811
1543.086965,1378.971896,814.226536,9844.739029
1543.087283,995.924147,1776.494261,9326.594869
1543.087600,995.924147,1924.535449,9104.533087
1543.087917,689.485948,1554.432478,9178.553681
1543.088235,689.485948,1110.308913,9400.615463
1543.088552,612.876398,148.041188,9548.656652
1543.088870,612.876398,-148.041188,10584.944971
1543.089187,689.485948,-592.164754,11029.068536
1543.089504,919.314598,-962.267725,11325.150913
1543.089822,1532.190996,-888.247130,11177.109724
1543.090139,1685.410096,-148.041188,11029.068536
1543.090457,1991.848295,814.226536,10140.821405
1543.090774,2604.724693,1776.494261,9252.574275
1543.091091,2528.115143,2146.597232,8438.347739
1543.091409,2451.505594,2368.659014,8512.368333
1543.091726,2221.676944,1702.473667,8364.327145
1543.092043,1762.019645,814.226536,8808.450710
1543.092361,1762.019645,-0.000000,9474.636058
1543.092678,1302.362347,-222.061783,9844.739029
1543.092996,766.095498,-1036.288319,10510.924376
1543.093313,995.924147,-1332.370696,10881.027347
1543.093630,536.266849,-1258.350101,10510.924376
1543.093948,842.705048,-592.164754,10214.842000
1543.094265,995.924147,-0.000000,10066.800811
1543.094583,612.876398,888.247130,9474.636058
1543.094900,842.705048,1480.411884,8734.430116
1543.095217,766.095498,1406.391290,8142.265362
1543.095535,612.876398,1480.411884,7920.203579
1543.095852,536.266849,1036.288319,8068.244768
1543.096170,383.047749,370.102971,8364.327145
1543.096487,0.000000,148.041188,9252.574275
1543.096804,0.000000,-592.164754,9548.656652
1543.097122,-306.438199,-1110.308913,9770.718434
1543.097439,-689.485948,-962.267725,10288.862594
1543.097756,-383.047749,-592.164754,9770.718434
1543.098074,-153.219100,148.041188,9104.533087
1543.098391,0.000000,888.247130,8586.388927
1543.098709,229.828649,1332.370696,8290.306550
1543.099026,1302.362347,1702.473667,7846.182985
1543.099343,306.438199,1480.411884,7402.059420
1543.099661,76.609550,888.247130,7772.162391
1543.099978,459.657299,444.123565,8068.244768
1543.100296,229.828649,148.041188,8956.491898
1543.100613,153.219100,-962.267725,9474.636058
1543.100930,0.000000,-1110.308913,9770.718434
1543.101248,-153.219100,-1110.308913,10288.862594
1543.101565,459.657299,-666.185348,10288.862594
1543.101882,689.485948,-0.000000,9548.656652
1543.102200,536.266849,814.226536,9104.533087
1543.102517,919.314598,1110.308913,8660.409521
1543.102835,1225.752797,1480.411884,8142.265362
1543.103152,1685.410096,1702.473667,7994.224174
1543.103469,1149.143247,1110.308913,8364.327145
1543.103787,1072.533697,444.123565,8956.491898
1543.104104,919.314598,-74.020594,9474.636058
1543.104422,689.485948,-888.247130,10288.862594
1543.104739,766.095498,-1628.453072,11029.068536
1543.105056,766.095498,-1850.514855,11251.130318
1543.105374,919.314598,-1406.391290,10955.047942
1543.105691,1378.971896,-370.102971,10362.883188
1543.106008,1302.362347,148.041188,9770.718434
1543.106326,1685.410096,740.205942,8808.450710
1543.106643,1608.800546,1184.329507,8882.471304
1543.106961,1072.533697,1406.391290,8660.409521
1543.107278,1149.143247,1258.350101,8956.491898
1543.107595,842.705048,740.205942,9326.594869
1543.107913,1455.581446,-0.000000,10214.842000
1543.108230,153.219100,-296.082377,10510.924376
1543.108548,306.438199,-888.247130,11029.068536
1543.108865,689.485948,-1184.329507,11029.068536
1543.109182,612.876398,-740.205942,11029.068536
1543.109500,995.924147,222.061783,10658.965565
1543.109817,1149.143247,1110.308913,9770.718434
1543.110134,1378.971896,1480.411884,9252.574275
1543.110452,1532.190996,1776.494261,8882.471304
1543.110769,1302.362347,1554.432478,8586.388927
1543.111087,1608.800546,1480.411884,8364.327145
1543.111404,1302.362347,814.226536,8734.430116
1543.111721,919.314598,148.041188,9326.594869
1543.112039,1072.533697,-222.061783,9770.718434
1543.112356,1149.143247,-888.247130,10362.883188
1543.112674,1149.143247,-1258.350101,10510.924376
1543.112991,1455.581446,-740.205942,10140.821405
1543.113308,1378.971896,222.061783,9474.636058
1543.113626,1455.581446,1036.288319,8808.450710
1543.113943,1378.971896,1850.514855,8438.347739
1543.114261,1149.143247,1702.473667,8216.285956
1543.114578,612.876398,1480.411884,7920.203579
1543.114895,383.047749,1406.391290,8290.306550
1543.115213,306.438199,592.164754,8808.450710
1543.115530,-536.266849,-0.000000,9474.636058
1543.115847,-766.095498,-1110.308913,9992.780217
1543.116165,-995.924147,-740.205942,10510.924376
1543.116482,-689.485948,-1036.288319,10732.986159
1543.116800,-459.657299,-592.164754,10436.903782
1543.117117,306.438199,518.144159,10066.800811
1543.117434,306.438199,1554.432478,9326.594869
1543.117752,612.876398,1702.473667,8142.265362
1543.118069,1072.533697,1924.535449,7698.141797
1543.118387,1378.971896,1850.514855,7624.121203
1543.118704,1378.971896,1480.411884,7550.100608
1543.119021,1149.143247,888.247130,7402.059420
1543.119339,995.924147,296.082377,8586.388927
1543.119656,1072.533697,-222.061783,9252.574275
1543.119973,842.705048,-888.247130,10066.800811
1543.120291,536.266849,-1184.329507,9918.759623
1543.120608,842.705048,-740.205942,10362.883188
1543.120926,995.924147,-148.041188,9844.739029
1543.121243,1455.581446,888.247130,8956.491898
1543.121560,1455.581446,1554.432478,8734.430116
1543.121878,1608.800546,1554.432478,8068.244768
1543.122195,1378.971896,1480.411884,7698.141797
1543.122513,995.924147,1184.329507,8364.327145
1543.122830,612.876398,296.082377,8808.450710
1543.123147,459.657299,-444.123565,9474.636058
1543.123465,-153.219100,-962.267725,10066.800811
1543.123782,-383.047749,-1480.411884,10807.006753
1543.124099,0.000000,-1406.391290,11251.130318
1543.124417,76.609550,-888.247130,11029.068536
1543.124734,689.485948,-444.123565,10807.006753
1543.125052,383.047749,444.123565,10362.883188
1543.125369,459.657299,814.226536,9474.636058
1543.125686,842.705048,1036.288319,9326.594869
1543.126004,766.095498,962.267725,9326.594869
1543.126321,459.657299,592.164754,9474.636058
1543.126639,536.266849,-0.000000,9326.594869
1543.126956,689.485948,-148.041188,10066.800811
1543.127273,995.924147,-888.247130,10881.027347
1543.127591,766.095498,-1258.350101,10955.047942
1543.127908,1072.533697,-1110.308913,11029.068536
1543.128226,1455.581446,-592.164754,10658.965565
1543.128543,1685.410096,148.041188,9918.759623
1543.128860,2145.067394,666.185348,9474.636058
1543.129178,2451.505594,1184.329507,8512.368333
1543.129495,1991.848295,1406.391290,8142.265362
1543.129812,1991.848295,1406.391290,8068.244768
1543.130130,1608.800546,1036.288319,8290.306550
1543.130447,1149.143247,222.061783,8808.450710
1543.130765,842.705048,-814.226536,9400.615463
1543.131082,306.438199,-962.267725,9992.780217
1543.131399,229.828649,-1110.308913,10288.862594
1543.131717,-153.219100,-1184.329507,10584.944971
1543.132034,0.000000,-592.164754,10288.862594
1543.132352,-459.657299,-222.061783,10140.821405
1543.132669,229.828649,518.144159,9400.615463
1543.132986,229.828649,1258.350101,8808.450710
1543.133304,689.485948,1924.535449,8438.347739
1543.133621,536.266849,2072.576638,7476.080014
1543.133938,766.095498,1406.391290,7624.121203
1543.134256,229.828649,1110.308913,8364.327145
1543.134573,229.828649,666.185348,8882.471304
1543.134891,229.828649,-0.000000,9400.615463
1543.135208,383.047749,-370.102971,9918.759623
1543.135525,0.000000,-888.247130,10362.883188
1543.135843,153.219100,-444.123565,10362.883188
1543.136160,383.047749,-0.000000,9622.677246
1543.136478,536.266849,444.123565,9400.615463
1543.136795,229.828649,1036.288319,9030.512492
1543.137112,459.657299,1406.391290,8438.347739
1543.137430,612.876398,1776.494261,8142.265362
1543.137747,766.095498,1480.411884,8290.306550
1543.138064,919.314598,444.123565,8660.409521
1543.138382,995.924147,-74.020594,9178.553681
1543.138699,536.266849,-518.144159,9770.718434
1543.139017,76.609550,-814.226536,10288.862594
1543.139334,383.047749,-1036.288319,10362.883188
1543.139651,612.876398,-740.205942,10288.862594
1543.139969,536.266849,-0.000000,10140.821405
1543.140286,1072.533697,296.082377,9548.656652
1543.140604,1378.971896,962.267725,9178.553681
1543.140921,1149.143247,1332.370696,8290.306550
1543.141238,919.314598,1776.494261,7994.224174
1543.141556,612.876398,1184.329507,8734.430116
1543.141873,306.438199,592.164754,8882.471304
1543.142191,0.000000,-74.020594,9548.656652
1543.142508,-153.219100,-740.205942,10362.883188
1543.142825,0.000000,-1332.370696,11473.192101
1543.143143,0.000000,-1332.370696,11473.192101
1543.143460,459.657299,-296.082377,10955.047942
1543.143777,1072.533697,-0.000000,10362.883188
1543.144095,1149.143247,518.144159,9622.677246
1543.144412,1608.800546,740.205942,8882.471304
1543.144730,1685.410096,1110.308913,8734.430116
1543.145047,1608.800546,1332.370696,8512.368333
1543.145364,1302.362347,1110.308913,8512.368333
1543.145682,842.705048,296.082377,9104.533087
1543.145999,689.485948,-740.205942,9918.759623
1543.146317,306.438199,-1184.329507,10807.006753
1543.146634,383.047749,-1628.453072,11103.089130
1543.146951,766.095498,-1850.514855,11177.109724
1543.147269,919.314598,-1480.411884,10732.986159
1543.147586,1149.143247,-814.226536,10436.903782
1543.147903,1532.190996,-296.082377,9918.759623
1543.148221,1608.800546,296.082377,9252.574275
1543.148538,2145.067394,962.267725,8512.368333
1543.148856,1838.629195,1184.329507,8290.306550
1543.149173,1838.629195,814.226536,8290.306550
1543.149490,1225.752797,296.082377,8512.368333
1543.149808,1302.362347,-0.000000,8882.471304
1543.150125,1072.533697,-814.226536,9622.677246
1543.150443,766.095498,-1184.329507,9844.739029
1543.150760,919.314598,-1036.288319,10066.800811
1543.151077,766.095498,-962.267725,10214.842000
1543.151395,536.266849,-296.082377,9770.718434
1543.151712,689.485948,444.123565,9104.533087
1543.152029,766.095498,1480.411884,8216.285956
1543.152347,919.314598,1850.514855,7920.203579
1543.152664,689.485948,1924.535449,7698.141797
1543.152982,153.219100,1554.432478,7624.121203
1543.153299,0.000000,740.205942,8290.306550
1543.153616,229.828649,222.061783,8956.491898
1543.153934,0.000000,-74.020594,9326.594869
1543.154251,-306.438199,-592.164754,9918.759623
1543.154569,0.000000,-814.226536,9992.780217
1543.154886,0.000000,-666.185348,9844.739029
1543.155203,383.047749,-0.000000,9622.677246
1543.155521,612.876398,740.205942,9178.553681
1543.155838,995.924147,1628.453072,8660.409521
1543.156155,995.924147,2294.638420,7698.141797
1543.156473,919.314598,1554.432478,8290.306550
1543.156790,766.095498,1332.370696,7846.182985
1543.157108,1072.533697,962.267725,7920.203579
1543.157425,1149.143247,74.020594,9104.533087
1543.157742,1072.533697,-888.247130,9696.697840
1543.158060,689.485948,-1036.288319,10584.944971
1543.158377,612.876398,-1184.329507,10584.944971
1543.158695,919.314598,-592.164754,10658.965565
1543.159012,995.924147,-0.000000,10140.821405
1543.159329,995.924147,740.205942,9474.636058
1543.159647,919.314598,1554.432478,8882.471304
1543.159964,919.314598,1702.473667,8512.368333
1543.160282,919.314598,1998.556043,8068.244768
1543.160599,76.609550,1554.432478,8364.327145
1543.160916,153.219100,666.185348,8808.450710
1543.161234,-459.657299,74.020594,9844.739029
1543.161551,-995.924147,-518.144159,10584.944971
1543.161868,-1149.143247,-1184.329507,11547.212695
1543.162185,-1302.362347,-1332.370696,11695.253884
1543.162503,-1149.143247,-814.226536,11769.274478
1543.162820,-919.314598,-1036.288319,11251.130318
1543.163137,-229.828649,-0.000000,10732.986159
1543.163455,459.657299,814.226536,9474.636058
1543.163772,919.314598,1554.432478,8882.471304
1543.164089,1378.971896,1702.473667,8808.450710
1543.164407,1455.581446,1628.453072,8438.347739
1543.164724,1685.410096,1110.308913,8290.306550
1543.165041,1608.800546,370.102971,8882.471304
1543.165359,1455.581446,-740.205942,9844.739029
1543.165676,1608.800546,-1480.411884,10214.842000
1543.165993,1072.533697,-1998.556043,10510.924376
1543.166311,1915.238745,-1776.494261,10955.047942
1543.166628,1608.800546,-1184.329507,10658.965565
1543.166945,2068.457845,-296.082377,9992.780217
1543.167263,2528.115143,444.123565,9474.636058
1543.167580,2374.896044,1036.288319,8808.450710
1543.167897,2374.896044,1036.288319,8734.430116
1543.168215,1915.238745,888.247130,8660.409521
1543.168532,1685.410096,592.164754,8956.491898
1543.168849,1838.629195,-370.102971,9178.553681
1543.169167,1685.410096,-740.205942,9992.780217
1543.169484,1149.143247,-1702.473667,10436.903782
1543.169801,995.924147,-1554.432478,10584.944971
1543.170118,995.924147,-1184.329507,10436.903782
1543.170436,1838.629195,-296.082377,9918.759623
1543.170753,1072.533697,-0.000000,9474.636058
1543.171070,1302.362347,814.226536,8734.430116
1543.171388,919.314598,1184.329507,8290.306550
1543.171705,383.047749,1628.453072,7402.059420
1543.172022,766.095498,1258.350101,7772.162391
1543.172340,0.000000,1036.288319,8290.306550
1543.172657,0.000000,370.102971,8290.306550
1543.172974,-459.657299,-222.061783,9178.553681
1543.173292,-1225.752797,-666.185348,9548.656652
1543.173609,-766.095498,-814.226536,10066.800811
1543.173926,-689.485948,-666.185348,9474.636058
1543.174244,-842.705048,-0.000000,9474.636058
1543.174561,-383.047749,370.102971,9178.553681
1543.174878,-383.047749,1036.288319,8364.327145
1543.175196,76.609550,1850.514855,7402.059420
1543.175513,0.000000,2516.700203,7105.977043
1543.175830,306.438199,2294.638420,7105.977043
1543.176148,0.000000,1258.350101,7179.997637
1543.176465,536.266849,814.226536,8142.265362
1543.176782,-383.047749,-0.000000,8956.491898
1543.177100,-612.876398,-740.205942,9844.739029
1543.177417,-689.485948,-962.267725,10140.821405
1543.177734,-612.876398,-1184.329507,10584.944971
1543.178051,-612.876398,-444.123565,10214.842000
1543.178369,-612.876398,148.041188,10140.821405
1543.178686,229.828649,1110.308913,9844.739029
1543.179003,612.876398,1702.473667,9696.697840
1543.179321,689.485948,1850.514855,9326.594869
1543.179638,76.609550,1628.453072,9622.677246
1543.179955,612.876398,1406.391290,9474.636058
1543.180273,842.705048,888.247130,9844.739029
1543.180590,1378.971896,592.164754,10584.944971
1543.180907,1608.800546,-518.144159,10955.047942
1543.181225,1838.629195,-666.185348,11547.212695
1543.181542,1915.238745,-444.123565,11621.233289
1543.181859,2145.067394,-444.123565,11177.109724
1543.182177,2221.676944,296.082377,10510.924376
1543.182494,2298.286494,666.185348,9992.780217
1543.182811,2604.724693,1406.391290,9474.636058
1543.183129,2528.115143,1480.411884,8882.471304
1543.183446,2221.676944,1258.350101,8808.450710
1543.183763,1991.848295,666.185348,9326.594869
1543.184081,1915.238745,-74.020594,10214.842000
1543.184398,1378.971896,-740.205942,10140.821405
1543.184715,612.876398,-1406.391290,10881.027347
1543.185033,1072.533697,-1406.391290,11029.068536
1543.185350,919.314598,-1184.329507,10955.047942
1543.185667,995.924147,-888.247130,10510.924376
1543.185984,1455.581446,-0.000000,10140.821405
1543.186302,1608.800546,740.205942,9474.636058
1543.186619,1532.190996,1406.391290,8734.430116
1543.186936,1378.971896,1702.473667,8290.306550
1543.187254,1225.752797,1702.473667,8068.244768
1543.187571,536.266849,814.226536,8290.306550
1543.187888,766.095498,370.102971,8660.409521
1543.188206,536.266849,-444.123565,9474.636058
1543.188523,76.609550,-888.247130,10066.800811
1543.188840,153.219100,-1480.411884,10362.883188
1543.189158,153.219100,-1406.391290,10214.842000
1543.189475,536.266849,-518.144159,9474.636058
1543.189792,766.095498,222.061783,9030.512492
1543.190110,919.314598,962.267725,8216.285956
1543.190427,1149.143247,1998.556043,7698.141797
1543.190744,1378.971896,2146.597232,7105.977043
1543.191062,919.314598,1998.556043,7476.080014
1543.191379,76.609550,962.267725,8068.244768
1543.191696,-229.828649,444.123565,8438.347739
1543.192014,-459.657299,-0.000000,9326.594869
1543.192331,-689.485948,-888.247130,9918.759623
1543.192648,-766.095498,-1258.350101,10362.883188
1543.192965,-459.657299,-1184.329507,10510.924376
1543.193283,0.000000,-666.185348,9992.780217
1543.193600,0.000000,-296.082377,9178.553681
1543.193917,153.219100,222.061783,8660.409521
1543.194235,306.438199,962.267725,8364.327145
1543.194552,842.705048,1480.411884,7698.141797
1543.194869,766.095498,1332.370696,7328.038826
1543.195187,689.485948,1332.370696,7772.162391
1543.195504,766.095498,666.185348,7920.203579
1543.195821,306.438199,-0.000000,8660.409521
1543.196139,229.828649,-666.185348,9548.656652
1543.196456,76.609550,-1110.308913,9770.718434
1543.196773,536.266849,-1036.288319,10140.821405
1543.197091,766.095498,-444.123565,9918.759623
1543.197408,383.047749,222.061783,9696.697840
1543.197725,766.095498,1110.308913,9474.636058
1543.198043,689.485948,1702.473667,8660.409521
1543.198360,995.924147,2220.617826,8586.388927
1543.198677,995.924147,2220.617826,8586.388927
1543.198995,536.266849,1480.411884,8956.491898
1543.199312,459.657299,814.226536,9474.636058
1543.199629,383.047749,148.041188,9918.759623
1543.199947,153.219100,-444.123565,10436.903782
1543.200264,383.047749,-1332.370696,11547.212695
1543.200581,383.047749,-1258.350101,11473.192101
1543.200898,995.924147,-518.144159,11621.233289
1543.201216,612.876398,-74.020594,11103.089130
1543.201533,1149.143247,222.061783,10214.842000
1543.201850,1225.752797,1110.308913,9474.636058
1543.202168,2145.067394,1332.370696,9178.553681
1543.202485,1991.848295,1332.370696,8734.430116
1543.202802,1685.410096,888.247130,9030.512492
1543.203120,1608.800546,148.041188,9844.739029
1543.203437,1302.362347,-592.164754,10436.903782
1543.203754,1149.143247,-1480.411884,11251.130318
1543.204072,1225.752797,-1406.391290,11547.212695
1543.204389,995.924147,-1332.370696,11695.253884
1543.204706,1455.581446,-222.061783,11029.068536
1543.205024,1608.800546,-0.000000,10362.883188
1543.205341,1991.848295,814.226536,9696.697840
1543.205658,1532.190996,1258.350101,9178.553681
1543.205976,1378.971896,1554.432478,8660.409521
1543.206293,1149.143247,1184.329507,8660.409521
1543.206610,766.095498,592.164754,8882.471304
1543.206928,229.828649,-0.000000,9104.533087
1543.207245,0.000000,-74.020594,9252.574275
1543.207562,-383.047749,-444.123565,10288.862594
1543.207880,-536.266849,-962.267725,10362.883188
1543.208197,-229.828649,-1036.288319,10362.883188
1543.208514,-229.828649,-814.226536,10214.842000
1543.208831,76.609550,-296.082377,9622.677246
1543.209149,76.609550,370.102971,8660.409521
1543.209466,459.657299,1628.453072,7698.141797
1543.209783,919.314598,2442.679609,7476.080014
1543.210101,1225.752797,2368.659014,7031.956449
1543.210418,919.314598,1628.453072,6957.935855
1543.210735,536.266849,444.123565,7772.162391
1543.211053,306.438199,-0.000000,8512.368333
1543.211370,76.609550,-740.205942,9474.636058
1543.211687,459.657299,-1332.370696,9992.780217
1543.212005,153.219100,-1480.411884,9918.759623
1543.212322,306.438199,-814.226536,9548.656652
1543.212639,1149.143247,296.082377,9178.553681
1543.212957,1608.800546,1184.329507,8512.368333
1543.213274,1378.971896,1406.391290,7698.141797
1543.213591,1378.971896,1924.535449,7402.059420
1543.213909,1455.581446,1850.514855,7179.997637
1543.214226,1072.533697,1184.329507,7920.203579
1543.214543,766.095498,444.123565,8660.409521
1543.214861,766.095498,-296.082377,9326.594869
1543.215178,536.266849,-518.144159,9918.759623
1543.215495,459.657299,-1110.308913,10658.965565
1543.215813,306.438199,-1406.391290,10732.986159
1543.216130,842.705048,-740.205942,10584.944971
1543.216447,612.876398,-0.000000,9918.759623
1543.216764,383.047749,740.205942,9474.636058
1543.217082,459.657299,1184.329507,9400.615463
1543.217399,842.705048,1554.432478,8660.409521
1543.217716,459.657299,1702.473667,8290.306550
1543.218034,306.438199,1332.370696,8882.471304
1543.218351,459.657299,666.185348,9474.636058
1543.218668,612.876398,-148.041188,9844.739029
1543.218986,459.657299,-1036.288319,10732.986159
1543.219303,153.219100,-1702.473667,11177.109724
1543.219620,766.095498,-1702.473667,11251.130318
1543.219938,1072.533697,-1036.288319,11029.068536
1543.220255,1149.143247,-0.000000,10288.862594
1543.220572,1455.581446,592.164754,9474.636058
1543.220890,1225.752797,1036.288319,8956.491898
1543.221207,1608.800546,1406.391290,8734.430116
1543.221524,766.095498,1702.473667,8586.388927
1543.221842,995.924147,1110.308913,8882.471304
1543.222159,766.095498,-0.000000,9770.718434
1543.222476,306.438199,-222.061783,10288.862594
1543.222794,306.438199,-1184.329507,10955.047942
1543.223111,-76.609550,-1776.494261,11473.192101
1543.223428,-229.828649,-1258.350101,11621.233289
1543.223745,383.047749,-1110.308913,11177.109724
1543.224063,383.047749,-74.020594,11029.068536
1543.224380,689.485948,592.164754,10140.821405
1543.224697,995.924147,1258.350101,9252.574275
1543.225015,1302.362347,1702.473667,8956.491898
1543.225332,1378.971896,1554.432478,8660.409521
1543.225649,1455.581446,1332.370696,8290.306550
1543.225967,1762.019645,740.205942,8808.450710
1543.226284,1838.629195,222.061783,9252.574275
1543.226601,1532.190996,-444.123565,9548.656652
1543.226919,1532.190996,-1406.391290,10066.800811
1543.227236,1149.143247,-1332.370696,10288.862594
1543.227553,1302.362347,-888.247130,10140.821405
1543.227871,1225.752797,-74.020594,9400.615463
1543.228188,1532.190996,666.185348,8808.450710
1543.228505,1608.800546,1258.350101,7698.141797
