#time,accel_x,accel_y,accel_z
853.012023,2145.067394,-296.082377,5477.523971
853.012341,1991.848295,-148.041188,5773.606348
853.012660,1608.800546,592.164754,6069.688724
853.012979,1225.752797,1258.350101,6069.688724
853.013297,842.705048,1924.535449,5625.565159
853.013616,0.000000,2664.741391,5551.544565
853.013935,-306.438199,2812.782580,5329.482782
853.014253,-1149.143247,2368.659014,6217.729913
853.014572,-1225.752797,1110.308913,7624.121203
853.014891,-2145.067394,296.082377,9252.574275
853.015209,-2834.553343,-0.000000,10066.800811
853.015528,-3064.381992,-0.000000,10362.883188
853.015847,-3140.991542,666.185348,10140.821405
853.016165,-3217.601092,888.247130,9548.656652
853.016484,-3140.991542,1184.329507,9474.636058
853.016803,-2987.772442,666.185348,9326.594869
853.017122,-3140.991542,-148.041188,9770.718434
853.017440,-2911.162892,-1036.288319,11103.089130
853.017759,-2911.162892,-1554.432478,12361.439231
853.018078,-2374.896044,-2146.597232,13175.665768
853.018396,-2068.457845,-1702.473667,13471.748144
853.018715,-1532.190996,-1036.288319,13249.686362
853.019034,-842.705048,-666.185348,12435.459826
853.019352,-306.438199,-222.061783,11695.253884
853.019671,459.657299,-0.000000,11473.192101
853.019990,1149.143247,222.061783,10732.986159
853.020308,1455.581446,592.164754,10288.862594
853.020627,2374.896044,518.144159,10658.965565
853.020946,2451.505594,962.267725,10510.924376
853.021264,2451.505594,1554.432478,10436.903782
853.021583,2451.505594,2146.597232,9252.574275
853.021902,2451.505594,2072.576638,9104.533087
853.022220,2451.505594,2220.617826,9104.533087
853.022539,2451.505594,1554.432478,8586.388927
853.022858,1915.238745,1184.329507,8364.327145
853.023176,995.924147,1406.391290,9252.574275
853.023495,689.485948,1110.308913,9622.677246
853.023814,229.828649,2220.617826,9252.574275
853.024132,383.047749,3034.844362,9326.594869
853.024451,229.828649,3627.009116,8882.471304
853.024770,459.657299,4293.194464,8290.306550
853.025088,842.705048,4219.173869,7698.141797
853.025407,842.705048,3923.091493,7476.080014
853.025726,306.438199,2590.720797,7698.141797
853.026044,153.219100,1332.370696,8438.347739
853.026363,76.609550,296.082377,9178.553681
853.026682,-229.828649,-222.061783,9696.697840
853.027000,-229.828649,-0.000000,9622.677246
853.027319,-459.657299,222.061783,9622.677246
853.027638,-383.047749,222.061783,9474.636058
853.027957,-612.876398,-0.000000,9474.636058
853.028275,-1072.533697,-370.102971,9770.718434
853.028594,-842.705048,-1036.288319,9992.780217
853.028913,-1378.971896,-1480.411884,10362.883188
853.029231,-919.314598,-2220.617826,10955.047942
853.029550,-766.095498,-2812.782580,11251.130318
853.029869,-383.047749,-3256.906145,11103.089130
853.030187,0.000000,-2738.761985,10955.047942
853.030506,689.485948,-2368.659014,10584.944971
853.030825,1378.971896,-1554.432478,9992.780217
853.031143,1302.362347,-1406.391290,10214.842000
853.031462,1608.800546,-1924.535449,9622.677246
853.031781,1072.533697,-2220.617826,9622.677246
853.032099,842.705048,-1924.535449,9770.718434
853.032418,766.095498,-1776.494261,9474.636058
853.032737,306.438199,-1184.329507,9400.615463
853.033055,612.876398,-1554.432478,9400.615463
853.033374,0.000000,-1406.391290,9326.594869
853.033693,0.000000,-1258.350101,8808.450710
853.034011,0.000000,-1184.329507,8808.450710
853.034330,76.609550,-1184.329507,8586.388927
853.034649,0.000000,-592.164754,8364.327145
853.034967,0.000000,-666.185348,8290.306550
853.035286,0.000000,-518.144159,8290.306550
853.035605,-383.047749,-962.267725,8512.368333
853.035923,0.000000,-518.144159,8142.265362
853.036242,-76.609550,-74.020594,7550.100608
853.036561,-612.876398,-0.000000,7402.059420
853.036879,-306.438199,-0.000000,7476.080014
853.037198,-153.219100,-0.000000,7698.141797
853.037517,-689.485948,-148.041188,8142.265362
853.037835,-612.876398,-148.041188,8438.347739
853.038154,-536.266849,-296.082377,8882.471304
853.038473,-459.657299,-296.082377,8660.409521
853.038792,-995.924147,-814.226536,9104.533087
853.039110,-536.266849,-814.226536,8956.491898
853.039429,0.000000,-592.164754,8438.347739
853.039748,0.000000,-296.082377,8512.368333
853.040066,536.266849,-222.061783,8586.388927
853.040385,229.828649,-148.041188,8660.409521
853.040704,383.047749,-0.000000,8808.450710
853.041022,459.657299,-0.000000,8956.491898
853.041341,536.266849,370.102971,9104.533087
853.041660,995.924147,296.082377,9400.615463
853.041978,612.876398,444.123565,9326.594869
853.042297,842.705048,592.164754,9178.553681
853.042616,1072.533697,888.247130,9104.533087
853.042934,1225.752797,1406.391290,9696.697840
853.043253,842.705048,1184.329507,9400.615463
853.043572,689.485948,1554.432478,9326.594869
853.043890,459.657299,1850.514855,9474.636058
853.044209,306.438199,1850.514855,9474.636058
853.044528,76.609550,1924.535449,9400.615463
853.044846,229.828649,1998.556043,9548.656652
853.045165,229.828649,1998.556043,9474.636058
853.045484,229.828649,1850.514855,9474.636058
853.045803,76.609550,1702.473667,9622.677246
853.046121,229.828649,1332.370696,9770.718434
853.046440,-153.219100,1184.329507,9918.759623
853.046759,-612.876398,1110.308913,10066.800811
853.047077,-459.657299,1184.329507,10214.842000
853.047396,-612.876398,888.247130,10214.842000
853.047715,-689.485948,518.144159,10066.800811
853.048034,-842.705048,370.102971,10510.924376
853.048352,-842.705048,-0.000000,10584.944971
853.048671,-842.705048,-370.102971,10807.006753
853.048990,-842.705048,-592.164754,11251.130318
853.049308,-1225.752797,-962.267725,10881.027347
853.049627,-1225.752797,-1628.453072,10881.027347
853.049946,-842.705048,-1406.391290,10881.027347
853.050265,-995.924147,-1184.329507,10658.965565
853.050583,-766.095498,-1110.308913,10584.944971
853.050902,-536.266849,-1258.350101,10288.862594
853.051221,-306.438199,-1110.308913,10362.883188
853.051539,-306.438199,-1258.350101,10140.821405
853.051858,0.000000,-1110.308913,9918.759623
853.052177,0.000000,-1406.391290,9992.780217
853.052496,76.609550,-1110.308913,9770.718434
853.052814,842.705048,-888.247130,9474.636058
853.053133,1072.533697,-814.226536,9474.636058
853.053452,1072.533697,-518.144159,9030.512492
853.053770,1302.362347,-444.123565,8734.430116
853.054089,1838.629195,-0.000000,8290.306550
853.054408,2221.676944,518.144159,7846.182985
853.054727,2298.286494,370.102971,7624.121203
853.055045,2374.896044,518.144159,7476.080014
853.055364,2221.676944,148.041188,7698.141797
853.055683,2451.505594,666.185348,7550.100608
853.056001,2451.505594,222.061783,7624.121203
853.056320,2145.067394,444.123565,7550.100608
853.056639,2068.457845,518.144159,7476.080014
853.056958,1762.019645,370.102971,7328.038826
853.057276,1915.238745,518.144159,7476.080014
853.057595,1378.971896,518.144159,7624.121203
853.057914,1225.752797,370.102971,7698.141797
853.058232,995.924147,370.102971,7846.182985
853.058551,766.095498,-0.000000,7846.182985
853.058870,612.876398,-0.000000,8216.285956
853.059189,383.047749,-0.000000,8512.368333
853.059507,229.828649,-0.000000,8512.368333
853.059826,612.876398,-0.000000,8808.450710
853.060145,0.000000,-148.041188,8882.471304
853.060463,-153.219100,-148.041188,9252.574275
853.060782,-459.657299,-296.082377,9474.636058
853.061101,-383.047749,-74.020594,9548.656652
853.061420,-536.266849,-370.102971,9622.677246
853.061738,-842.705048,-74.020594,9918.759623
853.062057,-689.485948,-0.000000,10066.800811
853.062376,-612.876398,-0.000000,9992.780217
853.062694,-459.657299,296.082377,9918.759623
853.063013,-536.266849,592.164754,10214.842000
853.063332,-229.828649,888.247130,9696.697840
853.063650,0.000000,1110.308913,9844.739029
853.063969,229.828649,1332.370696,9918.759623
853.064288,76.609550,1554.432478,9770.718434
853.064607,536.266849,1998.556043,10066.800811
853.064925,536.266849,1702.473667,9844.739029
853.065244,766.095498,2072.576638,9844.739029
853.065563,919.314598,2146.597232,9844.739029
853.065881,1072.533697,1702.473667,9696.697840
853.066200,842.705048,2220.617826,9622.677246
853.066519,995.924147,2368.659014,9548.656652
853.066838,1149.143247,2368.659014,9696.697840
853.067156,1072.533697,2220.617826,9696.697840
853.067475,1378.971896,2072.576638,10140.821405
853.067794,1225.752797,1924.535449,9770.718434
853.068112,1455.581446,2146.597232,9622.677246
853.068431,1302.362347,1702.473667,9622.677246
853.068750,1455.581446,1406.391290,9548.656652
853.069069,1072.533697,1554.432478,9770.718434
853.069387,919.314598,1332.370696,9918.759623
853.069706,842.705048,1184.329507,9696.697840
853.070025,689.485948,962.267725,9696.697840
853.070343,229.828649,370.102971,9696.697840
853.070662,229.828649,592.164754,9474.636058
853.070981,0.000000,370.102971,9696.697840
853.071300,76.609550,148.041188,9622.677246
853.071618,-612.876398,-0.000000,9770.718434
853.071937,-306.438199,-222.061783,9548.656652
853.072256,-383.047749,-222.061783,9622.677246
853.072574,-229.828649,-148.041188,9474.636058
853.072893,-689.485948,-148.041188,9104.533087
853.073212,-612.876398,-296.082377,9696.697840
853.073531,-536.266849,-370.102971,9252.574275
853.073849,-536.266849,-296.082377,9030.512492
853.074168,-383.047749,-518.144159,8882.471304
853.074487,-842.705048,-370.102971,8734.430116
853.074805,-536.266849,-592.164754,8882.471304
853.075124,-153.219100,-518.144159,8512.368333
853.075443,-153.219100,-740.205942,8586.388927
853.075762,76.609550,-814.226536,8438.347739
853.076080,0.000000,-666.185348,8438.347739
853.076399,0.000000,-888.247130,8438.347739
853.076718,153.219100,-592.164754,8364.327145
853.077036,383.047749,-592.164754,8216.285956
853.077355,536.266849,-592.164754,8068.244768
853.077674,689.485948,-666.185348,8290.306550
853.077993,612.876398,-666.185348,8364.327145
853.078311,689.485948,-888.247130,8438.347739
853.078630,766.095498,-962.267725,8364.327145
853.078949,919.314598,-888.247130,8438.347739
853.079267,842.705048,-814.226536,8808.450710
853.079586,1455.581446,-814.226536,8438.347739
853.079905,1072.533697,-888.247130,8734.430116
853.080224,919.314598,-518.144159,8734.430116
853.080542,1532.190996,-370.102971,8882.471304
853.080861,1532.190996,-296.082377,9030.512492
853.081180,1072.533697,-0.000000,9104.533087
853.081498,1455.581446,-0.000000,8734.430116
853.081817,1378.971896,296.082377,8882.471304
853.082136,1608.800546,518.144159,9030.512492
853.082455,1608.800546,888.247130,9104.533087
853.082773,1532.190996,1258.350101,9104.533087
853.083092,1532.190996,1480.411884,8882.471304
853.083411,1762.019645,1776.494261,8956.491898
853.083729,1608.800546,1924.535449,9030.512492
853.084048,1378.971896,2368.659014,8882.471304
853.084367,1072.533697,2368.659014,9104.533087
853.084685,1532.190996,2664.741391,9178.553681
853.085004,1378.971896,2886.803174,9178.553681
853.085323,1762.019645,3034.844362,9474.636058
853.085642,1225.752797,3108.864956,9474.636058
853.085960,1072.533697,3330.926739,9400.615463
853.086279,1072.533697,3256.906145,9474.636058
853.086598,995.924147,3330.926739,9474.636058
853.086916,842.705048,3330.926739,9548.656652
853.087235,459.657299,3182.885551,9918.759623
853.087554,536.266849,3478.967927,10066.800811
853.087873,459.657299,3034.844362,10214.842000
853.088191,383.047749,3108.864956,10140.821405
853.088510,383.047749,2886.803174,10288.862594
853.088829,306.438199,2516.700203,10140.821405
853.089147,0.000000,2442.679609,10510.924376
853.089466,76.609550,2146.597232,10584.944971
853.089785,76.609550,2220.617826,10584.944971
853.090104,-153.219100,1628.453072,10807.006753
853.090422,306.438199,1258.350101,10732.986159
853.090741,-153.219100,962.267725,10881.027347
853.091060,0.000000,888.247130,11029.068536
853.091378,306.438199,592.164754,10584.944971
853.091697,0.000000,370.102971,10881.027347
853.092016,76.609550,148.041188,10881.027347
853.092335,306.438199,-0.000000,10658.965565
853.092653,76.609550,-222.061783,10436.903782
853.092972,306.438199,-444.123565,10288.862594
853.093291,612.876398,-148.041188,10066.800811
853.093609,306.438199,-518.144159,9918.759623
853.093928,383.047749,-518.144159,9622.677246
853.094247,536.266849,-814.226536,9474.636058
853.094566,766.095498,-518.144159,9400.615463
853.094884,612.876398,-518.144159,9178.553681
853.095203,919.314598,-518.144159,8956.491898
853.095522,919.314598,-666.185348,8808.450710
853.095840,842.705048,-592.164754,8290.306550
853.096159,1149.143247,-370.102971,8364.327145
853.096478,1072.533697,-370.102971,8142.265362
853.096797,995.924147,-370.102971,8142.265362
853.097115,1378.971896,-518.144159,7698.141797
853.097434,842.705048,-666.185348,7476.080014
853.097753,995.924147,-666.185348,7402.059420
853.098071,766.095498,-592.164754,7550.100608
853.098390,612.876398,-740.205942,7179.997637
853.098709,689.485948,-666.185348,7328.038826
853.099028,306.438199,-592.164754,7179.997637
853.099346,459.657299,-518.144159,7402.059420
853.099665,306.438199,-518.144159,7328.038826
853.099984,306.438199,-518.144159,7402.059420
853.100302,383.047749,-592.164754,7772.162391
853.100621,0.000000,-814.226536,7772.162391
853.100940,0.000000,-962.267725,7920.203579
853.101259,0.000000,-888.247130,7846.182985
853.101577,0.000000,-1332.370696,8142.265362
853.101896,-153.219100,-666.185348,8216.285956
853.102215,-229.828649,-444.123565,8438.347739
853.102533,-229.828649,-592.164754,8364.327145
853.102852,-153.219100,-444.123565,8586.388927
853.103171,-229.828649,-444.123565,8882.471304
853.103489,0.000000,-444.123565,9252.574275
853.103808,-306.438199,-518.144159,9178.553681
853.104127,-153.219100,-222.061783,9474.636058
853.104446,0.000000,-148.041188,9400.615463
853.104764,306.438199,-0.000000,9178.553681
853.105083,153.219100,370.102971,9474.636058
853.105402,76.609550,518.144159,9548.656652
853.105720,153.219100,518.144159,9474.636058
853.106039,229.828649,518.144159,9696.697840
853.106358,995.924147,962.267725,9844.739029
853.106677,766.095498,1110.308913,9696.697840
853.106995,306.438199,1036.288319,10140.821405
853.107314,766.095498,1258.350101,9918.759623
853.107633,612.876398,1258.350101,10066.800811
853.107951,919.314598,1480.411884,10288.862594
853.108270,842.705048,1406.391290,10066.800811
853.108589,1149.143247,1702.473667,10066.800811
853.108908,842.705048,1628.453072,10362.883188
853.109226,995.924147,1332.370696,10362.883188
853.109545,1302.362347,1628.453072,10214.842000
853.109864,919.314598,1850.514855,10436.903782
853.110182,766.095498,1628.453072,10362.883188
853.110501,995.924147,1480.411884,10214.842000
853.110820,1149.143247,1850.514855,10066.800811
853.111139,1149.143247,1850.514855,10066.800811
853.111457,995.924147,1702.473667,10140.821405
853.111776,919.314598,1702.473667,10066.800811
853.112095,919.314598,1628.453072,10362.883188
853.112413,1149.143247,1480.411884,9918.759623
853.112732,1072.533697,1850.514855,10066.800811
853.113051,459.657299,1184.329507,9918.759623
853.113370,612.876398,1332.370696,9770.718434
853.113688,536.266849,1554.432478,9696.697840
853.114007,919.314598,1184.329507,9696.697840
853.114326,536.266849,1332.370696,9474.636058
853.114644,612.876398,1184.329507,9474.636058
853.114963,153.219100,1036.288319,9474.636058
853.115282,229.828649,962.267725,9326.594869
853.115601,0.000000,666.185348,9474.636058
853.115919,306.438199,814.226536,9326.594869
853.116238,0.000000,370.102971,9326.594869
853.116557,0.000000,-0.000000,9030.512492
853.116875,-153.219100,296.082377,8660.409521
853.117194,76.609550,-0.000000,8882.471304
853.117513,76.609550,-74.020594,8882.471304
853.117832,0.000000,-222.061783,8882.471304
853.118150,0.000000,-370.102971,8956.491898
853.118469,153.219100,-666.185348,8808.450710
853.118788,0.000000,-666.185348,9030.512492
853.119106,0.000000,-962.267725,8808.450710
853.119425,153.219100,-1110.308913,8882.471304
853.119744,153.219100,-1332.370696,8734.430116
853.120063,383.047749,-1406.391290,8808.450710
853.120381,76.609550,-1406.391290,8882.471304
853.120700,76.609550,-1554.432478,8808.450710
853.121019,153.219100,-1702.473667,8882.471304
853.121337,842.705048,-1850.514855,8734.430116
853.121656,153.219100,-1702.473667,8882.471304
853.121975,153.219100,-1628.453072,8734.430116
853.122294,0.000000,-1850.514855,8734.430116
853.122612,76.609550,-1628.453072,8660.409521
853.122931,612.876398,-1850.514855,8734.430116
853.123250,383.047749,-1554.432478,8882.471304
853.123568,306.438199,-1258.350101,8734.430116
853.123887,383.047749,-1036.288319,8512.368333
853.124206,536.266849,-1036.288319,8512.368333
853.124524,383.047749,-666.185348,8512.368333
853.124843,229.828649,-518.144159,8512.368333
853.125162,459.657299,-148.041188,8586.388927
853.125481,306.438199,-74.020594,8438.347739
853.125799,536.266849,-370.102971,8438.347739
853.126118,0.000000,296.082377,8586.388927
853.126437,229.828649,370.102971,8438.347739
853.126755,76.609550,666.185348,8586.388927
853.127074,383.047749,888.247130,8438.347739
853.127393,383.047749,1110.308913,8512.368333
853.127712,0.000000,1036.288319,8512.368333
853.128030,76.609550,814.226536,8660.409521
853.128349,153.219100,1258.350101,8734.430116
853.128668,229.828649,1184.329507,8956.491898
853.128986,-229.828649,1258.350101,9104.533087
853.129305,153.219100,1258.350101,9104.533087
853.129624,0.000000,1258.350101,9474.636058
853.129943,0.000000,1110.308913,9474.636058
853.130261,229.828649,814.226536,9844.739029
853.130580,0.000000,962.267725,9622.677246
853.130899,0.000000,1110.308913,9844.739029
853.131217,0.000000,1036.288319,9918.759623
853.131536,0.000000,740.205942,10140.821405
853.131855,0.000000,814.226536,10510.924376
853.132174,0.000000,444.123565,10436.903782
853.132492,0.000000,296.082377,10362.883188
853.132811,-383.047749,-0.000000,10288.862594
853.133130,0.000000,296.082377,10436.903782
853.133448,0.000000,-0.000000,10807.006753
853.133767,76.609550,-0.000000,10510.924376
853.134086,76.609550,-0.000000,10510.924376
853.134405,229.828649,222.061783,10436.903782
853.134723,0.000000,-296.082377,10140.821405
853.135042,306.438199,-518.144159,10214.842000
853.135361,229.828649,-148.041188,9992.780217
853.135679,459.657299,-0.000000,10066.800811
853.135998,459.657299,-0.000000,9992.780217
853.136317,766.095498,-0.000000,9992.780217
853.136636,612.876398,-0.000000,9696.697840
853.136954,536.266849,-0.000000,9474.636058
853.137273,536.266849,-0.000000,9474.636058
853.137592,612.876398,-0.000000,9474.636058
853.137910,842.705048,370.102971,9252.574275
853.138229,612.876398,-0.000000,8808.450710
853.138548,842.705048,-0.000000,9178.553681
853.138867,536.266849,74.020594,8882.471304
853.139185,1072.533697,148.041188,8882.471304
853.139504,842.705048,-0.000000,9104.533087
853.139823,842.705048,-0.000000,8586.388927
853.140141,1149.143247,296.082377,8364.327145
853.140460,1072.533697,222.061783,8290.306550
853.140779,1225.752797,370.102971,8068.244768
853.141098,612.876398,296.082377,7994.224174
853.141416,919.314598,444.123565,8142.265362
853.141735,1072.533697,296.082377,8142.265362
853.142054,766.095498,222.061783,7920.203579
853.142372,842.705048,-0.000000,8142.265362
853.142691,689.485948,222.061783,8216.285956
853.143010,612.876398,74.020594,8216.285956
853.143328,766.095498,222.061783,8290.306550
853.143647,536.266849,-0.000000,8364.327145
853.143966,689.485948,-148.041188,8068.244768
853.144285,536.266849,-0.000000,8438.347739
853.144603,229.828649,-0.000000,8660.409521
853.144922,306.438199,-0.000000,8808.450710
853.145241,229.828649,222.061783,8660.409521
853.145559,0.000000,-74.020594,8660.409521
853.145878,153.219100,-0.000000,8956.491898
853.146197,383.047749,222.061783,9030.512492
853.146516,306.438199,222.061783,9326.594869
853.146834,306.438199,148.041188,9104.533087
853.147153,306.438199,-0.000000,9400.615463
853.147472,306.438199,148.041188,9400.615463
853.147790,459.657299,370.102971,9696.697840
853.148109,306.438199,518.144159,9474.636058
853.148428,766.095498,666.185348,9548.656652
853.148747,153.219100,444.123565,9770.718434
853.149065,229.828649,518.144159,9770.718434
853.149384,536.266849,222.061783,9770.718434
853.149703,536.266849,666.185348,9844.739029
853.150022,612.876398,666.185348,10066.800811
853.150341,612.876398,814.226536,9992.780217
853.150660,459.657299,740.205942,9992.780217
853.150979,459.657299,962.267725,10140.821405
853.151298,1149.143247,1110.308913,9622.677246
853.151617,612.876398,814.226536,9992.780217
853.151935,612.876398,888.247130,10140.821405
853.152254,842.705048,888.247130,10140.821405
853.152573,689.485948,962.267725,9844.739029
853.152892,766.095498,1184.329507,9696.697840
853.153211,842.705048,888.247130,9696.697840
853.153530,612.876398,1258.350101,9696.697840
853.153849,612.876398,1184.329507,9622.677246
853.154168,612.876398,962.267725,9622.677246
853.154487,689.485948,1110.308913,9474.636058
853.154806,459.657299,1110.308913,9474.636058
853.155124,459.657299,1332.370696,9474.636058
853.155443,383.047749,1110.308913,9252.574275
853.155762,153.219100,1110.308913,9400.615463
853.156081,459.657299,1110.308913,9326.594869
853.156400,229.828649,1110.308913,9400.615463
853.156719,76.609550,1036.288319,9104.533087
853.157038,229.828649,888.247130,9030.512492
853.157357,306.438199,1036.288319,9030.512492
853.157676,153.219100,1184.329507,9326.594869
853.157995,229.828649,666.185348,8808.450710
853.158313,383.047749,740.205942,8956.491898
853.158632,0.000000,444.123565,9030.512492
853.158951,-153.219100,370.102971,9104.533087
853.159270,0.000000,148.041188,8882.471304
853.159589,0.000000,-0.000000,9104.533087
853.159908,0.000000,-0.000000,8882.471304
853.160227,153.219100,-0.000000,9104.533087
853.160546,383.047749,-370.102971,8956.491898
853.160865,76.609550,-592.164754,8956.491898
853.161184,229.828649,-370.102971,9030.512492
853.161503,306.438199,-592.164754,8882.471304
853.161821,306.438199,-666.185348,8956.491898
853.162140,1072.533697,-444.123565,9030.512492
853.162459,383.047749,-814.226536,8882.471304
853.162778,612.876398,-814.226536,8956.491898
853.163097,459.657299,-888.247130,9030.512492
853.163416,689.485948,-888.247130,8808.450710
853.163735,612.876398,-1110.308913,8660.409521
853.164054,995.924147,-888.247130,8956.491898
853.164373,689.485948,-814.226536,8882.471304
853.164692,842.705048,-740.205942,9030.512492
853.165010,842.705048,-518.144159,9030.512492
853.165329,842.705048,-370.102971,8734.430116
853.165648,919.314598,-148.041188,8956.491898
853.165967,1072.533697,-222.061783,8808.450710
853.166286,995.924147,-0.000000,8882.471304
853.166605,766.095498,222.061783,8882.471304
853.166924,1608.800546,296.082377,8808.450710
853.167243,1532.190996,814.226536,8586.388927
853.167562,1302.362347,814.226536,8734.430116
853.167881,1225.752797,1036.288319,8734.430116
853.168199,1149.143247,1036.288319,8808.450710
853.168518,1225.752797,1258.350101,8586.388927
853.168837,1149.143247,1480.411884,8882.471304
853.169156,1225.752797,1628.453072,8882.471304
853.169475,1149.143247,1702.473667,8882.471304
853.169794,1532.190996,1554.432478,8660.409521
853.170113,919.314598,1776.494261,9178.553681
853.170432,1149.143247,1998.556043,9252.574275
853.170751,612.876398,1998.556043,9326.594869
853.171070,689.485948,2072.576638,9326.594869
853.171389,842.705048,2146.597232,9474.636058
853.171707,842.705048,2072.576638,9474.636058
853.172026,612.876398,2146.597232,9548.656652
853.172345,536.266849,2072.576638,9474.636058
853.172664,459.657299,1924.535449,9622.677246
853.172983,459.657299,2220.617826,9770.718434
853.173302,383.047749,1998.556043,9770.718434
853.173621,0.000000,1702.473667,9992.780217
853.173940,459.657299,1924.535449,9696.697840
853.174259,306.438199,1628.453072,10288.862594
853.174578,76.609550,1480.411884,10066.800811
853.174896,0.000000,1406.391290,10436.903782
853.175215,76.609550,1258.350101,10214.842000
853.175534,76.609550,1036.288319,10510.924376
853.175853,153.219100,1110.308913,10362.883188
853.176172,229.828649,888.247130,10288.862594
853.176491,612.876398,1036.288319,10140.821405
853.176810,306.438199,814.226536,10066.800811
853.177129,153.219100,888.247130,9992.780217
853.177448,612.876398,592.164754,10214.842000
853.177767,306.438199,592.164754,10066.800811
853.178085,383.047749,444.123565,9844.739029
853.178404,459.657299,370.102971,9844.739029
853.178723,689.485948,-0.000000,9844.739029
853.179042,689.485948,296.082377,9770.718434
853.179361,536.266849,-0.000000,9474.636058
853.179680,612.876398,222.061783,9474.636058
853.179999,459.657299,-148.041188,9030.512492
853.180318,766.095498,-74.020594,9030.512492
853.180637,689.485948,-74.020594,8956.491898
853.180956,612.876398,-222.061783,8956.491898
853.181274,536.266849,-222.061783,8808.450710
853.181593,536.266849,-74.020594,8660.409521
853.181912,536.266849,-0.000000,8734.430116
853.182231,612.876398,-296.082377,8438.347739
853.182550,383.047749,-370.102971,8512.368333
853.182869,306.438199,-148.041188,8438.347739
853.183188,612.876398,-296.082377,7698.141797
853.183507,306.438199,-222.061783,8290.306550
853.183826,229.828649,-370.102971,8290.306550
853.184145,306.438199,-222.061783,8290.306550
853.184464,229.828649,-148.041188,8438.347739
853.184782,0.000000,-222.061783,8216.285956
853.185101,76.609550,-74.020594,8216.285956
853.185420,0.000000,-222.061783,8142.265362
853.185739,0.000000,-296.082377,8364.327145
853.186058,306.438199,-444.123565,8142.265362
853.186377,153.219100,-222.061783,8290.306550
853.186696,0.000000,-370.102971,8512.368333
853.187015,76.609550,-148.041188,8512.368333
853.187334,0.000000,-0.000000,8734.430116
853.187653,76.609550,-296.082377,8586.388927
853.187971,0.000000,-0.000000,8734.430116
853.188290,76.609550,-0.000000,8882.471304
853.188609,76.609550,-0.000000,8882.471304
853.188928,153.219100,-0.000000,8956.491898
853.189247,919.314598,-0.000000,9178.553681
853.189566,306.438199,-0.000000,9252.574275
853.189885,153.219100,-0.000000,9252.574275
853.190204,306.438199,222.061783,9400.615463
853.190523,306.438199,-0.000000,9326.594869
853.190842,153.219100,-0.000000,9474.636058
853.191160,459.657299,222.061783,9474.636058
853.191479,536.266849,296.082377,9474.636058
853.191798,536.266849,444.123565,9622.677246
853.192117,536.266849,-0.000000,9622.677246
853.192436,842.705048,-74.020594,9844.739029
853.192755,383.047749,296.082377,9918.759623
853.193074,459.657299,666.185348,9918.759623
853.193393,383.047749,666.185348,9918.759623
853.193712,1378.971896,740.205942,10066.800811
853.194031,536.266849,740.205942,9918.759623
853.194349,919.314598,666.185348,9992.780217
853.194668,612.876398,888.247130,9844.739029
853.194987,689.485948,888.247130,9844.739029
853.195306,766.095498,1110.308913,9918.759623
853.195625,995.924147,888.247130,9844.739029
853.195944,1072.533697,1332.370696,9474.636058
853.196263,919.314598,1184.329507,9770.718434
853.196582,919.314598,1480.411884,9696.697840
853.196901,1225.752797,1406.391290,9844.739029
853.197220,842.705048,1332.370696,9474.636058
853.197539,766.095498,1332.370696,9474.636058
853.197857,612.876398,1406.391290,9474.636058
853.198176,689.485948,1480.411884,9400.615463
853.198495,1072.533697,1036.288319,9326.594869
853.198814,459.657299,1110.308913,9400.615463
853.199133,306.438199,1406.391290,9178.553681
853.199452,229.828649,1184.329507,9252.574275
853.199771,383.047749,1036.288319,9104.533087
853.200090,229.828649,1184.329507,9548.656652
853.200409,306.438199,1110.308913,9178.553681
853.200728,153.219100,814.226536,9326.594869
853.201046,153.219100,740.205942,9178.553681
853.201365,-306.438199,444.123565,9252.574275
853.201684,0.000000,444.123565,8956.491898
853.202003,0.000000,222.061783,9178.553681
853.202322,229.828649,296.082377,8956.491898
853.202641,0.000000,222.061783,8956.491898
853.202960,76.609550,-0.000000,9252.574275
853.203279,306.438199,-148.041188,9252.574275
853.203598,153.219100,-296.082377,9178.553681
853.203917,153.219100,-518.144159,9178.553681
853.204235,229.828649,-518.144159,9178.553681
853.204554,153.219100,-740.205942,9030.512492
853.204873,153.219100,-962.267725,9104.533087
853.205192,536.266849,-592.164754,9252.574275
853.205511,229.828649,-888.247130,9030.512492
853.205830,306.438199,-814.226536,8956.491898
853.206149,459.657299,-888.247130,9178.553681
853.206468,612.876398,-1184.329507,9178.553681
853.206787,536.266849,-888.247130,9104.533087
853.207106,612.876398,-814.226536,8882.471304
853.207425,689.485948,-740.205942,9252.574275
853.207743,842.705048,-814.226536,8956.491898
853.208062,383.047749,-740.205942,9104.533087
853.208381,842.705048,-444.123565,8882.471304
853.208700,459.657299,-592.164754,8808.450710
853.209019,536.266849,-296.082377,8808.450710
853.209338,689.485948,-148.041188,8586.388927
853.209657,689.485948,-148.041188,8586.388927
853.209976,383.047749,-0.000000,8734.430116
853.210295,612.876398,-0.000000,8882.471304
853.210614,536.266849,296.082377,8734.430116
853.210932,612.876398,222.061783,8734.430116
853.211251,459.657299,370.102971,8808.450710
853.211570,229.828649,814.226536,8956.491898
853.211889,766.095498,518.144159,8586.388927
853.212208,153.219100,518.144159,8808.450710
853.212527,383.047749,592.164754,8956.491898
853.212846,0.000000,888.247130,9104.533087
853.213165,0.000000,888.247130,9104.533087
853.213484,0.000000,888.247130,9178.553681
853.213803,0.000000,666.185348,9030.512492
853.214121,0.000000,888.247130,9326.594869
853.214440,0.000000,740.205942,9252.574275
853.214759,0.000000,740.205942,9030.512492
853.215078,153.219100,592.164754,9474.636058
853.215397,0.000000,740.205942,9770.718434
853.215716,-612.876398,518.144159,9474.636058
853.216035,-383.047749,444.123565,9918.759623
853.216354,-536.266849,296.082377,10066.800811
853.216673,-306.438199,518.144159,9770.718434
853.216992,-229.828649,370.102971,9844.739029
853.217310,-153.219100,370.102971,9770.718434
853.217629,-153.219100,222.061783,9696.697840
853.217948,-229.828649,296.082377,9622.677246
853.218267,0.000000,222.061783,9992.780217
853.218586,0.000000,-0.000000,9992.780217
853.218905,76.609550,-0.000000,9918.759623
853.219224,459.657299,-0.000000,9844.739029
853.219543,612.876398,-0.000000,9918.759623
853.219862,919.314598,-0.000000,9770.718434
853.220181,689.485948,-0.000000,9622.677246
853.220500,689.485948,-0.000000,9474.636058
853.220818,1302.362347,-0.000000,9622.677246
853.221137,383.047749,-148.041188,9474.636058
853.221456,919.314598,-0.000000,9474.636058
853.221775,689.485948,-296.082377,9622.677246
853.222094,766.095498,74.020594,9474.636058
853.222413,919.314598,-0.000000,9400.615463
853.222732,1072.533697,-0.000000,9178.553681
853.223051,919.314598,-0.000000,9030.512492
853.223370,919.314598,74.020594,8956.491898
853.223689,1302.362347,296.082377,8956.491898
853.224007,1149.143247,222.061783,8808.450710
853.224326,1302.362347,296.082377,8956.491898
853.224645,1072.533697,74.020594,8512.368333
853.224964,1302.362347,444.123565,8586.388927
853.225283,995.924147,370.102971,8586.388927
853.225602,766.095498,370.102971,8734.430116
853.225921,919.314598,592.164754,8438.347739
853.226240,842.705048,518.144159,8512.368333
853.226559,995.924147,740.205942,8586.388927
853.226878,1072.533697,666.185348,8364.327145
853.227196,689.485948,740.205942,8290.306550
853.227515,459.657299,740.205942,8290.306550
853.227834,306.438199,518.144159,8808.450710
853.228153,536.266849,518.144159,8586.388927
853.228472,383.047749,740.205942,8660.409521
853.228791,459.657299,666.185348,8734.430116
853.229110,306.438199,740.205942,8734.430116
853.229429,383.047749,740.205942,8734.430116
853.229748,689.485948,740.205942,8808.450710
853.230067,536.266849,592.164754,9178.553681
853.230385,536.266849,740.205942,9104.533087
853.230704,76.609550,296.082377,9178.553681
853.231023,0.000000,592.164754,9178.553681
853.231342,306.438199,444.123565,9326.594869
853.231661,153.219100,222.061783,9474.636058
853.231980,153.219100,296.082377,9474.636058
853.232299,306.438199,370.102971,9622.677246
853.232618,229.828649,222.061783,9622.677246
853.232937,229.828649,148.041188,9622.677246
853.233256,383.047749,-148.041188,9770.718434
853.233575,229.828649,222.061783,9992.780217
853.233893,383.047749,-0.000000,9844.739029
853.234212,536.266849,148.041188,9992.780217
853.234531,919.314598,592.164754,10436.903782
853.234850,459.657299,296.082377,9696.697840
853.235169,459.657299,222.061783,9918.759623
853.235488,689.485948,-0.000000,9844.739029
853.235807,842.705048,444.123565,9844.739029
853.236126,612.876398,296.082377,9622.677246
853.236445,306.438199,222.061783,10066.800811
853.236764,842.705048,296.082377,9844.739029
853.237082,766.095498,444.123565,9844.739029
853.237401,919.314598,370.102971,9622.677246
853.237720,536.266849,666.185348,9548.656652
853.238039,536.266849,814.226536,9548.656652
853.238358,612.876398,592.164754,9474.636058
853.238677,536.266849,666.185348,9474.636058
853.238996,536.266849,888.247130,9400.615463
853.239315,612.876398,888.247130,9326.594869
853.239634,689.485948,888.247130,9178.553681
853.239953,229.828649,1036.288319,9252.574275
853.240271,229.828649,1110.308913,8956.491898
853.240590,919.314598,814.226536,8956.491898
853.240909,153.219100,888.247130,9104.533087
853.241228,229.828649,814.226536,8882.471304
853.241547,76.609550,888.247130,8956.491898
853.241866,229.828649,740.205942,8882.471304
853.242185,153.219100,740.205942,8882.471304
853.242504,76.609550,740.205942,9030.512492
853.242823,76.609550,518.144159,8882.471304
853.243142,0.000000,518.144159,9030.512492
853.243461,229.828649,444.123565,9030.512492
853.243779,0.000000,222.061783,8882.471304
853.244098,0.000000,370.102971,8956.491898
853.244417,0.000000,370.102971,9030.512492
853.244736,153.219100,-0.000000,8956.491898
853.245055,0.000000,-222.061783,8882.471304
853.245374,229.828649,-74.020594,9104.533087
853.245693,0.000000,-74.020594,9326.594869
853.246012,153.219100,-222.061783,9252.574275
853.246331,306.438199,-74.020594,9104.533087
853.246650,0.000000,-296.082377,9252.574275
853.246968,229.828649,-370.102971,9326.594869
853.247287,766.095498,-148.041188,8956.491898
853.247606,383.047749,-222.061783,9252.574275
853.247925,306.438199,-370.102971,9252.574275
853.248244,459.657299,-296.082377,9474.636058
853.248563,842.705048,-222.061783,9178.553681
853.248882,842.705048,-0.000000,9252.574275
853.249201,689.485948,-0.000000,9252.574275
853.249520,766.095498,-0.000000,9252.574275
853.249839,689.485948,-148.041188,9104.533087
853.250158,459.657299,-0.000000,9252.574275
853.250477,919.314598,-0.000000,9104.533087
853.250796,919.314598,222.061783,9178.553681
853.251115,766.095498,444.123565,9474.636058
853.251434,842.705048,370.102971,9252.574275
853.251753,995.924147,518.144159,9104.533087
853.252071,1072.533697,592.164754,9030.512492
853.252390,995.924147,592.164754,8956.491898
853.252709,689.485948,740.205942,9178.553681
853.253028,842.705048,1110.308913,9104.533087
853.253347,995.924147,814.226536,8808.450710
853.253666,1072.533697,1184.329507,8734.430116
853.253985,1149.143247,1110.308913,8808.450710
853.254304,1149.143247,1258.350101,8882.471304
853.254623,766.095498,1480.411884,8956.491898
853.254942,919.314598,1480.411884,9178.553681
853.255261,919.314598,1480.411884,9178.553681
853.255580,766.095498,1702.473667,8882.471304
853.255899,1072.533697,1628.453072,9400.615463
853.256218,689.485948,1480.411884,9474.636058
853.256537,459.657299,1406.391290,9178.553681
853.256856,536.266849,1554.432478,9400.615463
853.257175,612.876398,1332.370696,9104.533087
853.257494,383.047749,1258.350101,9474.636058
853.257813,459.657299,1332.370696,9474.636058
853.258131,153.219100,1332.370696,9474.636058
853.258450,229.828649,1258.350101,9474.636058
853.258769,0.000000,1184.329507,9770.718434
853.259088,0.000000,1110.308913,9622.677246
853.259407,306.438199,1036.288319,9548.656652
853.259726,153.219100,740.205942,9622.677246
853.260045,-153.219100,962.267725,9770.718434
853.260364,153.219100,666.185348,9622.677246
853.260683,0.000000,592.164754,9770.718434
853.261002,229.828649,518.144159,9770.718434
853.261321,229.828649,740.205942,9770.718434
853.261640,229.828649,444.123565,9622.677246
853.261959,76.609550,296.082377,9622.677246
853.262278,229.828649,444.123565,9696.697840
853.262597,383.047749,-148.041188,9474.636058
853.262916,459.657299,-0.000000,9770.718434
853.263235,689.485948,-0.000000,9548.656652
853.263554,612.876398,148.041188,9400.615463
853.263873,612.876398,148.041188,9400.615463
853.264191,536.266849,-0.000000,9474.636058
853.264510,306.438199,-0.000000,9622.677246
853.264829,612.876398,-0.000000,9104.533087
853.265148,842.705048,-0.000000,9178.553681
853.265467,919.314598,222.061783,9104.533087
853.265786,1225.752797,-0.000000,9252.574275
853.266105,536.266849,-222.061783,9104.533087
853.266424,919.314598,-74.020594,8734.430116
853.266743,919.314598,-0.000000,8882.471304
853.267062,612.876398,222.061783,8660.409521
853.267381,536.266849,222.061783,8586.388927
853.267700,689.485948,444.123565,8734.430116
853.268019,536.266849,444.123565,8512.368333
853.268338,612.876398,370.102971,8512.368333
853.268657,536.266849,222.061783,8364.327145
853.268976,306.438199,-0.000000,8512.368333
853.269295,536.266849,-0.000000,8586.388927
853.269614,306.438199,518.144159,8586.388927
853.269933,0.000000,296.082377,8882.471304
853.270251,0.000000,296.082377,8586.388927
853.270570,0.000000,370.102971,8734.430116
853.270889,76.609550,222.061783,8586.388927
853.271208,-153.219100,518.144159,8882.471304
853.271527,-153.219100,-0.000000,8734.430116
853.271846,-153.219100,-0.000000,8734.430116
853.272165,-153.219100,444.123565,8956.491898
853.272484,-383.047749,-0.000000,8882.471304
853.272803,-229.828649,-0.000000,8956.491898
853.273122,0.000000,-0.000000,9326.594869
853.273441,0.000000,-0.000000,9326.594869
853.273760,0.000000,-0.000000,9252.574275
853.274079,-306.438199,-0.000000,9178.553681
853.274398,-153.219100,-0.000000,9474.636058
853.274717,-153.219100,-0.000000,9622.677246
853.275036,0.000000,-74.020594,9474.636058
853.275355,153.219100,148.041188,9918.759623
853.275674,383.047749,-370.102971,9326.594869
853.275993,229.828649,-74.020594,9474.636058
853.276311,153.219100,-0.000000,9992.780217
853.276630,459.657299,-0.000000,9696.697840
853.276949,383.047749,-0.000000,9548.656652
853.277268,459.657299,-0.000000,9696.697840
853.277587,536.266849,-0.000000,9770.718434
853.277906,995.924147,-0.000000,9548.656652
853.278225,689.485948,222.061783,9548.656652
853.278544,766.095498,222.061783,9622.677246
853.278863,383.047749,296.082377,9844.739029
853.279182,842.705048,296.082377,9770.718434
853.279501,612.876398,518.144159,9844.739029
853.279820,689.485948,740.205942,9696.697840
853.280139,1149.143247,592.164754,9474.636058
853.280458,1072.533697,814.226536,9326.594869
853.280777,919.314598,814.226536,9400.615463
853.281096,919.314598,1110.308913,9326.594869
853.281415,919.314598,1184.329507,9400.615463
853.281734,766.095498,1258.350101,8882.471304
853.282053,1149.143247,1258.350101,9030.512492
853.282371,766.095498,1184.329507,9104.533087
853.282690,689.485948,1628.453072,8956.491898
853.283009,1072.533697,1184.329507,9030.512492
853.283328,1149.143247,1850.514855,9252.574275
853.283647,459.657299,1332.370696,9104.533087
853.283966,383.047749,1258.350101,8734.430116
853.284285,383.047749,1332.370696,9104.533087
853.284604,1225.752797,1036.288319,9326.594869
853.284923,612.876398,1702.473667,9622.677246
853.285242,459.657299,740.205942,9326.594869
853.285561,229.828649,1406.391290,8882.471304
853.285880,229.828649,1184.329507,9326.594869
853.286199,153.219100,888.247130,8956.491898
853.286518,306.438199,888.247130,9474.636058
853.286837,306.438199,814.226536,9030.512492
853.287156,229.828649,592.164754,9252.574275
853.287475,76.609550,370.102971,9252.574275
853.287794,459.657299,-148.041188,9326.594869
853.288113,153.219100,-0.000000,9622.677246
853.288431,0.000000,-518.144159,9548.656652
853.288750,459.657299,-222.061783,9326.594869
853.289069,153.219100,-444.123565,9548.656652
853.289388,306.438199,-666.185348,9548.656652
853.289707,306.438199,-296.082377,9474.636058
853.290026,383.047749,-370.102971,9474.636058
853.290345,459.657299,-370.102971,9252.574275
853.290664,612.876398,-296.082377,9252.574275
853.290983,689.485948,-592.164754,9178.553681
853.291302,229.828649,-666.185348,9548.656652
853.291621,612.876398,-592.164754,9252.574275
853.291940,536.266849,-888.247130,9474.636058
853.292259,306.438199,-518.144159,9326.594869
853.292578,459.657299,-518.144159,9326.594869
853.292897,689.485948,-444.123565,9178.553681
853.293216,536.266849,-518.144159,9178.553681
853.293535,612.876398,-444.123565,9030.512492
853.293854,306.438199,-222.061783,9252.574275
853.294173,459.657299,-0.000000,9252.574275
853.294491,229.828649,-74.020594,8956.491898
853.294810,459.657299,-74.020594,8956.491898
853.295129,383.047749,-0.000000,8808.450710
853.295448,153.219100,370.102971,8882.471304
853.295767,153.219100,222.061783,8808.450710
853.296086,153.219100,222.061783,8586.388927
853.296405,459.657299,296.082377,8734.430116
853.296724,383.047749,592.164754,8734.430116
853.297043,306.438199,666.185348,8882.471304
853.297362,612.876398,444.123565,8512.368333
853.297681,0.000000,592.164754,8882.471304
853.298000,229.828649,370.102971,9030.512492
853.298319,229.828649,592.164754,8882.471304
853.298638,153.219100,518.144159,9252.574275
853.298957,153.219100,444.123565,9178.553681
853.299276,76.609550,666.185348,9252.574275
853.299595,0.000000,666.185348,8660.409521
853.299914,306.438199,296.082377,9178.553681
853.300233,0.000000,370.102971,9326.594869
853.300551,0.000000,222.061783,9252.574275
853.300870,229.828649,-444.123565,9622.677246
853.301189,0.000000,-740.205942,10510.924376
853.301508,0.000000,-0.000000,10140.821405
853.301827,229.828649,148.041188,9326.594869
853.302146,0.000000,296.082377,9178.553681
853.302465,153.219100,-0.000000,9770.718434
853.302784,0.000000,-0.000000,9474.636058
853.303103,-229.828649,-0.000000,9474.636058
853.303422,0.000000,-74.020594,9844.739029
853.303741,153.219100,-0.000000,9548.656652
853.304060,0.000000,-0.000000,9474.636058
853.304379,76.609550,-962.267725,9770.718434
853.304698,153.219100,-296.082377,9548.656652
853.305017,306.438199,-370.102971,10066.800811
853.305336,306.438199,148.041188,9474.636058
853.305655,536.266849,370.102971,9400.615463
853.305974,536.266849,592.164754,9474.636058
853.306293,229.828649,148.041188,9252.574275
853.306612,536.266849,222.061783,9252.574275
853.306930,612.876398,370.102971,9252.574275
853.307249,612.876398,148.041188,9178.553681
853.307568,1149.143247,222.061783,9622.677246
853.307887,536.266849,222.061783,9474.636058
853.308206,459.657299,518.144159,9178.553681
853.308525,1225.752797,888.247130,8956.491898
853.308844,766.095498,592.164754,9326.594869
853.309163,842.705048,888.247130,8808.450710
853.309482,995.924147,1110.308913,8734.430116
853.309801,1149.143247,1036.288319,8734.430116
853.310120,1149.143247,1184.329507,8586.388927
853.310439,919.314598,1110.308913,8438.347739
853.310758,766.095498,814.226536,8808.450710
853.311077,842.705048,518.144159,8956.491898
853.311396,1072.533697,740.205942,8808.450710
853.311715,1072.533697,814.226536,8586.388927
853.312034,1072.533697,666.185348,8956.491898
853.312353,919.314598,962.267725,8882.471304
853.312672,842.705048,814.226536,8956.491898
853.312990,919.314598,888.247130,9030.512492
853.313309,612.876398,666.185348,9030.512492
853.313628,842.705048,1184.329507,9178.553681
853.313947,612.876398,740.205942,9326.594869
853.314266,612.876398,666.185348,9178.553681
853.314585,229.828649,814.226536,9474.636058
853.314904,0.000000,1110.308913,9178.553681
853.315223,229.828649,814.226536,9252.574275
853.315542,383.047749,592.164754,9474.636058
853.315861,229.828649,666.185348,9474.636058
853.316180,0.000000,296.082377,9548.656652
853.316499,229.828649,296.082377,9622.677246
853.316818,0.000000,74.020594,9622.677246
853.317137,229.828649,222.061783,9844.739029
853.317456,76.609550,74.020594,9770.718434
853.317775,306.438199,296.082377,9474.636058
853.318094,306.438199,370.102971,9474.636058
853.318413,229.828649,-0.000000,9548.656652
853.318732,306.438199,-0.000000,9622.677246
853.319050,306.438199,-0.000000,9770.718434
853.319369,383.047749,-0.000000,9992.780217
853.319688,689.485948,148.041188,9992.780217
853.320007,306.438199,-296.082377,9622.677246
853.320326,919.314598,-148.041188,9548.656652
853.320645,306.438199,-296.082377,9770.718434
853.320964,612.876398,-0.000000,9696.697840
853.321283,689.485948,222.061783,9400.615463
853.321602,766.095498,222.061783,9400.615463
853.321921,766.095498,370.102971,9400.615463
853.322240,766.095498,296.082377,9178.553681
853.322559,1072.533697,444.123565,9696.697840
853.322878,842.705048,592.164754,9326.594869
853.323197,919.314598,518.144159,9326.594869
853.323516,842.705048,370.102971,9326.594869
853.323835,1072.533697,370.102971,9252.574275
853.324154,1072.533697,222.061783,8956.491898
853.324473,689.485948,444.123565,8882.471304
853.324792,766.095498,814.226536,8734.430116
853.325110,689.485948,888.247130,8660.409521
853.325429,766.095498,666.185348,8808.450710
853.325748,536.266849,666.185348,9030.512492
853.326067,306.438199,962.267725,8660.409521
853.326386,76.609550,814.226536,8882.471304
853.326705,229.828649,814.226536,8734.430116
853.327024,459.657299,518.144159,8660.409521
853.327343,306.438199,740.205942,9104.533087
853.327662,306.438199,592.164754,8808.450710
853.327981,306.438199,666.185348,8956.491898
853.328300,76.609550,592.164754,8808.450710
853.328619,-229.828649,592.164754,8956.491898
853.328938,0.000000,518.144159,9104.533087
853.329257,383.047749,814.226536,8956.491898
853.329576,0.000000,370.102971,9104.533087
853.329895,153.219100,148.041188,9326.594869
853.330214,0.000000,-0.000000,9252.574275
853.330533,-229.828649,-148.041188,9474.636058
853.330852,-229.828649,-148.041188,9326.594869
853.331170,0.000000,-74.020594,9474.636058
853.331489,229.828649,-222.061783,9400.615463
853.331808,0.000000,-0.000000,9400.615463
853.332127,306.438199,-370.102971,9400.615463
853.332446,383.047749,-148.041188,9548.656652
853.332765,76.609550,-74.020594,9474.636058
853.333084,689.485948,-444.123565,9474.636058
853.333403,459.657299,-0.000000,9474.636058
853.333722,383.047749,-296.082377,9474.636058
853.334041,306.438199,-74.020594,9474.636058
853.334360,766.095498,-592.164754,9474.636058
853.334679,383.047749,-148.041188,9622.677246
853.334998,766.095498,-74.020594,9474.636058
853.335317,766.095498,-0.000000,9474.636058
853.335636,842.705048,148.041188,9474.636058
853.335955,306.438199,-0.000000,9252.574275
853.336274,1072.533697,444.123565,9474.636058
853.336593,612.876398,370.102971,9474.636058
853.336912,842.705048,592.164754,9104.533087
853.337230,995.924147,814.226536,8956.491898
853.337549,1149.143247,592.164754,8956.491898
853.337868,1149.143247,592.164754,8956.491898
853.338187,1149.143247,962.267725,8956.491898
853.338506,1072.533697,1110.308913,8956.491898
853.338825,1149.143247,962.267725,8882.471304
853.339144,995.924147,1110.308913,8882.471304
853.339463,919.314598,1480.411884,8956.491898
853.339782,842.705048,1480.411884,8808.450710
853.340101,995.924147,1480.411884,8660.409521
853.340420,995.924147,1258.350101,8882.471304
853.340739,1072.533697,1258.350101,8734.430116
853.341058,612.876398,1480.411884,8882.471304
853.341377,536.266849,1406.391290,8956.491898
853.341696,459.657299,1258.350101,9104.533087
853.342015,612.876398,888.247130,9178.553681
853.342334,612.876398,592.164754,9326.594869
853.342653,229.828649,1110.308913,9030.512492
853.342972,459.657299,1332.370696,9252.574275
853.343290,459.657299,1110.308913,9104.533087
853.343609,689.485948,888.247130,9400.615463
853.343928,306.438199,740.205942,9252.574275
853.344247,229.828649,740.205942,9474.636058
853.344566,153.219100,740.205942,9548.656652
853.344885,229.828649,740.205942,9474.636058
853.345204,153.219100,592.164754,9622.677246
853.345523,459.657299,592.164754,9696.697840
853.345842,76.609550,592.164754,9918.759623
853.346161,0.000000,370.102971,9622.677246
853.346480,76.609550,370.102971,9622.677246
853.346799,153.219100,222.061783,9770.718434
853.347118,229.828649,222.061783,9844.739029
853.347437,306.438199,-0.000000,9548.656652
853.347755,383.047749,-0.000000,9696.697840
853.348074,229.828649,-0.000000,9844.739029
853.348393,536.266849,222.061783,9548.656652
853.348712,306.438199,-0.000000,9474.636058
853.349031,842.705048,370.102971,9622.677246
853.349350,766.095498,148.041188,9474.636058
853.349669,842.705048,-148.041188,9474.636058
853.349988,612.876398,-0.000000,9326.594869
853.350306,766.095498,-0.000000,9474.636058
853.350625,612.876398,-0.000000,9474.636058
853.350944,919.314598,-0.000000,9178.553681
853.351263,459.657299,-74.020594,9326.594869
853.351582,306.438199,74.020594,9104.533087
853.351901,383.047749,-0.000000,9178.553681
853.352220,383.047749,148.041188,8882.471304
853.352538,153.219100,222.061783,8882.471304
853.352857,383.047749,-0.000000,8808.450710
853.353176,459.657299,222.061783,8882.471304
853.353495,229.828649,74.020594,8882.471304
853.353814,306.438199,222.061783,8956.491898
853.354133,306.438199,148.041188,9030.512492
853.354452,76.609550,148.041188,8882.471304
853.354770,153.219100,-0.000000,8808.450710
853.355089,0.000000,222.061783,8882.471304
853.355408,0.000000,222.061783,8660.409521
853.355727,536.266849,296.082377,8586.388927
853.356046,0.000000,-0.000000,8882.471304
853.356365,0.000000,296.082377,8956.491898
853.356684,0.000000,-0.000000,8882.471304
853.357003,0.000000,-0.000000,8808.450710
853.357321,0.000000,-0.000000,8808.450710
853.357640,0.000000,222.061783,8882.471304
853.357959,0.000000,-0.000000,8956.491898
853.358278,306.438199,148.041188,8956.491898
853.358597,0.000000,-74.020594,9326.594869
853.358916,153.219100,-0.000000,9178.553681
853.359235,76.609550,296.082377,9400.615463
853.359553,306.438199,148.041188,9252.574275
853.359872,0.000000,-0.000000,9474.636058
853.360191,306.438199,-0.000000,9474.636058
853.360510,306.438199,-0.000000,9400.615463
853.360829,383.047749,-148.041188,9400.615463
853.361148,459.657299,-74.020594,9326.594869
853.361467,229.828649,-0.000000,9622.677246
853.361785,459.657299,-74.020594,9474.636058
853.362104,919.314598,370.102971,9474.636058
853.362423,383.047749,-0.000000,9548.656652
853.362742,459.657299,-0.000000,9474.636058
853.363061,383.047749,444.123565,9474.636058
853.363380,383.047749,-0.000000,9474.636058
853.363699,536.266849,296.082377,9474.636058
853.364018,459.657299,296.082377,9548.656652
853.364336,459.657299,370.102971,9400.615463
853.364655,689.485948,814.226536,9474.636058
853.364974,995.924147,518.144159,9178.553681
853.365293,842.705048,592.164754,9474.636058
853.365612,766.095498,666.185348,9474.636058
853.365931,842.705048,814.226536,9400.615463
853.366250,1072.533697,814.226536,9400.615463
853.366568,842.705048,962.267725,9252.574275
853.366887,842.705048,888.247130,9252.574275
853.367206,842.705048,888.247130,9030.512492
853.367525,766.095498,962.267725,9326.594869
853.367844,995.924147,1258.350101,9326.594869
853.368163,689.485948,1110.308913,9178.553681
853.368482,766.095498,1036.288319,9030.512492
853.368800,536.266849,1258.350101,9178.553681
853.369119,689.485948,1184.329507,9104.533087
853.369438,689.485948,1036.288319,9400.615463
853.369757,383.047749,1110.308913,9178.553681
853.370076,536.266849,962.267725,9030.512492
853.370395,612.876398,1110.308913,9326.594869
853.370714,536.266849,888.247130,8882.471304
853.371033,612.876398,814.226536,9326.594869
853.371351,383.047749,1110.308913,9252.574275
853.371670,229.828649,814.226536,9326.594869
853.371989,459.657299,740.205942,9178.553681
853.372308,612.876398,592.164754,9252.574275
853.372627,306.438199,444.123565,9474.636058
853.372946,153.219100,444.123565,9474.636058
853.373265,229.828649,-0.000000,9474.636058
853.373583,306.438199,222.061783,9622.677246
853.373902,153.219100,-0.000000,9474.636058
853.374221,0.000000,-0.000000,9474.636058
853.374540,0.000000,-0.000000,9474.636058
853.374859,0.000000,-0.000000,9400.615463
853.375178,153.219100,-0.000000,9474.636058
853.375497,459.657299,-0.000000,9326.594869
853.375815,612.876398,-0.000000,9622.677246
853.376134,76.609550,-74.020594,9474.636058
853.376453,459.657299,-148.041188,9474.636058
853.376772,536.266849,-370.102971,9474.636058
853.377091,689.485948,-296.082377,9474.636058
853.377410,459.657299,-74.020594,9474.636058
853.377729,919.314598,-0.000000,9104.533087
853.378048,766.095498,-0.000000,9400.615463
853.378366,842.705048,-666.185348,9326.594869
853.378685,766.095498,-74.020594,9326.594869
853.379004,766.095498,-148.041188,9178.553681
853.379323,689.485948,-74.020594,9104.533087
853.379642,766.095498,-0.000000,8882.471304
853.379961,536.266849,-0.000000,8808.450710
853.380280,766.095498,148.041188,9030.512492
853.380598,919.314598,296.082377,8734.430116
853.380917,689.485948,370.102971,8956.491898
853.381236,766.095498,296.082377,8882.471304
853.381555,995.924147,-0.000000,8808.450710
853.381874,536.266849,296.082377,8808.450710
853.382193,306.438199,370.102971,8734.430116
853.382512,383.047749,370.102971,8808.450710
853.382830,459.657299,444.123565,8956.491898
853.383149,536.266849,148.041188,9104.533087
853.383468,76.609550,592.164754,9030.512492
853.383787,459.657299,666.185348,8882.471304
853.384106,76.609550,370.102971,8734.430116
853.384425,76.609550,-74.020594,8956.491898
853.384744,0.000000,222.061783,9252.574275
853.385063,0.000000,296.082377,9252.574275
853.385381,-153.219100,296.082377,9104.533087
853.385700,-229.828649,148.041188,9326.594869
853.386019,-383.047749,-0.000000,9400.615463
853.386338,-229.828649,-0.000000,9326.594869
853.386657,0.000000,-0.000000,9400.615463
853.386976,0.000000,296.082377,9400.615463
853.387295,-306.438199,-148.041188,9696.697840
853.387613,0.000000,-0.000000,9622.677246
853.387932,0.000000,-0.000000,9400.615463
853.388251,76.609550,-0.000000,9474.636058
853.388570,153.219100,-0.000000,9548.656652
853.388889,76.609550,-296.082377,9474.636058
853.389208,306.438199,-0.000000,9548.656652
853.389527,383.047749,-0.000000,9474.636058
853.389845,306.438199,-0.000000,9474.636058
853.390164,536.266849,-0.000000,9400.615463
853.390483,612.876398,-0.000000,9474.636058
853.390802,459.657299,-0.000000,9474.636058
853.391121,536.266849,-148.041188,9622.677246
853.391440,689.485948,222.061783,9474.636058
853.391759,766.095498,148.041188,9696.697840
853.392078,689.485948,-0.000000,9474.636058
853.392396,689.485948,296.082377,9474.636058
853.392715,842.705048,518.144159,9548.656652
853.393034,919.314598,296.082377,9178.553681
853.393353,919.314598,592.164754,9178.553681
853.393672,689.485948,592.164754,9104.533087
853.393991,1225.752797,740.205942,9030.512492
853.394310,1302.362347,962.267725,9104.533087
853.394628,919.314598,592.164754,9104.533087
853.394947,842.705048,666.185348,9178.553681
853.395266,995.924147,740.205942,9178.553681
853.395585,919.314598,740.205942,8882.471304
853.395904,842.705048,1110.308913,8956.491898
853.396223,1072.533697,962.267725,8882.471304
853.396542,1225.752797,1110.308913,8956.491898
853.396860,842.705048,1036.288319,8808.450710
853.397179,689.485948,962.267725,8956.491898
853.397498,689.485948,962.267725,9104.533087
853.397817,612.876398,1036.288319,8956.491898
853.398136,766.095498,1110.308913,9252.574275
853.398455,536.266849,1036.288319,9104.533087
853.398774,459.657299,1036.288319,9030.512492
853.399093,612.876398,1184.329507,9030.512492
853.399411,536.266849,888.247130,9326.594869
853.399730,766.095498,1184.329507,9474.636058
853.400049,306.438199,666.185348,9252.574275
853.400368,306.438199,962.267725,9326.594869
853.400687,153.219100,740.205942,9326.594869
853.401006,689.485948,740.205942,9474.636058
853.401325,306.438199,444.123565,9474.636058
853.401643,536.266849,444.123565,9400.615463
853.401962,229.828649,444.123565,9474.636058
853.402281,306.438199,444.123565,9474.636058
853.402600,766.095498,222.061783,9474.636058
853.402919,383.047749,222.061783,9474.636058
853.403238,459.657299,148.041188,9474.636058
853.403557,689.485948,222.061783,9474.636058
853.403875,536.266849,-0.000000,9548.656652
853.404194,612.876398,-0.000000,9696.697840
853.404513,689.485948,-74.020594,9474.636058
853.404832,383.047749,-0.000000,9474.636058
853.405151,612.876398,-0.000000,9474.636058
853.405470,766.095498,-0.000000,9622.677246
853.405789,766.095498,-74.020594,9474.636058
853.406107,766.095498,296.082377,9548.656652
853.406426,536.266849,-0.000000,9474.636058
853.406745,766.095498,-0.000000,9474.636058
853.407064,459.657299,-0.000000,9326.594869
853.407383,612.876398,-0.000000,9252.574275
853.407702,689.485948,-0.000000,9252.574275
853.408021,612.876398,296.082377,9178.553681
853.408340,689.485948,370.102971,9104.533087
853.408658,842.705048,296.082377,9474.636058
853.408977,536.266849,370.102971,9104.533087
853.409296,229.828649,444.123565,9252.574275
853.409615,306.438199,296.082377,8956.491898
853.409934,153.219100,666.185348,9178.553681
853.410253,306.438199,666.185348,8808.450710
853.410572,153.219100,592.164754,8882.471304
853.410890,306.438199,592.164754,8956.491898
853.411209,229.828649,666.185348,9104.533087
853.411528,0.000000,518.144159,9104.533087
853.411847,0.000000,444.123565,8882.471304
853.412166,0.000000,592.164754,8956.491898
853.412485,0.000000,296.082377,9104.533087
853.412804,0.000000,370.102971,9178.553681
853.413122,459.657299,370.102971,8956.491898
853.413441,0.000000,370.102971,9030.512492
853.413760,76.609550,370.102971,8956.491898
853.414079,0.000000,518.144159,9030.512492
853.414398,0.000000,296.082377,9178.553681
853.414717,0.000000,222.061783,9400.615463
853.415036,153.219100,296.082377,9252.574275
853.415355,-383.047749,148.041188,9252.574275
853.415673,229.828649,222.061783,9474.636058
853.415992,76.609550,148.041188,9474.636058
853.416311,153.219100,296.082377,9474.636058
853.416630,306.438199,-0.000000,9326.594869
853.416949,0.000000,592.164754,9104.533087
853.417268,536.266849,-0.000000,9474.636058
853.417587,153.219100,222.061783,9400.615463
853.417905,383.047749,-0.000000,9844.739029
853.418224,612.876398,148.041188,9326.594869
853.418543,612.876398,222.061783,9030.512492
853.418862,766.095498,-0.000000,9696.697840
853.419181,1149.143247,-74.020594,9622.677246
853.419500,612.876398,592.164754,9326.594869
853.419819,689.485948,148.041188,9400.615463
853.420137,459.657299,370.102971,9474.636058
853.420456,383.047749,518.144159,9326.594869
853.420775,766.095498,222.061783,9030.512492
853.421094,383.047749,518.144159,9474.636058
853.421413,536.266849,444.123565,9400.615463
853.421732,766.095498,814.226536,9252.574275
853.422051,995.924147,740.205942,9178.553681
853.422370,842.705048,888.247130,9326.594869
853.422688,766.095498,962.267725,9104.533087
853.423007,919.314598,666.185348,9104.533087
853.423326,1072.533697,1036.288319,9104.533087
853.423645,995.924147,962.267725,8956.491898
853.423964,1072.533697,962.267725,9104.533087
853.424283,689.485948,1036.288319,8956.491898
853.424602,689.485948,888.247130,8882.471304
853.424920,689.485948,1258.350101,8882.471304
853.425239,306.438199,888.247130,8956.491898
853.425558,919.314598,888.247130,9252.574275
853.425877,383.047749,1110.308913,9030.512492
853.426196,689.485948,888.247130,8882.471304
853.426515,612.876398,814.226536,9104.533087
853.426834,459.657299,592.164754,9696.697840
853.427152,459.657299,444.123565,9474.636058
853.427471,383.047749,666.185348,9326.594869
853.427790,459.657299,444.123565,9474.636058
853.428109,612.876398,888.247130,9104.533087
853.428428,612.876398,740.205942,9252.574275
853.428747,153.219100,444.123565,9326.594869
853.429066,229.828649,444.123565,9252.574275
853.429385,0.000000,370.102971,9326.594869
853.429703,459.657299,222.061783,9400.615463
853.430022,153.219100,222.061783,9696.697840
853.430341,76.609550,222.061783,9548.656652
853.430660,306.438199,-0.000000,9770.718434
853.430979,229.828649,-74.020594,9696.697840
853.431298,842.705048,370.102971,9474.636058
853.431617,383.047749,222.061783,9400.615463
853.431935,0.000000,74.020594,9400.615463
853.432254,229.828649,222.061783,9474.636058
853.432573,383.047749,-74.020594,9474.636058
853.432892,459.657299,-0.000000,9400.615463
853.433211,766.095498,-0.000000,9622.677246
853.433530,306.438199,296.082377,9400.615463
853.433849,306.438199,296.082377,9474.636058
853.434167,1072.533697,148.041188,9326.594869
853.434486,766.095498,-370.102971,9474.636058
853.434805,612.876398,-0.000000,9326.594869
853.435124,842.705048,148.041188,9178.553681
853.435443,536.266849,-0.000000,9030.512492
853.435762,766.095498,592.164754,9326.594869
853.436081,919.314598,592.164754,9178.553681
853.436400,612.876398,222.061783,8808.450710
853.436718,766.095498,296.082377,9104.533087
853.437037,536.266849,296.082377,9178.553681
853.437356,689.485948,666.185348,9104.533087
853.437675,612.876398,592.164754,8734.430116
853.437994,612.876398,962.267725,8882.471304
853.438313,536.266849,592.164754,8734.430116
853.438632,306.438199,444.123565,8956.491898
853.438950,536.266849,444.123565,8882.471304
853.439269,306.438199,666.185348,8734.430116
853.439588,153.219100,740.205942,9030.512492
853.439907,76.609550,666.185348,9030.512492
853.440226,153.219100,814.226536,8734.430116
853.440545,-383.047749,444.123565,9474.636058
853.440864,0.000000,740.205942,9030.512492
853.441182,-229.828649,444.123565,9104.533087
853.441501,-76.609550,666.185348,9104.533087
853.441820,-153.219100,814.226536,9178.553681
853.442139,76.609550,148.041188,9252.574275
853.442458,-306.438199,296.082377,9104.533087
853.442777,0.000000,370.102971,9400.615463
853.443096,-153.219100,-0.000000,9178.553681
853.443415,0.000000,222.061783,9400.615463
853.443733,0.000000,-0.000000,9622.677246
853.444052,-229.828649,222.061783,9400.615463
853.444371,-153.219100,-0.000000,9548.656652
853.444690,-229.828649,-74.020594,9918.759623
853.445009,0.000000,-222.061783,9622.677246
853.445328,0.000000,-0.000000,9548.656652
853.445647,0.000000,-0.000000,9474.636058
853.445965,153.219100,-0.000000,9474.636058
853.446284,153.219100,-222.061783,9548.656652
853.446603,0.000000,-222.061783,9622.677246
853.446922,306.438199,-296.082377,9770.718434
853.447241,306.438199,-0.000000,9474.636058
853.447560,383.047749,-74.020594,9622.677246
853.447879,1149.143247,-296.082377,9326.594869
853.448197,612.876398,148.041188,9548.656652
853.448516,689.485948,-0.000000,9548.656652
853.448835,536.266849,-222.061783,9474.636058
853.449154,459.657299,-148.041188,9548.656652
853.449473,842.705048,148.041188,9400.615463
853.449792,689.485948,222.061783,9104.533087
853.450111,919.314598,370.102971,9326.594869
853.450429,842.705048,592.164754,9326.594869
853.450748,766.095498,444.123565,9104.533087
853.451067,842.705048,592.164754,9030.512492
853.451386,1149.143247,814.226536,8882.471304
853.451705,842.705048,518.144159,8808.450710
853.452024,1149.143247,814.226536,8882.471304
853.452342,919.314598,518.144159,9326.594869
853.452661,1072.533697,666.185348,8882.471304
853.452980,766.095498,888.247130,8956.491898
853.453299,766.095498,1036.288319,9104.533087
853.453618,689.485948,1110.308913,8660.409521
853.453937,766.095498,1184.329507,8586.388927
853.454255,536.266849,888.247130,8808.450710
853.454574,459.657299,1406.391290,9104.533087
853.454893,229.828649,1110.308913,8660.409521
853.455212,383.047749,1332.370696,8956.491898
853.455531,229.828649,962.267725,8956.491898
853.455850,229.828649,1036.288319,8808.450710
853.456168,229.828649,962.267725,8956.491898
853.456487,76.609550,814.226536,9030.512492
853.456806,153.219100,814.226536,9326.594869
853.457125,689.485948,444.123565,9104.533087
853.457444,0.000000,666.185348,9252.574275
853.457763,306.438199,666.185348,9326.594869
853.458081,153.219100,296.082377,9696.697840
853.458400,383.047749,592.164754,9474.636058
853.458719,229.828649,222.061783,9622.677246
853.459038,153.219100,518.144159,9548.656652
853.459357,306.438199,148.041188,9474.636058
853.459676,459.657299,-0.000000,9696.697840
853.459994,536.266849,-74.020594,9770.718434
853.460313,383.047749,-74.020594,9548.656652
853.460632,306.438199,-148.041188,9918.759623
853.460951,612.876398,-0.000000,9548.656652
853.461270,612.876398,-0.000000,9548.656652
853.461589,995.924147,-0.000000,9548.656652
853.461907,842.705048,-148.041188,9622.677246
853.462226,383.047749,-148.041188,9622.677246
853.462545,689.485948,-0.000000,9548.656652
853.462864,612.876398,-0.000000,9474.636058
853.463183,459.657299,-0.000000,9474.636058
853.463502,229.828649,-0.000000,9400.615463
853.463820,766.095498,-0.000000,9326.594869
853.464139,612.876398,-0.000000,9326.594869
853.464458,612.876398,-0.000000,9400.615463
853.464777,536.266849,370.102971,9474.636058
853.465096,612.876398,296.082377,9104.533087
853.465415,536.266849,296.082377,9104.533087
853.465733,536.266849,444.123565,8956.491898
853.466052,-229.828649,-0.000000,9030.512492
853.466371,459.657299,148.041188,9178.553681
853.466690,76.609550,222.061783,8956.491898
853.467009,306.438199,370.102971,8734.430116
853.467328,0.000000,222.061783,8956.491898
853.467646,0.000000,-0.000000,9104.533087
853.467965,76.609550,370.102971,9030.512492
853.468284,0.000000,444.123565,9030.512492
853.468603,0.000000,592.164754,9104.533087
853.468922,76.609550,-0.000000,8808.450710
853.469241,0.000000,296.082377,9178.553681
853.469559,0.000000,222.061783,9030.512492
853.469878,229.828649,296.082377,9030.512492
853.470197,0.000000,222.061783,8956.491898
853.470516,76.609550,222.061783,9252.574275
853.470835,459.657299,-0.000000,9178.553681
853.471154,76.609550,-0.000000,9030.512492
853.471473,229.828649,-0.000000,9030.512492
853.471791,76.609550,-0.000000,9030.512492
853.472110,76.609550,296.082377,9252.574275
853.472429,229.828649,-148.041188,9400.615463
853.472748,229.828649,-0.000000,9474.636058
853.473067,766.095498,-0.000000,9030.512492
853.473386,383.047749,-74.020594,9326.594869
853.473704,383.047749,-74.020594,9326.594869
853.474023,383.047749,-0.000000,9400.615463
853.474342,306.438199,-0.000000,9326.594869
853.474661,383.047749,148.041188,9326.594869
853.474980,689.485948,-0.000000,9326.594869
853.475299,536.266849,-0.000000,9326.594869
853.475617,229.828649,-74.020594,9400.615463
853.475936,612.876398,-0.000000,9474.636058
853.476255,689.485948,148.041188,9400.615463
853.476574,766.095498,-0.000000,9400.615463
853.476893,766.095498,148.041188,9326.594869
853.477212,536.266849,370.102971,9326.594869
853.477530,842.705048,740.205942,9252.574275
853.477849,612.876398,592.164754,9400.615463
853.478168,842.705048,592.164754,9400.615463
853.478487,689.485948,518.144159,9252.574275
853.478806,842.705048,740.205942,9252.574275
853.479125,842.705048,740.205942,9400.615463
853.479443,689.485948,814.226536,9178.553681
853.479762,842.705048,666.185348,9400.615463
853.480081,459.657299,592.164754,9326.594869
853.480400,766.095498,814.226536,9178.553681
853.480719,612.876398,1036.288319,9178.553681
853.481038,1225.752797,888.247130,9252.574275
853.481356,536.266849,814.226536,8882.471304
853.481675,689.485948,1110.308913,9104.533087
853.481994,689.485948,1036.288319,9104.533087
853.482313,766.095498,1110.308913,9104.533087
853.482632,383.047749,518.144159,9252.574275
853.482951,766.095498,962.267725,9104.533087
853.483269,536.266849,1110.308913,9252.574275
853.483588,459.657299,962.267725,9030.512492
853.483907,689.485948,1110.308913,9326.594869
853.484226,1149.143247,148.041188,9474.636058
853.484545,383.047749,962.267725,9178.553681
853.484864,459.657299,1036.288319,9326.594869
853.485182,536.266849,962.267725,9252.574275
853.485501,459.657299,518.144159,9326.594869
853.485820,612.876398,592.164754,9400.615463
853.486139,383.047749,592.164754,9622.677246
853.486458,383.047749,814.226536,9252.574275
853.486777,306.438199,592.164754,9474.636058
853.487095,229.828649,444.123565,9474.636058
853.487414,459.657299,222.061783,9474.636058
853.487733,459.657299,370.102971,9474.636058
853.488052,383.047749,370.102971,9548.656652
853.488371,459.657299,-0.000000,9548.656652
853.488690,306.438199,-0.000000,9474.636058
853.489008,689.485948,222.061783,9622.677246
853.489327,229.828649,-0.000000,9622.677246
853.489646,612.876398,-0.000000,9474.636058
853.489965,536.266849,-0.000000,9622.677246
853.490284,689.485948,-74.020594,9844.739029
853.490603,612.876398,-0.000000,9622.677246
853.490921,689.485948,-0.000000,9474.636058
853.491240,689.485948,-74.020594,9400.615463
853.491559,612.876398,148.041188,9400.615463
853.491878,536.266849,-74.020594,9400.615463
853.492197,459.657299,-148.041188,9252.574275
853.492516,1072.533697,148.041188,9252.574275
853.492834,612.876398,222.061783,9178.553681
853.493153,842.705048,222.061783,9104.533087
853.493472,612.876398,222.061783,8956.491898
853.493791,766.095498,370.102971,9104.533087
853.494110,842.705048,370.102971,8956.491898
853.494429,612.876398,370.102971,8882.471304
853.494747,0.000000,296.082377,8734.430116
853.495066,536.266849,222.061783,9030.512492
853.495385,306.438199,296.082377,8808.450710
853.495704,383.047749,518.144159,8660.409521
853.496023,612.876398,592.164754,8734.430116
853.496342,842.705048,592.164754,8956.491898
853.496661,229.828649,592.164754,8882.471304
853.496979,306.438199,222.061783,8956.491898
853.497298,153.219100,370.102971,8808.450710
853.497617,0.000000,518.144159,8882.471304
853.497936,76.609550,296.082377,8808.450710
853.498255,306.438199,296.082377,9104.533087
853.498574,-306.438199,148.041188,8956.491898
853.498892,0.000000,370.102971,8956.491898
853.499211,0.000000,222.061783,8956.491898
853.499530,0.000000,222.061783,9104.533087
853.499849,-229.828649,148.041188,9400.615463
853.500168,-153.219100,-0.000000,9326.594869
853.500487,0.000000,148.041188,9252.574275
853.500805,612.876398,-148.041188,9474.636058
853.501124,0.000000,-74.020594,9252.574275
853.501443,76.609550,296.082377,9400.615463
853.501762,0.000000,-74.020594,9474.636058
853.502081,0.000000,-0.000000,9622.677246
853.502400,-229.828649,-370.102971,9696.697840
853.502718,229.828649,148.041188,9770.718434
853.503037,153.219100,-0.000000,9622.677246
853.503356,536.266849,-0.000000,9548.656652
853.503675,459.657299,296.082377,9400.615463
853.503994,153.219100,222.061783,9548.656652
853.504313,383.047749,296.082377,9474.636058
853.504631,459.657299,296.082377,9474.636058
853.504950,766.095498,-0.000000,9474.636058
853.505269,536.266849,-222.061783,9548.656652
853.505588,612.876398,370.102971,9400.615463
853.505907,536.266849,370.102971,9400.615463
853.506226,766.095498,592.164754,9474.636058
853.506544,766.095498,-0.000000,9326.594869
853.506863,766.095498,814.226536,9400.615463
853.507182,995.924147,666.185348,9326.594869
853.507501,689.485948,740.205942,9178.553681
853.507820,1072.533697,962.267725,9252.574275
853.508139,1225.752797,888.247130,9178.553681
853.508457,689.485948,740.205942,9178.553681
853.508776,995.924147,1110.308913,9252.574275
853.509095,1072.533697,1110.308913,9252.574275
853.509414,995.924147,1184.329507,9326.594869
853.509733,1302.362347,888.247130,9030.512492
853.510052,995.924147,1110.308913,9030.512492
853.510370,1149.143247,1184.329507,9030.512492
853.510689,842.705048,1258.350101,9104.533087
853.511008,766.095498,1258.350101,9104.533087
853.511327,-306.438199,962.267725,9474.636058
853.511646,306.438199,1036.288319,9400.615463
853.511965,306.438199,1036.288319,9104.533087
853.512283,536.266849,1110.308913,9178.553681
853.512602,383.047749,1110.308913,9326.594869
853.512921,383.047749,1332.370696,9252.574275
853.513240,459.657299,888.247130,9178.553681
853.513559,383.047749,814.226536,9178.553681
853.513878,229.828649,666.185348,9178.553681
853.514196,229.828649,592.164754,9178.553681
853.514515,612.876398,370.102971,9400.615463
853.514834,76.609550,370.102971,9474.636058
853.515153,536.266849,296.082377,9104.533087
853.515472,229.828649,444.123565,9400.615463
853.515791,153.219100,296.082377,9326.594869
853.516109,153.219100,370.102971,9474.636058
853.516428,459.657299,148.041188,9474.636058
853.516747,229.828649,296.082377,9474.636058
853.517066,536.266849,-0.000000,9474.636058
853.517385,459.657299,-0.000000,9474.636058
853.517704,459.657299,-0.000000,9474.636058
853.518022,383.047749,-0.000000,9474.636058
853.518341,459.657299,-74.020594,9252.574275
853.518660,536.266849,-0.000000,9474.636058
853.518979,0.000000,-0.000000,9474.636058
853.519298,612.876398,148.041188,9252.574275
853.519617,612.876398,-74.020594,9474.636058
853.519935,536.266849,-148.041188,9252.574275
853.520254,229.828649,-0.000000,9326.594869
853.520573,306.438199,-0.000000,9474.636058
853.520892,766.095498,-0.000000,9030.512492
853.521211,689.485948,-0.000000,9400.615463
853.521530,383.047749,-0.000000,9474.636058
853.521849,306.438199,-0.000000,8956.491898
853.522167,383.047749,-0.000000,9252.574275
853.522486,229.828649,296.082377,8956.491898
853.522805,383.047749,222.061783,8808.450710
853.523124,383.047749,222.061783,8956.491898
853.523443,306.438199,-0.000000,9104.533087
853.523762,0.000000,148.041188,8956.491898
853.524080,459.657299,444.123565,8882.471304
853.524399,0.000000,370.102971,8956.491898
853.524718,0.000000,518.144159,9030.512492
853.525037,0.000000,444.123565,9474.636058
853.525356,0.000000,296.082377,9030.512492
853.525675,0.000000,370.102971,9104.533087
853.525993,-306.438199,518.144159,9030.512492
853.526312,0.000000,444.123565,9030.512492
853.526631,76.609550,592.164754,9030.512492
853.526950,0.000000,518.144159,9178.553681
853.527269,0.000000,518.144159,9252.574275
853.527588,0.000000,592.164754,9178.553681
853.527906,-229.828649,592.164754,9252.574275
853.528225,0.000000,444.123565,9326.594869
853.528544,0.000000,444.123565,9252.574275
853.528863,0.000000,518.144159,9252.574275
853.529182,0.000000,518.144159,9400.615463
853.529501,0.000000,592.164754,9474.636058
853.529819,306.438199,444.123565,9474.636058
853.530138,306.438199,444.123565,9474.636058
853.530457,306.438199,666.185348,9400.615463
853.530776,383.047749,-0.000000,9326.594869
853.531095,229.828649,370.102971,9400.615463
853.531414,383.047749,222.061783,9474.636058
853.531732,229.828649,-0.000000,9622.677246
853.532051,229.828649,222.061783,9696.697840
853.532370,383.047749,296.082377,9548.656652
853.532689,306.438199,296.082377,9400.615463
853.533008,383.047749,296.082377,10066.800811
853.533327,766.095498,-0.000000,9770.718434
853.533645,153.219100,444.123565,9178.553681
853.533964,689.485948,-0.000000,9548.656652
853.534283,536.266849,296.082377,9400.615463
853.534602,383.047749,370.102971,9326.594869
853.534921,1072.533697,-370.102971,9400.615463
853.535240,229.828649,222.061783,9548.656652
853.535558,766.095498,-148.041188,9696.697840
853.535877,842.705048,370.102971,8882.471304
853.536196,842.705048,592.164754,9548.656652
853.536515,766.095498,296.082377,9252.574275
853.536834,383.047749,666.185348,9030.512492
853.537153,459.657299,222.061783,9252.574275
853.537471,766.095498,666.185348,9104.533087
853.537790,536.266849,962.267725,8290.306550
853.538109,842.705048,370.102971,8882.471304
853.538428,766.095498,444.123565,8882.471304
853.538747,459.657299,444.123565,9326.594869
853.539066,459.657299,370.102971,8808.450710
853.539384,536.266849,370.102971,9178.553681
853.539703,612.876398,592.164754,9252.574275
853.540022,536.266849,814.226536,8956.491898
853.540341,383.047749,666.185348,9030.512492
853.540660,766.095498,740.205942,8956.491898
853.540979,383.047749,1110.308913,8660.409521
853.541297,536.266849,592.164754,9178.553681
853.541616,0.000000,370.102971,8808.450710
853.541935,153.219100,296.082377,9252.574275
853.542254,459.657299,222.061783,9178.553681
853.542573,229.828649,666.185348,8956.491898
853.542892,383.047749,592.164754,9252.574275
853.543210,459.657299,-74.020594,9474.636058
853.543529,153.219100,296.082377,9400.615463
853.543848,612.876398,148.041188,9400.615463
853.544167,459.657299,518.144159,9252.574275
853.544486,459.657299,-0.000000,9474.636058
853.544805,459.657299,-0.000000,10066.800811
853.545123,306.438199,-0.000000,9548.656652
853.545442,229.828649,296.082377,9326.594869
853.545761,536.266849,148.041188,9474.636058
853.546080,306.438199,370.102971,9474.636058
853.546399,76.609550,222.061783,9622.677246
853.546718,153.219100,370.102971,9622.677246
853.547037,459.657299,370.102971,9474.636058
853.547355,842.705048,370.102971,9474.636058
853.547674,1149.143247,296.082377,9474.636058
853.547993,536.266849,370.102971,9548.656652
853.548312,842.705048,296.082377,9474.636058
853.548631,612.876398,296.082377,9326.594869
853.548950,689.485948,666.185348,9400.615463
853.549269,919.314598,666.185348,9474.636058
853.549588,383.047749,740.205942,9326.594869
853.549906,766.095498,518.144159,9622.677246
853.550225,689.485948,518.144159,9030.512492
853.550544,842.705048,740.205942,9178.553681
853.550863,383.047749,444.123565,9474.636058
853.551182,459.657299,74.020594,9400.615463
853.551501,383.047749,444.123565,9474.636058
853.551820,536.266849,444.123565,9400.615463
853.552139,842.705048,592.164754,9104.533087
853.552458,536.266849,444.123565,9326.594869
853.552777,383.047749,518.144159,9252.574275
853.553095,229.828649,592.164754,8586.388927
853.553414,153.219100,222.061783,9400.615463
853.553733,0.000000,222.061783,9104.533087
853.554052,76.609550,-0.000000,9474.636058
853.554371,0.000000,222.061783,9104.533087
853.554690,-153.219100,296.082377,9326.594869
853.555009,0.000000,-0.000000,9474.636058
853.555328,0.000000,-0.000000,9104.533087
853.555647,0.000000,-0.000000,9104.533087
853.555966,229.828649,-0.000000,9326.594869
853.556284,-229.828649,148.041188,9030.512492
853.556603,0.000000,148.041188,9104.533087
853.556922,0.000000,-0.000000,9474.636058
853.557241,-229.828649,-74.020594,9178.553681
853.557560,153.219100,-666.185348,9548.656652
853.557879,0.000000,-222.061783,9178.553681
853.558198,-459.657299,-222.061783,9400.615463
853.558517,229.828649,-148.041188,9030.512492
853.558836,153.219100,-0.000000,9326.594869
853.559155,536.266849,-74.020594,9474.636058
853.559473,536.266849,-222.061783,9030.512492
853.559792,76.609550,-222.061783,9326.594869
853.560111,612.876398,-0.000000,9326.594869
853.560430,459.657299,-0.000000,9030.512492
853.560749,306.438199,-74.020594,9252.574275
853.561068,459.657299,-222.061783,9474.636058
853.561387,383.047749,-148.041188,9030.512492
853.561706,1225.752797,-0.000000,8956.491898
853.562025,383.047749,-0.000000,9104.533087
853.562344,689.485948,222.061783,9252.574275
853.562662,1072.533697,370.102971,9252.574275
853.562981,766.095498,74.020594,9178.553681
853.563300,995.924147,296.082377,9104.533087
853.563619,995.924147,518.144159,8956.491898
853.563938,766.095498,666.185348,8956.491898
853.564257,919.314598,740.205942,8956.491898
853.564576,995.924147,962.267725,9178.553681
853.564895,1072.533697,296.082377,9030.512492
853.565214,995.924147,740.205942,8956.491898
853.565533,995.924147,888.247130,8956.491898
853.565851,383.047749,1184.329507,9178.553681
853.566170,995.924147,1184.329507,8734.430116
853.566489,919.314598,1036.288319,9178.553681
853.566808,842.705048,1184.329507,9104.533087
853.567127,1378.971896,1110.308913,9178.553681
853.567446,842.705048,1036.288319,9252.574275
853.567765,689.485948,1110.308913,9104.533087
853.568084,689.485948,1110.308913,8956.491898
853.568403,689.485948,1480.411884,9104.533087
853.568722,689.485948,1258.350101,9474.636058
853.569040,383.047749,1110.308913,9474.636058
853.569359,306.438199,1110.308913,9474.636058
853.569678,229.828649,1184.329507,9474.636058
853.569997,459.657299,1184.329507,9326.594869
853.570316,306.438199,1036.288319,9252.574275
853.570635,76.609550,888.247130,9696.697840
853.570954,459.657299,888.247130,9548.656652
853.571273,229.828649,962.267725,9622.677246
853.571592,153.219100,740.205942,9696.697840
853.571911,383.047749,814.226536,9622.677246
853.572229,76.609550,518.144159,9696.697840
853.572548,153.219100,518.144159,9696.697840
853.572867,153.219100,518.144159,9696.697840
853.573186,536.266849,222.061783,9548.656652
853.573505,842.705048,222.061783,9622.677246
853.573824,459.657299,-0.000000,9696.697840
853.574143,383.047749,-0.000000,9696.697840
853.574462,536.266849,222.061783,9696.697840
853.574781,612.876398,-148.041188,9548.656652
853.575100,0.000000,-0.000000,9252.574275
853.575418,842.705048,222.061783,9622.677246
853.575737,842.705048,-0.000000,9622.677246
853.576056,612.876398,-0.000000,9400.615463
853.576375,153.219100,-0.000000,9252.574275
853.576694,689.485948,-0.000000,9474.636058
853.577013,612.876398,-148.041188,9178.553681
853.577332,612.876398,-0.000000,9326.594869
853.577651,689.485948,-0.000000,9030.512492
853.577970,919.314598,-0.000000,9252.574275
853.578289,766.095498,-0.000000,9252.574275
853.578607,536.266849,-0.000000,8956.491898
853.578926,612.876398,222.061783,8808.450710
853.579245,536.266849,296.082377,8882.471304
853.579564,459.657299,148.041188,8956.491898
853.579883,383.047749,222.061783,8660.409521
853.580202,229.828649,370.102971,8808.450710
853.580521,153.219100,148.041188,8882.471304
853.580840,689.485948,-0.000000,8734.430116
853.581159,306.438199,222.061783,8734.430116
853.581478,383.047749,444.123565,8882.471304
853.581796,0.000000,-0.000000,8734.430116
853.582115,0.000000,296.082377,8734.430116
853.582434,0.000000,-0.000000,8512.368333
853.582753,0.000000,296.082377,8808.450710
853.583072,0.000000,-0.000000,8882.471304
853.583391,0.000000,148.041188,8882.471304
853.583710,229.828649,-0.000000,8808.450710
853.584029,0.000000,222.061783,8956.491898
853.584348,153.219100,-74.020594,8808.450710
853.584667,229.828649,-0.000000,9326.594869
853.584985,0.000000,-0.000000,9326.594869
853.585304,153.219100,-0.000000,9474.636058
853.585623,0.000000,148.041188,9400.615463
853.585942,76.609550,222.061783,9400.615463
853.586261,383.047749,-0.000000,9178.553681
853.586580,76.609550,-0.000000,9326.594869
853.586899,306.438199,-0.000000,9474.636058
853.587218,459.657299,-0.000000,9252.574275
853.587537,229.828649,-0.000000,9474.636058
853.587856,306.438199,444.123565,9548.656652
853.588174,383.047749,-0.000000,9548.656652
853.588493,229.828649,148.041188,9696.697840
853.588812,229.828649,296.082377,9696.697840
853.589131,459.657299,370.102971,9474.636058
853.589450,459.657299,518.144159,9400.615463
853.589769,536.266849,518.144159,9400.615463
853.590088,612.876398,666.185348,9844.739029
853.590407,459.657299,370.102971,9622.677246
853.590726,689.485948,666.185348,9326.594869
853.591045,612.876398,740.205942,9400.615463
853.591363,536.266849,148.041188,9030.512492
853.591682,766.095498,1036.288319,9400.615463
853.592001,766.095498,962.267725,9400.615463
853.592320,689.485948,888.247130,9178.553681
853.592639,919.314598,1036.288319,9104.533087
853.592958,842.705048,1036.288319,9030.512492
853.593277,766.095498,1184.329507,9178.553681
853.593596,995.924147,1184.329507,9252.574275
853.593915,689.485948,1036.288319,9030.512492
853.594234,766.095498,1110.308913,9178.553681
853.594552,536.266849,1184.329507,9178.553681
853.594871,766.095498,1184.329507,9252.574275
853.595190,459.657299,962.267725,9178.553681
853.595509,459.657299,1110.308913,9252.574275
853.595828,842.705048,814.226536,9178.553681
853.596147,689.485948,1036.288319,9474.636058
853.596466,383.047749,1036.288319,9400.615463
853.596785,383.047749,814.226536,9400.615463
853.597104,536.266849,740.205942,9400.615463
853.597423,612.876398,814.226536,9178.553681
853.597741,459.657299,888.247130,9474.636058
853.598060,153.219100,740.205942,9400.615463
853.598379,229.828649,592.164754,9400.615463
853.598698,383.047749,666.185348,9252.574275
853.599017,229.828649,666.185348,9548.656652
853.599336,229.828649,370.102971,9326.594869
853.599655,306.438199,296.082377,9400.615463
853.599974,306.438199,296.082377,9474.636058
853.600293,842.705048,222.061783,9474.636058
853.600612,766.095498,-74.020594,9548.656652
853.600930,459.657299,296.082377,9326.594869
853.601249,229.828649,-74.020594,9474.636058
853.601568,229.828649,296.082377,9474.636058
853.601887,689.485948,-0.000000,9474.636058
853.602206,612.876398,-0.000000,9474.636058
853.602525,536.266849,-296.082377,9252.574275
853.602844,383.047749,-0.000000,9400.615463
853.603163,306.438199,-0.000000,9474.636058
853.603482,536.266849,-74.020594,9400.615463
853.603801,612.876398,-222.061783,9178.553681
853.604119,459.657299,-0.000000,9400.615463
853.604438,766.095498,-0.000000,9178.553681
853.604757,689.485948,-0.000000,9252.574275
853.605076,919.314598,-0.000000,9104.533087
853.605395,459.657299,148.041188,9252.574275
853.605714,536.266849,74.020594,8956.491898
853.606033,689.485948,-0.000000,9104.533087
853.606352,689.485948,222.061783,9030.512492
853.606671,919.314598,222.061783,8808.450710
853.606990,536.266849,370.102971,8956.491898
853.607308,459.657299,148.041188,9030.512492
853.607627,383.047749,296.082377,8882.471304
853.607946,459.657299,370.102971,8808.450710
853.608265,459.657299,518.144159,8882.471304
853.608584,383.047749,222.061783,8882.471304
853.608903,306.438199,666.185348,9030.512492
853.609222,536.266849,740.205942,8956.491898
853.609541,76.609550,666.185348,9104.533087
853.609860,306.438199,518.144159,8808.450710
853.610179,0.000000,518.144159,9104.533087
853.610497,153.219100,444.123565,8956.491898
853.610816,153.219100,222.061783,9178.553681
853.611135,0.000000,-0.000000,9178.553681
853.611454,0.000000,296.082377,9104.533087
853.611773,0.000000,296.082377,9252.574275
853.612092,0.000000,296.082377,9178.553681
853.612411,76.609550,222.061783,9104.533087
853.612730,0.000000,296.082377,9252.574275
853.613049,0.000000,370.102971,9326.594869
853.613368,-229.828649,296.082377,9474.636058
853.613686,0.000000,222.061783,9474.636058
853.614005,-229.828649,-74.020594,9474.636058
853.614324,-229.828649,-0.000000,9474.636058
853.614643,0.000000,-0.000000,9548.656652
853.614962,0.000000,-0.000000,9548.656652
853.615281,0.000000,74.020594,9622.677246
853.615600,306.438199,-0.000000,9622.677246
853.615919,459.657299,222.061783,9474.636058
853.616238,306.438199,-0.000000,9474.636058
853.616557,153.219100,-0.000000,9474.636058
853.616875,76.609550,74.020594,9474.636058
853.617194,919.314598,-0.000000,9474.636058
853.617513,383.047749,148.041188,9548.656652
853.617832,459.657299,148.041188,9548.656652
853.618151,383.047749,222.061783,9622.677246
853.618470,459.657299,296.082377,9548.656652
853.618789,536.266849,370.102971,9326.594869
853.619108,842.705048,296.082377,9474.636058
853.619427,536.266849,370.102971,9252.574275
853.619746,919.314598,592.164754,9178.553681
853.620064,995.924147,222.061783,9474.636058
853.620383,919.314598,518.144159,9326.594869
853.620702,919.314598,740.205942,9178.553681
853.621021,995.924147,888.247130,8956.491898
853.621340,919.314598,814.226536,8808.450710
853.621659,1225.752797,962.267725,8734.430116
853.621978,919.314598,814.226536,8734.430116
853.622297,1072.533697,888.247130,8734.430116
853.622616,766.095498,888.247130,8956.491898
853.622935,919.314598,740.205942,8882.471304
853.623253,766.095498,666.185348,8956.491898
853.623572,919.314598,1036.288319,8882.471304
853.623891,536.266849,962.267725,8808.450710
853.624210,536.266849,962.267725,8956.491898
853.624529,306.438199,962.267725,8882.471304
853.624848,306.438199,888.247130,8956.491898
853.625167,383.047749,666.185348,8956.491898
853.625486,306.438199,592.164754,8882.471304
853.625805,459.657299,962.267725,9104.533087
853.626124,536.266849,740.205942,8956.491898
853.626442,766.095498,592.164754,9252.574275
853.626761,612.876398,370.102971,9326.594869
853.627080,153.219100,370.102971,9030.512492
853.627399,306.438199,370.102971,9474.636058
853.627718,0.000000,148.041188,9474.636058
853.628037,306.438199,148.041188,9474.636058
853.628356,306.438199,-0.000000,9474.636058
853.628675,76.609550,296.082377,9622.677246
853.628994,229.828649,-0.000000,9474.636058
853.629313,459.657299,-74.020594,9474.636058
853.629631,0.000000,-148.041188,9548.656652
853.629950,383.047749,-222.061783,9474.636058
853.630269,459.657299,-74.020594,9548.656652
853.630588,689.485948,-0.000000,9474.636058
853.630907,612.876398,-222.061783,9474.636058
853.631226,536.266849,-0.000000,9400.615463
853.631545,689.485948,-0.000000,9474.636058
853.631864,536.266849,-0.000000,9474.636058
853.632183,766.095498,-0.000000,9622.677246
853.632502,306.438199,-0.000000,9696.697840
853.632820,919.314598,-0.000000,9474.636058
853.633139,689.485948,370.102971,9178.553681
853.633458,689.485948,222.061783,9400.615463
853.633777,689.485948,444.123565,9400.615463
853.634096,995.924147,-0.000000,9326.594869
853.634415,689.485948,592.164754,9326.594869
853.634734,766.095498,518.144159,9178.553681
853.635053,689.485948,370.102971,8956.491898
853.635372,842.705048,888.247130,9104.533087
853.635690,459.657299,444.123565,9548.656652
853.636009,229.828649,444.123565,9252.574275
853.636328,383.047749,518.144159,8882.471304
853.636647,153.219100,518.144159,8956.491898
853.636966,-229.828649,370.102971,9252.574275
853.637285,76.609550,444.123565,9178.553681
853.637604,0.000000,518.144159,9104.533087
853.637923,76.609550,592.164754,9030.512492
853.638242,76.609550,592.164754,9030.512492
853.638561,-229.828649,444.123565,9252.574275
853.638879,0.000000,592.164754,9252.574275
853.639198,0.000000,370.102971,9104.533087
853.639517,0.000000,222.061783,8808.450710
853.639836,0.000000,518.144159,9326.594869
853.640155,0.000000,370.102971,9030.512492
853.640474,0.000000,296.082377,9030.512492
853.640793,0.000000,296.082377,9326.594869
853.641112,0.000000,370.102971,9252.574275
853.641431,-229.828649,148.041188,9400.615463
853.641750,153.219100,-0.000000,9252.574275
853.642068,153.219100,74.020594,9178.553681
853.642387,76.609550,222.061783,9474.636058
853.642706,153.219100,148.041188,9400.615463
853.643025,0.000000,-0.000000,9474.636058
853.643344,76.609550,-74.020594,9326.594869
853.643663,306.438199,-0.000000,9474.636058
853.643982,306.438199,-0.000000,9326.594869
853.644301,612.876398,-0.000000,9400.615463
853.644620,612.876398,-370.102971,9474.636058
853.644939,459.657299,-222.061783,9326.594869
853.645257,612.876398,-74.020594,9252.574275
853.645576,536.266849,-0.000000,9474.636058
853.645895,995.924147,-74.020594,9326.594869
853.646214,842.705048,148.041188,9326.594869
853.646533,612.876398,-0.000000,9252.574275
853.646852,689.485948,148.041188,9104.533087
853.647171,766.095498,-0.000000,9252.574275
853.647490,842.705048,370.102971,9104.533087
853.647809,766.095498,148.041188,9326.594869
853.648128,995.924147,370.102971,9178.553681
853.648446,536.266849,592.164754,9178.553681
853.648765,612.876398,666.185348,9030.512492
853.649084,995.924147,740.205942,9030.512492
853.649403,919.314598,740.205942,8956.491898
853.649722,842.705048,592.164754,8882.471304
853.650041,1149.143247,888.247130,9178.553681
853.650360,766.095498,814.226536,8956.491898
853.650679,689.485948,1110.308913,9104.533087
853.650998,842.705048,888.247130,9178.553681
853.651317,383.047749,814.226536,9104.533087
853.651636,995.924147,1036.288319,8956.491898
853.651954,612.876398,888.247130,9104.533087
853.652273,766.095498,1036.288319,9030.512492
853.652592,383.047749,814.226536,8956.491898
853.652911,612.876398,1110.308913,9178.553681
853.653230,612.876398,962.267725,9178.553681
853.653549,459.657299,962.267725,9252.574275
853.653868,536.266849,962.267725,9252.574275
853.654187,306.438199,814.226536,9252.574275
853.654506,766.095498,814.226536,9252.574275
853.654825,76.609550,740.205942,9252.574275
853.655143,536.266849,814.226536,9474.636058
853.655462,536.266849,888.247130,9474.636058
853.655781,383.047749,666.185348,9474.636058
853.656100,153.219100,740.205942,9548.656652
853.656419,459.657299,592.164754,9696.697840
853.656738,459.657299,296.082377,9770.718434
853.657057,766.095498,148.041188,9696.697840
853.657376,536.266849,296.082377,9622.677246
853.657695,459.657299,296.082377,9474.636058
853.658014,842.705048,296.082377,9622.677246
853.658332,383.047749,296.082377,9474.636058
853.658651,766.095498,-0.000000,9844.739029
853.658970,689.485948,296.082377,9696.697840
853.659289,689.485948,222.061783,9770.718434
853.659608,459.657299,-0.000000,9474.636058
853.659927,612.876398,-0.000000,9548.656652
853.660246,612.876398,-0.000000,9844.739029
853.660565,536.266849,222.061783,9474.636058
853.660884,459.657299,-0.000000,9474.636058
853.661203,612.876398,-0.000000,9474.636058
853.661521,459.657299,-74.020594,9548.656652
853.661840,536.266849,74.020594,9474.636058
853.662159,766.095498,222.061783,9252.574275
853.662478,536.266849,296.082377,9178.553681
853.662797,689.485948,444.123565,9252.574275
853.663116,536.266849,296.082377,9104.533087
853.663435,459.657299,518.144159,9030.512492
853.663754,689.485948,444.123565,9030.512492
853.664073,459.657299,444.123565,8882.471304
853.664392,612.876398,444.123565,8734.430116
853.664710,689.485948,148.041188,8660.409521
853.665029,153.219100,444.123565,8734.430116
853.665348,459.657299,592.164754,8660.409521
853.665667,306.438199,518.144159,8808.450710
853.665986,153.219100,-0.000000,8808.450710
853.666305,306.438199,370.102971,8734.430116
853.666624,306.438199,296.082377,8808.450710
853.666943,76.609550,296.082377,8882.471304
853.667262,76.609550,296.082377,8660.409521
853.667581,0.000000,592.164754,9104.533087
853.667899,306.438199,518.144159,9104.533087
853.668218,0.000000,370.102971,8956.491898
853.668537,76.609550,370.102971,8956.491898
853.668856,0.000000,-0.000000,8882.471304
853.669175,229.828649,444.123565,8956.491898
853.669494,0.000000,74.020594,9104.533087
853.669813,0.000000,-0.000000,9104.533087
853.670132,0.000000,-0.000000,9104.533087
853.670451,-76.609550,148.041188,9178.553681
853.670770,76.609550,-0.000000,9474.636058
853.671088,306.438199,-0.000000,9326.594869
853.671407,0.000000,-222.061783,9474.636058
853.671726,229.828649,-74.020594,9326.594869
853.672045,76.609550,-148.041188,9474.636058
853.672364,306.438199,-148.041188,9474.636058
853.672683,0.000000,-74.020594,9474.636058
853.673002,153.219100,-74.020594,9474.636058
853.673321,153.219100,-0.000000,9474.636058
853.673640,306.438199,-0.000000,9326.594869
853.673959,229.828649,-74.020594,9400.615463
853.674277,153.219100,-0.000000,9474.636058
853.674596,76.609550,-0.000000,9474.636058
853.674915,229.828649,-0.000000,9474.636058
853.675234,612.876398,-74.020594,9696.697840
853.675553,306.438199,222.061783,9474.636058
853.675872,612.876398,370.102971,9474.636058
853.676191,842.705048,518.144159,9326.594869
853.676510,1149.143247,444.123565,9326.594869
853.676829,842.705048,444.123565,9178.553681
853.677148,842.705048,1036.288319,9252.574275
853.677466,612.876398,740.205942,9252.574275
853.677785,842.705048,1110.308913,9252.574275
853.678104,919.314598,888.247130,9030.512492
853.678423,919.314598,1036.288319,9178.553681
853.678742,689.485948,1110.308913,9178.553681
853.679061,842.705048,962.267725,9030.512492
853.679380,766.095498,1110.308913,9030.512492
853.679699,919.314598,1184.329507,9030.512492
853.680018,842.705048,1110.308913,8882.471304
853.680337,689.485948,1184.329507,9178.553681
853.680655,612.876398,962.267725,8956.491898
853.680974,919.314598,1036.288319,9030.512492
853.681293,766.095498,962.267725,9104.533087
853.681612,459.657299,1258.350101,9104.533087
853.681931,459.657299,1036.288319,9178.553681
853.682250,536.266849,1036.288319,9178.553681
853.682569,459.657299,962.267725,9104.533087
853.682888,459.657299,814.226536,9178.553681
853.683207,306.438199,666.185348,9178.553681
853.683526,0.000000,1110.308913,9622.677246
853.683845,76.609550,592.164754,9178.553681
853.684163,76.609550,666.185348,9400.615463
853.684482,0.000000,444.123565,9474.636058
853.684801,229.828649,518.144159,9474.636058
853.685120,306.438199,444.123565,9474.636058
853.685439,76.609550,444.123565,9548.656652
853.685758,76.609550,444.123565,9548.656652
853.686077,229.828649,-0.000000,9548.656652
853.686396,229.828649,-0.000000,9548.656652
853.686715,153.219100,222.061783,9474.636058
853.687034,306.438199,148.041188,9474.636058
853.687352,229.828649,-74.020594,9548.656652
853.687671,306.438199,-0.000000,9474.636058
853.687990,459.657299,-0.000000,9474.636058
853.688309,459.657299,-0.000000,9474.636058
853.688628,536.266849,-0.000000,9400.615463
853.688947,536.266849,-0.000000,9326.594869
853.689266,536.266849,-0.000000,9474.636058
853.689585,766.095498,-0.000000,9400.615463
853.689904,842.705048,-0.000000,9400.615463
853.690223,459.657299,-444.123565,8882.471304
853.690541,459.657299,-148.041188,9178.553681
853.690860,383.047749,-0.000000,9474.636058
853.691179,612.876398,-0.000000,9252.574275
853.691498,1532.190996,148.041188,9178.553681
853.691817,383.047749,-0.000000,9252.574275
853.692136,459.657299,222.061783,8882.471304
853.692455,306.438199,370.102971,8956.491898
853.692774,229.828649,148.041188,8956.491898
853.693093,229.828649,222.061783,9030.512492
853.693412,153.219100,-0.000000,8734.430116
853.693730,459.657299,296.082377,8882.471304
853.694049,0.000000,592.164754,9178.553681
853.694368,76.609550,444.123565,8882.471304
853.694687,76.609550,518.144159,9030.512492
853.695006,0.000000,-0.000000,8882.471304
853.695325,0.000000,222.061783,8882.471304
853.695644,-229.828649,-0.000000,8808.450710
853.695963,76.609550,370.102971,9030.512492
853.696282,229.828649,148.041188,9030.512492
853.696601,153.219100,444.123565,8882.471304
853.696919,0.000000,296.082377,9104.533087
853.697238,0.000000,370.102971,9104.533087
853.697557,0.000000,296.082377,9178.553681
853.697876,0.000000,222.061783,9326.594869
853.698195,0.000000,148.041188,9326.594869
853.698514,0.000000,-0.000000,9326.594869
853.698833,0.000000,148.041188,9326.594869
853.699152,0.000000,74.020594,9474.636058
853.699471,612.876398,-222.061783,9548.656652
853.699790,229.828649,74.020594,9252.574275
853.700108,229.828649,370.102971,9474.636058
853.700427,76.609550,-0.000000,9474.636058
853.700746,459.657299,-0.000000,9474.636058
853.701065,229.828649,-0.000000,9474.636058
853.701384,612.876398,-0.000000,9474.636058
853.701703,612.876398,-0.000000,9770.718434
853.702022,536.266849,-0.000000,9474.636058
853.702341,306.438199,370.102971,9696.697840
853.702660,536.266849,222.061783,9548.656652
853.702979,536.266849,296.082377,9474.636058
853.703297,689.485948,148.041188,9474.636058
853.703616,612.876398,222.061783,9474.636058
853.703935,612.876398,148.041188,9474.636058
853.704254,842.705048,444.123565,9400.615463
853.704573,689.485948,592.164754,9326.594869
853.704892,689.485948,518.144159,9474.636058
853.705211,842.705048,740.205942,9252.574275
853.705530,766.095498,888.247130,9178.553681
853.705849,1072.533697,962.267725,9326.594869
853.706168,689.485948,1036.288319,9326.594869
853.706486,919.314598,814.226536,9030.512492
853.706805,919.314598,1184.329507,9252.574275
853.707124,919.314598,962.267725,8734.430116
853.707443,766.095498,962.267725,9030.512492
853.707762,612.876398,962.267725,9178.553681
853.708081,536.266849,1036.288319,9104.533087
853.708400,766.095498,1110.308913,9178.553681
853.708719,536.266849,1110.308913,9252.574275
853.709038,536.266849,1036.288319,9178.553681
853.709357,612.876398,1036.288319,9030.512492
853.709675,306.438199,962.267725,9030.512492
853.709994,229.828649,740.205942,9252.574275
853.710313,536.266849,888.247130,9252.574275
853.710632,459.657299,888.247130,9326.594869
853.710951,306.438199,666.185348,9252.574275
853.711270,229.828649,666.185348,9252.574275
853.711589,383.047749,592.164754,9326.594869
853.711908,76.609550,518.144159,9400.615463
853.712227,229.828649,370.102971,9326.594869
853.712546,306.438199,444.123565,9548.656652
853.712864,536.266849,148.041188,9400.615463
853.713183,689.485948,222.061783,9474.636058
853.713502,383.047749,296.082377,9474.636058
853.713821,459.657299,148.041188,9548.656652
853.714140,0.000000,222.061783,9474.636058
853.714459,766.095498,148.041188,9474.636058
853.714778,612.876398,-0.000000,9548.656652
853.715097,459.657299,74.020594,9474.636058
853.715416,383.047749,-148.041188,9474.636058
853.715735,459.657299,-0.000000,9474.636058
853.716053,919.314598,-0.000000,9696.697840
853.716372,689.485948,-0.000000,9474.636058
853.716691,766.095498,-74.020594,9474.636058
853.717010,536.266849,-0.000000,9474.636058
853.717329,919.314598,-0.000000,9326.594869
853.717648,612.876398,-0.000000,9474.636058
853.717967,536.266849,-0.000000,9104.533087
853.718286,842.705048,-0.000000,9400.615463
853.718605,766.095498,-0.000000,9104.533087
853.718924,995.924147,-0.000000,9400.615463
853.719242,612.876398,222.061783,9252.574275
853.719561,689.485948,444.123565,9178.553681
853.719880,612.876398,370.102971,8956.491898
853.720199,1149.143247,370.102971,8956.491898
853.720518,306.438199,444.123565,9030.512492
853.720837,459.657299,444.123565,8956.491898
853.721156,459.657299,518.144159,8882.471304
853.721475,383.047749,592.164754,9030.512492
853.721794,995.924147,444.123565,9030.512492
853.722113,229.828649,592.164754,8808.450710
853.722431,689.485948,518.144159,8808.450710
853.722750,306.438199,592.164754,9104.533087
853.723069,76.609550,444.123565,9178.553681
853.723388,-153.219100,222.061783,8956.491898
853.723707,0.000000,296.082377,8956.491898
853.724026,0.000000,222.061783,8882.471304
853.724345,76.609550,-0.000000,9030.512492
853.724664,0.000000,296.082377,9178.553681
853.724983,0.000000,-0.000000,8956.491898
853.725302,153.219100,370.102971,8882.471304
853.725620,76.609550,296.082377,9252.574275
853.725939,0.000000,148.041188,9252.574275
853.726258,229.828649,-0.000000,9252.574275
853.726577,76.609550,-148.041188,9474.636058
853.726896,306.438199,-0.000000,9326.594869
853.727215,306.438199,222.061783,9400.615463
853.727534,153.219100,148.041188,9400.615463
853.727853,383.047749,148.041188,9474.636058
853.728172,0.000000,-296.082377,9474.636058
853.728491,459.657299,-74.020594,9400.615463
853.728809,383.047749,-0.000000,9474.636058
853.729128,229.828649,222.061783,9474.636058
853.729447,153.219100,-0.000000,9400.615463
853.729766,153.219100,-0.000000,9474.636058
853.730085,536.266849,-0.000000,9548.656652
853.730404,459.657299,148.041188,9474.636058
853.730723,536.266849,222.061783,9622.677246
853.731042,459.657299,222.061783,9622.677246
853.731361,689.485948,-0.000000,9474.636058
853.731680,536.266849,-0.000000,9400.615463
853.731998,995.924147,444.123565,9252.574275
853.732317,842.705048,370.102971,9400.615463
853.732636,459.657299,444.123565,9474.636058
853.732955,536.266849,518.144159,9178.553681
853.733274,766.095498,518.144159,9252.574275
853.733593,842.705048,518.144159,9178.553681
853.733912,1072.533697,740.205942,9178.553681
853.734231,766.095498,814.226536,9104.533087
853.734550,919.314598,1110.308913,8734.430116
853.734869,919.314598,962.267725,9030.512492
853.735187,1149.143247,1036.288319,8882.471304
853.735506,1149.143247,1036.288319,8882.471304
853.735825,1302.362347,962.267725,8808.450710
853.736144,995.924147,1184.329507,8956.491898
853.736463,995.924147,962.267725,8734.430116
853.736782,1149.143247,962.267725,9030.512492
853.737101,995.924147,1036.288319,9252.574275
853.737420,536.266849,962.267725,9030.512492
853.737739,612.876398,962.267725,9178.553681
853.738058,766.095498,1184.329507,8956.491898
853.738376,766.095498,1036.288319,9400.615463
853.738695,842.705048,740.205942,9252.574275
853.739014,459.657299,962.267725,9104.533087
853.739333,459.657299,888.247130,9030.512492
853.739652,766.095498,814.226536,9400.615463
853.739971,995.924147,814.226536,9178.553681
853.740290,612.876398,444.123565,9474.636058
853.740609,459.657299,444.123565,9326.594869
853.740928,229.828649,444.123565,9400.615463
853.741247,383.047749,592.164754,9474.636058
853.741565,842.705048,148.041188,9400.615463
853.741884,76.609550,518.144159,9474.636058
853.742203,459.657299,370.102971,9548.656652
853.742522,383.047749,222.061783,9696.697840
853.742841,76.609550,296.082377,9548.656652
853.743160,229.828649,-0.000000,9844.739029
853.743479,459.657299,-0.000000,9622.677246
853.743798,229.828649,-0.000000,9474.636058
853.744117,383.047749,-0.000000,9622.677246
853.744436,383.047749,-0.000000,9770.718434
853.744754,536.266849,-0.000000,9770.718434
853.745073,536.266849,-74.020594,9474.636058
853.745392,536.266849,-0.000000,9474.636058
853.745711,689.485948,-0.000000,9474.636058
853.746030,612.876398,148.041188,9474.636058
853.746349,919.314598,-222.061783,9474.636058
853.746668,1149.143247,296.082377,9474.636058
853.746987,459.657299,-0.000000,9400.615463
853.747306,995.924147,370.102971,9178.553681
853.747625,689.485948,222.061783,9400.615463
853.747943,919.314598,-0.000000,9326.594869
853.748262,536.266849,-0.000000,9104.533087
853.748581,689.485948,370.102971,9104.533087
853.748900,612.876398,222.061783,9178.553681
853.749219,306.438199,370.102971,8956.491898
853.749538,229.828649,222.061783,8956.491898
853.749857,383.047749,-0.000000,9104.533087
853.750176,153.219100,444.123565,9104.533087
853.750495,153.219100,370.102971,9104.533087
853.750814,76.609550,592.164754,8956.491898
853.751132,-229.828649,592.164754,8882.471304
853.751451,229.828649,296.082377,8808.450710
853.751770,153.219100,370.102971,8882.471304
853.752089,0.000000,222.061783,8808.450710
853.752408,0.000000,148.041188,8956.491898
853.752727,-153.219100,148.041188,9030.512492
853.753046,-153.219100,148.041188,9178.553681
853.753365,229.828649,222.061783,8882.471304
853.753684,0.000000,-0.000000,8956.491898
853.754003,76.609550,148.041188,9178.553681
853.754322,-229.828649,148.041188,9030.512492
853.754641,153.219100,148.041188,9178.553681
853.754960,76.609550,148.041188,9326.594869
853.755278,0.000000,148.041188,9474.636058
853.755597,153.219100,-0.000000,9474.636058
853.755916,229.828649,-0.000000,9474.636058
853.756235,229.828649,-0.000000,9400.615463
853.756554,0.000000,-0.000000,9474.636058
853.756873,383.047749,148.041188,9104.533087
853.757192,306.438199,148.041188,9400.615463
853.757511,383.047749,148.041188,9474.636058
853.757830,153.219100,296.082377,9548.656652
853.758149,612.876398,-0.000000,9326.594869
853.758468,0.000000,-370.102971,9400.615463
853.758787,459.657299,-0.000000,9326.594869
853.759106,383.047749,370.102971,9474.636058
853.759425,612.876398,148.041188,9326.594869
853.759743,766.095498,222.061783,9252.574275
853.760062,842.705048,370.102971,9474.636058
853.760381,383.047749,148.041188,9326.594869
853.760700,842.705048,518.144159,9178.553681
853.761019,766.095498,444.123565,9474.636058
853.761338,1072.533697,592.164754,9400.615463
853.761657,919.314598,666.185348,9178.553681
853.761976,766.095498,592.164754,9104.533087
853.762295,919.314598,814.226536,9104.533087
853.762614,766.095498,888.247130,9030.512492
853.762933,689.485948,888.247130,8956.491898
853.763252,842.705048,814.226536,9326.594869
853.763571,842.705048,814.226536,9030.512492
853.763890,1072.533697,888.247130,8882.471304
853.764208,689.485948,814.226536,9104.533087
853.764527,689.485948,1110.308913,9104.533087
853.764846,766.095498,1258.350101,9030.512492
853.765165,689.485948,740.205942,9030.512492
853.765484,459.657299,1036.288319,9030.512492
853.765803,459.657299,962.267725,9178.553681
853.766122,459.657299,814.226536,9326.594869
853.766441,383.047749,444.123565,9326.594869
853.766760,383.047749,962.267725,9104.533087
853.767079,383.047749,962.267725,9474.636058
853.767398,0.000000,888.247130,9326.594869
853.767717,383.047749,962.267725,9400.615463
853.768036,153.219100,740.205942,9252.574275
853.768355,229.828649,592.164754,9400.615463
853.768673,76.609550,740.205942,9474.636058
853.768992,153.219100,370.102971,9400.615463
853.769311,76.609550,370.102971,9474.636058
853.769630,459.657299,370.102971,9474.636058
853.769949,153.219100,-0.000000,9474.636058
853.770268,153.219100,296.082377,9474.636058
853.770587,306.438199,222.061783,9474.636058
853.770906,383.047749,-0.000000,9548.656652
853.771225,383.047749,148.041188,9548.656652
853.771544,383.047749,-0.000000,9474.636058
853.771863,383.047749,-0.000000,9178.553681
853.772182,459.657299,222.061783,9474.636058
853.772501,306.438199,-74.020594,9474.636058
853.772819,842.705048,-0.000000,9474.636058
853.773138,612.876398,-148.041188,9696.697840
853.773457,689.485948,-0.000000,9326.594869
853.773776,919.314598,-0.000000,9252.574275
853.774095,689.485948,-74.020594,9474.636058
853.774414,995.924147,-0.000000,9400.615463
853.774733,919.314598,-0.000000,9252.574275
853.775052,612.876398,296.082377,9326.594869
853.775371,995.924147,-0.000000,9178.553681
853.775690,612.876398,-74.020594,9178.553681
853.776009,612.876398,222.061783,8882.471304
853.776328,689.485948,370.102971,9178.553681
853.776647,536.266849,370.102971,8882.471304
853.776966,459.657299,-0.000000,9104.533087
853.777284,383.047749,444.123565,8956.491898
853.777603,383.047749,222.061783,9030.512492
853.777922,383.047749,444.123565,8882.471304
853.778241,536.266849,444.123565,9104.533087
853.778560,459.657299,518.144159,8882.471304
853.778879,0.000000,592.164754,9030.512492
853.779198,76.609550,518.144159,8808.450710
853.779517,0.000000,444.123565,8808.450710
853.779836,76.609550,592.164754,9104.533087
853.780155,-306.438199,444.123565,8882.471304
853.780474,0.000000,444.123565,9030.512492
853.780793,0.000000,444.123565,9178.553681
853.781112,0.000000,-0.000000,9104.533087
853.781431,-229.828649,222.061783,9178.553681
853.781749,0.000000,370.102971,9030.512492
853.782068,0.000000,148.041188,9474.636058
853.782387,0.000000,296.082377,9252.574275
853.782706,0.000000,370.102971,9696.697840
853.783025,0.000000,148.041188,9252.574275
853.783344,0.000000,148.041188,9252.574275
853.783663,0.000000,-0.000000,9326.594869
853.783982,153.219100,-0.000000,9326.594869
853.784301,0.000000,148.041188,9474.636058
853.784620,153.219100,-0.000000,9400.615463
853.784939,153.219100,-0.000000,9474.636058
853.785258,153.219100,148.041188,9474.636058
853.785577,229.828649,-0.000000,9474.636058
853.785896,306.438199,-148.041188,9474.636058
853.786214,0.000000,-0.000000,9622.677246
853.786533,229.828649,-0.000000,9474.636058
853.786852,536.266849,148.041188,9548.656652
853.787171,383.047749,-0.000000,9548.656652
853.787490,459.657299,296.082377,9474.636058
853.787809,229.828649,222.061783,9622.677246
853.788128,459.657299,-0.000000,9474.636058
853.788447,536.266849,370.102971,9474.636058
853.788766,76.609550,444.123565,9548.656652
853.789085,383.047749,296.082377,9548.656652
853.789404,842.705048,592.164754,9474.636058
853.789723,689.485948,592.164754,9474.636058
853.790042,459.657299,444.123565,9252.574275
853.790361,689.485948,518.144159,9252.574275
853.790679,995.924147,740.205942,9104.533087
853.790998,766.095498,888.247130,9104.533087
853.791317,842.705048,1110.308913,9030.512492
853.791636,1149.143247,1184.329507,9104.533087
853.791955,1685.410096,1036.288319,9178.553681
853.792274,766.095498,1110.308913,9252.574275
853.792593,612.876398,1110.308913,8882.471304
853.792912,842.705048,1036.288319,8882.471304
853.793231,842.705048,1110.308913,8956.491898
853.793550,612.876398,1110.308913,9178.553681
853.793869,766.095498,1110.308913,9030.512492
853.794188,536.266849,888.247130,8956.491898
853.794507,766.095498,1110.308913,8956.491898
853.794826,995.924147,1036.288319,9030.512492
853.795144,76.609550,814.226536,9400.615463
853.795463,306.438199,1184.329507,9326.594869
853.795782,536.266849,962.267725,9030.512492
853.796101,459.657299,814.226536,9326.594869
853.796420,153.219100,740.205942,9400.615463
853.796739,383.047749,740.205942,9400.615463
853.797058,153.219100,518.144159,9400.615463
853.797377,383.047749,518.144159,9326.594869
853.797696,153.219100,444.123565,9400.615463
853.798015,229.828649,444.123565,9326.594869
853.798334,383.047749,370.102971,9548.656652
853.798653,229.828649,370.102971,9548.656652
853.798972,612.876398,148.041188,9474.636058
853.799290,306.438199,148.041188,9474.636058
853.799609,842.705048,-148.041188,9622.677246
853.799928,383.047749,-0.000000,9474.636058
853.800247,459.657299,-0.000000,9548.656652
853.800566,459.657299,-0.000000,9548.656652
853.800885,306.438199,-222.061783,9622.677246
853.801204,459.657299,-296.082377,9622.677246
853.801523,995.924147,-0.000000,9474.636058
853.801842,689.485948,-222.061783,9326.594869
853.802161,612.876398,-0.000000,9326.594869
853.802480,766.095498,-0.000000,9474.636058
853.802799,689.485948,-0.000000,9400.615463
853.803118,689.485948,-0.000000,9326.594869
853.803437,612.876398,148.041188,9474.636058
853.803755,689.485948,148.041188,9326.594869
853.804074,842.705048,-0.000000,9252.574275
853.804393,842.705048,370.102971,9252.574275
853.804712,0.000000,148.041188,9104.533087
853.805031,689.485948,370.102971,8956.491898
853.805350,459.657299,296.082377,8956.491898
853.805669,306.438199,-74.020594,8882.471304
853.805988,459.657299,148.041188,9030.512492
853.806307,459.657299,370.102971,9104.533087
853.806626,153.219100,370.102971,9178.553681
853.806945,0.000000,-0.000000,8956.491898
853.807264,306.438199,518.144159,9252.574275
853.807583,76.609550,222.061783,9104.533087
853.807902,229.828649,444.123565,8882.471304
853.808220,0.000000,370.102971,8956.491898
853.808539,153.219100,-0.000000,9104.533087
853.808858,153.219100,444.123565,8882.471304
853.809177,76.609550,370.102971,9104.533087
853.809496,0.000000,296.082377,9030.512492
853.809815,76.609550,370.102971,9104.533087
853.810134,0.000000,-0.000000,9400.615463
853.810453,0.000000,148.041188,9104.533087
853.810772,306.438199,370.102971,8956.491898
853.811091,383.047749,-0.000000,9326.594869
853.811410,689.485948,222.061783,9104.533087
853.811729,306.438199,-0.000000,9326.594869
853.812048,153.219100,-0.000000,9400.615463
853.812367,229.828649,-0.000000,9400.615463
853.812685,229.828649,-0.000000,9178.553681
853.813004,459.657299,148.041188,9474.636058
853.813323,536.266849,-0.000000,9326.594869
853.813642,459.657299,-0.000000,9400.615463
853.813961,536.266849,-0.000000,9474.636058
853.814280,383.047749,296.082377,9474.636058
853.814599,306.438199,-0.000000,9474.636058
853.814918,689.485948,-0.000000,9252.574275
853.815237,383.047749,148.041188,9474.636058
853.815556,459.657299,148.041188,9474.636058
853.815875,612.876398,-0.000000,9474.636058
853.816194,536.266849,222.061783,9400.615463
853.816513,536.266849,148.041188,9474.636058
853.816832,536.266849,518.144159,9474.636058
853.817150,153.219100,592.164754,9474.636058
853.817469,612.876398,370.102971,9252.574275
853.817788,612.876398,370.102971,9178.553681
853.818107,842.705048,592.164754,9252.574275
853.818426,383.047749,740.205942,9400.615463
853.818745,612.876398,592.164754,9178.553681
853.819064,229.828649,888.247130,9178.553681
853.819383,689.485948,740.205942,8956.491898
853.819702,689.485948,740.205942,9252.574275
853.820021,766.095498,888.247130,9178.553681
853.820340,536.266849,740.205942,9104.533087
853.820659,536.266849,666.185348,8956.491898
853.820978,612.876398,888.247130,8956.491898
853.821296,842.705048,962.267725,9326.594869
853.821615,995.924147,1110.308913,9104.533087
853.821934,766.095498,1036.288319,9030.512492
853.822253,842.705048,666.185348,9474.636058
853.822572,919.314598,740.205942,8956.491898
853.822891,766.095498,1036.288319,8956.491898
853.823210,766.095498,814.226536,9104.533087
853.823529,995.924147,592.164754,9252.574275
853.823848,383.047749,1036.288319,9178.553681
853.824167,842.705048,962.267725,9178.553681
853.824486,536.266849,592.164754,9326.594869
853.824805,459.657299,592.164754,9178.553681
853.825124,459.657299,666.185348,9474.636058
853.825443,689.485948,518.144159,9400.615463
853.825761,536.266849,296.082377,9474.636058
853.826080,153.219100,592.164754,9474.636058
853.826399,306.438199,370.102971,9474.636058
853.826718,383.047749,-0.000000,9474.636058
853.827037,306.438199,444.123565,9474.636058
853.827356,536.266849,148.041188,9252.574275
853.827675,459.657299,222.061783,9400.615463
853.827994,383.047749,-0.000000,9474.636058
853.828313,306.438199,-148.041188,9622.677246
853.828632,306.438199,-0.000000,9474.636058
853.828951,306.438199,-0.000000,9400.615463
853.829270,153.219100,-74.020594,9474.636058
853.829589,0.000000,296.082377,9474.636058
853.829908,689.485948,-666.185348,9400.615463
853.830226,229.828649,-0.000000,9696.697840
853.830545,383.047749,222.061783,9326.594869
853.830864,536.266849,-0.000000,9178.553681
853.831183,459.657299,296.082377,9400.615463
853.831502,689.485948,-0.000000,9400.615463
853.831821,689.485948,222.061783,9178.553681
853.832140,612.876398,148.041188,9178.553681
853.832459,612.876398,222.061783,9252.574275
853.832778,919.314598,296.082377,9400.615463
853.833097,919.314598,370.102971,8956.491898
853.833416,842.705048,296.082377,8882.471304
853.833735,842.705048,222.061783,8956.491898
853.834054,689.485948,444.123565,9030.512492
853.834373,766.095498,-296.082377,8956.491898
853.834691,612.876398,518.144159,9178.553681
853.835010,536.266849,518.144159,8956.491898
853.835329,229.828649,444.123565,9178.553681
853.835648,689.485948,444.123565,8956.491898
853.835967,153.219100,296.082377,8956.491898
853.836286,306.438199,518.144159,8956.491898
853.836605,0.000000,296.082377,9252.574275
853.836924,0.000000,222.061783,8882.471304
853.837243,153.219100,296.082377,9178.553681
853.837562,0.000000,444.123565,9104.533087
853.837881,0.000000,370.102971,9252.574275
853.838200,0.000000,370.102971,9104.533087
853.838519,0.000000,370.102971,9030.512492
853.838838,153.219100,-0.000000,9252.574275
853.839156,0.000000,-0.000000,9104.533087
853.839475,0.000000,222.061783,9474.636058
853.839794,-153.219100,-0.000000,9104.533087
853.840113,-383.047749,-148.041188,9104.533087
853.840432,-153.219100,-0.000000,9400.615463
853.840751,0.000000,-0.000000,9474.636058
853.841070,153.219100,-0.000000,9474.636058
853.841389,0.000000,-74.020594,9474.636058
853.841708,153.219100,222.061783,9474.636058
853.842027,306.438199,-74.020594,9474.636058
853.842346,153.219100,-0.000000,9400.615463
853.842665,383.047749,74.020594,9400.615463
853.842984,153.219100,-0.000000,9326.594869
853.843302,536.266849,-0.000000,9474.636058
853.843621,459.657299,-74.020594,9474.636058
853.843940,306.438199,-0.000000,9252.574275
853.844259,536.266849,148.041188,9252.574275
853.844578,536.266849,222.061783,9326.594869
853.844897,459.657299,-0.000000,9252.574275
853.845216,689.485948,296.082377,9474.636058
853.845535,766.095498,444.123565,9474.636058
853.845854,689.485948,518.144159,9326.594869
853.846173,612.876398,444.123565,9252.574275
853.846492,919.314598,370.102971,9252.574275
853.846811,1072.533697,814.226536,9252.574275
853.847130,919.314598,740.205942,9400.615463
853.847449,919.314598,814.226536,9104.533087
853.847767,1302.362347,814.226536,8734.430116
853.848086,1149.143247,814.226536,9104.533087
853.848405,1072.533697,814.226536,9030.512492
853.848724,919.314598,962.267725,8882.471304
853.849043,995.924147,962.267725,9030.512492
853.849362,995.924147,740.205942,9178.553681
853.849681,919.314598,962.267725,9252.574275
853.850000,612.876398,814.226536,8956.491898
853.850319,612.876398,1258.350101,9104.533087
853.850638,383.047749,1110.308913,9178.553681
853.850957,536.266849,888.247130,9178.553681
853.851276,306.438199,1110.308913,9178.553681
853.851595,383.047749,962.267725,9178.553681
853.851914,536.266849,962.267725,9252.574275
853.852233,76.609550,888.247130,9252.574275
853.852552,383.047749,666.185348,9104.533087
853.852871,459.657299,1036.288319,9252.574275
853.853190,153.219100,740.205942,9474.636058
853.853508,383.047749,814.226536,9326.594869
853.853827,459.657299,666.185348,9326.594869
853.854146,306.438199,740.205942,9474.636058
853.854465,76.609550,666.185348,9400.615463
853.854784,306.438199,444.123565,9474.636058
853.855103,229.828649,222.061783,9474.636058
853.855422,306.438199,222.061783,9474.636058
853.855741,459.657299,444.123565,9622.677246
853.856060,306.438199,-0.000000,9548.656652
853.856379,383.047749,148.041188,9548.656652
853.856698,612.876398,222.061783,9548.656652
853.857017,459.657299,296.082377,9622.677246
853.857336,612.876398,-74.020594,9548.656652
853.857655,536.266849,-0.000000,9474.636058
853.857974,612.876398,-0.000000,9548.656652
853.858293,1072.533697,-0.000000,9474.636058
853.858612,766.095498,-74.020594,9400.615463
853.858931,919.314598,-148.041188,9474.636058
853.859250,306.438199,-74.020594,9696.697840
853.859569,536.266849,-0.000000,9474.636058
853.859888,612.876398,-0.000000,9326.594869
853.860207,612.876398,-0.000000,9326.594869
853.860526,689.485948,222.061783,9400.615463
853.860845,536.266849,148.041188,9104.533087
853.861164,383.047749,-0.000000,9104.533087
853.861483,612.876398,-0.000000,9030.512492
