#time,accel_x,accel_y,accel_z
1110.480651,536.266849,-0.000000,9326.594869
1110.480969,306.438199,-74.020594,9178.553681
1110.481288,229.828649,222.061783,9252.574275
1110.481607,459.657299,-0.000000,9104.533087
1110.481926,306.438199,296.082377,9178.553681
1110.482245,612.876398,148.041188,9252.574275
1110.482564,383.047749,370.102971,9252.574275
1110.482883,459.657299,370.102971,9400.615463
1110.483201,459.657299,148.041188,9252.574275
1110.483520,612.876398,592.164754,9326.594869
1110.483839,766.095498,592.164754,9326.594869
1110.484158,612.876398,444.123565,9400.615463
1110.484477,536.266849,592.164754,9326.594869
1110.484796,459.657299,666.185348,9326.594869
1110.485115,919.314598,518.144159,9326.594869
1110.485433,383.047749,740.205942,9178.553681
1110.485752,842.705048,666.185348,9474.636058
1110.486071,306.438199,296.082377,9178.553681
1110.486390,536.266849,370.102971,9178.553681
1110.486709,689.485948,-0.000000,9178.553681
1110.487028,689.485948,222.061783,9326.594869
1110.487347,612.876398,148.041188,9252.574275
1110.487665,536.266849,222.061783,9326.594869
1110.487984,383.047749,370.102971,9178.553681
1110.488303,229.828649,222.061783,9178.553681
1110.488622,383.047749,-0.000000,9326.594869
1110.488941,459.657299,-0.000000,9326.594869
1110.489260,153.219100,222.061783,9252.574275
1110.489579,459.657299,-0.000000,9474.636058
1110.489897,459.657299,-0.000000,9474.636058
1110.490216,459.657299,222.061783,9400.615463
1110.490535,383.047749,-0.000000,9252.574275
1110.490854,459.657299,222.061783,9326.594869
1110.491173,459.657299,148.041188,9400.615463
1110.491492,383.047749,222.061783,9252.574275
1110.491811,229.828649,370.102971,9104.533087
1110.492129,459.657299,592.164754,9178.553681
1110.492448,536.266849,592.164754,9178.553681
1110.492767,995.924147,-0.000000,9252.574275
1110.493086,383.047749,444.123565,9326.594869
1110.493405,612.876398,518.144159,9400.615463
1110.493724,689.485948,666.185348,9252.574275
1110.494043,459.657299,370.102971,9326.594869
1110.494362,536.266849,518.144159,9474.636058
1110.494680,612.876398,370.102971,9178.553681
1110.494999,842.705048,370.102971,9178.553681
1110.495318,919.314598,444.123565,9104.533087
1110.495637,689.485948,666.185348,9474.636058
1110.495956,766.095498,592.164754,9326.594869
1110.496275,612.876398,296.082377,9178.553681
1110.496594,229.828649,370.102971,9326.594869
1110.496912,612.876398,296.082377,9252.574275
1110.497231,536.266849,222.061783,9104.533087
1110.497550,306.438199,-0.000000,9104.533087
1110.497869,536.266849,296.082377,9326.594869
1110.498188,536.266849,148.041188,9252.574275
1110.498507,459.657299,-0.000000,9252.574275
1110.498826,306.438199,-0.000000,9400.615463
1110.499144,229.828649,-222.061783,9178.553681
1110.499463,153.219100,148.041188,9326.594869
1110.499782,383.047749,-0.000000,9252.574275
1110.500101,383.047749,74.020594,9326.594869
1110.500420,229.828649,296.082377,9178.553681
1110.500739,153.219100,296.082377,9326.594869
1110.501058,229.828649,444.123565,9178.553681
1110.501376,306.438199,370.102971,9178.553681
1110.501695,842.705048,888.247130,9252.574275
1110.502014,383.047749,444.123565,9252.574275
1110.502333,153.219100,-74.020594,9104.533087
1110.502652,306.438199,-148.041188,9178.553681
1110.502971,229.828649,-296.082377,9104.533087
1110.503290,459.657299,-518.144159,8956.491898
1110.503608,0.000000,-444.123565,8956.491898
1110.503927,-306.438199,-0.000000,8956.491898
1110.504246,-306.438199,-222.061783,8956.491898
1110.504565,-689.485948,-518.144159,8660.409521
1110.504884,-842.705048,-666.185348,8660.409521
1110.505203,-1378.971896,-962.267725,8364.327145
1110.505522,-1838.629195,-1332.370696,9030.512492
1110.505840,-2068.457845,-1554.432478,9178.553681
1110.506159,-1915.238745,-1702.473667,9178.553681
1110.506478,-1991.848295,-1554.432478,8808.450710
1110.506797,-1762.019645,-1110.308913,8956.491898
1110.507116,-1455.581446,-962.267725,8512.368333
1110.507435,-1225.752797,-1184.329507,7624.121203
1110.507754,-1685.410096,-1184.329507,7476.080014
1110.508072,-1455.581446,-1554.432478,7476.080014
1110.508391,-2068.457845,-2146.597232,7846.182985
1110.508710,-2221.676944,-2368.659014,8216.285956
1110.509029,-2298.286494,-2812.782580,8586.388927
1110.509348,-2145.067394,-2812.782580,8808.450710
1110.509667,-2528.115143,-2368.659014,9178.553681
1110.509986,-2528.115143,-2146.597232,9252.574275
1110.510304,-2604.724693,-1998.556043,9030.512492
1110.510623,-2834.553343,-1924.535449,8512.368333
1110.510942,-3140.991542,-2294.638420,8660.409521
1110.511261,-3217.601092,-2886.803174,8734.430116
1110.511580,-3524.039291,-3627.009116,9548.656652
1110.511899,-3370.820191,-4145.153275,9992.780217
1110.512218,-3294.210641,-4219.173869,10584.944971
1110.512536,-3524.039291,-3701.029710,10881.027347
1110.512855,-3370.820191,-3404.947333,10881.027347
1110.513174,-2987.772442,-2960.823768,11029.068536
1110.513493,-2604.724693,-2442.679609,10881.027347
1110.513812,-2221.676944,-2294.638420,10955.047942
1110.514131,-1991.848295,-2220.617826,10584.944971
1110.514450,-1838.629195,-2368.659014,10436.903782
1110.514769,-1991.848295,-3034.844362,10362.883188
1110.515087,-1915.238745,-3701.029710,10732.986159
1110.515406,-1991.848295,-4367.215058,10436.903782
1110.515725,-2528.115143,-4367.215058,10510.924376
1110.516044,-2681.334243,-4219.173869,10807.006753
1110.516363,-2757.943793,-4145.153275,11103.089130
1110.516682,-3294.210641,-3923.091493,11325.150913
1110.517001,-3524.039291,-3701.029710,11103.089130
1110.517319,-4290.134789,-3404.947333,10881.027347
1110.517638,-4596.572988,-3627.009116,10955.047942
1110.517957,-4749.792088,-3701.029710,10288.862594
1110.518276,-5132.839837,-4071.132681,10732.986159
1110.518595,-4366.744339,-4293.194464,10881.027347
1110.518914,-3753.867940,-4145.153275,11843.295072
1110.519233,-2681.334243,-3775.050304,11843.295072
1110.519551,-1762.019645,-2442.679609,11473.192101
1110.519870,-306.438199,-592.164754,10362.883188
1110.520189,766.095498,814.226536,8290.306550
1110.520508,1532.190996,1850.514855,6439.791695
1110.520827,1838.629195,2516.700203,4737.318029
1110.521146,1915.238745,1924.535449,4219.173869
1110.521465,1838.629195,666.185348,4885.359217
1110.521783,1149.143247,-740.205942,6587.832884
1110.522102,383.047749,-1776.494261,7624.121203
1110.522421,0.000000,-1998.556043,9104.533087
1110.522740,-842.705048,-1480.411884,10288.862594
1110.523059,-612.876398,-814.226536,9992.780217
1110.523378,-459.657299,814.226536,9400.615463
1110.523697,-229.828649,2220.617826,8660.409521
1110.524015,229.828649,2368.659014,8512.368333
1110.524334,153.219100,1776.494261,7105.977043
1110.524653,306.438199,1702.473667,6587.832884
1110.524972,0.000000,666.185348,6143.709319
1110.525291,-306.438199,-444.123565,6069.688724
1110.525610,-919.314598,-1110.308913,6217.729913
1110.525929,-1378.971896,-2146.597232,7476.080014
1110.526247,-2451.505594,-2738.761985,8956.491898
1110.526566,-3064.381992,-3404.947333,10807.006753
1110.526885,-3830.477490,-3182.885551,11621.233289
1110.527204,-4136.915689,-2146.597232,11991.336260
1110.527523,-3907.087040,-1258.350101,11769.274478
1110.527842,-3753.867940,-1184.329507,10881.027347
1110.528161,-3983.696590,-1554.432478,10807.006753
1110.528479,-3600.648841,-2072.576638,9992.780217
1110.528798,-2987.772442,-2590.720797,8734.430116
1110.529117,-2987.772442,-2442.679609,8660.409521
1110.529436,-2834.553343,-3034.844362,8956.491898
1110.529755,-2528.115143,-3923.091493,9400.615463
1110.530074,-2451.505594,-3997.112087,10510.924376
1110.530393,-2374.896044,-3404.947333,11177.109724
1110.530711,-1915.238745,-1702.473667,10658.965565
1110.531030,-2145.067394,-592.164754,10288.862594
1110.531349,-2604.724693,-592.164754,10510.924376
1110.531668,-3064.381992,-740.205942,10584.944971
1110.531987,-3677.258390,-1110.308913,9622.677246
1110.532306,-3753.867940,-2294.638420,9104.533087
1110.532625,-3217.601092,-3330.926739,10436.903782
1110.532943,-2221.676944,-5033.400406,12361.439231
1110.533262,-2221.676944,-5329.482782,12213.398043
1110.533581,-842.705048,-4737.318029,12435.459826
1110.533900,0.000000,-3478.967927,11621.233289
1110.534219,1608.800546,-1702.473667,10214.842000
1110.534538,2374.896044,-444.123565,8290.306550
1110.534857,3140.991542,1554.432478,6291.750507
1110.535176,2987.772442,1480.411884,4885.359217
1110.535494,2451.505594,-296.082377,4737.318029
1110.535813,1455.581446,-2590.720797,6957.935855
1110.536132,229.828649,-4293.194464,8660.409521
1110.536451,-766.095498,-5329.482782,9696.697840
1110.536770,-1378.971896,-4737.318029,11177.109724
1110.537089,-2374.896044,-5107.421000,12065.356855
1110.537408,-3140.991542,-3256.906145,11325.150913
1110.537726,-3524.039291,-1628.453072,10510.924376
1110.538045,-3600.648841,-444.123565,8956.491898
1110.538364,-3524.039291,-0.000000,7846.182985
1110.538683,-3600.648841,-592.164754,7550.100608
1110.539002,-3524.039291,-1480.411884,7328.038826
1110.539321,-3294.210641,-3552.988522,8216.285956
1110.539640,-3753.867940,-3997.112087,9548.656652
1110.539958,-2987.772442,-3775.050304,10214.842000
1110.540277,-2068.457845,-1776.494261,9326.594869
1110.540596,-612.876398,-222.061783,8512.368333
1110.540915,383.047749,518.144159,8512.368333
1110.541234,306.438199,1184.329507,7328.038826
1110.541553,459.657299,1184.329507,6143.709319
1110.541872,0.000000,518.144159,5921.647536
1110.542190,-919.314598,-740.205942,6291.750507
1110.542509,-1762.019645,-1776.494261,5699.585753
1110.542828,-3294.210641,-3034.844362,6957.935855
1110.543147,-4213.525239,-4885.359217,9326.594869
1110.543466,-4673.182538,-5181.441594,10584.944971
1110.543785,-4596.572988,-4145.153275,11177.109724
1110.544104,-4596.572988,-3997.112087,12953.603985
1110.544422,-3907.087040,-2886.803174,13841.851115
1110.544741,-2604.724693,-1850.514855,12213.398043
1110.545060,-1991.848295,-666.185348,10658.965565
1110.545379,-689.485948,-148.041188,10288.862594
1110.545698,-153.219100,-888.247130,8216.285956
1110.546016,229.828649,-296.082377,6217.729913
1110.546335,766.095498,-666.185348,6143.709319
1110.546654,0.000000,-2220.617826,5995.668130
1110.546973,-459.657299,-2960.823768,6513.812290
1110.547292,-1608.800546,-3404.947333,7179.997637
1110.547610,-3064.381992,-4737.318029,8512.368333
1110.547929,-4519.963438,-6217.729913,11695.253884
1110.548248,-5286.058936,-6439.791695,13841.851115
1110.548567,-5362.668486,-5699.585753,15692.365970
1110.548885,-4979.620737,-4589.276840,15618.345376
1110.549204,-4596.572988,-2294.638420,14804.118840
1110.549523,-2221.676944,-962.267725,14508.036463
1110.549842,-306.438199,814.226536,10881.027347
1110.550161,1225.752797,2072.576638,8068.244768
1110.550479,2681.334243,3256.906145,5773.606348
1110.550798,3677.258390,3627.009116,2812.782580
1110.551117,3753.867940,2368.659014,2368.659014
1110.551436,2834.553343,1110.308913,2812.782580
1110.551755,1608.800546,-1036.288319,3923.091493
1110.552073,-536.266849,-3775.050304,6513.812290
1110.552392,-3140.991542,-4737.318029,9326.594869
1110.552711,-4596.572988,-5995.668130,13471.748144
1110.553030,-6281.983084,-4811.338623,13989.892304
1110.553348,-6818.249932,-3849.070898,16876.695478
1110.553667,-5669.106685,-2812.782580,17320.819043
1110.553986,-4826.401637,962.267725,15174.221811
1110.554305,-2604.724693,1036.288319,13027.624579
1110.554624,153.219100,3478.967927,9400.615463
1110.554942,1685.410096,4293.194464,5329.482782
1110.555261,3830.477490,2812.782580,3182.885551
1110.555580,3983.696590,1258.350101,1628.453072
1110.555899,3907.087040,-1998.556043,1184.329507
1110.556218,3294.210641,-3034.844362,4145.153275
1110.556536,1225.752797,-3627.009116,6439.791695
1110.556855,0.000000,-5329.482782,8438.347739
1110.557174,-1455.581446,-3997.112087,13397.727550
1110.557493,-2681.334243,-3330.926739,16136.489536
1110.557812,-2068.457845,-2220.617826,17690.922014
1110.558130,-1532.190996,962.267725,16876.695478
1110.558449,842.705048,2294.638420,15396.283594
1110.558768,2681.334243,2886.803174,12139.377449
1110.559087,4979.620737,3701.029710,7550.100608
1110.559405,6818.249932,3108.864956,3775.050304
1110.559724,7660.954980,2072.576638,0.000000
1110.560043,7507.735880,814.226536,-666.185348
1110.560362,6665.030833,-296.082377,-296.082377
1110.560681,3907.087040,-1258.350101,1184.329507
1110.560999,1225.752797,-2442.679609,5921.647536
1110.561318,-1762.019645,-2960.823768,10140.821405
1110.561637,-3983.696590,-2590.720797,14582.057057
1110.561956,-6128.763984,-2886.803174,18949.272115
1110.562275,-5745.716235,-1776.494261,20651.745782
1110.562593,-5362.668486,1332.370696,21243.910535
1110.562912,-3294.210641,4367.215058,17690.922014
1110.563231,-2221.676944,5033.400406,13693.809927
1110.563550,1915.238745,7624.121203,8438.347739
1110.563868,4519.963438,6143.709319,3478.967927
1110.564187,5439.278036,4663.297435,-1554.432478
1110.564506,5592.497135,3182.885551,-2960.823768
1110.564825,4443.353888,-222.061783,-2442.679609
1110.565144,1915.238745,-2294.638420,592.164754
1110.565462,-2068.457845,-2812.782580,4515.256246
1110.565781,-4136.915689,-4441.235652,10807.006753
1110.566100,-6435.202183,-4811.338623,17024.736666
1110.566419,-7584.345430,-3923.091493,22206.178260
1110.566738,-6818.249932,-1702.473667,23316.487173
1110.567056,-6128.763984,3404.947333,21465.972318
1110.567375,-3447.429741,4589.276840,20281.642811
1110.567694,-229.828649,6587.832884,13693.809927
1110.568013,2681.334243,7031.956449,6365.771101
1110.568332,5822.325785,6365.771101,666.185348
1110.568650,6818.249932,3108.864956,-2220.617826
1110.568969,7431.126331,-0.000000,-4145.153275
1110.569288,6588.421283,-2886.803174,-2442.679609
1110.569607,3677.258390,-5329.482782,2146.597232
1110.569925,1378.971896,-6513.812290,7105.977043
1110.570244,-2221.676944,-5625.565159,12361.439231
1110.570563,-3294.210641,-5921.647536,19319.375086
1110.570882,-4290.134789,-3182.885551,21391.951724
1110.571201,-4366.744339,1110.308913,22132.157666
1110.571519,-2221.676944,4663.297435,19837.519246
1110.571838,-153.219100,7846.182985,16284.530724
1110.572157,2834.553343,6069.688724,10362.883188
1110.572476,5286.058936,5921.647536,4737.318029
1110.572795,7890.783629,3404.947333,-1184.329507
1110.573113,8427.050478,814.226536,-3923.091493
1110.573432,9039.926876,-3478.967927,-3701.029710
1110.573751,7354.516781,-3775.050304,-1702.473667
1110.574070,4903.011187,-6291.750507,2886.803174
1110.574388,2145.067394,-4293.194464,6735.874072
1110.574707,-689.485948,-3034.844362,10807.006753
1110.575026,-2528.115143,-1628.453072,17320.819043
1110.575345,-4136.915689,-0.000000,21169.889941
1110.575664,-4673.182538,3849.070898,21465.972318
1110.575982,-3830.477490,4145.153275,20281.642811
1110.576301,-1455.581446,7179.997637,16802.674883
1110.576620,1838.629195,6143.709319,9030.512492
1110.576939,3677.258390,3849.070898,4293.194464
1110.577258,5669.106685,3627.009116,-1628.453072
1110.577576,6588.421283,888.247130,-5033.400406
1110.577895,6205.373534,-1776.494261,-4589.276840
1110.578214,2451.505594,-4737.318029,-1036.288319
1110.578533,0.000000,-5551.544565,3330.926739
1110.578852,-4213.525239,-6069.688724,7105.977043
1110.579170,-6665.030833,-6217.729913,16432.571912
1110.579489,-8503.660028,-5699.585753,22280.198854
1110.579808,-8120.612279,-962.267725,26055.249158
1110.580127,-6588.421283,3034.844362,23538.548956
1110.580445,-5439.278036,7179.997637,22576.281231
1110.580764,-995.924147,8364.327145,17098.757260
1110.581083,2298.286494,9252.574275,7772.162391
1110.581402,4826.401637,6513.812290,1184.329507
1110.581721,6358.592633,4959.379811,-5773.606348
1110.582039,6281.983084,666.185348,-7846.182985
1110.582358,3983.696590,-3997.112087,-5995.668130
1110.582677,1149.143247,-9474.636058,814.226536
1110.582996,-2911.162892,-9548.656652,6365.771101
1110.583315,-5745.716235,-9252.574275,12287.418637
1110.583633,-7507.735880,-7550.100608,20947.828159
1110.583952,-6435.202183,-4441.235652,26277.310941
1110.584271,-5975.544884,1554.432478,26055.249158
1110.584590,-2528.115143,9696.697840,23982.672521
1110.584908,459.657299,11917.315666,19763.498651
1110.585227,5669.106685,12583.501014,12065.356855
1110.585546,9729.412825,13767.830521,2516.700203
1110.585865,10572.117872,7105.977043,-7476.080014
1110.586184,11031.775171,1110.308913,-8512.368333
1110.586502,9193.145976,-3997.112087,-7994.224174
1110.586821,7431.126331,-9030.512492,-4071.132681
1110.587140,1608.800546,-11325.150913,-296.082377
1110.587459,-536.266849,-8734.430116,8586.388927
1110.587778,-4596.572988,-9104.533087,14804.118840
1110.588096,-5669.106685,-7550.100608,22724.322419
1110.588415,-7201.297681,-3404.947333,26203.290347
1110.588734,-4366.744339,2368.659014,29608.237680
1110.589053,-3524.039291,10214.842000,23686.590144
1110.589372,1072.533697,14063.912898,22724.322419
1110.589690,8044.002729,14137.933492,10510.924376
1110.590009,9959.241474,10658.965565,666.185348
1110.590328,12487.356617,8216.285956,-5107.421000
1110.590647,12257.527968,1184.329507,-11251.130318
1110.590965,11414.822920,-2590.720797,-11695.253884
1110.591284,8273.831378,-5921.647536,-7550.100608
1110.591603,1915.238745,-9400.615463,-370.102971
1110.591922,-2757.943793,-11473.192101,6143.709319
1110.592241,-6741.640382,-9252.574275,13619.789333
1110.592559,-9346.365076,-11473.192101,23168.445985
1110.592878,-11031.775171,-5403.503377,30496.484810
1110.593197,-8810.098227,2960.823768,31458.752535
1110.593516,-6665.030833,9104.533087,28794.011144
1110.593835,-2221.676944,14508.036463,21169.889941
1110.594153,3140.991542,15766.386565,12435.459826
1110.594472,9806.022374,14656.077652,3108.864956
1110.594791,10955.165621,11325.150913,-8956.491898
1110.595110,12947.013916,8660.409521,-12509.480420
1110.595428,9576.193725,-1776.494261,-12361.439231
1110.595747,5362.668486,-5699.585753,-7994.224174
1110.596066,-229.828649,-10955.047942,-2812.782580
1110.596385,-6435.202183,-9918.759623,5921.647536
1110.596704,-10955.165621,-14582.057057,14656.077652
1110.597022,-13023.623466,-12065.356855,24426.796086
1110.597341,-13253.452115,-7105.977043,33161.226202
1110.597660,-10648.727422,-444.123565,34715.658680
1110.597979,-9806.022374,10362.883188,28645.969955
1110.598298,-3907.087040,16062.468941,22132.157666
1110.598616,4443.353888,16950.716072,17172.777854
1110.598935,9806.022374,21317.931130,1554.432478
1110.599254,13023.623466,10807.006753,-10658.965565
1110.599573,13713.109414,3034.844362,-13619.789333
1110.599892,11108.384721,-1480.411884,-11695.253884
1110.600210,9193.145976,-10807.006753,-8290.306550
1110.600529,689.485948,-11399.171507,-5403.503377
1110.600848,-3983.696590,-11843.295072,7624.121203
1110.601167,-6971.469032,-16432.571912,16580.613101
1110.601485,-12257.527968,-11769.274478,24130.713709
1110.601804,-10418.898773,-8364.327145,34863.699868
1110.602123,-9882.631924,518.144159,34049.473332
1110.602442,-8120.612279,12879.583391,27609.681637
1110.602761,-306.438199,15026.180623,19985.560434
1110.603079,4903.011187,18061.024985,15026.180623
1110.603398,12104.308868,16210.510130,3627.009116
1110.603717,15321.909960,11621.233289,-13693.809927
1110.604036,16241.224558,1406.391290,-14211.954086
1110.604355,14249.376263,-4663.297435,-11177.109724
1110.604673,10035.851024,-10288.862594,-9178.553681
1110.604992,2834.553343,-9104.533087,-5477.523971
1110.605311,-2911.162892,-13693.809927,4441.235652
1110.605630,-5592.497135,-12213.398043,15692.365970
1110.605948,-9346.365076,-12805.562797,25685.146187
1110.606267,-12257.527968,-10066.800811,28942.052332
1110.606586,-9422.974625,1702.473667,35233.802839
1110.606905,-7660.954980,15174.221811,29386.175897
1110.607224,0.000000,15100.201217,24352.775492
1110.607542,2834.553343,16136.489536,13693.809927
1110.607861,10648.727422,17542.880825,3701.029710
1110.608180,17160.539155,11843.295072,-11029.068536
1110.608499,17620.196454,5847.626942,-14952.160028
1110.608818,14709.033562,-5255.462188,-13397.727550
1110.609136,8963.317327,-6069.688724,-9326.594869
1110.609455,3217.601092,-9992.780217,-5551.544565
1110.609774,-5362.668486,-12731.542202,-1554.432478
1110.610093,-7660.954980,-13619.789333,14211.954086
1110.610411,-12640.575717,-21021.848753,22132.157666
1110.610730,-15321.909960,-13175.665768,32569.061448
1110.611049,-13100.233016,-1110.308913,36122.049970
1110.611368,-10878.556072,13323.706956,32865.143825
1110.611687,-4903.011187,21317.931130,21984.116477
1110.612005,689.485948,20651.745782,14285.974681
1110.612324,8273.831378,20059.581028,2886.803174
1110.612643,14938.862211,17394.839637,-11695.253884
1110.612962,18003.244203,7254.018232,-20133.601622
1110.613281,13100.233016,1480.411884,-16654.633695
1110.613599,8580.269578,-8586.388927,-8438.347739
1110.613918,-995.924147,-16802.674883,-3256.906145
1110.614237,-8656.879127,-17098.757260,962.267725
1110.614556,-12717.185267,-17246.798449,12731.542202
1110.614875,-12793.794817,-18505.148550,26795.455100
1110.615193,-14709.033562,-14508.036463,33901.432144
1110.615512,-12180.918418,-666.185348,43302.047607
1110.615831,-12563.966167,17987.004391,35307.823433
1110.616150,-3600.648841,28201.846390,25389.063811
1110.616468,2681.334243,21095.869347,19097.313304
1110.616787,10265.679673,25759.166782,5773.606348
1110.617106,14862.252661,15322.262999,-14952.160028
1110.617425,18309.682402,11843.295072,-20577.725188
1110.617744,15628.348159,-6883.915261,-14285.974681
1110.618062,11874.480219,-9474.636058,-6291.750507
1110.618381,2298.286494,-17987.004391,-5625.565159
1110.618700,-6741.640382,-16210.510130,1184.329507
1110.619019,-7354.516781,-19023.292709,14211.954086
1110.619338,-11568.042020,-17394.839637,25463.084405
1110.619656,-14325.985813,-14137.933492,31384.731941
1110.619975,-11951.089769,-2590.720797,44930.500679
1110.620294,-14096.157163,13027.624579,36862.255912
1110.620613,-4519.963438,23464.528361,23982.672521
1110.620931,919.314598,25611.125593,23982.672521
1110.621250,8273.831378,16506.592507,3256.906145
1110.621569,15781.567259,22132.157666,-12879.583391
1110.621888,25204.541884,11177.109724,-20873.807564
1110.622207,18539.511052,-2960.823768,-19171.333898
1110.622525,15781.567259,-8882.471304,-9992.780217
1110.622844,5975.544884,-20207.622217,-1850.514855
1110.623163,-6894.859482,-19245.354492,-4293.194464
1110.623482,-6511.811733,-13915.871710,7550.100608
1110.623801,-10112.460574,-18949.272115,22502.260637
1110.624119,-12104.308868,-16876.695478,36640.194129
1110.624438,-12563.966167,-3923.091493,44634.418303
1110.624757,-14479.204912,9104.533087,34715.658680
1110.625076,-7201.297681,21836.075289,30126.381839
1110.625395,0.000000,22946.384202,28275.866984
1110.625713,6971.469032,17838.963202,3182.885551
1110.626032,17390.367805,21095.869347,-15988.448347
1110.626351,23289.303139,17468.860231,-20133.601622
1110.626670,19995.092498,-1406.391290,-20577.725188
1110.626988,15168.690860,-11029.068536,-15766.386565
1110.627307,6818.249932,-18949.272115,-2664.741391
1110.627626,-4443.353888,-22502.260637,-5329.482782
1110.627945,-9652.803275,-13915.871710,888.247130
1110.628264,-11184.994271,-27905.764013,25018.960840
1110.628582,-12947.013916,-21169.889941,30718.546593
1110.628901,-14019.547613,-10140.821405,37454.420665
1110.629220,-16241.224558,6587.832884,41377.512158
1110.629539,-12947.013916,18505.148550,35751.946999
1110.629858,-1149.143247,24426.796086,24130.713709
1110.630176,5745.716235,28201.846390,5329.482782
1110.630495,13253.452115,21317.931130,-3627.009116
1110.630814,19382.216099,16062.468941,-17987.004391
1110.631133,17926.634653,4071.132681,-23686.590144
1110.631451,18845.949251,-11399.171507,-8882.471304
1110.631770,6741.640382,-16580.613101,-5329.482782
1110.632089,-4903.011187,-24204.734303,-7550.100608
1110.632408,-11261.603821,-20133.601622,4367.215058
1110.632727,-8273.831378,-21762.054695,19615.457463
1110.633045,-16854.100956,-20577.725188,24944.940245
1110.633364,-14019.547613,-8734.430116,39156.894332
1110.633683,-16011.395908,1036.288319,45670.706621
1110.634002,-14402.595362,21095.869347,32865.143825
1110.634321,-6358.592633,25241.022622,25685.146187
1110.634639,-383.047749,23316.487173,13471.748144
1110.634958,11184.994271,20281.642811,-740.205942
1110.635277,21374.064394,20355.663405,-13027.624579
1110.635596,20991.016645,13249.686362,-23760.610738
1110.635915,17620.196454,-10436.903782,-9474.636058
1110.636233,14172.766713,-12805.562797,-7920.203579
1110.636552,2451.505594,-17246.798449,-7994.224174
1110.636871,-8886.707777,-18357.107362,-1036.288319
1110.637190,-4213.525239,-18949.272115,19837.519246
1110.637508,-12947.013916,-18875.251521,21836.075289
1110.637827,-12027.699319,-8734.430116,33235.246796
1110.638146,-13559.890315,2368.659014,42265.759288
1110.638465,-16164.615008,14656.077652,37602.461854
1110.638784,-5362.668486,23982.672521,32643.082042
1110.639102,1532.190996,17912.983796,20355.663405
1110.639421,7354.516781,27831.743419,2664.741391
1110.639740,17160.539155,18949.272115,-13323.706956
1110.640059,23748.960438,12139.377449,-19985.560434
1110.640378,22446.598091,3034.844362,-18949.272115
1110.640696,20684.578446,-6883.915261,-12509.480420
1110.641015,5362.668486,-17172.777854,-10214.842000
1110.641334,-6281.983084,-14952.160028,-5477.523971
1110.641653,-4903.011187,-18727.210333,9844.739029
1110.641971,-12257.527968,-22132.157666,23760.610738
1110.642290,-15781.567259,-20133.601622,35233.802839
1110.642609,-12717.185267,-4589.276840,39823.079680
1110.642928,-19305.606550,13175.665768,33161.226202
1110.643247,-10418.898773,18135.045579,30792.567187
1110.643565,-3753.867940,19615.457463,26425.352129
1110.643884,4673.182538,27757.722825,10510.924376
1110.644203,13253.452115,24796.899057,-8956.491898
1110.644522,22676.426741,15470.304188,-16580.613101
1110.644841,19152.387450,-3256.906145,-20429.683999
1110.645160,17926.634653,-9474.636058,-9770.718434
1110.645479,8503.660028,-16062.468941,-7328.038826
1110.645797,-4060.306139,-24574.837274,-7105.977043
1110.646116,-6435.202183,-18209.066173,1480.411884
1110.646435,-10265.679673,-16580.613101,18209.066173
1110.646754,-15321.909960,-16728.654289,30200.402434
1110.647073,-15858.176809,-11695.253884,36936.276506
1110.647392,-20148.311597,3034.844362,38860.811955
1110.647710,-18999.168350,18209.066173,29756.278868
1110.648029,-6894.859482,21614.013506,34049.473332
1110.648348,-229.828649,16062.468941,15840.407159
1110.648667,6435.202183,22132.157666,0.000000
1110.648986,19918.482948,17912.983796,-11029.068536
1110.649305,17160.539155,2590.720797,-20133.601622
1110.649623,22676.426741,-8438.347739,-16358.551318
1110.649942,17390.367805,-5921.647536,-7402.059420
1110.650261,3907.087040,-17098.757260,-16358.551318
1110.650580,-5822.325785,-15322.262999,592.164754
1110.650899,-1915.238745,-22058.137072,11325.150913
1110.651218,-12104.308868,-17172.777854,17172.777854
1110.651537,-14172.766713,-11843.295072,29460.196492
1110.651855,-15628.348159,-2516.700203,41747.615129
1110.652174,-16854.100956,8512.368333,36196.070564
1110.652493,-8273.831378,14211.954086,33679.370361
1110.652812,-2221.676944,19985.560434,19245.354492
1110.653131,7354.516781,17690.922014,7698.141797
1110.653450,16930.710506,18801.230927,-10436.903782
1110.653768,24208.617737,11621.233289,-13249.686362
1110.654087,20378.140247,-1332.370696,-14434.015869
1110.654406,23902.179538,-814.226536,-13545.768739
1110.654725,10955.165621,-9326.594869,-18801.230927
1110.655044,-842.705048,-12065.356855,-8364.327145
1110.655363,-3447.429741,-18949.272115,2886.803174
1110.655682,-9116.536426,-20429.683999,11695.253884
1110.656000,-14709.033562,-18801.230927,21539.992912
1110.656319,-19612.044749,-13471.748144,43968.232955
1110.656638,-20607.968896,-5329.482782,49741.839302
1110.656957,-17313.758255,11103.089130,35677.926404
1110.657276,-153.219100,25537.104999,30496.484810
1110.657595,1302.362347,25611.125593,11843.295072
1110.657913,13483.280765,25981.228564,-592.164754
1110.658232,24285.227287,20429.683999,-8142.265362
1110.658551,24515.055936,12879.583391,-20799.786970
1110.658870,21833.721693,5995.668130,-20577.725188
1110.659189,19228.997000,-5255.462188,-9918.759623
1110.659508,2911.162892,-12139.377449,-11769.274478
1110.659826,-2911.162892,-20133.601622,-7772.162391
1110.660145,-7660.954980,-18801.230927,10732.986159
1110.660464,-15321.909960,-21836.075289,20799.786970
1110.660783,-18462.901502,-18135.045579,38934.832549
1110.661102,-16930.710506,-9104.533087,49667.818708
1110.661421,-21144.235745,8882.471304,36270.091158
1110.661740,-11031.775171,20725.766376,34123.493926
1110.662058,766.095498,18875.251521,29312.155303
1110.662377,2451.505594,26277.310941,8734.430116
1110.662696,18616.120601,22132.157666,-5255.462188
1110.663015,21986.940793,21539.992912,-12213.398043
1110.663334,21757.112143,4515.256246,-17098.757260
1110.663653,19688.654299,-3404.947333,-13693.809927
1110.663971,9116.536426,-9326.594869,-13323.706956
1110.664290,-1838.629195,-22354.219448,-9770.718434
1110.664609,-6435.202183,-17098.757260,-3108.864956
1110.664928,-7890.783629,-21614.013506,14434.015869
1110.665247,-15934.786358,-22502.260637,23686.590144
1110.665566,-17007.320056,-14582.057057,45152.562462
1110.665884,-21220.845295,-4663.297435,49075.653955
1110.666203,-20224.921147,16876.695478,32643.082042
1110.666522,-8120.612279,9474.636058,28645.969955
1110.666841,2068.457845,23390.507767,15618.345376
1110.667160,9269.755526,31088.649564,-3182.885551
1110.667479,24361.836836,21391.951724,-7920.203579
1110.667798,21680.502593,16580.613101,-20725.766376
1110.668116,22063.550342,5255.462188,-16284.530724
1110.668435,19228.997000,-5551.544565,-14804.118840
1110.668754,4979.620737,-15988.448347,-17987.004391
1110.669073,-5975.544884,-24056.693115,-8660.409521
1110.669392,-5056.230287,-19245.354492,8068.244768
1110.669711,-15168.690860,-25463.084405,21614.013506
1110.670029,-15475.129060,-24352.775492,40563.285622
1110.670348,-20378.140247,-12065.356855,54109.054360
1110.670667,-21374.064394,5773.606348,36270.091158
1110.670986,-14862.252661,19023.292709,31088.649564
1110.671305,76.609550,21317.931130,31532.773129
1110.671624,3753.867940,27461.640448,1850.514855
1110.671942,18692.730151,31532.773129,-6143.709319
1110.672261,27426.218828,24500.816680,-17024.736666
1110.672580,22906.255390,11843.295072,-19393.395680
1110.672899,25434.370534,-10436.903782,-12361.439231
1110.673218,14785.643111,-13545.768739,-14211.954086
1110.673537,-1072.533697,-20133.601622,-15988.448347
1110.673856,-1149.143247,-19837.519246,1332.370696
1110.674174,-7124.688131,-25907.207970,16580.613101
1110.674493,-14632.424012,-20799.786970,23760.610738
1110.674812,-15628.348159,-13841.851115,41229.470969
1110.675131,-20531.359346,-5107.421000,45300.603650
1110.675450,-18309.682402,12065.356855,34123.493926
1110.675769,-7201.297681,22798.343014,29830.299463
1110.676087,1072.533697,16062.468941,21095.869347
1110.676406,7737.564530,31162.670158,-1036.288319
1110.676725,22599.817191,26943.496289,-9252.574275
1110.677044,21910.331243,13915.871710,-17912.983796
1110.677363,24285.227287,2220.617826,-14804.118840
1110.677682,20991.016645,-8660.409521,-9252.574275
1110.678000,6741.640382,-11843.295072,-17764.942608
1110.678319,-1455.581446,-18801.230927,-7994.224174
1110.678638,-842.705048,-15544.324782,3923.091493
1110.678957,-11184.994271,-23834.631332,19097.313304
1110.679276,-14172.766713,-19393.395680,37232.358883
1110.679595,-16624.272307,-9622.677246,43524.109390
1110.679914,-21757.112143,3478.967927,37972.564825
1110.680232,-16547.662757,15840.407159,32717.102636
1110.680551,-3370.820191,18431.127956,33901.432144
1110.680870,1225.752797,20577.725188,6291.750507
1110.681189,12027.699319,29312.155303,-3404.947333
1110.681508,23519.131789,21317.931130,-7402.059420
1110.681827,22369.988542,11621.233289,-21317.931130
1110.682145,24132.008187,1628.453072,-16876.695478
1110.682464,15934.786358,-10140.821405,-8142.265362
1110.682783,-153.219100,-15544.324782,-18579.169144
1110.683102,-4443.353888,-19837.519246,-4811.338623
1110.683421,-5132.839837,-23316.487173,16506.592507
1110.683740,-14785.643111,-22650.301825,25611.125593
1110.684059,-18003.244203,-15470.304188,35159.782245
1110.684377,-19612.044749,-4959.379811,45596.686027
1110.684696,-25970.637382,8216.285956,34345.555709
1110.685015,-10878.556072,16210.510130,41081.429781
1110.685334,-3524.039291,24352.775492,27313.599260
1110.685653,4749.792088,25907.207970,2294.638420
1110.685972,16394.443657,31902.876100,-10436.903782
1110.686290,21527.283494,17542.880825,-8808.450710
1110.686609,18309.682402,3404.947333,-20355.663405
1110.686928,22063.550342,-5329.482782,-9400.615463
1110.687247,9193.145976,-9178.553681,-12657.521608
1110.687566,-4213.525239,-19911.539840,-11103.089130
1110.687885,-2604.724693,-18875.251521,-666.185348
1110.688203,-9499.584175,-16654.633695,19319.375086
1110.688522,-11721.261119,-28423.908173,33975.452738
1110.688841,-19612.044749,-11103.089130,40563.285622
1110.689160,-23902.179538,-0.000000,42561.841665
1110.689479,-19688.654299,15248.242405,37306.379477
1110.689798,-6205.373534,18949.272115,35751.946999
1110.690117,2528.115143,23094.425390,15766.386565
1110.690435,11338.213370,27757.722825,-3849.070898
1110.690754,22140.159892,21095.869347,-10510.924376
1110.691073,23748.960438,10807.006753,-17616.901420
1110.691392,24361.836836,-222.061783,-17838.963202
1110.691711,25051.322785,-9178.553681,-8068.244768
1110.692030,7277.907231,-14211.954086,-20059.581028
1110.692348,2757.943793,-15174.221811,-11177.109724
1110.692667,76.609550,-18727.210333,3256.906145
1110.692986,-9269.755526,-24130.713709,17838.963202
1110.693305,-12717.185267,-20429.683999,36788.235317
1110.693624,-18079.853753,-10658.965565,42931.944636
1110.693943,-22906.255390,-148.041188,36566.173535
1110.694261,-16241.224558,13175.665768,37824.523636
1110.694580,-229.828649,17764.942608,37158.338288
1110.694899,3370.820191,26647.413912,1332.370696
1110.695218,16547.662757,30348.443622,-1036.288319
1110.695537,26123.856482,19911.539840,-15026.180623
1110.695856,20071.702048,9844.739029,-21317.931130
1110.696175,23902.179538,-3701.029710,-10362.883188
1110.696493,14325.985813,-13471.748144,-16950.716072
1110.696812,1302.362347,-14804.118840,-17320.819043
1110.697131,-2068.457845,-21391.951724,-7698.141797
1110.697450,-9193.145976,-25018.960840,10955.047942
1110.697769,-12487.356617,-27387.619854,28497.928767
1110.698088,-20378.140247,-20355.663405,43672.150578
1110.698406,-23748.960438,-9696.697840,41303.491564
1110.698725,-23825.569988,11325.150913,40045.141462
1110.699044,-12410.747068,22576.281231,27165.558071
1110.699363,-919.314598,25018.960840,26573.393318
1110.699682,4596.572988,29682.258274,-6069.688724
1110.700001,13636.499864,28423.908173,-6957.935855
1110.700319,22753.036291,20059.581028,-16654.633695
1110.700638,20684.578446,4441.235652,-18135.045579
1110.700957,21910.331243,-7994.224174,-11843.295072
1110.701276,6052.154434,-15322.262999,-14211.954086
1110.701595,-2298.286494,-19097.313304,-8734.430116
1110.701914,-3217.601092,-19911.539840,1480.411884
1110.702233,-10418.898773,-18727.210333,15692.365970
1110.702551,-13330.061665,-23538.548956,37232.358883
1110.702870,-18692.730151,-13397.727550,45226.583056
1110.703189,-22982.864940,2590.720797,37454.420665
1110.703508,-20454.749797,16580.613101,39823.079680
1110.703827,-5056.230287,12287.418637,36566.173535
1110.704146,4443.353888,31014.628970,10214.842000
1110.704464,12717.185267,29386.175897,-10584.944971
1110.704783,19765.263848,24796.899057,-10436.903782
1110.705102,22063.550342,11917.315666,-16580.613101
1110.705421,26506.904231,518.144159,-10807.006753
1110.705740,19841.873398,-14508.036463,-11547.212695
1110.706059,3983.696590,-13693.809927,-10584.944971
1110.706378,-459.657299,-23316.487173,-8586.388927
1110.706696,-4596.572988,-16950.716072,11177.109724
1110.707015,-9499.584175,-19837.519246,24426.796086
1110.707334,-14785.643111,-22650.301825,40637.306216
1110.707653,-21527.283494,-7698.141797,45152.562462
1110.707972,-21910.331243,5921.647536,41451.532752
1110.708291,-15015.471761,15396.283594,34345.555709
1110.708609,-919.314598,25315.043216,36862.255912
1110.708928,5362.668486,25685.146187,4885.359217
1110.709247,17620.196454,30348.443622,-6217.729913
1110.709566,22446.598091,23908.651927,-15174.221811
1110.709885,24361.836836,8734.430116,-19911.539840
1110.710204,26966.561530,-5847.626942,-14211.954086
1110.710522,17313.758255,-10362.883188,-10288.862594
1110.710841,2221.676944,-17764.942608,-18949.272115
1110.711160,-1302.362347,-20355.663405,-1110.308913
1110.711479,-8580.269578,-19467.416275,8882.471304
1110.711798,-12410.747068,-28053.805202,31384.731941
1110.712117,-17926.634653,-14434.015869,41303.491564
1110.712436,-22216.769442,-6513.812290,40045.141462
1110.712754,-22523.207641,15026.180623,32865.143825
1110.713073,-11797.870669,18505.148550,35159.782245
1110.713392,-3677.258390,16358.551318,23612.569550
1110.713711,6818.249932,34197.514520,-3923.091493
1110.714030,18079.853753,30940.608376,-19319.375086
1110.714349,19612.044749,14063.912898,-12287.418637
1110.714667,23595.741338,-4219.173869,-15322.262999
1110.714986,21833.721693,-7624.121203,-7179.997637
1110.715305,6894.859482,-14285.974681,-16950.716072
1110.715624,842.705048,-19689.478057,-740.205942
1110.715943,-2451.505594,-20577.725188,-5403.503377
1110.716262,-9116.536426,-25389.063811,20503.704593
1110.716580,-10648.727422,-20651.745782,32495.040854
1110.716899,-21986.940793,-13693.809927,36344.111752
1110.717218,-23059.474490,-1036.288319,34715.658680
1110.717537,-18462.901502,17764.942608,32717.102636
1110.717856,-7277.907231,12139.377449,33901.432144
1110.718175,2068.457845,25759.166782,13545.768739
1110.718494,8733.488677,28201.846390,-10658.965565
1110.718812,17466.977354,20947.828159,-8512.368333
1110.719131,22982.864940,11547.212695,-20059.581028
1110.719450,22906.255390,-0.000000,-11399.171507
1110.719769,19228.997000,-9992.780217,-16284.530724
1110.720088,4060.306139,-12805.562797,-10881.027347
1110.720407,-1302.362347,-16654.633695,-12139.377449
1110.720725,-5515.887586,-21317.931130,9548.656652
1110.721044,-12180.918418,-26055.249158,23686.590144
1110.721363,-17850.025103,-20429.683999,39749.059085
1110.721682,-19995.092498,-14582.057057,40933.388593
1110.722001,-24515.055936,6883.915261,36344.111752
1110.722320,-13636.499864,13027.624579,34197.514520
1110.722638,-6052.154434,25759.166782,39823.079680
1110.722957,4596.572988,20799.786970,4589.276840
1110.723276,12410.747068,28571.949361,-14063.912898
1110.723595,21910.331243,27239.578666,-11399.171507
1110.723914,22216.769442,7031.956449,-20133.601622
1110.724233,27043.171079,518.144159,-15396.283594
1110.724552,15858.176809,-7550.100608,-10658.965565
1110.724870,1685.410096,-17394.839637,-16062.468941
1110.725189,-1149.143247,-21391.951724,-3701.029710
1110.725508,-7584.345430,-19097.313304,10881.027347
1110.725827,-12334.137518,-26055.249158,29386.175897
1110.726146,-17850.025103,-21317.931130,42561.841665
1110.726465,-23672.350888,-6365.771101,48557.509795
1110.726783,-20991.016645,7772.162391,37750.503042
1110.727102,-10878.556072,18579.169144,39897.100274
1110.727421,-2451.505594,22576.281231,25463.084405
1110.727740,6818.249932,29238.134709,4811.338623
1110.728059,16854.100956,26203.290347,-8956.491898
1110.728378,22216.769442,16432.571912,-14063.912898
1110.728697,26047.246932,3997.112087,-11029.068536
1110.729015,24591.665486,-9104.533087,-11029.068536
1110.729334,12793.794817,-7772.162391,-13101.645173
1110.729653,2757.943793,-17838.963202,-11473.192101
1110.729972,-689.485948,-17172.777854,-1480.411884
1110.730291,-8503.660028,-25167.002028,16284.530724
1110.730610,-9039.926876,-25315.043216,33679.370361
1110.730928,-21220.845295,-13619.789333,37676.482448
1110.731247,-17390.367805,-3627.009116,41303.491564
1110.731566,-19765.263848,15544.324782,31384.731941
1110.731885,-4903.011187,23464.528361,31754.834912
1110.732204,-842.705048,17912.983796,17246.798449
1110.732523,9193.145976,30348.443622,-4811.338623
1110.732841,17237.148705,24648.857869,-13989.892304
1110.733160,21450.673944,16136.489536,-18431.127956
1110.733479,25970.637382,3330.926739,-12657.521608
1110.733798,19765.263848,-8068.244768,-13397.727550
1110.734117,6588.421283,-10214.842000,-10881.027347
1110.734436,-2298.286494,-20355.663405,-14063.912898
1110.734755,-5745.716235,-21984.116477,3108.864956
1110.735073,-12640.575717,-27165.558071,22798.343014
1110.735392,-14632.424012,-26277.310941,37676.482448
1110.735711,-24285.227287,-11029.068536,43228.027013
1110.736030,-24285.227287,740.205942,36270.091158
1110.736349,-18386.291952,17320.819043,38194.626607
1110.736668,-7431.126331,18209.066173,28868.031738
1110.736986,2145.067394,24056.693115,8586.388927
1110.737305,9499.584175,29386.175897,-10584.944971
1110.737624,18999.168350,22428.240043,-15396.283594
1110.737943,19382.216099,14878.139434,-20651.745782
1110.738262,24515.055936,-4589.276840,-13101.645173
1110.738581,14249.376263,-8216.285956,-13841.851115
1110.738899,1532.190996,-17542.880825,-16506.592507
1110.739218,-1762.019645,-21391.951724,-1776.494261
1110.739537,-5975.544884,-23686.590144,5625.565159
1110.739856,-10878.556072,-24574.837274,25981.228564
1110.740175,-16700.881856,-17024.736666,36566.173535
1110.740494,-19612.044749,-4515.256246,43376.068201
1110.740813,-19765.263848,9474.636058,30866.587781
1110.741131,-11184.994271,14878.139434,39452.976709
1110.741450,-2451.505594,15840.407159,32791.123231
1110.741769,7201.297681,24500.816680,7772.162391
1110.742088,14555.814462,28201.846390,-9992.780217
1110.742407,22446.598091,21095.869347,-13249.686362
1110.742726,25817.418283,5773.606348,-14285.974681
1110.743044,26583.513781,-3997.112087,-7550.100608
1110.743363,13100.233016,-11325.150913,-15322.262999
1110.743682,6128.763984,-16950.716072,-10362.883188
1110.744001,2298.286494,-14434.015869,-3478.967927
1110.744320,-3217.601092,-21984.116477,15544.324782
1110.744639,-10495.508323,-24352.775492,27757.722825
1110.744957,-19535.435199,-16654.633695,39897.100274
1110.745276,-18999.168350,-6439.791695,42117.718100
1110.745595,-16930.710506,8438.347739,36640.194129
1110.745914,-7890.783629,15618.345376,35233.802839
1110.746233,153.219100,21391.951724,20799.786970
1110.746552,8580.269578,30718.546593,2664.741391
1110.746871,18999.168350,28349.887579,-10807.006753
1110.747190,23442.522239,16284.530724,-16876.695478
1110.747509,24285.227287,3478.967927,-11769.274478
1110.747828,21603.893044,-6143.709319,-11917.315666
1110.748147,8733.488677,-11251.130318,-16654.633695
1110.748466,1762.019645,-16432.571912,-8956.491898
1110.748785,-4826.401637,-21243.910535,-1184.329507
1110.749104,-10418.898773,-24944.940245,17690.922014
1110.749423,-14938.862211,-25241.022622,35307.823433
1110.749742,-21986.940793,-17468.860231,39675.038491
1110.750061,-23059.474490,1332.370696,39823.079680
1110.750380,-20607.968896,12953.603985,32717.102636
1110.750699,-8810.098227,19393.395680,40415.244433
1110.751018,842.705048,20577.725188,13249.686362
1110.751337,8733.488677,35159.782245,-10807.006753
1110.751656,16547.662757,28053.805202,-14063.912898
1110.751975,18845.949251,10584.944971,-16802.674883
1110.752294,23519.131789,-2146.597232,-14878.139434
1110.752613,16547.662757,-6291.750507,-11621.233289
1110.752932,5056.230287,-17468.860231,-13841.851115
1110.753251,-1762.019645,-20281.642811,-4959.379811
1110.753570,-3907.087040,-25092.981434,1702.473667
1110.753889,-11797.870669,-27609.681637,20133.601622
1110.754208,-16777.491406,-20059.581028,38712.770767
1110.754527,-22216.769442,-11917.315666,40267.203245
1110.754846,-20991.016645,4589.276840,35307.823433
1110.755165,-16164.615008,17468.860231,32865.143825
1110.755484,-3447.429741,19467.416275,31236.690752
1110.755802,766.095498,27091.537477,8956.491898
1110.756121,11721.261119,27387.619854,-7254.018232
1110.756440,19918.482948,16580.613101,-11991.336260
1110.756759,21986.940793,10288.862594,-13841.851115
1110.757078,23289.303139,-4145.153275,-12731.542202
1110.757397,16317.834107,-11547.212695,-11991.336260
1110.757716,4519.963438,-17616.901420,-12583.501014
1110.758035,2374.896044,-18357.107362,-2368.659014
1110.758354,-6281.983084,-20059.581028,1406.391290
1110.758673,-9729.412825,-21317.931130,26795.455100
1110.758992,-13942.938064,-20577.725188,38934.832549
1110.759311,-21220.845295,-4071.132681,39897.100274
1110.759630,-17466.977354,7328.038826,32939.164419
1110.759949,-12640.575717,15840.407159,33457.308578
1110.760268,-995.924147,16358.551318,32791.123231
1110.760587,7967.393179,33383.287984,1850.514855
1110.760906,18922.558801,29608.237680,-9696.697840
1110.761225,24285.227287,23020.404796,-17616.901420
1110.761544,26966.561530,7772.162391,-15544.324782
1110.761863,25204.541884,-2368.659014,-14285.974681
1110.762182,14555.814462,-11103.089130,-9474.636058
1110.762501,4290.134789,-15840.407159,-11843.295072
1110.762820,-919.314598,-19467.416275,-2516.700203
1110.763139,-8810.098227,-23020.404796,13027.624579
1110.763458,-11261.603821,-28645.969955,34049.473332
1110.763777,-19918.482948,-17838.963202,41525.553346
1110.764096,-18462.901502,666.185348,40489.265027
1110.764415,-21144.235745,14063.912898,29386.175897
1110.764734,-8733.488677,18875.251521,34641.638086
1110.765053,-766.095498,16506.592507,23686.590144
1110.765372,6818.249932,37232.358883,-6291.750507
1110.765691,15398.519510,21243.910535,-12213.398043
1110.766010,18769.339701,14285.974681,-13841.851115
1110.766329,24361.836836,222.061783,-12879.583391
1110.766648,19382.216099,-10510.924376,-10140.821405
1110.766967,7967.393179,-16432.571912,-8364.327145
1110.767286,-1685.410096,-17024.736666,-4589.276840
1110.767605,-2757.943793,-18653.189738,592.164754
1110.767924,-10112.460574,-22058.137072,16580.613101
1110.768242,-12257.527968,-20651.745782,37972.564825
1110.768561,-20148.311597,-10288.862594,37454.420665
1110.768880,-19918.482948,6069.688724,34493.596897
1110.769199,-18309.682402,16432.571912,25907.207970
1110.769518,-6358.592633,14804.118840,38120.606013
1110.769837,0.000000,18875.251521,16358.551318
1110.770156,7201.297681,23834.631332,-8216.285956
1110.770475,15015.471761,25167.002028,-12287.418637
1110.770794,18003.244203,9178.553681,-15618.345376
1110.771113,23672.350888,-2516.700203,-9030.512492
1110.771432,15781.567259,-7476.080014,-9326.594869
1110.771751,4443.353888,-10288.862594,-13323.706956
1110.772070,459.657299,-13249.686362,-10881.027347
1110.772389,-4136.915689,-18727.210333,5773.606348
1110.772708,-10801.946522,-23760.610738,22280.198854
1110.773027,-11644.651570,-21984.116477,40637.306216
1110.773346,-19688.654299,-12139.377449,39008.853143
1110.773665,-21680.502593,6069.688724,35455.864622
1110.773984,-13866.328514,13249.686362,31088.649564
1110.774303,-3447.429741,27239.578666,29830.299463
1110.774622,6358.592633,21984.116477,11843.295072
1110.774941,12870.404366,24944.940245,-8438.347739
1110.775260,20454.749797,23242.466579,-13323.706956
1110.775579,25970.637382,9400.615463,-15766.386565
1110.775898,26277.075581,-3627.009116,-12435.459826
1110.776217,13789.718964,-11917.315666,-10881.027347
1110.776536,5209.449386,-18209.066173,-6143.709319
1110.776855,-1455.581446,-18653.189738,-8216.285956
1110.777174,-5439.278036,-19171.333898,3775.050304
1110.777493,-11491.432470,-26277.310941,24130.713709
1110.777812,-13866.328514,-18949.272115,37232.358883
1110.778131,-19995.092498,-4071.132681,41155.450375
1110.778450,-19612.044749,11547.212695,32717.102636
1110.778769,-12947.013916,13693.809927,36196.070564
1110.779088,-612.876398,18875.251521,27535.661042
1110.779407,4290.134789,23834.631332,5847.626942
1110.779726,15628.348159,24648.857869,-5625.565159
1110.780045,18845.949251,20281.642811,-16136.489536
1110.780364,22140.159892,4959.379811,-15544.324782
1110.780682,22369.988542,-8290.306550,-7846.182985
1110.781001,11874.480219,-9992.780217,-8660.409521
1110.781320,5439.278036,-9992.780217,-12879.583391
1110.781639,76.609550,-15396.283594,-5033.400406
1110.781958,-5745.716235,-23168.445985,7031.956449
1110.782277,-8044.002729,-22280.198854,29534.217086
1110.782596,-15168.690860,-12879.583391,32791.123231
1110.782915,-18539.511052,-1702.473667,32495.040854
1110.783234,-19382.216099,7476.080014,33087.205607
1110.783553,-10878.556072,18283.086767,35085.761651
1110.783872,-842.705048,13545.768739,20725.766376
1110.784191,8503.660028,26869.475695,2294.638420
1110.784510,13942.938064,21317.931130,-9474.636058
1110.784829,18386.291952,15544.324782,-14730.098246
1110.785148,23289.303139,7994.224174,-14952.160028
1110.785467,19382.216099,-5403.503377,-10288.862594
1110.785786,8350.440928,-10436.903782,-9178.553681
1110.786105,-1378.971896,-11695.253884,-10658.965565
1110.786424,-4673.182538,-17098.757260,-2960.823768
1110.786743,-9116.536426,-20503.704593,15988.448347
1110.787062,-16241.224558,-23316.487173,34493.596897
1110.787381,-19305.606550,-18209.066173,42635.862259
1110.787700,-24438.446386,814.226536,37306.379477
1110.788019,-20378.140247,12731.542202,34123.493926
1110.788338,-8044.002729,18579.169144,34271.535115
1110.788657,-1072.533697,19319.375086,17838.963202
1110.788976,8810.098227,30052.361245,-4441.235652
1110.789295,14402.595362,24648.857869,-9178.553681
1110.789614,17007.320056,14582.057057,-13841.851115
1110.789933,21220.845295,2146.597232,-9326.594869
1110.790252,16700.881856,-6735.874072,-9770.718434
1110.790571,6128.763984,-13249.686362,-8956.491898
1110.790890,-612.876398,-15396.283594,-9104.533087
1110.791209,-4596.572988,-19467.416275,1332.370696
1110.791528,-9729.412825,-22206.178260,20059.581028
1110.791847,-12104.308868,-22798.343014,34863.699868
1110.792166,-19612.044749,-12583.501014,37084.317694
1110.792485,-19305.606550,2590.720797,36344.111752
1110.792804,-16700.881856,14137.933492,39675.038491
1110.793122,-5745.716235,19837.519246,30940.608376
1110.793441,2221.676944,23020.404796,18653.189738
1110.793760,11108.384721,27461.640448,-2960.823768
1110.794079,16394.443657,22650.301825,-10881.027347
1110.794398,22446.598091,14285.974681,-16136.489536
1110.794717,25281.151434,1998.556043,-14878.139434
1110.795036,19688.654299,-8660.409521,-11399.171507
1110.795355,7814.174080,-14582.057057,-5699.585753
1110.795674,2528.115143,-14508.036463,-7179.997637
1110.795993,-3064.381992,-18801.230927,-1036.288319
1110.796312,-6818.249932,-21465.972318,22206.178260
1110.796631,-10878.556072,-19985.560434,39304.935520
1110.796950,-14325.985813,-9696.697840,42487.821071
1110.797269,-17620.196454,5107.421000,33383.287984
1110.797588,-12793.794817,14952.160028,33457.308578
1110.797907,-2987.772442,13027.624579,32272.979071
1110.798226,6052.154434,24352.775492,11103.089130
1110.798545,13789.718964,26869.475695,-9770.718434
1110.798864,17773.415554,23760.610738,-14359.995275
1110.799183,21527.283494,10658.965565,-16358.551318
1110.799502,23672.350888,518.144159,-14285.974681
1110.799821,14555.814462,-7772.162391,-10066.800811
1110.800140,4979.620737,-11843.295072,-11991.336260
1110.800459,-995.924147,-16432.571912,-8364.327145
1110.800778,-6971.469032,-20059.581028,3256.906145
1110.801097,-12947.013916,-27905.764013,27609.681637
1110.801416,-15245.300410,-22206.178260,39971.120868
1110.801735,-20684.578446,-6587.832884,36122.049970
1110.802054,-20148.311597,9548.656652,31384.731941
1110.802373,-16624.272307,13471.748144,31976.896694
1110.802692,-7124.688131,19837.519246,23982.672521
1110.803011,3907.087040,18505.148550,5551.544565
1110.803330,11108.384721,31310.711347,-12805.562797
1110.803649,16930.710506,19023.292709,-12509.480420
1110.803968,19075.777900,9400.615463,-14804.118840
1110.804287,19841.873398,-5033.400406,-11029.068536
1110.804606,10648.727422,-13175.665768,-4589.276840
1110.804925,1302.362347,-18727.210333,-7105.977043
1110.805244,-2757.943793,-14582.057057,-3775.050304
1110.805562,-7201.297681,-23390.507767,7550.100608
1110.805881,-10418.898773,-27535.661042,29534.217086
1110.806200,-12334.137518,-15988.448347,41599.573940
1110.806519,-20531.359346,-3552.988522,35603.905810
1110.806838,-19688.654299,9104.533087,30792.567187
1110.807157,-14249.376263,19467.416275,30496.484810
1110.807476,-76.609550,21095.869347,22206.178260
1110.807795,5515.887586,25907.207970,4515.256246
1110.808114,12027.699319,24278.754898,-3627.009116
1110.808433,17083.929605,17912.983796,-15692.365970
1110.808752,21833.721693,8512.368333,-14582.057057
1110.809071,20607.968896,-7920.203579,-5921.647536
1110.809390,10418.898773,-10288.862594,-666.185348
1110.809709,2604.724693,-11843.295072,-10288.862594
1110.810028,536.266849,-18801.230927,-2442.679609
1110.810347,-5439.278036,-18505.148550,9474.636058
1110.810666,-11491.432470,-23316.487173,31902.876100
1110.810985,-14709.033562,-16284.530724,36566.173535
1110.811304,-22293.378992,-4515.256246,33383.287984
1110.811623,-18003.244203,3404.947333,37380.400071
1110.811942,-11338.213370,15248.242405,36492.152941
1110.812261,536.266849,21836.075289,20355.663405
1110.812580,9959.241474,25611.125593,1702.473667
1110.812899,15781.567259,28127.825796,-7624.121203
1110.813218,22063.550342,20355.663405,-15988.448347
1110.813537,25817.418283,6883.915261,-16802.674883
1110.813856,21680.502593,-6069.688724,-10658.965565
1110.814175,11108.384721,-15026.180623,-5181.441594
1110.814494,2911.162892,-17690.922014,-11547.212695
1110.814813,-1149.143247,-18727.210333,-3923.091493
1110.815132,-6128.763984,-23686.590144,12583.501014
1110.815451,-9422.974625,-24130.713709,32198.958477
1110.815770,-17926.634653,-14211.954086,35751.946999
1110.816089,-18156.463303,-888.247130,39452.976709
1110.816408,-19765.263848,14359.995275,31754.834912
1110.816727,-9806.022374,19171.333898,29756.278868
1110.817046,-1302.362347,20281.642811,23538.548956
1110.817365,5515.887586,27313.599260,1332.370696
1110.817684,12563.966167,23760.610738,-7254.018232
1110.818002,16164.615008,13471.748144,-16506.592507
1110.818321,18616.120601,2072.576638,-11473.192101
1110.818640,17926.634653,-7994.224174,-7698.141797
1110.818959,8273.831378,-9622.677246,-7624.121203
1110.819278,1608.800546,-11251.130318,-9474.636058
1110.819597,-3677.258390,-15544.324782,2738.761985
1110.819916,-7737.564530,-22650.301825,12583.501014
1110.820235,-11261.603821,-19097.313304,27387.619854
1110.820554,-17850.025103,-11917.315666,35677.926404
1110.820873,-20454.749797,-1850.514855,30126.381839
1110.821192,-19995.092498,9252.574275,31236.690752
1110.821511,-10112.460574,11251.130318,33309.267390
1110.821830,2145.067394,20799.786970,18357.107362
1110.822149,7660.954980,22280.198854,-444.123565
1110.822468,12257.527968,22946.384202,-8512.368333
1110.822787,18003.244203,14730.098246,-15840.407159
1110.823106,20607.968896,3923.091493,-11695.253884
1110.823425,14249.376263,-6883.915261,-8956.491898
1110.823744,8427.050478,-13175.665768,-7994.224174
1110.824063,536.266849,-11843.295072,-8142.265362
1110.824382,-3677.258390,-12583.501014,-1554.432478
1110.824701,-8427.050478,-23020.404796,17468.860231
1110.825020,-11568.042020,-22576.281231,33679.370361
1110.825339,-15168.690860,-12879.583391,41673.594535
1110.825658,-17466.977354,1480.411884,32124.937883
1110.825977,-16854.100956,8512.368333,30496.484810
1110.826296,-3983.696590,19837.519246,30718.546593
1110.826615,2987.772442,21836.075289,15396.283594
1110.826934,11491.432470,26943.496289,74.020594
1110.827253,15628.348159,25315.043216,-12879.583391
1110.827572,20991.016645,13249.686362,-16802.674883
1110.827891,22829.645840,370.102971,-14211.954086
1110.828210,17773.415554,-10658.965565,-5699.585753
1110.828529,8810.098227,-15322.262999,-4663.297435
1110.828848,1838.629195,-12583.501014,-7254.018232
1110.829167,-2528.115143,-13175.665768,0.000000
1110.829486,-6588.421283,-25018.960840,21021.848753
1110.829805,-10265.679673,-21317.931130,37898.544230
1110.830124,-14862.252661,-13767.830521,38638.750172
1110.830443,-19535.435199,4367.215058,29312.155303
1110.830761,-15245.300410,11621.233289,33605.349767
1110.831080,-5056.230287,19245.354492,28423.908173
1110.831399,2451.505594,25167.002028,20281.642811
1110.831718,9346.365076,17246.798449,-518.144159
1110.832037,15934.786358,24648.857869,-9474.636058
1110.832356,22829.645840,14508.036463,-15100.201217
1110.832675,22982.864940,1554.432478,-13101.645173
1110.832994,13636.499864,-8734.430116,-10362.883188
1110.833313,5592.497135,-12953.603985,-2368.659014
1110.833632,0.000000,-15914.427753,-8068.244768
1110.833951,-5822.325785,-15100.201217,148.041188
1110.834270,-8886.707777,-26425.352129,18949.272115
1110.834589,-11797.870669,-19911.539840,35899.988187
1110.834908,-15781.567259,-9252.574275,39156.894332
1110.835227,-21297.454844,3478.967927,32865.143825
1110.835546,-18616.120601,11547.212695,32050.917289
1110.835865,-5439.278036,16950.716072,30274.423028
1110.836184,-766.095498,21021.848753,15840.407159
1110.836503,11261.603821,27387.619854,-2368.659014
1110.836822,14862.252661,21688.034101,-15248.242405
1110.837141,20837.797546,17172.777854,-15100.201217
1110.837460,22063.550342,1332.370696,-10881.027347
1110.837779,15398.519510,-8808.450710,-10288.862594
1110.838098,3753.867940,-9178.553681,-8068.244768
1110.838417,0.000000,-13619.789333,-9252.574275
1110.838736,-6435.202183,-19467.416275,370.102971
1110.839055,-7124.688131,-28571.949361,24648.857869
1110.839374,-10878.556072,-23242.466579,35603.905810
1110.839693,-19458.825649,-11621.233289,35751.946999
1110.840012,-19995.092498,1554.432478,32495.040854
1110.840331,-18386.291952,12509.480420,33901.432144
1110.840650,-7584.345430,14656.077652,28053.805202
1110.840969,919.314598,22798.343014,8956.491898
1110.841288,10112.460574,26351.331535,-1480.411884
1110.841607,15781.567259,20651.745782,-11769.274478
1110.841926,20224.921147,11917.315666,-15618.345376
1110.842245,22063.550342,-444.123565,-11177.109724
1110.842564,13023.623466,-12139.377449,-6217.729913
1110.842883,5745.716235,-19467.416275,-3923.091493
1110.843201,1838.629195,-14359.995275,-2886.803174
1110.843520,-3677.258390,-19615.457463,4589.276840
1110.843839,-7431.126331,-24056.693115,18283.086767
1110.844158,-8273.831378,-18875.251521,36418.132346
1110.844477,-15168.690860,-5255.462188,30792.567187
1110.844796,-17620.196454,3701.029710,29608.237680
1110.845115,-15551.738609,14434.015869,29312.155303
1110.845434,-4596.572988,14508.036463,29534.217086
1110.845753,5669.106685,21021.848753,11843.295072
1110.846072,9729.412825,22206.178260,-3404.947333
1110.846391,18003.244203,19467.416275,-11843.295072
1110.846710,21450.673944,11103.089130,-18801.230927
1110.847029,24898.103685,-1924.535449,-11103.089130
1110.847348,15704.957709,-10955.047942,-7698.141797
1110.847666,8427.050478,-8364.327145,-9474.636058
1110.847985,3140.991542,-11473.192101,-10955.047942
1110.848304,-2681.334243,-17394.839637,1628.453072
1110.848623,-6741.640382,-21169.889941,25018.960840
1110.848942,-10725.336972,-17838.963202,32272.979071
1110.849261,-18386.291952,-9104.533087,35159.782245
1110.849580,-18386.291952,2590.720797,38342.667796
1110.849899,-16394.443657,10881.027347,32421.020260
1110.850218,-4903.011187,17468.860231,29756.278868
1110.850537,3830.477490,23760.610738,11103.089130
1110.850856,11414.822920,22428.240043,-1480.411884
1110.851175,15398.519510,26055.249158,-13545.768739
1110.851494,19152.387450,9474.636058,-14359.995275
1110.851813,19458.825649,2812.782580,-14285.974681
1110.852132,13559.890315,-7328.038826,-8882.471304
1110.852451,3600.648841,-14285.974681,-6513.812290
1110.852770,-4060.306139,-15692.365970,-6143.709319
1110.853089,-5132.839837,-15988.448347,5625.565159
1110.853408,-13713.109414,-21243.910535,16062.468941
1110.853727,-11644.651570,-21539.992912,38934.832549
1110.854046,-17696.806004,-10881.027347,44338.335926
1110.854365,-20301.530697,5773.606348,31606.793723
1110.854684,-18462.901502,11325.150913,30422.464216
1110.855003,-6052.154434,21021.848753,27313.599260
1110.855321,1915.238745,21614.013506,8734.430116
1110.855640,9729.412825,23168.445985,-3849.070898
1110.855959,15475.129060,19985.560434,-8808.450710
1110.856278,18233.072852,12509.480420,-16654.633695
1110.856597,22906.255390,-666.185348,-11769.274478
1110.856916,16394.443657,-8660.409521,-2072.576638
1110.857235,5286.058936,-10510.924376,-9326.594869
1110.857554,3217.601092,-9326.594869,-5107.421000
1110.857873,-5056.230287,-18949.272115,6513.812290
1110.858192,-7967.393179,-23168.445985,22280.198854
1110.858511,-10189.070123,-17616.901420,33457.308578
1110.858830,-17466.977354,-5995.668130,28942.052332
1110.859149,-18922.558801,-0.000000,31384.731941
1110.859468,-17160.539155,5847.626942,34715.658680
1110.859787,-6358.592633,18431.127956,29978.340651
1110.860106,1149.143247,17764.942608,14730.098246
1110.860425,8503.660028,24130.713709,-5403.503377
1110.860744,15321.909960,21169.889941,-11769.274478
1110.861063,20607.968896,12509.480420,-16432.571912
1110.861382,22369.988542,1554.432478,-10955.047942
1110.861701,15015.471761,-6365.771101,-9622.677246
1110.862020,6818.249932,-11547.212695,-7105.977043
1110.862339,2298.286494,-10955.047942,-4737.318029
1110.862658,-4290.134789,-14285.974681,2664.741391
1110.862977,-7814.174080,-20207.622217,17468.860231
1110.863296,-9116.536426,-21021.848753,34345.555709
1110.863615,-15245.300410,-11029.068536,34715.658680
1110.863934,-19765.263848,1628.453072,31902.876100
1110.864253,-15475.129060,7772.162391,31384.731941
1110.864572,-7737.564530,16136.489536,28423.908173
1110.864891,2528.115143,19023.292709,15840.407159
1110.865210,10878.556072,32865.143825,-2072.576638
1110.865529,15551.738609,20133.601622,-11029.068536
1110.865848,19918.482948,13915.871710,-15174.221811
1110.866167,23136.084040,4293.194464,-11251.130318
1110.866486,17543.586904,-11325.150913,-6439.791695
1110.866805,6128.763984,-11177.109724,-7772.162391
1110.867123,842.705048,-13619.789333,-4071.132681
1110.867442,-4903.011187,-20799.786970,4959.379811
1110.867761,-6818.249932,-20133.601622,24056.693115
1110.868080,-9652.803275,-19023.292709,34345.555709
1110.868399,-16011.395908,-5107.421000,31236.690752
1110.868718,-15628.348159,7476.080014,25759.166782
1110.869037,-16624.272307,6735.874072,31236.690752
1110.869356,-5439.278036,13175.665768,26129.269753
1110.869675,995.924147,20059.581028,11473.192101
1110.869994,8810.098227,17542.880825,-4737.318029
1110.870313,14402.595362,15026.180623,-9474.636058
1110.870632,18309.682402,10807.006753,-15026.180623
1110.870951,20991.016645,296.082377,-10362.883188
1110.871270,14172.766713,-7179.997637,-7105.977043
1110.871589,6128.763984,-9474.636058,-7624.121203
1110.871908,-612.876398,-11251.130318,-6365.771101
1110.872227,-6741.640382,-18801.230927,1628.453072
1110.872546,-9422.974625,-19689.478057,21391.951724
1110.872865,-12410.747068,-21317.931130,30274.423028
1110.873184,-18692.730151,-10732.986159,35455.864622
1110.873503,-21067.626195,962.267725,34567.617491
1110.873822,-17083.929605,9030.512492,32495.040854
1110.874141,-7201.297681,12953.603985,29312.155303
1110.874460,4826.401637,20799.786970,12065.356855
1110.874779,9806.022374,26055.249158,-1406.391290
1110.875098,16088.005458,22280.198854,-13841.851115
1110.875417,19612.044749,14063.912898,-16580.613101
1110.875736,21067.626195,814.226536,-11325.150913
1110.876055,13483.280765,-10658.965565,-7179.997637
1110.876374,6588.421283,-11325.150913,-8882.471304
1110.876693,689.485948,-11621.233289,-4071.132681
1110.877012,-5515.887586,-17616.901420,4737.318029
1110.877331,-10572.117872,-24426.796086,20947.828159
1110.877650,-9882.631924,-16432.571912,35603.905810
1110.877969,-17160.539155,-9696.697840,37602.461854
1110.878288,-19228.997000,5033.400406,32050.917289
1110.878607,-16241.224558,13101.645173,29682.258274
1110.878925,-4060.306139,18949.272115,31236.690752
1110.879244,2145.067394,23464.528361,13397.727550
1110.879563,8656.879127,12805.562797,-3552.988522
1110.879882,16700.881856,22132.157666,-11473.192101
1110.880201,21680.502593,11399.171507,-16136.489536
1110.880520,20224.921147,-148.041188,-11695.253884
1110.880839,16547.662757,-11251.130318,-4737.318029
1110.881158,6894.859482,-11103.089130,-5551.544565
1110.881477,3677.258390,-12953.603985,-6587.832884
1110.881796,-2221.676944,-12361.439231,3404.947333
1110.882115,-6894.859482,-21910.095883,20873.807564
1110.882434,-5898.935335,-15396.283594,32198.958477
1110.882753,-14709.033562,-11029.068536,37676.482448
1110.883072,-18003.244203,444.123565,33383.287984
1110.883391,-16011.395908,9474.636058,31014.628970
1110.883710,-5209.449386,17320.819043,20725.766376
1110.884029,6205.373534,16432.571912,17542.880825
1110.884348,7967.393179,17764.942608,-3849.070898
1110.884667,14019.547613,20651.745782,-12879.583391
1110.884986,19995.092498,15322.262999,-18431.127956
1110.885305,20531.359346,296.082377,-11843.295072
1110.885624,12410.747068,-8956.491898,-7254.018232
1110.885943,6741.640382,-13545.768739,-5033.400406
1110.886262,459.657299,-8586.388927,-9474.636058
1110.886581,-3983.696590,-16580.613101,1850.514855
1110.886900,-11568.042020,-24648.857869,20873.807564
1110.887219,-10572.117872,-20947.828159,37602.461854
1110.887538,-15092.081311,-7624.121203,31236.690752
1110.887857,-19612.044749,7105.977043,28053.805202
1110.888176,-12870.404366,10510.924376,35677.926404
1110.888495,-10418.898773,15544.324782,26721.434506
1110.888814,1225.752797,19171.333898,14656.077652
1110.889133,7737.564530,22428.240043,-3478.967927
1110.889452,12793.794817,22058.137072,-8956.491898
1110.889771,17850.025103,9770.718434,-13693.809927
1110.890090,17696.806004,6291.750507,-15396.283594
1110.890409,12870.404366,-7105.977043,-5107.421000
1110.890727,5592.497135,-12805.562797,-4219.173869
1110.891046,-919.314598,-10955.047942,-8216.285956
1110.891365,-5975.544884,-12953.603985,518.144159
1110.891684,-9806.022374,-22428.240043,18431.127956
1110.892003,-11644.651570,-21762.054695,35233.802839
1110.892322,-17237.148705,-11917.315666,37158.338288
1110.892641,-20837.797546,592.164754,31236.690752
1110.892960,-16394.443657,9548.656652,30570.505405
1110.893279,-7737.564530,15248.242405,25685.146187
1110.893598,689.485948,18949.272115,15322.262999
1110.893917,9422.974625,15174.221811,3849.070898
1110.894236,13636.499864,27461.640448,-11917.315666
1110.894555,18845.949251,9030.512492,-12287.418637
1110.894874,18539.511052,-0.000000,-12139.377449
1110.895193,18003.244203,-8512.368333,-3849.070898
1110.895512,9729.412825,-10955.047942,-4959.379811
1110.895831,3983.696590,-4441.235652,-9622.677246
1110.896150,1302.362347,-11991.336260,2368.659014
1110.896469,-4366.744339,-18135.045579,15100.201217
1110.896788,-9576.193725,-18357.107362,31310.711347
1110.897107,-15168.690860,-11251.130318,32643.082042
1110.897426,-19458.825649,-3404.947333,29460.196492
1110.897745,-15015.471761,3478.967927,34419.576303
1110.898064,-7431.126331,10510.924376,31532.773129
1110.898383,2145.067394,16358.551318,12065.356855
1110.898702,10648.727422,23020.404796,1924.535449
1110.899021,14019.547613,18801.230927,-5699.585753
1110.899340,20071.702048,14878.139434,-15692.365970
1110.899659,23978.789087,8216.285956,-16876.695478
1110.899978,18079.853753,-2812.782580,-10288.862594
1110.900297,9652.803275,-10436.903782,-3997.112087
1110.900616,2145.067394,-11843.295072,-9252.574275
1110.900935,-2834.553343,-13767.830521,-592.164754
1110.901254,-7967.393179,-20873.807564,17468.860231
1110.901573,-11721.261119,-20651.745782,32124.937883
1110.901892,-13330.061665,-15544.324782,35603.905810
1110.902211,-19841.873398,-5403.503377,31014.628970
1110.902529,-18462.901502,10288.862594,34419.576303
1110.902848,-12717.185267,12213.398043,28053.805202
1110.903167,-689.485948,18875.251521,14285.974681
1110.903486,8427.050478,20873.807564,6069.688724
1110.903805,11108.384721,22798.343014,-5995.668130
1110.904124,18692.730151,13101.645173,-17172.777854
1110.904443,18999.168350,296.082377,-16210.510130
1110.904762,15628.348159,-5477.523971,-5995.668130
1110.905081,6894.859482,-13841.851115,-2886.803174
1110.905400,1608.800546,-7698.141797,-8438.347739
1110.905719,-1302.362347,-13545.768739,-222.061783
1110.906038,-6894.859482,-17764.942608,13175.665768
1110.906357,-10342.289223,-17616.901420,30126.381839
1110.906676,-11491.432470,-11399.171507,29016.072926
1110.906995,-20531.359346,-3182.885551,29312.155303
1110.907314,-17620.196454,2886.803174,33975.452738
1110.907633,-10878.556072,9844.739029,33975.452738
1110.907952,-3753.867940,14359.995275,20799.786970
1110.908271,6894.859482,13915.871710,9104.533087
1110.908590,12027.699319,22280.198854,-4589.276840
1110.908909,15858.176809,12731.542202,-14137.933492
1110.909228,19918.482948,10584.944971,-14582.057057
1110.909547,17237.148705,-2960.823768,-5773.606348
1110.909866,7967.393179,-8142.265362,-7550.100608
1110.910185,2068.457845,-9030.512492,-7920.203579
1110.910504,153.219100,-9326.594869,-2590.720797
1110.910823,-6358.592633,-17024.736666,9030.512492
1110.911142,-13100.233016,-20207.622217,23908.651927
1110.911461,-12947.013916,-14434.015869,38416.688390
1110.911780,-17390.367805,-8438.347739,33975.452738
1110.912099,-16317.834107,2812.782580,38416.688390
1110.912418,-9959.241474,15026.180623,31162.670158
1110.912737,-612.876398,18505.148550,25241.022622
1110.913056,8044.002729,15618.345376,12953.603985
1110.913375,13942.938064,25315.043216,-5699.585753
1110.913694,19305.606550,18653.189738,-13545.768739
1110.914013,22829.645840,10214.842000,-18949.272115
1110.914331,20071.702048,-4071.132681,-8882.471304
1110.914650,12947.013916,-11917.315666,-3701.029710
1110.914969,5515.887586,-10658.965565,-6957.935855
1110.915288,1378.971896,-9918.759623,-4071.132681
1110.915607,-4366.744339,-19319.375086,8882.471304
1110.915926,-9269.755526,-17987.004391,27239.578666
1110.916245,-12640.575717,-15248.242405,34863.699868
1110.916564,-17620.196454,-7698.141797,35899.988187
1110.916883,-18003.244203,2368.659014,30052.361245
1110.917202,-14555.814462,9474.636058,31828.855506
1110.917521,-4060.306139,14285.974681,27757.722825
1110.917840,1149.143247,12583.501014,11177.109724
1110.918159,10725.336972,17690.922014,-3108.864956
1110.918478,15398.519510,19541.436869,-13545.768739
1110.918797,21297.454844,11769.274478,-13989.892304
1110.919116,19765.263848,1850.514855,-14730.098246
1110.919435,14325.985813,-4885.359217,-10066.800811
1110.919754,5209.449386,-9474.636058,-7105.977043
1110.920073,1455.581446,-12065.356855,-5255.462188
1110.920392,-4903.011187,-14878.139434,5477.523971
1110.920711,-9652.803275,-18431.127956,20355.663405
1110.921030,-10189.070123,-19319.375086,33975.452738
1110.921349,-16547.662757,-12361.439231,31310.711347
1110.921668,-18003.244203,-740.205942,34419.576303
1110.921987,-13942.938064,7550.100608,32791.123231
1110.922306,-7201.297681,15988.448347,22576.281231
1110.922625,4749.792088,17098.757260,14952.160028
1110.922944,11261.603821,26573.393318,-2516.700203
1110.923263,13866.328514,18949.272115,-11325.150913
1110.923582,19152.387450,14656.077652,-13767.830521
1110.923901,19841.873398,2516.700203,-13915.871710
1110.924220,12487.356617,-8068.244768,-2590.720797
1110.924539,7584.345430,-12213.398043,-4589.276840
1110.924858,-1225.752797,-9326.594869,-5995.668130
1110.925177,-4903.011187,-18801.230927,4737.318029
1110.925496,-9652.803275,-21391.951724,21614.013506
1110.925815,-9806.022374,-24574.837274,34123.493926
1110.926134,-17543.586904,-5255.462188,31680.814318
1110.926452,-19458.825649,-3701.029710,33457.308578
1110.926771,-18386.291952,5181.441594,32717.102636
1110.927090,-8963.317327,17246.798449,27091.537477
1110.927409,-842.705048,18579.169144,13841.851115
1110.927728,8120.612279,19689.478057,2516.700203
1110.928047,12027.699319,19615.457463,-10955.047942
1110.928366,18156.463303,13027.624579,-15026.180623
1110.928685,19612.044749,1036.288319,-9030.512492
1110.929004,14325.985813,-7254.018232,-5625.565159
1110.929323,7507.735880,-9030.512492,-6957.935855
1110.929642,766.095498,-8808.450710,-6069.688724
1110.929961,-3524.039291,-14137.933492,1924.535449
1110.930280,-4903.011187,-15914.427753,18431.127956
1110.930599,-8580.269578,-13915.871710,30126.381839
1110.930918,-12334.137518,-8364.327145,30496.484810
1110.931237,-15321.909960,2886.803174,29830.299463
1110.931556,-13636.499864,9770.718434,28497.928767
1110.931875,-6818.249932,18209.066173,25463.084405
1110.932194,153.219100,14285.974681,19097.313304
1110.932513,11338.213370,17690.922014,7846.182985
1110.932832,13023.623466,23020.404796,-8956.491898
1110.933151,20837.797546,15174.221811,-16580.613101
1110.933470,22063.550342,3256.906145,-11177.109724
1110.933789,17160.539155,-6365.771101,-6217.729913
1110.934108,9422.974625,-9474.636058,-4885.359217
1110.934427,3600.648841,-7994.224174,-7105.977043
1110.934746,-1532.190996,-11103.089130,-370.102971
1110.935065,-4443.353888,-19023.292709,15618.345376
1110.935384,-10342.289223,-18135.045579,28868.031738
1110.935703,-11414.822920,-11325.150913,35529.885216
1110.936022,-19152.387450,-3330.926739,30570.505405
1110.936341,-15934.786358,5477.523971,31014.628970
1110.936660,-9806.022374,10807.006753,31162.670158
1110.936979,-153.219100,15470.304188,16580.613101
1110.937298,6281.983084,18579.169144,5255.462188
1110.937617,12870.404366,16580.613101,-3034.844362
1110.937936,16700.881856,11029.068536,-14804.118840
1110.938254,18386.291952,4071.132681,-8068.244768
1110.938573,15398.519510,-3108.864956,-7772.162391
1110.938892,7584.345430,-10881.027347,-7179.997637
1110.939211,2757.943793,-8734.430116,-5033.400406
1110.939530,-2528.115143,-14656.077652,-4293.194464
1110.939849,-7584.345430,-16580.613101,13027.624579
1110.940168,-10342.289223,-19171.333898,30126.381839
1110.940487,-15551.738609,-11621.233289,32495.040854
1110.940806,-18922.558801,-3256.906145,30792.567187
1110.941125,-17160.539155,7698.141797,30866.587781
1110.941444,-10265.679673,9844.739029,23464.528361
1110.941763,-3677.258390,15544.324782,18727.210333
1110.942082,5209.449386,15544.324782,11251.130318
1110.942401,9576.193725,20503.704593,-8956.491898
1110.942720,15704.957709,17912.983796,-14063.912898
1110.943039,19458.825649,4811.338623,-11917.315666
1110.943358,16471.053207,-3478.967927,-4737.318029
1110.943677,8427.050478,-9030.512492,-4219.173869
1110.943996,5056.230287,-8512.368333,-3849.070898
1110.944315,1762.019645,-5477.523971,-2294.638420
1110.944634,-4519.963438,-11325.150913,7328.038826
1110.944953,-9806.022374,-17912.983796,25537.104999
1110.945272,-12257.527968,-12657.521608,33013.185013
1110.945591,-17083.929605,-6809.894666,30422.464216
1110.945910,-16854.100956,2294.638420,30866.587781
1110.946229,-12104.308868,6143.709319,32198.958477
1110.946548,-2068.457845,13175.665768,21984.116477
1110.946867,5975.544884,17912.983796,9104.533087
1110.947186,10878.556072,18431.127956,-3849.070898
1110.947504,16471.053207,11251.130318,-10436.903782
1110.947823,20837.797546,8290.306550,-7994.224174
1110.948142,19535.435199,-1850.514855,-11251.130318
1110.948461,13406.671215,-6069.688724,-7550.100608
1110.948780,7354.516781,-4811.338623,-5255.462188
1110.949099,1455.581446,-6587.832884,-4071.132681
1110.949418,-4673.182538,-13397.727550,7105.977043
1110.949737,-8273.831378,-17690.922014,25315.043216
1110.950056,-14479.204912,-15026.180623,32346.999665
1110.950375,-16471.053207,-11177.109724,35529.885216
1110.950693,-20378.140247,-888.247130,31606.793723
1110.951012,-10495.508323,10066.800811,36862.255912
1110.951331,-6588.421283,12879.583391,21317.931130
1110.951650,3524.039291,16802.674883,13175.665768
1110.951969,11644.651570,19541.436869,2886.803174
1110.952288,14785.643111,17838.963202,-9622.677246
1110.952607,19228.997000,12139.377449,-14211.954086
1110.952926,18462.901502,4219.173869,-9474.636058
1110.953245,17007.320056,-7328.038826,-3923.091493
1110.953564,7431.126331,-3330.926739,-8364.327145
1110.953882,4290.134789,-2516.700203,-5255.462188
1110.954201,-383.047749,-12287.418637,4959.379811
1110.954520,-4903.011187,-12731.542202,16284.530724
1110.954839,-10495.508323,-12731.542202,25907.207970
1110.955158,-14709.033562,-10066.800811,31680.814318
1110.955477,-18079.853753,-3034.844362,29016.072926
1110.955796,-14862.252661,2738.761985,27905.764013
1110.956115,-7507.735880,8808.450710,24130.713709
1110.956434,536.266849,10510.924376,19393.395680
1110.956753,10265.679673,16358.551318,-1036.288319
1110.957071,14172.766713,14952.160028,-6809.894666
1110.957390,18845.949251,8956.491898,-10584.944971
1110.957709,18769.339701,4071.132681,-11325.150913
1110.958028,14402.595362,-1998.556043,-9474.636058
1110.958347,6665.030833,-5477.523971,-5921.647536
1110.958666,306.438199,-7105.977043,-3108.864956
1110.958985,-3370.820191,-6883.915261,222.061783
1110.959304,-9422.974625,-15618.345376,11917.315666
1110.959623,-12257.527968,-18579.169144,29164.114115
1110.959942,-17007.320056,-13767.830521,32717.102636
1110.960261,-21374.064394,-8068.244768,34345.555709
1110.960579,-18386.291952,-1184.329507,35381.844028
1110.960898,-9806.022374,10436.903782,27905.764013
1110.961217,-2987.772442,17098.757260,16506.592507
1110.961536,6894.859482,14878.139434,5921.647536
1110.961855,10342.289223,20577.725188,-7698.141797
1110.962174,17773.415554,15248.242405,-11769.274478
1110.962493,18156.463303,2590.720797,-14137.933492
1110.962812,12947.013916,-5699.585753,-8216.285956
1110.963131,8427.050478,-9178.553681,-3478.967927
1110.963450,3753.867940,-7402.059420,-6291.750507
1110.963768,0.000000,-8956.491898,-518.144159
1110.964087,-4673.182538,-10584.944971,11843.295072
1110.964406,-8044.002729,-13619.789333,24944.940245
1110.964725,-13023.623466,-9400.615463,26647.413912
1110.965044,-18386.291952,-3034.844362,30570.505405
1110.965363,-15321.909960,1036.288319,33753.390955
1110.965682,-9499.584175,6809.894666,29608.237680
1110.966001,766.095498,11177.109724,17690.922014
1110.966320,8273.831378,14508.036463,15174.221811
1110.966639,10955.165621,11769.274478,666.185348
1110.966957,20761.187996,10510.924376,-11399.171507
1110.967276,23289.303139,7994.224174,-11473.192101
1110.967595,19995.092498,1110.308913,-8438.347739
1110.967914,14325.985813,-4737.318029,-8216.285956
1110.968233,6052.154434,-888.247130,-8956.491898
1110.968552,4213.525239,-7772.162391,-4071.132681
1110.968871,-3600.648841,-8142.265362,444.123565
1110.969190,-10418.898773,-16728.654289,17394.839637
1110.969509,-14479.204912,-14730.098246,28349.887579
1110.969828,-17160.539155,-12879.583391,33161.226202
1110.970146,-19995.092498,-6661.853478,37898.544230
1110.970465,-13483.280765,1998.556043,39378.956114
1110.970784,-7354.516781,10584.944971,24204.734303
1110.971103,4826.401637,13175.665768,16210.510130
1110.971422,11644.651570,21762.054695,-1554.432478
1110.971741,14402.595362,19245.354492,-9992.780217
1110.972060,19152.387450,11399.171507,-16210.510130
1110.972379,19841.873398,4737.318029,-13397.727550
1110.972698,12793.794817,-3923.091493,-11843.295072
1110.973017,4596.572988,-6661.853478,-8660.409521
1110.973336,1685.410096,-8808.450710,-3478.967927
1110.973654,-4366.744339,-7624.121203,1702.473667
1110.973973,-8963.317327,-13767.830521,12287.418637
1110.974292,-14632.424012,-14952.160028,27905.764013
1110.974611,-16164.615008,-10510.924376,30422.464216
1110.974930,-21450.673944,-2368.659014,31532.773129
1110.975249,-15934.786358,1702.473667,35677.926404
1110.975568,-12027.699319,3701.029710,27535.661042
1110.975887,-919.314598,15840.407159,20651.745782
1110.976206,4596.572988,13323.706956,4515.256246
1110.976525,11184.994271,17987.004391,-1628.453072
1110.976843,16930.710506,11325.150913,-11029.068536
1110.977162,21833.721693,9178.553681,-11843.295072
1110.977481,18003.244203,2294.638420,-8512.368333
1110.977800,11644.651570,-4959.379811,-6143.709319
1110.978119,4903.011187,-4663.297435,-5995.668130
1110.978438,1991.848295,-4663.297435,-1110.308913
1110.978757,-4673.182538,-10288.862594,8586.388927
1110.979076,-8886.707777,-13693.809927,22576.281231
1110.979395,-14402.595362,-13841.851115,24574.837274
1110.979714,-18003.244203,-7772.162391,32272.979071
1110.980032,-15704.957709,-6735.874072,35529.885216
1110.980351,-10648.727422,3923.091493,33679.370361
1110.980670,-3753.867940,5773.606348,26277.310941
1110.980989,4903.011187,15914.427753,11325.150913
1110.981308,10648.727422,17246.798449,592.164754
1110.981627,17313.758255,18875.251521,-5033.400406
1110.981946,19305.606550,9548.656652,-13841.851115
1110.982265,19152.387450,3182.885551,-8512.368333
1110.982584,14938.862211,-2220.617826,-7550.100608
1110.982903,6052.154434,-666.185348,-7402.059420
1110.983222,2451.505594,-5181.441594,-2590.720797
1110.983540,-3907.087040,-10955.047942,5477.523971
1110.983859,-9576.193725,-14063.912898,17912.983796
1110.984178,-13636.499864,-13915.871710,24796.899057
1110.984497,-16700.881856,-11399.171507,30792.567187
1110.984816,-18616.120601,-6291.750507,33087.205607
1110.985135,-13330.061665,-962.267725,35085.761651
1110.985454,-7660.954980,7031.956449,27905.764013
1110.985773,2528.115143,14582.057057,14656.077652
1110.986092,7660.954980,19689.478057,2516.700203
1110.986411,14862.252661,16358.551318,-7105.977043
1110.986729,19075.777900,10584.944971,-14285.974681
1110.987048,19382.216099,4145.153275,-13397.727550
1110.987367,14785.643111,-4441.235652,-9622.677246
1110.987686,7584.345430,-7846.182985,-6143.709319
1110.988005,2528.115143,-6217.729913,-2738.761985
1110.988324,-689.485948,-7920.203579,1776.494261
1110.988643,-6281.983084,-11325.150913,11843.295072
1110.988962,-11414.822920,-13841.851115,24352.775492
1110.989281,-14249.376263,-11177.109724,29756.278868
1110.989600,-16624.272307,-5107.421000,29904.320057
1110.989918,-14555.814462,1184.329507,34345.555709
1110.990237,-9346.365076,4885.359217,31384.731941
1110.990556,-536.266849,11399.171507,22132.157666
1110.990875,9193.145976,13841.851115,4737.318029
1110.991194,10725.336972,18653.189738,-7994.224174
1110.991513,17773.415554,12805.562797,-11769.274478
1110.991832,19075.777900,6069.688724,-16728.654289
1110.992151,17773.415554,-740.205942,-9992.780217
1110.992470,8580.269578,-6291.750507,-5477.523971
1110.992789,2911.162892,-2590.720797,-4737.318029
1110.993107,-536.266849,-2664.741391,-1702.473667
1110.993426,-4673.182538,-9178.553681,8142.265362
1110.993745,-11644.651570,-14878.139434,19541.436869
1110.994064,-17083.929605,-15322.262999,29312.155303
1110.994383,-18233.072852,-11769.274478,31680.814318
1110.994702,-18769.339701,-2368.659014,32050.917289
1110.995021,-11568.042020,740.205942,33235.246796
1110.995340,-4903.011187,10807.006753,27165.558071
1110.995659,2987.772442,15544.324782,14730.098246
1110.995978,7354.516781,19319.375086,-3701.029710
1110.996297,15015.471761,18949.272115,-8364.327145
1110.996615,18462.901502,9844.739029,-13249.686362
1110.996934,18539.511052,2812.782580,-12879.583391
1110.997253,11644.651570,-3256.906145,-7772.162391
1110.997572,6128.763984,-9104.533087,-296.082377
1110.997891,-153.219100,-6587.832884,-4367.215058
1110.998210,-2911.162892,-9326.594869,3108.864956
1110.998529,-9269.755526,-11991.336260,16284.530724
1110.998848,-12410.747068,-14508.036463,27979.784608
1110.999167,-15168.690860,-9548.656652,32865.143825
1110.999486,-17083.929605,-296.082377,29978.340651
1110.999804,-12563.966167,1480.411884,37084.317694
1111.000123,-6741.640382,13323.706956,26277.310941
1111.000442,1225.752797,13767.830521,17987.004391
1111.000761,9499.584175,14878.139434,7624.121203
1111.001080,12410.747068,14656.077652,-6735.874072
1111.001399,20224.921147,11547.212695,-10658.965565
1111.001718,21910.331243,7105.977043,-14137.933492
1111.002037,17543.586904,-2220.617826,-5773.606348
1111.002356,10725.336972,-9400.615463,-3627.009116
1111.002675,2834.553343,-2516.700203,-4071.132681
1111.002993,2221.676944,-4367.215058,1850.514855
1111.003312,-2987.772442,-5847.626942,11251.130318
1111.003631,-11874.480219,-10510.924376,22724.322419
1111.003950,-12870.404366,-13545.768739,28868.031738
1111.004269,-17390.367805,-7105.977043,28053.805202
1111.004588,-14096.157163,-5255.462188,32346.999665
1111.004907,-10418.898773,-148.041188,28423.908173
1111.005226,-3447.429741,7179.997637,23316.487173
1111.005545,7354.516781,11991.336260,7994.224174
1111.005864,10955.165621,19097.313304,-5477.523971
1111.006182,17696.806004,14508.036463,-8290.306550
1111.006501,20224.921147,10436.903782,-10584.944971
1111.006820,17543.586904,2146.597232,-11473.192101
1111.007139,11108.384721,-2664.741391,-8364.327145
1111.007458,3983.696590,-5773.606348,-2516.700203
1111.007777,-1762.019645,-6143.709319,1480.411884
1111.008096,-5286.058936,-10214.842000,6439.791695
1111.008415,-11184.994271,-11843.295072,16876.695478
1111.008734,-14479.204912,-13841.851115,27091.537477
1111.009053,-17313.758255,-7624.121203,29904.320057
1111.009372,-16164.615008,-1998.556043,29756.278868
1111.009690,-12334.137518,5181.441594,31828.855506
1111.010009,-5669.106685,7402.059420,25167.002028
1111.010328,995.924147,13841.851115,14285.974681
1111.010647,10418.898773,13323.706956,3330.926739
1111.010966,14019.547613,11621.233289,-9992.780217
1111.011285,18003.244203,10288.862594,-9918.759623
1111.011604,19305.606550,-1776.494261,-10288.862594
1111.011923,14555.814462,-3404.947333,-5551.544565
1111.012242,6358.592633,-11029.068536,370.102971
1111.012561,766.095498,-4145.153275,74.020594
1111.012879,-1455.581446,-7254.018232,5847.626942
1111.013198,-5745.716235,-4145.153275,13397.727550
1111.013517,-11644.651570,-9474.636058,21021.848753
1111.013836,-17007.320056,-8586.388927,23834.631332
1111.014155,-17313.758255,-5329.482782,29312.155303
1111.014474,-15092.081311,-3997.112087,35825.967593
1111.014793,-9269.755526,-370.102971,30348.443622
1111.015112,-2911.162892,6883.915261,21688.034101
1111.015431,5822.325785,11917.315666,7846.182985
1111.015750,10801.946522,16876.695478,-5329.482782
1111.016068,18079.853753,8216.285956,-6661.853478
1111.016387,20684.578446,7920.203579,-9992.780217
1111.016706,17007.320056,962.267725,-11029.068536
1111.017025,11568.042020,-962.267725,-9992.780217
1111.017344,4060.306139,-2960.823768,-2960.823768
1111.017663,153.219100,-3997.112087,592.164754
1111.017982,-5515.887586,-6809.894666,5995.668130
1111.018301,-9652.803275,-10140.821405,16950.716072
1111.018620,-17007.320056,-10214.842000,23020.404796
1111.018939,-15398.519510,-7328.038826,29312.155303
1111.019257,-14785.643111,-4145.153275,33235.246796
1111.019576,-8656.879127,-0.000000,36196.070564
1111.019895,-4136.915689,7031.956449,27461.640448
1111.020214,5898.935335,13767.830521,10214.842000
1111.020533,10648.727422,15396.283594,-2886.803174
1111.020852,15015.471761,11399.171507,-5403.503377
1111.021171,18539.511052,5921.647536,-9844.739029
1111.021490,20301.530697,4737.318029,-12805.562797
1111.021809,15245.300410,-2590.720797,-8142.265362
1111.022128,9499.584175,-4071.132681,0.000000
1111.022447,2068.457845,-3627.009116,-740.205942
1111.022765,-1378.971896,-1850.514855,3404.947333
1111.023084,-6818.249932,-5699.585753,15100.201217
1111.023403,-11951.089769,-11325.150913,23390.507767
1111.023722,-13713.109414,-10436.903782,26351.331535
1111.024041,-14785.643111,-5477.523971,30940.608376
1111.024360,-11644.651570,-1850.514855,32346.999665
1111.024679,-6818.249932,-814.226536,28645.969955
1111.024998,1455.581446,8364.327145,17246.798449
1111.025317,6894.859482,9770.718434,3849.070898
1111.025636,11414.822920,15766.386565,-5625.565159
1111.025954,15398.519510,9104.533087,-9400.615463
1111.026273,17390.367805,8660.409521,-10066.800811
1111.026592,14709.033562,3849.070898,-9474.636058
1111.026911,8350.440928,370.102971,-5699.585753
1111.027230,-153.219100,-2664.741391,-2812.782580
1111.027549,-4136.915689,-3256.906145,3330.926739
1111.027868,-8044.002729,-8956.491898,9252.574275
1111.028187,-15475.129060,-10807.006753,15766.386565
1111.028506,-17620.196454,-14063.912898,26573.393318
1111.028825,-20224.921147,-10955.047942,33901.432144
1111.029143,-17083.929605,-4959.379811,38342.667796
1111.029462,-10725.336972,1702.473667,35974.008781
1111.029781,-3294.210641,11547.212695,20503.704593
1111.030100,3524.039291,18061.024985,6365.771101
1111.030419,10495.508323,16210.510130,-2516.700203
1111.030738,15015.471761,16432.571912,-8660.409521
1111.031057,19841.873398,10066.800811,-12509.480420
1111.031376,18156.463303,1702.473667,-12879.583391
1111.031695,12793.794817,-4515.256246,-7031.956449
1111.032014,5975.544884,-7772.162391,-296.082377
1111.032333,-306.438199,-5403.503377,-1998.556043
1111.032651,-3064.381992,-8660.409521,7031.956449
1111.032970,-8963.317327,-10510.924376,16580.613101
1111.033289,-13253.452115,-10807.006753,22576.281231
1111.033608,-16547.662757,-9474.636058,28868.031738
1111.033927,-16088.005458,-4589.276840,32050.917289
1111.034246,-10648.727422,-2368.659014,34049.473332
1111.034565,-3447.429741,4293.194464,26499.372724
1111.034884,4673.182538,8290.306550,19985.560434
1111.035203,10878.556072,15840.407159,5181.441594
1111.035522,13483.280765,11695.253884,-7254.018232
1111.035840,19918.482948,9548.656652,-9104.533087
1111.036159,19918.482948,6069.688724,-10658.965565
1111.036478,17850.025103,1924.535449,-11399.171507
1111.036797,9499.584175,-1702.473667,-6661.853478
1111.037116,4519.963438,-3627.009116,-1924.535449
1111.037435,-306.438199,-2368.659014,2294.638420
1111.037754,-5898.935335,-5181.441594,8142.265362
1111.038073,-11951.089769,-10214.842000,16062.468941
1111.038392,-15321.909960,-12287.418637,23094.425390
1111.038711,-18233.072852,-10658.965565,30866.587781
1111.039029,-14862.252661,-7254.018232,36270.091158
1111.039348,-8197.221829,-0.000000,34937.720462
1111.039667,-306.438199,10955.047942,21243.910535
1111.039986,6665.030833,14211.954086,5995.668130
1111.040305,11644.651570,17024.736666,-3108.864956
1111.040624,16700.881856,10288.862594,-10881.027347
1111.040943,18616.120601,10214.842000,-13471.748144
1111.041262,18233.072852,3404.947333,-11103.089130
1111.041581,12027.699319,-3478.967927,-6587.832884
1111.041900,5898.935335,-4145.153275,0.000000
1111.042218,-995.924147,-3108.864956,370.102971
1111.042537,-5056.230287,-3849.070898,7105.977043
1111.042856,-8886.707777,-10510.924376,17394.839637
1111.043175,-15704.957709,-12509.480420,21317.931130
1111.043494,-19305.606550,-10732.986159,27979.784608
1111.043813,-18999.168350,-6883.915261,30422.464216
1111.044132,-13023.623466,-962.267725,34863.699868
1111.044451,-7201.297681,3182.885551,30940.608376
1111.044770,153.219100,7476.080014,16506.592507
1111.045089,3600.648841,13841.851115,3034.844362
1111.045408,10189.070123,10436.903782,-3923.091493
1111.045726,15628.348159,11473.192101,-9918.759623
1111.046045,17313.758255,5329.482782,-11399.171507
1111.046364,16088.005458,1332.370696,-8290.306550
1111.046683,10112.460574,-1628.453072,-1258.350101
1111.047002,3140.991542,-3034.844362,592.164754
1111.047321,-1685.410096,-2960.823768,-444.123565
1111.047640,-5056.230287,-3034.844362,9326.594869
1111.047959,-12027.699319,-8438.347739,17172.777854
1111.048278,-16088.005458,-10362.883188,22058.137072
1111.048597,-18922.558801,-9252.574275,30348.443622
1111.048915,-16241.224558,-7698.141797,34789.679274
1111.049234,-9729.412825,-3701.029710,34567.617491
1111.049553,-1532.190996,4737.318029,24648.857869
1111.049872,5592.497135,13989.892304,12879.583391
1111.050191,10189.070123,15544.324782,222.061783
1111.050510,15628.348159,12731.542202,-6513.812290
1111.050829,18309.682402,10140.821405,-9992.780217
1111.051148,19458.825649,5477.523971,-10362.883188
1111.051467,15398.519510,740.205942,-8290.306550
1111.051785,9806.022374,-0.000000,-3256.906145
1111.052104,3447.429741,-1554.432478,-3108.864956
1111.052423,-1608.800546,-3330.926739,4367.215058
1111.052742,-6665.030833,-8586.388927,15026.180623
1111.053060,-12027.699319,-13323.706956,20725.766376
1111.053379,-16624.272307,-12213.398043,23686.590144
1111.053698,-16624.272307,-9326.594869,30496.484810
1111.054017,-11491.432470,-4589.276840,35751.946999
1111.054335,-6894.859482,-1036.288319,31236.690752
1111.054654,2528.115143,6291.750507,20281.642811
1111.054973,8580.269578,12657.521608,6291.750507
1111.055292,13330.061665,13545.768739,-4441.235652
1111.055611,16700.881856,13989.892304,-11843.295072
1111.055929,18999.168350,8068.244768,-14137.933492
1111.056248,18156.463303,3182.885551,-10510.924376
1111.056567,12640.575717,-2812.782580,-5921.647536
1111.056886,4136.915689,-2960.823768,-3404.947333
1111.057204,-1685.410096,-2590.720797,-814.226536
1111.057523,-4673.182538,-5847.626942,10066.800811
1111.057842,-10648.727422,-10658.965565,13175.665768
1111.058161,-16241.224558,-11399.171507,22724.322419
1111.058479,-17543.586904,-11473.192101,28497.928767
1111.058798,-17160.539155,-9252.574275,33531.329173
1111.059117,-11874.480219,-2960.823768,31458.752535
1111.059436,-4366.744339,3108.864956,25389.063811
1111.059754,2221.676944,10362.883188,13841.851115
1111.060073,9652.803275,12657.521608,1702.473667
1111.060392,15321.909960,14211.954086,-5255.462188
1111.060711,17313.758255,14359.995275,-13323.706956
1111.061029,18233.072852,4515.256246,-10955.047942
1111.061348,15015.471761,2516.700203,-10288.862594
1111.061667,8350.440928,-2368.659014,-3330.926739
1111.061986,1685.410096,-4219.173869,-1554.432478
1111.062304,-3524.039291,-2220.617826,1924.535449
1111.062623,-7507.735880,-9030.512492,14137.933492
1111.062942,-12257.527968,-12287.418637,17394.839637
1111.063261,-17773.415554,-11769.274478,25167.002028
1111.063579,-19382.216099,-11991.336260,30274.423028
1111.063898,-16164.615008,-7698.141797,36048.029375
1111.064217,-9116.536426,-3552.988522,34863.699868
1111.064536,-2145.067394,2812.782580,23686.590144
1111.064854,3447.429741,11991.336260,10288.862594
1111.065173,10265.679673,15840.407159,1702.473667
1111.065492,15934.786358,14285.974681,-7698.141797
1111.065811,18769.339701,11103.089130,-14804.118840
1111.066130,19535.435199,6513.812290,-9844.739029
1111.066448,12563.966167,-1850.514855,-5921.647536
1111.066767,5975.544884,-4441.235652,-2368.659014
1111.067086,1149.143247,-3775.050304,-1184.329507
1111.067405,-4213.525239,-5033.400406,7698.141797
1111.067723,-9652.803275,-9770.718434,15692.365970
1111.068042,-15781.567259,-11029.068536,22354.219448
1111.068361,-17773.415554,-11103.089130,28645.969955
1111.068680,-16317.834107,-7254.018232,33013.185013
1111.068998,-11951.089769,-2590.720797,33087.205607
1111.069317,-3600.648841,3552.988522,29904.320057
1111.069636,3753.867940,9400.615463,18949.272115
1111.069955,9039.926876,14211.954086,7328.038826
1111.070273,14709.033562,12065.356855,2368.659014
1111.070592,18539.511052,10510.924376,-10140.821405
1111.070911,20914.407095,11177.109724,-14211.954086
1111.071230,19841.873398,4811.338623,-9696.697840
1111.071548,13253.452115,1554.432478,-8512.368333
1111.071867,5669.106685,-0.000000,-5033.400406
1111.072186,-383.047749,-1110.308913,-592.164754
1111.072505,-7660.954980,-4589.276840,6661.853478
1111.072823,-12104.308868,-12435.459826,19097.313304
1111.073142,-16317.834107,-16950.716072,26499.372724
1111.073461,-19228.997000,-14434.015869,31162.670158
1111.073780,-17083.929605,-9696.697840,34641.638086
1111.074098,-11874.480219,-888.247130,31532.773129
1111.074417,-3677.258390,2368.659014,28201.846390
1111.074736,4673.182538,9992.780217,15988.448347
1111.075055,9193.145976,17468.860231,1776.494261
1111.075373,15551.738609,20059.581028,-7698.141797
1111.075692,19918.482948,17764.942608,-15766.386565
1111.076011,22063.550342,10807.006753,-15692.365970
1111.076330,16471.053207,-2072.576638,-10066.800811
1111.076649,9806.022374,-5625.565159,-6735.874072
1111.076967,1378.971896,-4515.256246,-3404.947333
1111.077286,-4749.792088,-8364.327145,2146.597232
1111.077605,-10189.070123,-12139.377449,13027.624579
1111.077924,-12717.185267,-14730.098246,26203.290347
1111.078242,-19305.606550,-12139.377449,23316.487173
1111.078561,-20071.702048,-8216.285956,30570.505405
1111.078880,-15168.690860,-2146.597232,30644.525999
1111.079199,-9346.365076,7920.203579,26277.310941
1111.079517,-1838.629195,2960.823768,23686.590144
1111.079836,4443.353888,9548.656652,11843.295072
1111.080155,8656.879127,16876.695478,-2220.617826
1111.080474,15475.129060,8142.265362,-7254.018232
1111.080792,18156.463303,15248.242405,-13693.809927
1111.081111,19152.387450,2220.617826,-8734.430116
1111.081430,12640.575717,-296.082377,-8882.471304
1111.081749,4903.011187,-1554.432478,-5625.565159
1111.082067,0.000000,-2590.720797,3627.009116
1111.082386,-5056.230287,-4367.215058,5255.462188
1111.082705,-10725.336972,-7476.080014,15988.448347
1111.083024,-14709.033562,-13915.871710,24574.837274
1111.083342,-19382.216099,-11843.295072,25759.166782
1111.083661,-18462.901502,-10807.006753,30200.402434
1111.083980,-13253.452115,-5699.585753,31754.834912
1111.084299,-6588.421283,-0.000000,29830.299463
1111.084617,3524.039291,7624.121203,17690.922014
1111.084936,7967.393179,15840.407159,6365.771101
1111.085255,13330.061665,14952.160028,74.020594
1111.085574,17313.758255,11695.253884,-10140.821405
1111.085892,20301.530697,12657.521608,-14063.912898
1111.086211,20837.797546,3775.050304,-8438.347739
1111.086530,13406.671215,444.123565,-9548.656652
1111.086849,7124.688131,-1702.473667,-2738.761985
1111.087168,689.485948,-3701.029710,740.205942
1111.087486,-3830.477490,-5847.626942,8956.491898
1111.087805,-8963.317327,-12435.459826,18653.189738
1111.088124,-17083.929605,-12583.501014,22280.198854
1111.088443,-18003.244203,-9992.780217,27979.784608
1111.088761,-14938.862211,-4441.235652,32643.082042
1111.089080,-8580.269578,3034.844362,32421.020260
1111.089399,-383.047749,2368.659014,29534.217086
1111.089718,4136.915689,14137.933492,13397.727550
1111.090036,8503.660028,7476.080014,3627.009116
1111.090355,14019.547613,12731.542202,-3108.864956
1111.090674,16930.710506,12509.480420,-14063.912898
1111.090993,20454.749797,7994.224174,-12139.377449
1111.091311,16624.272307,2516.700203,-9474.636058
1111.091630,9039.926876,4367.215058,-8142.265362
1111.091949,3064.381992,-2812.782580,-3404.947333
1111.092268,-2757.943793,296.082377,518.144159
1111.092586,-10418.898773,-4367.215058,8808.450710
1111.092905,-14938.862211,-13619.789333,20059.581028
1111.093224,-19841.873398,-13767.830521,25833.187376
1111.093543,-19612.044749,-12213.398043,32124.937883
1111.093861,-15628.348159,-8512.368333,33901.432144
1111.094180,-9576.193725,-2664.741391,29756.278868
1111.094499,-1762.019645,2368.659014,24204.734303
1111.094818,4443.353888,9474.636058,10955.047942
1111.095136,8733.488677,12213.398043,1332.370696
1111.095455,14402.595362,14211.954086,-4441.235652
1111.095774,17313.758255,15026.180623,-15026.180623
1111.096093,19152.387450,10066.800811,-13175.665768
1111.096411,16241.224558,666.185348,-10436.903782
1111.096730,8120.612279,-2664.741391,-8142.265362
1111.097049,1762.019645,-7105.977043,-1998.556043
1111.097368,-6205.373534,-7031.956449,3478.967927
1111.097687,-10418.898773,-11991.336260,16802.674883
1111.098005,-14709.033562,-14730.098246,23908.651927
1111.098324,-18769.339701,-12657.521608,28868.031738
1111.098643,-16930.710506,-10881.027347,33383.287984
1111.098962,-13636.499864,-2590.720797,27757.722825
1111.099280,-7507.735880,1702.473667,25018.960840
1111.099599,76.609550,7254.018232,21243.910535
1111.099918,5286.058936,10732.986159,7698.141797
1111.100237,10112.460574,13619.789333,-1406.391290
1111.100555,16164.615008,12065.356855,-9030.512492
1111.100874,18079.853753,8438.347739,-12509.480420
1111.101193,18922.558801,3478.967927,-9622.677246
1111.101512,12640.575717,-1110.308913,-10362.883188
1111.101830,5898.935335,-1702.473667,-7031.956449
1111.102149,0.000000,-4293.194464,3330.926739
1111.102468,-6588.421283,-6957.935855,10955.047942
1111.102787,-8503.660028,-11695.253884,21614.013506
1111.103105,-15168.690860,-8364.327145,23834.631332
1111.103424,-15781.567259,-10140.821405,26055.249158
1111.103743,-16088.005458,-8068.244768,29682.258274
1111.104062,-7354.516781,-2960.823768,29978.340651
1111.104380,-2298.286494,-1850.514855,24796.899057
1111.104699,5592.497135,9918.759623,20429.683999
1111.105018,10265.679673,10140.821405,5255.462188
1111.105337,14479.204912,14656.077652,-3627.009116
1111.105655,19152.387450,12731.542202,-10140.821405
1111.105974,20684.578446,9252.574275,-12361.439231
1111.106293,19458.825649,3404.947333,-13027.624579
1111.106612,12334.137518,592.164754,-9252.574275
1111.106931,4979.620737,-5181.441594,-814.226536
1111.107249,-3907.087040,-6439.791695,6143.709319
1111.107568,-9346.365076,-9696.697840,14211.954086
1111.107887,-12257.527968,-14211.954086,25092.981434
1111.108206,-16241.224558,-12657.521608,27535.661042
1111.108524,-16777.491406,-9918.759623,27905.764013
1111.108843,-13866.328514,-4441.235652,28423.908173
1111.109162,-7354.516781,2886.803174,28942.052332
1111.109481,-842.705048,5477.523971,23686.590144
1111.109799,3907.087040,13841.851115,15026.180623
1111.110118,9652.803275,9770.718434,296.082377
1111.110437,15858.176809,13619.789333,-8734.430116
1111.110756,17160.539155,11843.295072,-12361.439231
1111.111074,15321.909960,1554.432478,-10807.006753
1111.111393,13636.499864,-1776.494261,-9252.574275
1111.111712,4749.792088,-3775.050304,-3997.112087
1111.112031,-1532.190996,-5033.400406,5921.647536
1111.112349,-7124.688131,-6291.750507,12213.398043
1111.112668,-10265.679673,-7476.080014,21910.095883
1111.112987,-11568.042020,-10732.986159,29682.258274
1111.113306,-13866.328514,-5551.544565,31014.628970
1111.113624,-10725.336972,-1110.308913,29090.093521
1111.113943,-4366.744339,8364.327145,26129.269753
1111.114262,3294.210641,7402.059420,23908.651927
1111.114581,9193.145976,14878.139434,12065.356855
1111.114899,14938.862211,13323.706956,1702.473667
1111.115218,18922.558801,18579.169144,-8956.491898
1111.115537,22063.550342,13545.768739,-13249.686362
1111.115856,20684.578446,9400.615463,-15988.448347
1111.116174,18462.901502,1924.535449,-8882.471304
1111.116493,11031.775171,-1850.514855,-6217.729913
1111.116812,2911.162892,-2146.597232,-1036.288319
1111.117131,-4443.353888,-4145.153275,7698.141797
1111.117450,-8427.050478,-4737.318029,18727.210333
1111.117768,-10265.679673,-8142.265362,26647.413912
1111.118087,-13253.452115,-4589.276840,30866.587781
1111.118406,-12717.185267,-370.102971,28201.846390
1111.118725,-7890.783629,6365.771101,23686.590144
1111.119043,-536.266849,11695.253884,20725.766376
1111.119362,4596.572988,15174.221811,13175.665768
1111.119681,10648.727422,16654.633695,3256.906145
1111.120000,14325.985813,15766.386565,-10066.800811
1111.120318,17466.977354,11103.089130,-8586.388927
1111.120637,16471.053207,2960.823768,-10288.862594
1111.120956,12947.013916,-1332.370696,-8142.265362
1111.121275,8044.002729,-6291.750507,-4145.153275
1111.121593,229.828649,-4145.153275,2664.741391
1111.121912,-5056.230287,-6513.812290,12361.439231
1111.122231,-8580.269578,-7105.977043,22724.322419
1111.122550,-10342.289223,-7550.100608,28942.052332
1111.122868,-9806.022374,-2590.720797,30792.567187
1111.123187,-10648.727422,3997.112087,28275.866984
1111.123506,-6128.763984,11325.150913,19393.395680
1111.123825,995.924147,14804.118840,16432.571912
1111.124143,6128.763984,15692.365970,10362.883188
1111.124462,10801.946522,11325.150913,1554.432478
1111.124781,13483.280765,9474.636058,-6439.791695
1111.125100,15398.519510,2664.741391,-6957.935855
1111.125418,15704.957709,-4441.235652,-5255.462188
1111.125737,10495.508323,-8512.368333,-962.267725
1111.126056,7967.393179,-9474.636058,4219.173869
1111.126375,2528.115143,-3997.112087,6143.709319
1111.126693,229.828649,-2664.741391,14434.015869
1111.127012,-4519.963438,-1406.391290,19467.416275
1111.127331,-5209.449386,3997.112087,25537.104999
1111.127650,-7277.907231,3108.864956,23908.651927
1111.127969,-7354.516781,9770.718434,20429.683999
1111.128287,-4979.620737,9770.718434,12361.439231
1111.128606,612.876398,12361.439231,9992.780217
1111.128925,5132.839837,8438.347739,5551.544565
1111.129244,9729.412825,4737.318029,-296.082377
1111.129562,11568.042020,-1924.535449,518.144159
1111.129881,11108.384721,-4959.379811,740.205942
1111.130200,11951.089769,-7105.977043,3108.864956
1111.130519,8427.050478,-4737.318029,4145.153275
1111.130837,5209.449386,-3849.070898,7402.059420
1111.131156,842.705048,-296.082377,9548.656652
1111.131475,-4060.306139,3775.050304,10288.862594
1111.131794,-5975.544884,3182.885551,15396.283594
1111.132112,-8197.221829,1850.514855,20207.622217
1111.132431,-9882.631924,2146.597232,18801.230927
1111.132750,-7737.564530,2664.741391,19837.519246
1111.133069,-4443.353888,4663.297435,14434.015869
1111.133387,1302.362347,5329.482782,10658.965565
1111.133706,6128.763984,4737.318029,5773.606348
1111.134025,10725.336972,3923.091493,1036.288319
1111.134344,14096.157163,-74.020594,74.020594
1111.134662,15321.909960,-1554.432478,-296.082377
1111.134981,13330.061665,-2886.803174,1776.494261
1111.135300,10572.117872,-3404.947333,2960.823768
1111.135619,6281.983084,592.164754,4441.235652
1111.135937,1991.848295,2516.700203,7476.080014
1111.136256,-3064.381992,3701.029710,8364.327145
1111.136575,-7507.735880,4441.235652,10732.986159
1111.136894,-9422.974625,6069.688724,12731.542202
1111.137212,-9499.584175,5033.400406,16210.510130
1111.137531,-8503.660028,4219.173869,18135.045579
1111.137850,-4826.401637,2738.761985,17764.942608
1111.138169,-229.828649,3997.112087,14211.954086
1111.138488,6205.373534,3701.029710,10510.924376
1111.138806,11184.994271,3330.926739,6513.812290
1111.139125,14096.157163,3034.844362,2442.679609
1111.139444,15858.176809,4737.318029,-1850.514855
1111.139763,16011.395908,6143.709319,-4589.276840
1111.140081,13942.938064,6661.853478,-2516.700203
1111.140400,9039.926876,5625.565159,-1036.288319
1111.140719,3677.258390,3552.988522,3923.091493
1111.141038,-1685.410096,222.061783,9770.718434
1111.141356,-7201.297681,-592.164754,13915.871710
1111.141675,-8810.098227,-3256.906145,19985.560434
1111.141994,-9422.974625,-2664.741391,22354.219448
1111.142313,-6665.030833,-2072.576638,25092.981434
1111.142631,-4673.182538,-0.000000,21243.910535
1111.142950,-689.485948,5181.441594,16432.571912
1111.143269,4979.620737,8660.409521,10510.924376
1111.143588,8733.488677,9622.677246,3552.988522
1111.143906,11874.480219,7402.059420,814.226536
1111.144225,13406.671215,7031.956449,-370.102971
1111.144544,13176.842566,6217.729913,-2146.597232
1111.144863,12104.308868,3034.844362,1258.350101
1111.145181,8197.221829,2812.782580,4219.173869
1111.145500,4366.744339,2220.617826,8142.265362
1111.145819,0.000000,888.247130,10510.924376
1111.146138,-5209.449386,-74.020594,13101.645173
1111.146456,-7431.126331,-888.247130,17394.839637
1111.146775,-9499.584175,-1702.473667,19985.560434
1111.147094,-9116.536426,-666.185348,21539.992912
1111.147413,-7660.954980,740.205942,22132.157666
1111.147732,-4903.011187,3404.947333,17394.839637
1111.148050,-229.828649,4885.359217,12509.480420
1111.148369,4903.011187,7624.121203,7105.977043
1111.148688,9116.536426,7402.059420,2516.700203
1111.149007,12257.527968,7254.018232,-666.185348
1111.149326,13406.671215,7920.203579,-2368.659014
1111.149644,13636.499864,6365.771101,-148.041188
1111.149963,11644.651570,4515.256246,1702.473667
1111.150282,9193.145976,1924.535449,5107.421000
1111.150601,4290.134789,-666.185348,8438.347739
1111.150920,-306.438199,-1332.370696,11843.295072
1111.151239,-3983.696590,-2886.803174,13767.830521
1111.151557,-7201.297681,-2220.617826,17394.839637
1111.151876,-7890.783629,-3182.885551,19393.395680
1111.152195,-7277.907231,-2294.638420,19319.375086
1111.152514,-4826.401637,-962.267725,17024.736666
1111.152833,-612.876398,666.185348,13471.748144
1111.153151,1762.019645,2442.679609,9992.780217
1111.153470,5898.935335,3552.988522,6291.750507
1111.153789,9576.193725,5033.400406,2368.659014
1111.154108,11414.822920,6217.729913,0.000000
1111.154427,12640.575717,5699.585753,592.164754
1111.154746,12257.527968,4959.379811,518.144159
1111.155064,11108.384721,3478.967927,2294.638420
1111.155383,8273.831378,1998.556043,5181.441594
1111.155702,4443.353888,-0.000000,8438.347739
1111.156021,459.657299,-592.164754,11177.109724
1111.156340,-2068.457845,-1036.288319,13989.892304
1111.156658,-4596.572988,-1628.453072,14656.077652
1111.156977,-4903.011187,-962.267725,15544.324782
1111.157296,-4519.963438,148.041188,14582.057057
1111.157615,-2987.772442,2220.617826,10955.047942
1111.157934,-1225.752797,3108.864956,8364.327145
1111.158252,689.485948,3701.029710,7031.956449
1111.158571,2834.553343,3330.926739,5847.626942
1111.158890,5822.325785,3552.988522,5033.400406
1111.159209,6818.249932,4515.256246,4219.173869
1111.159528,7967.393179,6291.750507,3849.070898
1111.159847,8120.612279,6735.874072,4219.173869
1111.160165,6894.859482,6069.688724,5329.482782
1111.160484,5286.058936,3330.926739,7920.203579
1111.160803,2221.676944,1850.514855,10214.842000
1111.161122,0.000000,1184.329507,11843.295072
1111.161441,-1378.971896,444.123565,12731.542202
1111.161759,-3217.601092,-1258.350101,13027.624579
1111.162078,-3830.477490,-1702.473667,13471.748144
1111.162397,-4213.525239,-1702.473667,12213.398043
1111.162716,-3524.039291,-148.041188,11029.068536
1111.163035,-2221.676944,592.164754,9770.718434
1111.163353,-383.047749,2146.597232,9400.615463
1111.163672,995.924147,2812.782580,9030.512492
1111.163991,2681.334243,2738.761985,8660.409521
1111.164310,3753.867940,2738.761985,9326.594869
1111.164629,4596.572988,2960.823768,9918.759623
1111.164948,5975.544884,3775.050304,9844.739029
1111.165266,6205.373534,4737.318029,9474.636058
1111.165585,6358.592633,4737.318029,9474.636058
1111.165904,6511.811733,4441.235652,8956.491898
1111.166223,5975.544884,2664.741391,9030.512492
1111.166542,4596.572988,1628.453072,8956.491898
1111.166860,3140.991542,1628.453072,8734.430116
1111.167179,1608.800546,1110.308913,8660.409521
1111.167498,229.828649,222.061783,9252.574275
1111.167817,-689.485948,-444.123565,10140.821405
1111.168136,-1072.533697,-666.185348,10584.944971
1111.168455,-1455.581446,814.226536,10658.965565
1111.168773,-995.924147,1628.453072,11769.274478
1111.169092,-153.219100,2368.659014,12065.356855
1111.169411,1225.752797,2886.803174,12509.480420
1111.169730,2374.896044,4071.132681,11547.212695
1111.170049,3753.867940,4811.338623,10214.842000
1111.170367,5822.325785,5255.462188,9474.636058
1111.170686,6971.469032,5107.421000,8142.265362
1111.171005,7890.783629,4589.276840,7402.059420
1111.171324,7584.345430,3701.029710,7402.059420
1111.171643,6971.469032,2294.638420,7402.059420
1111.171961,5362.668486,1184.329507,7254.018232
1111.172280,3983.696590,1036.288319,7846.182985
1111.172599,2374.896044,814.226536,8586.388927
1111.172918,919.314598,222.061783,9918.759623
1111.173237,-995.924147,-666.185348,11843.295072
1111.173556,-2298.286494,-518.144159,13027.624579
1111.173874,-3294.210641,-0.000000,13619.789333
1111.174193,-3064.381992,814.226536,13323.706956
1111.174512,-3294.210641,962.267725,13397.727550
1111.174831,-1915.238745,1628.453072,11991.336260
1111.175150,-459.657299,2664.741391,10732.986159
1111.175468,1225.752797,3256.906145,9474.636058
1111.175787,3217.601092,3849.070898,8808.450710
1111.176106,5056.230287,3775.050304,7698.141797
1111.176425,6052.154434,3404.947333,7105.977043
1111.176744,5975.544884,2738.761985,7105.977043
1111.177063,5209.449386,2960.823768,6143.709319
1111.177381,4060.306139,3034.844362,6069.688724
1111.177700,3830.477490,3849.070898,6069.688724
1111.178019,2068.457845,3182.885551,6291.750507
1111.178338,1072.533697,1998.556043,7105.977043
1111.178657,-1072.533697,666.185348,8216.285956
1111.178975,-1608.800546,-222.061783,9770.718434
1111.179294,-1225.752797,-370.102971,11251.130318
1111.179613,383.047749,-0.000000,12065.356855
1111.179932,1915.238745,1406.391290,11621.233289
1111.180251,4979.620737,3923.091493,9696.697840
1111.180569,7737.564530,5995.668130,7994.224174
1111.180888,10648.727422,8438.347739,5329.482782
1111.181207,12487.356617,9696.697840,2442.679609
1111.181526,14019.547613,9844.739029,444.123565
1111.181845,14249.376263,8956.491898,-296.082377
1111.182164,13176.842566,6809.894666,592.164754
1111.182482,11261.603821,4441.235652,2442.679609
1111.182801,9422.974625,3182.885551,5255.462188
1111.183120,6894.859482,2442.679609,6735.874072
1111.183439,4213.525239,2886.803174,7550.100608
1111.183758,1685.410096,2812.782580,9400.615463
1111.184076,-689.485948,2294.638420,10732.986159
1111.184395,-1762.019645,1924.535449,12139.377449
1111.184714,-1991.848295,2146.597232,13101.645173
1111.185033,-2298.286494,1406.391290,13397.727550
1111.185352,-842.705048,2294.638420,13249.686362
1111.185670,995.924147,3478.967927,12213.398043
1111.185989,3217.601092,4811.338623,10362.883188
1111.186308,5362.668486,6439.791695,7846.182985
1111.186627,6971.469032,7179.997637,5551.544565
1111.186946,7354.516781,7031.956449,4737.318029
1111.187265,6741.640382,5995.668130,5033.400406
1111.187583,5515.887586,4737.318029,5995.668130
1111.187902,3217.601092,2960.823768,7476.080014
1111.188221,689.485948,518.144159,9622.677246
1111.188540,-1915.238745,-1554.432478,11769.274478
1111.188859,-3753.867940,-2516.700203,15396.283594
1111.189177,-5745.716235,-2812.782580,16876.695478
1111.189496,-6588.421283,-2146.597232,17764.942608
1111.189815,-6665.030833,-296.082377,17764.942608
1111.190134,-5439.278036,1184.329507,16506.592507
1111.190453,-3140.991542,2812.782580,14211.954086
1111.190772,-995.924147,3627.009116,11917.315666
1111.191090,1149.143247,3701.029710,10288.862594
1111.191409,3600.648841,3108.864956,8660.409521
1111.191728,5209.449386,2590.720797,7772.162391
1111.192047,6511.811733,1258.350101,7920.203579
1111.192366,7048.078582,296.082377,8660.409521
1111.192684,6818.249932,-222.061783,9548.656652
1111.193003,6511.811733,-0.000000,10362.883188
1111.193322,5515.887586,1406.391290,10955.047942
1111.193641,4673.182538,2442.679609,11029.068536
1111.193960,2757.943793,4219.173869,10362.883188
1111.194278,1302.362347,3849.070898,9696.697840
1111.194597,-229.828649,2664.741391,9178.553681
1111.194916,-459.657299,962.267725,9400.615463
1111.195235,0.000000,-888.247130,9326.594869
1111.195554,536.266849,-2072.576638,9326.594869
1111.195873,1532.190996,-3330.926739,9474.636058
1111.196191,2681.334243,-1924.535449,10140.821405
1111.196510,4749.792088,-444.123565,9918.759623
1111.196829,6052.154434,1702.473667,8438.347739
1111.197148,6588.421283,4663.297435,6957.935855
1111.197467,6818.249932,7254.018232,3997.112087
1111.197785,6665.030833,9252.574275,2442.679609
1111.198104,5362.668486,7328.038826,2146.597232
1111.198423,3217.601092,4367.215058,3256.906145
1111.198742,689.485948,740.205942,4885.359217
1111.199061,-766.095498,-1406.391290,7772.162391
1111.199379,-1455.581446,-2590.720797,10362.883188
1111.199698,-1225.752797,-2220.617826,11177.109724
1111.200017,-919.314598,-222.061783,11177.109724
1111.200336,-76.609550,1628.453072,10658.965565
1111.200655,536.266849,4737.318029,8808.450710
1111.200974,1838.629195,5625.565159,7402.059420
1111.201292,2528.115143,5403.503377,5625.565159
1111.201611,3217.601092,4367.215058,4367.215058
1111.201930,4213.525239,3330.926739,4589.276840
1111.202249,4903.011187,2072.576638,5477.523971
1111.202568,4903.011187,740.205942,6291.750507
1111.202886,4826.401637,518.144159,7550.100608
1111.203205,4366.744339,1998.556043,7772.162391
1111.203524,4519.963438,4145.153275,7698.141797
1111.203843,3217.601092,4145.153275,8216.285956
1111.204162,1991.848295,3034.844362,10140.821405
1111.204481,2451.505594,2516.700203,11103.089130
1111.204799,1302.362347,2960.823768,9844.739029
1111.205118,919.314598,1702.473667,10140.821405
1111.205437,383.047749,-370.102971,10362.883188
1111.205756,-536.266849,-1110.308913,10658.965565
1111.206075,459.657299,-2146.597232,11251.130318
1111.206393,0.000000,-1036.288319,11029.068536
1111.206712,1685.410096,-0.000000,13323.706956
1111.207031,3064.381992,2960.823768,12361.439231
1111.207350,4290.134789,5551.544565,11325.150913
1111.207669,5515.887586,6069.688724,10510.924376
1111.207987,6052.154434,6957.935855,9474.636058
1111.208306,6435.202183,5477.523971,9252.574275
1111.208625,6588.421283,4515.256246,8290.306550
1111.208944,5132.839837,3775.050304,7846.182985
1111.209263,4290.134789,2442.679609,8216.285956
1111.209582,2528.115143,1924.535449,8808.450710
1111.209900,1915.238745,1628.453072,9326.594869
1111.210219,153.219100,1554.432478,9918.759623
1111.210538,-1072.533697,1110.308913,11843.295072
1111.210857,-1302.362347,1036.288319,14952.160028
1111.211176,-2374.896044,2220.617826,15470.304188
1111.211494,-1685.410096,3108.864956,16654.633695
1111.211813,-306.438199,3775.050304,16062.468941
1111.212132,1302.362347,5107.421000,13841.851115
1111.212451,3217.601092,5329.482782,11399.171507
1111.212770,4596.572988,7031.956449,7846.182985
1111.213088,6128.763984,7550.100608,5107.421000
1111.213407,6511.811733,7476.080014,3404.947333
1111.213726,4903.011187,7328.038826,1924.535449
1111.214045,4673.182538,4293.194464,3775.050304
1111.214364,3830.477490,2590.720797,4885.359217
1111.214683,2068.457845,296.082377,7550.100608
1111.215001,689.485948,-1776.494261,11177.109724
1111.215320,-383.047749,-2146.597232,13989.892304
1111.215639,-1149.143247,-2368.659014,16580.613101
1111.215958,-842.705048,-1850.514855,17468.860231
1111.216277,-306.438199,222.061783,17246.798449
1111.216595,1762.019645,3256.906145,13693.809927
1111.216914,3370.820191,6513.812290,9622.677246
1111.217233,5669.106685,8512.368333,6661.853478
1111.217552,8044.002729,9252.574275,3775.050304
1111.217871,9346.365076,9474.636058,-1776.494261
1111.218190,9576.193725,6809.894666,-1702.473667
1111.218508,8886.707777,1776.494261,888.247130
1111.218827,7814.174080,-1628.453072,2738.761985
1111.219146,6281.983084,-4737.318029,6957.935855
1111.219465,3830.477490,-5329.482782,9992.780217
1111.219784,995.924147,-5477.523971,14211.954086
1111.220102,-153.219100,-4219.173869,16284.530724
1111.220421,-1838.629195,-814.226536,17024.736666
1111.220740,-2528.115143,1776.494261,14952.160028
1111.221059,-3064.381992,4293.194464,10955.047942
1111.221378,-2911.162892,5995.668130,7402.059420
1111.221696,-1608.800546,5033.400406,4145.153275
1111.222015,-919.314598,4293.194464,1332.370696
1111.222334,-306.438199,444.123565,1480.411884
1111.222653,153.219100,-3034.844362,2072.576638
1111.222972,383.047749,-5773.606348,4959.379811
1111.223291,0.000000,-7328.038826,7105.977043
1111.223609,-1225.752797,-6735.874072,10584.944971
1111.223928,-2068.457845,-5107.421000,13619.789333
1111.224247,-2987.772442,-2368.659014,15766.386565
1111.224566,-4290.134789,-0.000000,16062.468941
1111.224885,-4979.620737,1702.473667,15618.345376
1111.225203,-5056.230287,3330.926739,12287.418637
1111.225522,-4060.306139,3108.864956,9696.697840
1111.225841,-2911.162892,2368.659014,8512.368333
1111.226160,-1608.800546,1480.411884,5107.421000
1111.226479,1072.533697,-148.041188,3997.112087
1111.226798,1378.971896,-1998.556043,3627.009116
1111.227116,2374.896044,-3701.029710,5329.482782
1111.227435,3140.991542,-4367.215058,6439.791695
1111.227754,2834.553343,-4145.153275,7920.203579
1111.228073,2604.724693,-4515.256246,11177.109724
1111.228392,1532.190996,-3627.009116,14211.954086
1111.228710,536.266849,-1850.514855,15840.407159
1111.229029,-842.705048,-740.205942,16358.551318
1111.229348,-1225.752797,1036.288319,15988.448347
1111.229667,-1149.143247,2812.782580,14063.912898
1111.229986,536.266849,4811.338623,10955.047942
1111.230304,1991.848295,6143.709319,8142.265362
1111.230623,3753.867940,6661.853478,4959.379811
1111.230942,5439.278036,5921.647536,2590.720797
1111.231261,5286.058936,4293.194464,1110.308913
1111.231580,5209.449386,1776.494261,1480.411884
1111.231899,4213.525239,-1628.453072,3552.988522
1111.232217,2604.724693,-5107.421000,7105.977043
1111.232536,689.485948,-6809.894666,11695.253884
1111.232855,-919.314598,-5921.647536,14952.160028
1111.233174,-2528.115143,-3034.844362,17690.922014
1111.233493,-3600.648841,370.102971,18579.169144
1111.233811,-3677.258390,3849.070898,16950.716072
1111.234130,-2681.334243,7624.121203,13989.892304
1111.234449,-1455.581446,10288.862594,10066.800811
1111.234768,0.000000,11843.295072,6957.935855
1111.235087,1991.848295,11843.295072,2738.761985
1111.235405,3524.039291,9104.533087,370.102971
1111.235724,4060.306139,4663.297435,0.000000
1111.236043,4060.306139,-740.205942,888.247130
1111.236362,3217.601092,-5921.647536,3701.029710
1111.236681,1685.410096,-9622.677246,8290.306550
1111.237000,0.000000,-10510.924376,13249.686362
1111.237318,-1991.848295,-7105.977043,16358.551318
1111.237637,-3064.381992,-2590.720797,18949.272115
1111.237956,-4213.525239,2294.638420,19023.292709
1111.238275,-4443.353888,4885.359217,17394.839637
