#time,accel_x,accel_y,accel_z
1624.524901,689.485948,222.061783,9326.594869
1624.525218,612.876398,296.082377,9400.615463
1624.525535,766.095498,296.082377,9326.594869
1624.525852,612.876398,370.102971,9252.574275
1624.526170,459.657299,148.041188,9400.615463
1624.526487,766.095498,296.082377,9400.615463
1624.526804,689.485948,296.082377,9474.636058
1624.527121,995.924147,-0.000000,9474.636058
1624.527438,612.876398,-0.000000,9400.615463
1624.527755,842.705048,-0.000000,9400.615463
1624.528072,689.485948,74.020594,9400.615463
1624.528390,766.095498,-0.000000,9474.636058
1624.528707,689.485948,222.061783,9474.636058
1624.529024,766.095498,-0.000000,9474.636058
1624.529341,842.705048,370.102971,9326.594869
1624.529658,766.095498,444.123565,9622.677246
1624.529975,536.266849,-0.000000,9474.636058
1624.530292,842.705048,222.061783,9548.656652
1624.530610,842.705048,222.061783,9474.636058
1624.530927,612.876398,148.041188,9548.656652
1624.531244,612.876398,296.082377,9474.636058
1624.531561,689.485948,222.061783,9548.656652
1624.531878,689.485948,814.226536,9622.677246
1624.532195,689.485948,148.041188,9252.574275
1624.532512,612.876398,-0.000000,9548.656652
1624.532830,842.705048,222.061783,9400.615463
1624.533147,1225.752797,-74.020594,9548.656652
1624.533464,842.705048,-0.000000,9474.636058
1624.533781,766.095498,-0.000000,9474.636058
1624.534098,536.266849,296.082377,9474.636058
1624.534415,995.924147,296.082377,9474.636058
1624.534732,766.095498,222.061783,9178.553681
1624.535050,766.095498,148.041188,9400.615463
1624.535367,689.485948,444.123565,9474.636058
1624.535684,842.705048,296.082377,9474.636058
1624.536001,536.266849,222.061783,9548.656652
1624.536318,459.657299,222.061783,9622.677246
1624.536635,689.485948,296.082377,9474.636058
1624.536952,689.485948,296.082377,9400.615463
1624.537270,766.095498,222.061783,9400.615463
1624.537587,995.924147,-0.000000,9400.615463
1624.537904,842.705048,-0.000000,9326.594869
1624.538221,766.095498,370.102971,9326.594869
1624.538538,612.876398,222.061783,9400.615463
1624.538855,766.095498,222.061783,9548.656652
1624.539172,995.924147,-0.000000,9326.594869
1624.539490,766.095498,370.102971,9474.636058
1624.539807,689.485948,148.041188,9474.636058
1624.540124,842.705048,370.102971,9474.636058
1624.540441,995.924147,296.082377,9474.636058
1624.540758,766.095498,-0.000000,9400.615463
1624.541075,842.705048,222.061783,9178.553681
1624.541392,459.657299,-0.000000,9474.636058
1624.541710,842.705048,148.041188,9474.636058
1624.542027,766.095498,-0.000000,9400.615463
1624.542344,766.095498,370.102971,9474.636058
1624.542661,766.095498,296.082377,9474.636058
1624.542978,612.876398,222.061783,9400.615463
1624.543295,612.876398,-0.000000,9400.615463
1624.543612,689.485948,-0.000000,9474.636058
1624.543930,612.876398,222.061783,9474.636058
1624.544247,766.095498,222.061783,9474.636058
1624.544564,689.485948,148.041188,9400.615463
1624.544881,612.876398,370.102971,9474.636058
1624.545198,1072.533697,-0.000000,9696.697840
1624.545515,536.266849,296.082377,9474.636058
1624.545832,689.485948,370.102971,9400.615463
1624.546150,919.314598,222.061783,9474.636058
1624.546467,689.485948,-0.000000,9400.615463
1624.546784,766.095498,148.041188,9400.615463
1624.547101,766.095498,222.061783,9474.636058
1624.547418,612.876398,-0.000000,9400.615463
1624.547735,459.657299,296.082377,9548.656652
1624.548052,689.485948,222.061783,9474.636058
1624.548370,306.438199,370.102971,9474.636058
1624.548687,919.314598,518.144159,9474.636058
1624.549004,689.485948,222.061783,9326.594869
1624.549321,842.705048,148.041188,9400.615463
1624.549638,536.266849,296.082377,9400.615463
1624.549955,842.705048,-0.000000,9252.574275
1624.550272,842.705048,296.082377,9400.615463
1624.550590,919.314598,222.061783,9474.636058
1624.550907,612.876398,370.102971,9474.636058
1624.551224,612.876398,222.061783,9326.594869
1624.551541,842.705048,222.061783,9252.574275
1624.551858,919.314598,222.061783,9252.574275
1624.552175,536.266849,74.020594,9474.636058
1624.552492,612.876398,370.102971,9474.636058
1624.552810,612.876398,-0.000000,9474.636058
1624.553127,689.485948,-0.000000,9400.615463
1624.553444,689.485948,296.082377,9474.636058
1624.553761,459.657299,148.041188,9400.615463
1624.554078,766.095498,-0.000000,9474.636058
1624.554395,766.095498,222.061783,9474.636058
1624.554712,766.095498,370.102971,9474.636058
1624.555030,536.266849,148.041188,9326.594869
1624.555347,842.705048,148.041188,9400.615463
1624.555664,995.924147,370.102971,9474.636058
1624.555981,842.705048,444.123565,9548.656652
1624.556298,842.705048,-0.000000,9326.594869
1624.556615,689.485948,222.061783,9326.594869
1624.556932,536.266849,-0.000000,9252.574275
1624.557250,612.876398,-222.061783,9400.615463
1624.557567,919.314598,-370.102971,9474.636058
1624.557884,383.047749,-370.102971,9326.594869
1624.558201,0.000000,-814.226536,9030.512492
1624.558518,76.609550,-518.144159,9400.615463
1624.558835,76.609550,-518.144159,9400.615463
1624.559152,0.000000,-592.164754,9474.636058
1624.559470,-459.657299,-592.164754,8956.491898
1624.559787,-689.485948,-518.144159,8956.491898
1624.560104,-842.705048,-740.205942,8512.368333
1624.560421,-689.485948,-1110.308913,8808.450710
1624.560738,-1532.190996,-1480.411884,8956.491898
1624.561055,-1532.190996,-1776.494261,9252.574275
1624.561372,-1302.362347,-1554.432478,9474.636058
1624.561690,-1225.752797,-1554.432478,9474.636058
1624.562007,-612.876398,-1036.288319,9178.553681
1624.562324,-1072.533697,-740.205942,8956.491898
1624.562641,-995.924147,-592.164754,8364.327145
1624.562958,-1149.143247,-740.205942,8142.265362
1624.563275,-995.924147,-1036.288319,8216.285956
1624.563592,-1225.752797,-1998.556043,8956.491898
1624.563910,-1149.143247,-2294.638420,9252.574275
1624.564227,-1072.533697,-2442.679609,9622.677246
1624.564544,-1225.752797,-2738.761985,9918.759623
1624.564861,-1149.143247,-2368.659014,10288.862594
1624.565178,-383.047749,-2072.576638,9992.780217
1624.565495,-153.219100,-1628.453072,9326.594869
1624.565812,153.219100,-1628.453072,9104.533087
1624.566130,-229.828649,-1850.514855,8586.388927
1624.566447,-612.876398,-2294.638420,9326.594869
1624.566764,-306.438199,-3404.947333,9474.636058
1624.567081,-612.876398,-3775.050304,9696.697840
1624.567398,-1072.533697,-4441.235652,10288.862594
1624.567715,-1838.629195,-4071.132681,9844.739029
1624.568032,-2298.286494,-3775.050304,10436.903782
1624.568350,-2834.553343,-3627.009116,9992.780217
1624.568667,-3524.039291,-3849.070898,9844.739029
1624.568984,-3753.867940,-3997.112087,10362.883188
1624.569301,-4519.963438,-4219.173869,10510.924376
1624.569618,-4366.744339,-4589.276840,11177.109724
1624.569935,-4673.182538,-4293.194464,10955.047942
1624.570252,-5362.668486,-4515.256246,10881.027347
1624.570570,-5898.935335,-4515.256246,10658.965565
1624.570887,-6128.763984,-4367.215058,10955.047942
1624.571204,-5975.544884,-3775.050304,10658.965565
1624.571521,-5362.668486,-3034.844362,10436.903782
1624.571838,-4979.620737,-3256.906145,10584.944971
1624.572155,-4596.572988,-2886.803174,10732.986159
1624.572472,-4060.306139,-2516.700203,10881.027347
1624.572790,-3677.258390,-2442.679609,10140.821405
1624.573107,-3140.991542,-2442.679609,9400.615463
1624.573424,-3140.991542,-1628.453072,9030.512492
1624.573741,-2911.162892,-1924.535449,8956.491898
1624.574058,-2834.553343,-2442.679609,8956.491898
1624.574375,-2911.162892,-2886.803174,9474.636058
1624.574692,-2757.943793,-3256.906145,9918.759623
1624.575010,-2374.896044,-3404.947333,10288.862594
1624.575327,-2068.457845,-3701.029710,10510.924376
1624.575644,-1302.362347,-3404.947333,10140.821405
1624.575961,-766.095498,-3034.844362,9622.677246
1624.576278,229.828649,-2220.617826,9030.512492
1624.576595,1072.533697,-1554.432478,8290.306550
1624.576912,1532.190996,-1776.494261,8734.430116
1624.577230,1762.019645,-1776.494261,8290.306550
1624.577547,2298.286494,-2294.638420,8660.409521
1624.577864,1915.238745,-2294.638420,8068.244768
1624.578181,766.095498,-1998.556043,7846.182985
1624.578498,995.924147,-1776.494261,8438.347739
1624.578815,766.095498,-1406.391290,7772.162391
1624.579132,1225.752797,-2146.597232,8660.409521
1624.579450,1072.533697,-2516.700203,9474.636058
1624.579767,306.438199,-2368.659014,9474.636058
1624.580084,842.705048,-2368.659014,10066.800811
1624.580401,383.047749,-2220.617826,9622.677246
1624.580718,229.828649,-1332.370696,9474.636058
1624.581035,306.438199,-518.144159,9696.697840
1624.581352,689.485948,222.061783,8882.471304
1624.581670,612.876398,666.185348,9474.636058
1624.581987,919.314598,592.164754,9474.636058
1624.582304,536.266849,1110.308913,8512.368333
1624.582621,919.314598,814.226536,8364.327145
1624.582938,76.609550,296.082377,8364.327145
1624.583255,612.876398,-518.144159,9178.553681
1624.583572,0.000000,-222.061783,9622.677246
1624.583890,-306.438199,-0.000000,10066.800811
1624.584207,-306.438199,666.185348,10066.800811
1624.584524,-766.095498,1184.329507,9400.615463
1624.584841,-1378.971896,1110.308913,9548.656652
1624.585158,-2374.896044,740.205942,9474.636058
1624.585475,-2987.772442,888.247130,8216.285956
1624.585792,-3677.258390,592.164754,8364.327145
1624.586110,-4673.182538,-148.041188,8956.491898
1624.586427,-5056.230287,-1332.370696,10066.800811
1624.586744,-5592.497135,-1850.514855,10807.006753
1624.587061,-5745.716235,-2590.720797,11399.171507
1624.587378,-5975.544884,-2516.700203,11991.336260
1624.587695,-5669.106685,-2294.638420,12287.418637
1624.588012,-5439.278036,-1258.350101,11769.274478
1624.588330,-5056.230287,-1036.288319,11473.192101
1624.588647,-4673.182538,-518.144159,10881.027347
1624.588964,-4749.792088,-444.123565,10288.862594
1624.589281,-3524.039291,-814.226536,9696.697840
1624.589598,-2987.772442,-962.267725,10140.821405
1624.589915,-2528.115143,-1554.432478,10732.986159
1624.590232,-2604.724693,-2368.659014,10362.883188
1624.590550,-2221.676944,-2886.803174,10584.944971
1624.590867,-1685.410096,-3256.906145,11251.130318
1624.591184,-1378.971896,-3701.029710,10881.027347
1624.591501,-1225.752797,-3478.967927,9844.739029
1624.591818,-1685.410096,-3552.988522,9770.718434
1624.592135,-1685.410096,-3701.029710,10584.944971
1624.592452,-1915.238745,-4145.153275,11103.089130
1624.592770,-1455.581446,-4515.256246,11177.109724
1624.593087,-1915.238745,-5033.400406,11695.253884
1624.593404,-2068.457845,-4885.359217,11621.233289
1624.593721,-1608.800546,-4737.318029,11843.295072
1624.594038,0.000000,-3552.988522,10881.027347
1624.594355,1302.362347,-2368.659014,9992.780217
1624.594672,2451.505594,-2294.638420,9548.656652
1624.594990,3447.429741,-2516.700203,8660.409521
1624.595307,3753.867940,-2960.823768,8290.306550
1624.595624,4519.963438,-3330.926739,7476.080014
1624.595941,3753.867940,-3701.029710,7105.977043
1624.596258,2987.772442,-3108.864956,6735.874072
1624.596575,2451.505594,-2960.823768,6217.729913
1624.596892,1302.362347,-3478.967927,6809.894666
1624.597210,306.438199,-4663.297435,8068.244768
1624.597527,-229.828649,-5107.421000,8364.327145
1624.597845,-1532.190996,-4441.235652,8142.265362
1624.598162,-1762.019645,-4737.318029,9326.594869
1624.598480,-2068.457845,-5403.503377,9696.697840
1624.598797,-2068.457845,-4737.318029,9326.594869
1624.599114,-1685.410096,-3627.009116,8808.450710
1624.599432,-1149.143247,-3034.844362,8882.471304
1624.599749,-153.219100,-2072.576638,8438.347739
1624.600067,459.657299,-1406.391290,7179.997637
1624.600384,919.314598,-1110.308913,6735.874072
1624.600701,612.876398,-1480.411884,6143.709319
1624.601019,1149.143247,-1850.514855,5921.647536
1624.601336,919.314598,-1850.514855,6661.853478
1624.601654,995.924147,-2146.597232,7031.956449
1624.601971,459.657299,-2960.823768,8216.285956
1624.602289,-153.219100,-2516.700203,8882.471304
1624.602606,0.000000,-2220.617826,9178.553681
1624.602923,76.609550,-1480.411884,8808.450710
1624.603241,459.657299,-370.102971,8956.491898
1624.603558,766.095498,444.123565,8882.471304
1624.603876,995.924147,1036.288319,8068.244768
1624.604193,1302.362347,888.247130,7624.121203
1624.604511,1149.143247,1332.370696,7994.224174
1624.604828,1762.019645,1924.535449,7476.080014
1624.605145,1455.581446,1554.432478,7476.080014
1624.605463,1072.533697,962.267725,8882.471304
1624.605780,1685.410096,1776.494261,10140.821405
1624.606098,536.266849,2516.700203,8364.327145
1624.606415,1532.190996,1850.514855,10510.924376
1624.606732,995.924147,2590.720797,11325.150913
1624.607050,1838.629195,3478.967927,11547.212695
1624.607367,1838.629195,3701.029710,9696.697840
1624.607685,1608.800546,5033.400406,11177.109724
1624.608002,2145.067394,5403.503377,10881.027347
1624.608320,2451.505594,5625.565159,8438.347739
1624.608637,2681.334243,5181.441594,8808.450710
1624.608954,1915.238745,4367.215058,8882.471304
1624.609272,1685.410096,3775.050304,8512.368333
1624.609589,689.485948,2812.782580,7846.182985
1624.609907,-229.828649,1776.494261,9770.718434
1624.610224,-1302.362347,740.205942,11547.212695
1624.610541,-1915.238745,-444.123565,12509.480420
1624.610859,-3140.991542,296.082377,13323.706956
1624.611176,-2757.943793,1554.432478,15322.262999
1624.611494,-2145.067394,3034.844362,14359.995275
1624.611811,-1378.971896,3627.009116,13471.748144
1624.612129,-766.095498,5255.462188,13619.789333
1624.612446,612.876398,6217.729913,12213.398043
1624.612763,1608.800546,5773.606348,9770.718434
1624.613081,1915.238745,4367.215058,10066.800811
1624.613398,1991.848295,2664.741391,9770.718434
1624.613716,1762.019645,1332.370696,9178.553681
1624.614033,1608.800546,-222.061783,8882.471304
1624.614351,459.657299,-1332.370696,9918.759623
1624.614668,-689.485948,-2516.700203,11843.295072
1624.614985,-1302.362347,-3108.864956,11621.233289
1624.615303,-1685.410096,-2664.741391,12583.501014
1624.615620,-4060.306139,-1628.453072,11917.315666
1624.615938,-2987.772442,-148.041188,13397.727550
1624.616255,-1762.019645,-296.082377,14211.954086
1624.616572,-2757.943793,1332.370696,12509.480420
1624.616890,-2451.505594,-0.000000,12139.377449
1624.617207,-1149.143247,3108.864956,9474.636058
1624.617525,689.485948,962.267725,10807.006753
1624.617842,1072.533697,-1110.308913,10140.821405
1624.618160,766.095498,-1702.473667,7105.977043
1624.618477,1225.752797,-2072.576638,4367.215058
1624.618794,2374.896044,-2812.782580,6365.771101
1624.619112,1915.238745,-6143.709319,7846.182985
1624.619429,1378.971896,-5921.647536,6735.874072
1624.619747,842.705048,-4515.256246,8364.327145
1624.620064,229.828649,-3256.906145,9400.615463
1624.620382,842.705048,-3404.947333,10807.006753
1624.620699,1225.752797,-1628.453072,8290.306550
1624.621016,2221.676944,-444.123565,7994.224174
1624.621334,2374.896044,1554.432478,7105.977043
1624.621651,4749.792088,-740.205942,6809.894666
1624.621969,5362.668486,-1036.288319,4219.173869
1624.622286,5056.230287,-1480.411884,4145.153275
1624.622603,4596.572988,-3627.009116,4811.338623
1624.622921,3830.477490,-5033.400406,3923.091493
1624.623238,2757.943793,-5403.503377,5847.626942
1624.623556,1225.752797,-6069.688724,7920.203579
1624.623873,1225.752797,-5255.462188,8290.306550
1624.624191,689.485948,-3552.988522,9104.533087
1624.624508,1149.143247,-2368.659014,11103.089130
1624.624825,1072.533697,-1406.391290,9770.718434
1624.625143,1225.752797,592.164754,8808.450710
1624.625460,2068.457845,2590.720797,8808.450710
1624.625778,3370.820191,2368.659014,7772.162391
1624.626095,3600.648841,2960.823768,5403.503377
1624.626413,4366.744339,2146.597232,5773.606348
1624.626730,4213.525239,814.226536,5477.523971
1624.627047,3600.648841,-1554.432478,4811.338623
1624.627365,2757.943793,-2516.700203,6513.812290
1624.627682,1455.581446,-2886.803174,7772.162391
1624.628000,153.219100,-3701.029710,8882.471304
1624.628317,-842.705048,-2664.741391,8882.471304
1624.628634,-1072.533697,-74.020594,11695.253884
1624.628952,-1685.410096,1628.453072,12287.418637
1624.629269,-1991.848295,3330.926739,11251.130318
1624.629587,-1991.848295,5699.585753,11325.150913
1624.629904,-1608.800546,6291.750507,10658.965565
1624.630222,-1838.629195,5773.606348,9474.636058
1624.630539,-766.095498,4515.256246,10658.965565
1624.630856,-1072.533697,5625.565159,9400.615463
1624.631174,229.828649,5477.523971,6957.935855
1624.631491,536.266849,3701.029710,7920.203579
1624.631809,536.266849,1628.453072,8734.430116
1624.632126,612.876398,518.144159,9992.780217
1624.632444,0.000000,666.185348,9918.759623
1624.632761,153.219100,1258.350101,12435.459826
1624.633078,-766.095498,2664.741391,13323.706956
1624.633396,-995.924147,4367.215058,13841.851115
1624.633713,-1762.019645,5625.565159,14285.974681
1624.634031,-1608.800546,7179.997637,14211.954086
1624.634348,-1685.410096,8142.265362,11251.130318
1624.634665,-153.219100,8068.244768,10881.027347
1624.634983,689.485948,7624.121203,10658.965565
1624.635300,1302.362347,6439.791695,8660.409521
1624.635618,2068.457845,2812.782580,8882.471304
1624.635935,1149.143247,-592.164754,11103.089130
1624.636253,1149.143247,-2294.638420,12139.377449
1624.636570,612.876398,-1850.514855,11769.274478
1624.636887,536.266849,-1998.556043,12583.501014
1624.637205,383.047749,-0.000000,14878.139434
1624.637522,306.438199,2368.659014,14878.139434
1624.637840,383.047749,4515.256246,12879.583391
1624.638157,919.314598,6513.812290,12805.562797
1624.638474,1685.410096,7624.121203,11843.295072
1624.638792,2298.286494,5921.647536,9252.574275
1624.639109,3064.381992,4441.235652,8364.327145
1624.639427,3370.820191,1924.535449,8882.471304
1624.639744,3677.258390,-0.000000,7402.059420
1624.640062,4290.134789,-2442.679609,6735.874072
1624.640379,3830.477490,-3775.050304,8290.306550
1624.640696,1838.629195,-4219.173869,9992.780217
1624.641014,1608.800546,-3701.029710,9474.636058
1624.641331,1149.143247,-1702.473667,8438.347739
1624.641649,842.705048,-148.041188,11029.068536
1624.641966,306.438199,814.226536,11251.130318
1624.642284,1455.581446,1332.370696,9992.780217
1624.642601,1838.629195,2738.761985,10288.862594
1624.642918,1915.238745,2960.823768,9178.553681
1624.643236,2374.896044,2146.597232,7179.997637
1624.643553,3064.381992,1184.329507,6143.709319
1624.643871,3907.087040,-148.041188,6143.709319
1624.644188,3983.696590,-2294.638420,4663.297435
1624.644505,3677.258390,-4441.235652,3849.070898
1624.644823,2681.334243,-5551.544565,5847.626942
1624.645140,1915.238745,-6439.791695,6513.812290
1624.645458,459.657299,-6439.791695,6217.729913
1624.645775,76.609550,-5033.400406,7846.182985
1624.646093,76.609550,-2960.823768,8882.471304
1624.646410,-536.266849,-1184.329507,8660.409521
1624.646727,383.047749,-0.000000,8808.450710
1624.647045,459.657299,1776.494261,9770.718434
1624.647362,0.000000,1702.473667,9252.574275
1624.647680,153.219100,1258.350101,7402.059420
1624.647997,612.876398,-0.000000,7920.203579
1624.648315,1302.362347,-592.164754,7476.080014
1624.648632,1762.019645,-1776.494261,5107.421000
1624.648949,1915.238745,-3182.885551,5921.647536
1624.649267,766.095498,-4737.318029,7698.141797
1624.649584,612.876398,-5033.400406,7179.997637
1624.649902,-306.438199,-4663.297435,6809.894666
1624.650219,-536.266849,-3256.906145,8882.471304
1624.650536,-1072.533697,-1628.453072,10140.821405
1624.650854,-766.095498,370.102971,9696.697840
1624.651171,-995.924147,2738.761985,10436.903782
1624.651489,-842.705048,4663.297435,11843.295072
1624.651806,-689.485948,4589.276840,10066.800811
1624.652124,-612.876398,4145.153275,8808.450710
1624.652441,0.000000,3701.029710,10140.821405
1624.652758,766.095498,3552.988522,8216.285956
1624.653076,1685.410096,1480.411884,7328.038826
1624.653393,2298.286494,-74.020594,8956.491898
1624.653711,1685.410096,-1554.432478,9918.759623
1624.654028,1532.190996,-2220.617826,10658.965565
1624.654346,306.438199,-2220.617826,10436.903782
1624.654663,0.000000,-1480.411884,13249.686362
1624.654980,-612.876398,1554.432478,12435.459826
1624.655298,0.000000,4071.132681,11695.253884
1624.655615,-919.314598,5477.523971,11769.274478
1624.655933,-153.219100,7031.956449,12805.562797
1624.656250,-153.219100,6439.791695,10436.903782
1624.656567,76.609550,4959.379811,9992.780217
1624.656885,612.876398,3404.947333,9918.759623
1624.657202,1225.752797,2368.659014,8882.471304
1624.657520,2068.457845,370.102971,9770.718434
1624.657837,1991.848295,-888.247130,10584.944971
1624.658155,1608.800546,-2072.576638,11695.253884
1624.658472,842.705048,-1924.535449,12287.418637
1624.658789,229.828649,-666.185348,12805.562797
1624.659107,0.000000,444.123565,13841.851115
1624.659424,-383.047749,2368.659014,12583.501014
1624.659742,-306.438199,3256.906145,12805.562797
1624.660059,-842.705048,5847.626942,11695.253884
1624.660377,689.485948,6217.729913,11029.068536
1624.660694,1455.581446,5847.626942,8438.347739
1624.661011,1991.848295,3552.988522,8956.491898
1624.661329,2451.505594,2072.576638,7772.162391
1624.661646,2451.505594,222.061783,6217.729913
1624.661964,3140.991542,-2294.638420,7328.038826
1624.662281,2374.896044,-3330.926739,9252.574275
1624.662598,1455.581446,-4441.235652,9770.718434
1624.662916,-153.219100,-3627.009116,9770.718434
1624.663233,-689.485948,-1406.391290,10436.903782
1624.663551,-766.095498,-0.000000,11695.253884
1624.663868,-689.485948,1480.411884,10732.986159
1624.664186,0.000000,2590.720797,11473.192101
1624.664503,153.219100,3627.009116,10807.006753
1624.664820,842.705048,2960.823768,8438.347739
1624.665138,1225.752797,1480.411884,7994.224174
1624.665455,1302.362347,-222.061783,8216.285956
1624.665773,2068.457845,-1628.453072,6069.688724
1624.666090,2145.067394,-2738.761985,4219.173869
1624.666408,1762.019645,-3923.091493,5181.441594
1624.666725,1532.190996,-4663.297435,8512.368333
1624.667042,1225.752797,-5255.462188,8364.327145
1624.667360,229.828649,-4959.379811,7328.038826
1624.667677,-766.095498,-4663.297435,9474.636058
1624.667995,-1608.800546,-2960.823768,9844.739029
1624.668312,-1225.752797,-1850.514855,10066.800811
1624.668629,306.438199,962.267725,11029.068536
1624.668947,306.438199,2368.659014,10140.821405
1624.669264,0.000000,1480.411884,7920.203579
1624.669582,612.876398,-0.000000,9474.636058
1624.669899,1149.143247,-1184.329507,8512.368333
1624.670217,2528.115143,-2146.597232,6291.750507
1624.670534,2604.724693,-2812.782580,4737.318029
1624.670851,1915.238745,-4293.194464,5699.585753
1624.671169,2374.896044,-4663.297435,7772.162391
1624.671486,2757.943793,-5403.503377,8290.306550
1624.671804,1608.800546,-3627.009116,6513.812290
1624.672121,1149.143247,-2960.823768,9992.780217
1624.672438,-1072.533697,-1258.350101,9770.718434
1624.672756,-689.485948,-370.102971,10066.800811
1624.673073,0.000000,1998.556043,12287.418637
1624.673391,0.000000,2294.638420,12139.377449
1624.673708,0.000000,2960.823768,10362.883188
1624.674026,153.219100,1998.556043,10214.842000
1624.674343,1149.143247,740.205942,9992.780217
1624.674660,2451.505594,-74.020594,7105.977043
1624.674978,2834.553343,-962.267725,7402.059420
1624.675295,2298.286494,-2442.679609,7328.038826
1624.675613,2757.943793,-3034.844362,8586.388927
1624.675930,2374.896044,-3108.864956,8660.409521
1624.676248,1302.362347,-1924.535449,9696.697840
1624.676565,383.047749,-1258.350101,11843.295072
1624.676882,-536.266849,814.226536,10732.986159
1624.677200,-1225.752797,2368.659014,11177.109724
1624.677517,-766.095498,4515.256246,12731.542202
1624.677835,0.000000,4663.297435,12213.398043
1624.678152,76.609550,4885.359217,10510.924376
1624.678469,459.657299,3182.885551,10955.047942
1624.678787,842.705048,2738.761985,9178.553681
1624.679104,1455.581446,814.226536,7994.224174
1624.679422,2221.676944,-1998.556043,9104.533087
1624.679739,1685.410096,-2442.679609,9474.636058
1624.680057,766.095498,-2442.679609,9696.697840
1624.680374,0.000000,-2294.638420,9622.677246
1624.680691,-536.266849,-888.247130,11695.253884
1624.681009,-919.314598,370.102971,11991.336260
1624.681326,-1149.143247,2442.679609,10658.965565
1624.681644,-1762.019645,3627.009116,10658.965565
1624.681961,-1302.362347,5329.482782,11029.068536
1624.682279,-459.657299,5107.421000,10140.821405
1624.682596,-153.219100,3923.091493,9622.677246
1624.682913,383.047749,2516.700203,9474.636058
1624.683231,0.000000,1924.535449,7846.182985
1624.683548,-306.438199,-74.020594,6809.894666
1624.683866,306.438199,-1776.494261,8142.265362
1624.684183,-306.438199,-2072.576638,8956.491898
1624.684500,-1225.752797,-3182.885551,9252.574275
1624.684818,-2298.286494,-2738.761985,10732.986159
1624.685135,-2298.286494,-1998.556043,12213.398043
1624.685453,-2221.676944,-740.205942,11029.068536
1624.685770,-1455.581446,518.144159,11473.192101
1624.686088,-1455.581446,1850.514855,11251.130318
1624.686405,-689.485948,3108.864956,10881.027347
1624.686722,306.438199,3182.885551,7994.224174
1624.687040,1225.752797,2220.617826,8216.285956
1624.687357,1608.800546,1554.432478,7624.121203
1624.687675,1455.581446,666.185348,4737.318029
1624.687992,1685.410096,-2072.576638,4737.318029
1624.688310,1149.143247,-3775.050304,6587.832884
1624.688627,995.924147,-5403.503377,8882.471304
1624.688944,-229.828649,-5773.606348,9696.697840
1624.689262,-612.876398,-4145.153275,10214.842000
1624.689579,-689.485948,-3552.988522,12065.356855
1624.689897,-1302.362347,-2664.741391,12509.480420
1624.690214,-459.657299,-1036.288319,11769.274478
1624.690531,612.876398,1850.514855,11843.295072
1624.690849,1685.410096,2886.803174,10214.842000
1624.691166,2834.553343,2294.638420,9104.533087
1624.691484,4213.525239,1332.370696,8512.368333
1624.691801,4290.134789,1184.329507,6587.832884
1624.692119,4749.792088,-1036.288319,4367.215058
1624.692436,4826.401637,-3108.864956,4737.318029
1624.692753,4519.963438,-3182.885551,5403.503377
1624.693071,4213.525239,-3478.967927,8068.244768
1624.693388,3064.381992,-3997.112087,6439.791695
1624.693706,2451.505594,-3552.988522,8734.430116
1624.694023,1072.533697,-2738.761985,11917.315666
1624.694341,-459.657299,-1850.514855,10732.986159
1624.694658,76.609550,-0.000000,11769.274478
1624.694975,842.705048,2516.700203,12435.459826
1624.695293,383.047749,3923.091493,9400.615463
1624.695610,995.924147,3478.967927,9104.533087
1624.695928,612.876398,2442.679609,10436.903782
1624.696245,2374.896044,1480.411884,7624.121203
1624.696562,3140.991542,1036.288319,5107.421000
1624.696880,2681.334243,-814.226536,5773.606348
1624.697197,2145.067394,-3034.844362,7550.100608
1624.697515,2451.505594,-3849.070898,8956.491898
1624.697832,1685.410096,-2960.823768,8364.327145
1624.698150,842.705048,-888.247130,10436.903782
1624.698467,0.000000,-0.000000,12213.398043
1624.698784,-1685.410096,1110.308913,11325.150913
1624.699101,-842.705048,3256.906145,13471.748144
1624.699419,-842.705048,4885.359217,13619.789333
1624.699736,-1302.362347,5033.400406,9622.677246
1624.700053,-689.485948,4811.338623,10362.883188
1624.700371,-229.828649,4071.132681,10881.027347
1624.700688,0.000000,3256.906145,7846.182985
1624.701005,1685.410096,1924.535449,7179.997637
1624.701323,689.485948,-814.226536,8586.388927
1624.701640,76.609550,-2516.700203,9844.739029
1624.701958,1225.752797,-3256.906145,10955.047942
1624.702275,0.000000,-2516.700203,9992.780217
1624.702592,0.000000,-1702.473667,12361.439231
1624.702910,-536.266849,370.102971,12879.583391
1624.703227,-1378.971896,3034.844362,11325.150913
1624.703544,-842.705048,6143.709319,12361.439231
1624.703862,0.000000,8364.327145,11103.089130
1624.704179,0.000000,7920.203579,9104.533087
1624.704497,842.705048,7624.121203,8438.347739
1624.704814,1762.019645,5181.441594,9474.636058
1624.705131,919.314598,3182.885551,5255.462188
1624.705449,2604.724693,148.041188,7105.977043
1624.705766,2221.676944,-2146.597232,7772.162391
1624.706084,536.266849,-3923.091493,9474.636058
1624.706401,612.876398,-5699.585753,11843.295072
1624.706718,-1838.629195,-3404.947333,10807.006753
1624.707036,-995.924147,-1554.432478,12805.562797
1624.707353,-1532.190996,666.185348,12953.603985
1624.707670,-1378.971896,2738.761985,10955.047942
1624.707988,-229.828649,4589.276840,11769.274478
1624.708305,0.000000,6661.853478,8660.409521
1624.708623,1915.238745,6291.750507,7920.203579
1624.708940,2681.334243,5995.668130,7698.141797
1624.709257,3907.087040,3182.885551,6957.935855
1624.709575,2987.772442,1184.329507,4293.194464
1624.709892,3217.601092,-2368.659014,6661.853478
1624.710209,1991.848295,-4885.359217,8512.368333
1624.710527,919.314598,-7254.018232,10510.924376
1624.710844,229.828649,-6957.935855,11103.089130
1624.711162,-842.705048,-3923.091493,10732.986159
1624.711479,-919.314598,-3182.885551,12879.583391
1624.711796,-1302.362347,-1850.514855,12287.418637
1624.712114,-536.266849,222.061783,11621.233289
1624.712431,1072.533697,3775.050304,10955.047942
1624.712748,1302.362347,4441.235652,7624.121203
1624.713066,2374.896044,3552.988522,8068.244768
1624.713383,3294.210641,2368.659014,8586.388927
1624.713701,3830.477490,1480.411884,5551.544565
1624.714018,4443.353888,-518.144159,3775.050304
1624.714335,4366.744339,-2368.659014,5699.585753
1624.714653,2987.772442,-3923.091493,5847.626942
1624.714970,3140.991542,-4885.359217,9252.574275
1624.715288,1455.581446,-4589.276840,8216.285956
1624.715605,536.266849,-3701.029710,9030.512492
1624.715922,-766.095498,-2590.720797,11325.150913
1624.716240,-1378.971896,-1554.432478,11473.192101
1624.716557,-459.657299,1036.288319,11695.253884
1624.716874,766.095498,3256.906145,10807.006753
1624.717192,383.047749,3404.947333,8364.327145
1624.717509,0.000000,3108.864956,8956.491898
1624.717827,306.438199,2590.720797,8512.368333
1624.718144,1608.800546,2516.700203,4589.276840
1624.718461,1838.629195,1554.432478,3997.112087
1624.718779,1991.848295,-888.247130,5403.503377
1624.719096,995.924147,-2886.803174,6291.750507
1624.719413,1608.800546,-4737.318029,10140.821405
1624.719731,536.266849,-3849.070898,9992.780217
1624.720048,0.000000,-2738.761985,11177.109724
1624.720366,-1532.190996,-2294.638420,12287.418637
1624.720683,-2145.067394,222.061783,12361.439231
1624.721000,-995.924147,3552.988522,13323.706956
1624.721318,-306.438199,5921.647536,11325.150913
1624.721635,0.000000,5699.585753,8882.471304
1624.721952,-306.438199,5403.503377,9844.739029
1624.722270,-459.657299,4663.297435,8808.450710
1624.722587,919.314598,2886.803174,6513.812290
1624.722905,1838.629195,1406.391290,6513.812290
1624.723222,1685.410096,-1628.453072,8142.265362
1624.723539,1225.752797,-3330.926739,10214.842000
1624.723857,2145.067394,-4219.173869,11547.212695
1624.724174,2068.457845,-2072.576638,11843.295072
1624.724492,2298.286494,-888.247130,13175.665768
1624.724809,306.438199,1702.473667,12287.418637
1624.725126,536.266849,4071.132681,11843.295072
1624.725444,995.924147,7772.162391,11695.253884
1624.725761,995.924147,8290.306550,9770.718434
1624.726078,995.924147,7254.018232,8290.306550
1624.726396,766.095498,5995.668130,9548.656652
1624.726713,1225.752797,3997.112087,8216.285956
1624.727031,1532.190996,1406.391290,6883.915261
1624.727348,2298.286494,-1628.453072,8364.327145
1624.727665,1225.752797,-3552.988522,9474.636058
1624.727983,842.705048,-4663.297435,11029.068536
1624.728300,612.876398,-4441.235652,11325.150913
1624.728617,229.828649,-1480.411884,11251.130318
1624.728935,459.657299,222.061783,13175.665768
1624.729252,-383.047749,2146.597232,11695.253884
1624.729570,-306.438199,4663.297435,11325.150913
1624.729887,153.219100,7031.956449,11251.130318
1624.730204,612.876398,6513.812290,8882.471304
1624.730522,1685.410096,6069.688724,8142.265362
1624.730839,1991.848295,3923.091493,8586.388927
1624.731156,2374.896044,1776.494261,6809.894666
1624.731474,2451.505594,-1480.411884,5403.503377
1624.731791,2298.286494,-3923.091493,7402.059420
1624.732109,536.266849,-6143.709319,9030.512492
1624.732426,536.266849,-7402.059420,12065.356855
1624.732743,-1302.362347,-5699.585753,10807.006753
1624.733061,-919.314598,-3182.885551,11547.212695
1624.733378,-1685.410096,-2368.659014,12805.562797
1624.733696,-1455.581446,-74.020594,12435.459826
1624.734013,0.000000,2516.700203,10584.944971
1624.734330,1149.143247,6069.688724,8734.430116
1624.734648,2068.457845,4145.153275,6957.935855
1624.734965,2221.676944,3923.091493,7772.162391
1624.735282,3370.820191,1702.473667,7550.100608
1624.735600,3677.258390,814.226536,4663.297435
1624.735917,3524.039291,-2220.617826,5033.400406
1624.736235,2451.505594,-3923.091493,7772.162391
1624.736552,1532.190996,-5255.462188,7031.956449
1624.736869,1991.848295,-6217.729913,9400.615463
1624.737187,229.828649,-4441.235652,9326.594869
1624.737504,383.047749,-3552.988522,11325.150913
1624.737821,-612.876398,-1406.391290,10362.883188
1624.738139,766.095498,222.061783,10140.821405
1624.738456,1762.019645,3108.864956,10288.862594
1624.738774,1302.362347,3404.947333,8808.450710
1624.739091,1455.581446,4071.132681,6957.935855
1624.739408,1685.410096,2294.638420,7402.059420
1624.739726,1762.019645,1924.535449,6513.812290
1624.740043,2068.457845,-0.000000,4441.235652
1624.740360,2221.676944,-1998.556043,5773.606348
1624.740678,995.924147,-3775.050304,6217.729913
1624.740995,1149.143247,-5107.421000,8142.265362
1624.741313,76.609550,-5625.565159,9474.636058
1624.741630,-689.485948,-3552.988522,9474.636058
1624.741947,-842.705048,-2590.720797,11695.253884
1624.742265,-2528.115143,-814.226536,11399.171507
1624.742582,-1532.190996,666.185348,12509.480420
1624.742900,-1685.410096,3182.885551,12361.439231
1624.743217,-2068.457845,4367.215058,9178.553681
1624.743534,-1455.581446,3627.009116,9474.636058
1624.743852,-1991.848295,2442.679609,10362.883188
1624.744169,-842.705048,1850.514855,8734.430116
1624.744486,153.219100,370.102971,6735.874072
1624.744804,995.924147,-1998.556043,8068.244768
1624.745121,383.047749,-3627.009116,9252.574275
1624.745439,1685.410096,-5255.462188,12657.521608
1624.745756,1532.190996,-4293.194464,10140.821405
1624.746073,1762.019645,-1776.494261,10658.965565
1624.746391,1378.971896,-1480.411884,13841.851115
1624.746708,-383.047749,888.247130,12287.418637
1624.747025,766.095498,3923.091493,11917.315666
1624.747343,1072.533697,7105.977043,11029.068536
1624.747660,1532.190996,6439.791695,9918.759623
1624.747978,1302.362347,5995.668130,8882.471304
1624.748295,1762.019645,3627.009116,8808.450710
1624.748612,2068.457845,1480.411884,6809.894666
1624.748930,2757.943793,-666.185348,7254.018232
1624.749247,2681.334243,-2738.761985,8882.471304
1624.749564,1072.533697,-3923.091493,9326.594869
1624.749882,1149.143247,-6069.688724,11843.295072
1624.750199,-766.095498,-4441.235652,11621.233289
1624.750517,-766.095498,-2738.761985,14508.036463
1624.750834,-1915.238745,-666.185348,13397.727550
1624.751151,-1685.410096,2960.823768,12435.459826
1624.751469,-306.438199,5255.462188,13323.706956
1624.751786,306.438199,6217.729913,10436.903782
1624.752104,842.705048,5995.668130,7550.100608
1624.752421,1685.410096,5255.462188,8660.409521
1624.752738,2374.896044,3108.864956,7920.203579
1624.753056,2911.162892,1184.329507,5477.523971
1624.753373,2374.896044,-1110.308913,6143.709319
1624.753690,766.095498,-3478.967927,7698.141797
1624.754008,612.876398,-5551.544565,10510.924376
1624.754325,229.828649,-5699.585753,9918.759623
1624.754643,-689.485948,-3849.070898,9844.739029
1624.754960,-612.876398,-2516.700203,11843.295072
1624.755277,-2451.505594,-888.247130,10881.027347
1624.755595,-229.828649,-0.000000,11547.212695
1624.755912,76.609550,3182.885551,11251.130318
1624.756229,612.876398,4737.318029,8586.388927
1624.756547,1532.190996,5773.606348,6291.750507
1624.756864,2451.505594,4885.359217,8512.368333
1624.757182,3447.429741,2886.803174,5847.626942
1624.757499,3753.867940,1406.391290,3627.009116
1624.757816,3753.867940,-1998.556043,5847.626942
1624.758134,2068.457845,-3997.112087,7105.977043
1624.758451,1915.238745,-5329.482782,8364.327145
1624.758768,995.924147,-5477.523971,8882.471304
1624.759086,-612.876398,-3775.050304,10066.800811
1624.759403,-536.266849,-3034.844362,12213.398043
1624.759721,-1378.971896,-370.102971,10881.027347
1624.760038,0.000000,1554.432478,11103.089130
1624.760355,689.485948,4441.235652,11325.150913
1624.760673,383.047749,4737.318029,6587.832884
1624.760990,1608.800546,4441.235652,7994.224174
1624.761307,995.924147,3256.906145,7772.162391
1624.761625,1762.019645,2960.823768,5847.626942
1624.761942,2068.457845,1332.370696,4219.173869
1624.762260,2221.676944,-2146.597232,7328.038826
1624.762577,0.000000,-4293.194464,7550.100608
1624.762894,459.657299,-6217.729913,11029.068536
1624.763212,-459.657299,-5329.482782,10658.965565
1624.763529,-842.705048,-3849.070898,11399.171507
1624.763847,-1072.533697,-2442.679609,13027.624579
1624.764164,-2528.115143,-814.226536,11769.274478
1624.764481,-1685.410096,2220.617826,13175.665768
1624.764799,-919.314598,4515.256246,10732.986159
1624.765116,-1149.143247,4885.359217,7994.224174
1624.765433,-612.876398,4737.318029,9030.512492
1624.765751,0.000000,2886.803174,10288.862594
1624.766068,536.266849,888.247130,6513.812290
1624.766386,2145.067394,-1406.391290,7179.997637
1624.766703,1838.629195,-3849.070898,8216.285956
1624.767020,1072.533697,-4959.379811,11103.089130
1624.767338,1915.238745,-5477.523971,10881.027347
1624.767655,1532.190996,-3552.988522,9844.739029
1624.767972,1762.019645,-2368.659014,12361.439231
1624.768290,-536.266849,-962.267725,12879.583391
1624.768607,-1378.971896,888.247130,11917.315666
1624.768925,459.657299,4071.132681,12805.562797
1624.769242,-229.828649,5773.606348,10214.842000
1624.769559,-536.266849,4367.215058,8512.368333
1624.769877,-383.047749,3256.906145,10807.006753
1624.770194,459.657299,1554.432478,8438.347739
1624.770511,1991.848295,74.020594,7105.977043
1624.770829,2834.553343,-962.267725,7105.977043
1624.771146,1532.190996,-3775.050304,8438.347739
1624.771464,1532.190996,-4885.359217,9992.780217
1624.771781,995.924147,-5403.503377,11325.150913
1624.772098,0.000000,-3256.906145,11177.109724
1624.772416,76.609550,-1628.453072,13249.686362
1624.772733,-1072.533697,1184.329507,11769.274478
1624.773051,0.000000,2960.823768,11399.171507
1624.773368,689.485948,5329.482782,11843.295072
1624.773685,229.828649,4959.379811,8808.450710
1624.774003,1455.581446,5625.565159,7994.224174
1624.774320,1532.190996,4367.215058,8438.347739
1624.774637,2451.505594,2368.659014,6069.688724
1624.774955,2757.943793,148.041188,4515.256246
1624.775272,2987.772442,-2442.679609,6809.894666
1624.775590,995.924147,-4663.297435,7402.059420
1624.775907,1302.362347,-6143.709319,10510.924376
1624.776224,383.047749,-4885.359217,9252.574275
1624.776542,-229.828649,-2368.659014,9326.594869
1624.776859,0.000000,-1998.556043,12879.583391
1624.777176,-1302.362347,-0.000000,11621.233289
1624.777494,-459.657299,3108.864956,10955.047942
1624.777811,1302.362347,6217.729913,9770.718434
1624.778129,1225.752797,6957.935855,6439.791695
1624.778446,2145.067394,5921.647536,7328.038826
1624.778763,1608.800546,4515.256246,7328.038826
1624.779081,2374.896044,2738.761985,5107.421000
1624.779398,3294.210641,370.102971,4959.379811
1624.779715,2528.115143,-1776.494261,7254.018232
1624.780033,1532.190996,-4219.173869,7846.182985
1624.780350,1378.971896,-4811.338623,10214.842000
1624.780668,766.095498,-3330.926739,9252.574275
1624.780985,919.314598,-1850.514855,10807.006753
1624.781302,766.095498,-0.000000,12139.377449
1624.781620,0.000000,2368.659014,10436.903782
1624.781937,1072.533697,4737.318029,10881.027347
1624.782255,766.095498,6513.812290,9548.656652
1624.782572,1149.143247,6883.915261,8068.244768
1624.782889,1225.752797,5995.668130,8364.327145
1624.783207,1149.143247,4071.132681,8142.265362
1624.783524,1762.019645,1258.350101,7031.956449
1624.783841,2068.457845,-518.144159,7920.203579
1624.784159,1685.410096,-3108.864956,9178.553681
1624.784476,459.657299,-5625.565159,9918.759623
1624.784794,536.266849,-6587.832884,12509.480420
1624.785111,-459.657299,-4071.132681,11621.233289
1624.785428,-153.219100,-2220.617826,13101.645173
1624.785746,-689.485948,-370.102971,12435.459826
1624.786063,-1225.752797,1924.535449,12139.377449
1624.786380,-306.438199,4959.379811,13027.624579
1624.786698,-306.438199,5995.668130,10584.944971
1624.787015,383.047749,5847.626942,8512.368333
1624.787333,459.657299,4663.297435,9548.656652
1624.787650,766.095498,2738.761985,8734.430116
1624.787967,1532.190996,740.205942,6735.874072
1624.788285,2528.115143,-2146.597232,8512.368333
1624.788602,1072.533697,-4145.153275,9400.615463
1624.788919,1072.533697,-5255.462188,11621.233289
1624.789237,1072.533697,-4811.338623,12065.356855
1624.789554,0.000000,-2294.638420,10362.883188
1624.789872,0.000000,-1776.494261,12731.542202
1624.790189,-1302.362347,518.144159,12065.356855
1624.790506,-689.485948,2886.803174,11029.068536
1624.790824,306.438199,5625.565159,10140.821405
1624.791141,383.047749,5181.441594,8882.471304
1624.791459,383.047749,4515.256246,8882.471304
1624.791776,919.314598,2590.720797,8512.368333
1624.792093,1455.581446,1184.329507,6883.915261
1624.792411,1455.581446,-1036.288319,6883.915261
1624.792728,2221.676944,-2886.803174,7772.162391
1624.793045,1302.362347,-3997.112087,7254.018232
1624.793363,1302.362347,-5699.585753,9400.615463
1624.793680,689.485948,-4885.359217,10362.883188
1624.793998,-536.266849,-2590.720797,10066.800811
1624.794315,0.000000,-1036.288319,11621.233289
1624.794632,-689.485948,1110.308913,10288.862594
1624.794950,0.000000,3404.947333,10214.842000
1624.795267,689.485948,4811.338623,9326.594869
1624.795584,1378.971896,3330.926739,7624.121203
1624.795902,1455.581446,3775.050304,7772.162391
1624.796219,1915.238745,1850.514855,7698.141797
1624.796537,2298.286494,-0.000000,5551.544565
1624.796854,2451.505594,-2368.659014,5329.482782
1624.797171,2374.896044,-4293.194464,7328.038826
1624.797489,1149.143247,-5477.523971,7624.121203
1624.797806,1762.019645,-5699.585753,9696.697840
1624.798123,689.485948,-3108.864956,8734.430116
1624.798441,612.876398,-1406.391290,9770.718434
1624.798758,0.000000,-518.144159,10510.924376
1624.799076,-536.266849,888.247130,11917.315666
1624.799393,536.266849,3627.009116,11029.068536
1624.799710,459.657299,5699.585753,8438.347739
1624.800028,1685.410096,5403.503377,7624.121203
1624.800345,995.924147,4663.297435,8438.347739
1624.800662,1838.629195,2812.782580,7550.100608
1624.800980,2451.505594,222.061783,6809.894666
1624.801297,2757.943793,-1702.473667,7179.997637
1624.801614,2451.505594,-3108.864956,7920.203579
1624.801932,1991.848295,-4441.235652,8512.368333
1624.802249,1991.848295,-4293.194464,9770.718434
1624.802566,1378.971896,-1850.514855,9474.636058
1624.802884,1455.581446,-222.061783,10362.883188
1624.803201,995.924147,1110.308913,10436.903782
1624.803519,1072.533697,3627.009116,10362.883188
1624.803836,1225.752797,5921.647536,9992.780217
1624.804153,536.266849,6291.750507,9030.512492
1624.804471,919.314598,5699.585753,8882.471304
1624.804788,459.657299,4663.297435,8808.450710
1624.805105,383.047749,3034.844362,7105.977043
1624.805423,536.266849,148.041188,7846.182985
1624.805740,612.876398,-2738.761985,9992.780217
1624.806057,0.000000,-4145.153275,10362.883188
1624.806375,-153.219100,-5403.503377,11325.150913
1624.806692,-1378.971896,-4737.318029,12287.418637
1624.807009,-1685.410096,-2442.679609,13249.686362
1624.807327,-1378.971896,-370.102971,13101.645173
1624.807644,-536.266849,2368.659014,11843.295072
1624.807961,-1149.143247,5329.482782,11547.212695
1624.808279,-229.828649,6883.915261,11399.171507
1624.808596,766.095498,7105.977043,9474.636058
1624.808913,1149.143247,7105.977043,8216.285956
1624.809231,1685.410096,4441.235652,8882.471304
1624.809548,1225.752797,1924.535449,7328.038826
1624.809865,1838.629195,-1110.308913,7846.182985
1624.810183,1608.800546,-2886.803174,8808.450710
1624.810500,919.314598,-4663.297435,10881.027347
1624.810817,459.657299,-5625.565159,12879.583391
1624.811135,76.609550,-3923.091493,11843.295072
1624.811452,-459.657299,-2146.597232,12583.501014
1624.811769,-612.876398,-222.061783,12583.501014
1624.812087,0.000000,2220.617826,11917.315666
1624.812404,229.828649,5033.400406,10881.027347
1624.812721,1378.971896,6291.750507,9622.677246
1624.813039,1991.848295,5773.606348,8364.327145
1624.813356,3064.381992,4367.215058,7920.203579
1624.813674,3447.429741,2812.782580,7105.977043
1624.813991,3524.039291,444.123565,5551.544565
1624.814308,3753.867940,-1998.556043,6291.750507
1624.814626,2451.505594,-3256.906145,6735.874072
1624.814943,1915.238745,-4811.338623,8290.306550
1624.815260,919.314598,-6143.709319,10881.027347
1624.815578,-612.876398,-3775.050304,10140.821405
1624.815895,-459.657299,-2442.679609,12139.377449
1624.816212,-1608.800546,-888.247130,12065.356855
1624.816530,-1149.143247,888.247130,11177.109724
1624.816847,0.000000,3108.864956,11399.171507
1624.817164,-229.828649,4441.235652,8216.285956
1624.817482,689.485948,3997.112087,8660.409521
1624.817799,1608.800546,2886.803174,8660.409521
1624.818116,2451.505594,1480.411884,6143.709319
1624.818434,3524.039291,-222.061783,4515.256246
1624.818751,2298.286494,-2738.761985,6143.709319
1624.819068,1455.581446,-4959.379811,6217.729913
1624.819386,1685.410096,-6809.894666,9400.615463
1624.819703,1685.410096,-5995.668130,9326.594869
1624.820020,689.485948,-3182.885551,7994.224174
1624.820338,76.609550,-2886.803174,10955.047942
1624.820655,-1532.190996,-2294.638420,11251.130318
1624.820972,-689.485948,-0.000000,11547.212695
1624.821290,0.000000,3182.885551,10362.883188
1624.821607,-229.828649,4145.153275,7550.100608
1624.821924,0.000000,3182.885551,8438.347739
1624.822242,-229.828649,2368.659014,9178.553681
1624.822559,919.314598,666.185348,7105.977043
1624.822876,2221.676944,-148.041188,5773.606348
1624.823194,1991.848295,-2664.741391,7254.018232
1624.823511,842.705048,-3923.091493,7624.121203
1624.823829,2145.067394,-4885.359217,9992.780217
1624.824146,842.705048,-4145.153275,8142.265362
1624.824463,1302.362347,-2516.700203,10288.862594
1624.824781,0.000000,-666.185348,11473.192101
1624.825098,-1378.971896,1036.288319,9696.697840
1624.825415,0.000000,3701.029710,11473.192101
1624.825733,-612.876398,4885.359217,11251.130318
1624.826050,-459.657299,5403.503377,8512.368333
1624.826367,-229.828649,5477.523971,8882.471304
1624.826685,-153.219100,3108.864956,9400.615463
1624.827002,536.266849,1628.453072,7179.997637
1624.827319,1838.629195,-1110.308913,7254.018232
1624.827637,1072.533697,-2960.823768,8956.491898
1624.827954,0.000000,-4663.297435,9178.553681
1624.828271,842.705048,-6069.688724,12361.439231
1624.828589,-229.828649,-3701.029710,10881.027347
1624.828906,306.438199,-1776.494261,12731.542202
1624.829223,-612.876398,222.061783,12583.501014
1624.829541,-1302.362347,2590.720797,11325.150913
1624.829858,0.000000,5255.462188,11843.295072
1624.830175,612.876398,6883.915261,9992.780217
1624.830493,766.095498,6587.832884,8438.347739
1624.830810,1838.629195,5847.626942,9030.512492
1624.831127,2298.286494,3627.009116,7920.203579
1624.831445,2221.676944,814.226536,5995.668130
1624.831762,2757.943793,-2516.700203,8956.491898
1624.832079,1378.971896,-4589.276840,10214.842000
1624.832397,995.924147,-5625.565159,10732.986159
1624.832714,1072.533697,-5551.544565,12065.356855
1624.833031,0.000000,-2886.803174,11917.315666
1624.833349,459.657299,-1702.473667,13619.789333
1624.833666,76.609550,1776.494261,11177.109724
1624.833984,612.876398,4441.235652,10584.944971
1624.834301,1225.752797,7105.977043,9770.718434
1624.834618,2451.505594,7105.977043,8808.450710
1624.834936,2528.115143,7031.956449,7031.956449
1624.835253,2834.553343,5033.400406,7624.121203
1624.835570,2834.553343,2442.679609,6809.894666
1624.835888,1991.848295,-74.020594,5329.482782
1624.836205,2604.724693,-3182.885551,8364.327145
1624.836522,612.876398,-5329.482782,8660.409521
1624.836840,153.219100,-6809.894666,10955.047942
1624.837157,-1149.143247,-6291.750507,11843.295072
1624.837474,-1532.190996,-3775.050304,12213.398043
1624.837792,-1302.362347,-1110.308913,12139.377449
1624.838109,-1532.190996,1036.288319,11251.130318
1624.838426,-919.314598,2738.761985,11473.192101
1624.838744,-459.657299,4589.276840,9548.656652
1624.839061,459.657299,4811.338623,6809.894666
1624.839378,383.047749,4663.297435,7328.038826
1624.839696,1225.752797,2886.803174,8142.265362
1624.840013,1149.143247,1258.350101,5181.441594
1624.840330,2145.067394,-1480.411884,5181.441594
1624.840648,766.095498,-4219.173869,6957.935855
1624.840965,153.219100,-6069.688724,8660.409521
1624.841282,919.314598,-7254.018232,10807.006753
1624.841600,-306.438199,-5255.462188,9918.759623
1624.841917,-459.657299,-4145.153275,11621.233289
1624.842234,-1762.019645,-2590.720797,11399.171507
1624.842552,-1225.752797,-74.020594,11547.212695
1624.842869,459.657299,3256.906145,11325.150913
1624.843186,459.657299,5699.585753,8142.265362
1624.843504,995.924147,4811.338623,6513.812290
1624.843821,919.314598,4071.132681,8734.430116
1624.844139,919.314598,2368.659014,7994.224174
1624.844456,2911.162892,592.164754,5847.626942
1624.844773,3217.601092,-1702.473667,6587.832884
1624.845091,2374.896044,-3775.050304,7920.203579
1624.845408,2757.943793,-5773.606348,9474.636058
1624.845725,2681.334243,-5551.544565,9548.656652
1624.846043,2451.505594,-3182.885551,9474.636058
1624.846360,2068.457845,-1480.411884,11843.295072
1624.846677,-229.828649,-148.041188,11769.274478
1624.846995,-229.828649,1480.411884,11473.192101
1624.847312,536.266849,4293.194464,12065.356855
1624.847629,0.000000,5477.523971,8808.450710
1624.847947,153.219100,5107.421000,8364.327145
1624.848264,689.485948,3330.926739,9400.615463
1624.848581,766.095498,1406.391290,7402.059420
1624.848899,2068.457845,-370.102971,6661.853478
1624.849216,2145.067394,-2442.679609,7624.121203
1624.849533,1225.752797,-4663.297435,8512.368333
1624.849851,1378.971896,-6143.709319,11325.150913
1624.850168,229.828649,-4737.318029,10510.924376
1624.850485,0.000000,-1998.556043,10140.821405
1624.850803,-153.219100,-888.247130,12435.459826
1624.851120,-1608.800546,1184.329507,11251.130318
1624.851437,-1532.190996,3775.050304,11399.171507
1624.851755,-995.924147,5773.606348,11103.089130
1624.852072,-1378.971896,5847.626942,7772.162391
1624.852389,-995.924147,4811.338623,8882.471304
1624.852707,-995.924147,3256.906145,10140.821405
1624.853024,-689.485948,1628.453072,7476.080014
1624.853341,842.705048,-74.020594,7402.059420
1624.853659,1072.533697,-2812.782580,9992.780217
1624.853976,-306.438199,-4367.215058,9252.574275
1624.854294,1072.533697,-5477.523971,11769.274478
1624.854611,306.438199,-3478.967927,10288.862594
1624.854928,689.485948,-1184.329507,11103.089130
1624.855246,766.095498,888.247130,11177.109724
1624.855563,0.000000,3404.947333,9770.718434
1624.855880,1762.019645,5107.421000,10214.842000
1624.856198,1225.752797,7105.977043,9104.533087
1624.856515,1608.800546,6809.894666,8438.347739
1624.856832,2221.676944,6587.832884,7624.121203
1624.857150,2528.115143,4367.215058,6809.894666
1624.857467,2221.676944,1702.473667,5847.626942
1624.857784,2528.115143,-2516.700203,8660.409521
1624.858102,1685.410096,-3330.926739,9104.533087
1624.858419,1072.533697,-5181.441594,9400.615463
1624.858736,536.266849,-5403.503377,11251.130318
1624.859054,-536.266849,-4589.276840,12583.501014
1624.859371,-536.266849,-2516.700203,13101.645173
1624.859688,-612.876398,-0.000000,11399.171507
1624.860006,0.000000,2590.720797,11325.150913
1624.860323,1149.143247,5329.482782,9844.739029
1624.860640,1302.362347,6957.935855,8586.388927
1624.860958,2068.457845,6439.791695,7550.100608
1624.861275,2374.896044,5107.421000,7550.100608
1624.861592,2374.896044,3108.864956,6587.832884
1624.861910,2221.676944,814.226536,5403.503377
1624.862227,2374.896044,-2442.679609,7254.018232
1624.862544,1225.752797,-5033.400406,8660.409521
1624.862862,229.828649,-7105.977043,10140.821405
1624.863179,-383.047749,-7402.059420,12731.542202
1624.863496,-1302.362347,-4515.256246,10955.047942
1624.863814,-766.095498,-2516.700203,11695.253884
1624.864131,-842.705048,-1036.288319,12139.377449
1624.864449,-459.657299,1702.473667,11843.295072
1624.864766,612.876398,4737.318029,10362.883188
1624.865083,1225.752797,5921.647536,7476.080014
1624.865401,1685.410096,5551.544565,7920.203579
1624.865718,2374.896044,3997.112087,7920.203579
1624.866035,2451.505594,2368.659014,5921.647536
1624.866353,3830.477490,-1332.370696,6217.729913
1624.866670,3064.381992,-3478.967927,7772.162391
1624.866987,2068.457845,-5255.462188,8068.244768
1624.867305,2451.505594,-6291.750507,10214.842000
1624.867622,2068.457845,-4959.379811,10658.965565
1624.867939,1225.752797,-2294.638420,9770.718434
1624.868257,1455.581446,-592.164754,11177.109724
1624.868574,-383.047749,1406.391290,10732.986159
1624.868891,1378.971896,3552.988522,11473.192101
1624.869209,1302.362347,5847.626942,9770.718434
1624.869526,1149.143247,5921.647536,7994.224174
1624.869843,1378.971896,5181.441594,8438.347739
1624.870161,459.657299,3627.009116,7772.162391
1624.870478,1455.581446,1480.411884,6587.832884
1624.870795,1991.848295,-222.061783,6439.791695
1624.871113,1762.019645,-2516.700203,7846.182985
1624.871430,766.095498,-5107.421000,8734.430116
1624.871747,536.266849,-6513.812290,11177.109724
1624.872065,306.438199,-4071.132681,10214.842000
1624.872382,-306.438199,-1998.556043,11325.150913
1624.872699,-1072.533697,370.102971,11843.295072
1624.873017,-1608.800546,2442.679609,10658.965565
1624.873334,-1302.362347,5255.462188,11695.253884
1624.873651,-766.095498,6143.709319,9696.697840
1624.873969,-1149.143247,5699.585753,7402.059420
1624.874286,-1378.971896,4293.194464,8734.430116
1624.874603,-1378.971896,2368.659014,9104.533087
1624.874921,-766.095498,370.102971,6291.750507
1624.875238,1149.143247,-1998.556043,8142.265362
1624.875556,0.000000,-3923.091493,9252.574275
1624.875873,-306.438199,-5625.565159,11029.068536
1624.876190,612.876398,-5551.544565,11843.295072
1624.876508,383.047749,-2812.782580,9918.759623
1624.876825,1532.190996,-1036.288319,11399.171507
1624.877142,0.000000,1184.329507,10658.965565
1624.877460,842.705048,3478.967927,10955.047942
1624.877777,1225.752797,7328.038826,9400.615463
1624.878094,1532.190996,7994.224174,8660.409521
1624.878412,2221.676944,6957.935855,8290.306550
1624.878729,1915.238745,5551.544565,8142.265362
1624.879046,2221.676944,3627.009116,6809.894666
1624.879364,2911.162892,-518.144159,6809.894666
1624.879681,2757.943793,-3256.906145,8956.491898
1624.879998,1762.019645,-5107.421000,9918.759623
1624.880316,1149.143247,-6143.709319,11547.212695
1624.880633,383.047749,-5625.565159,12139.377449
1624.880950,153.219100,-3182.885551,12583.501014
1624.881268,-612.876398,-1036.288319,12509.480420
1624.881585,-919.314598,1998.556043,11251.130318
1624.881902,229.828649,4737.318029,10881.027347
1624.882220,766.095498,7254.018232,9400.615463
1624.882537,1838.629195,5921.647536,8512.368333
1624.882854,1762.019645,5625.565159,7994.224174
1624.883172,2221.676944,3701.029710,7846.182985
1624.883489,2451.505594,1258.350101,6291.750507
1624.883806,2374.896044,-1702.473667,6957.935855
1624.884124,1838.629195,-4219.173869,9178.553681
1624.884441,229.828649,-6365.771101,9400.615463
1624.884758,-459.657299,-7328.038826,11917.315666
1624.885076,-1378.971896,-5477.523971,11695.253884
1624.885393,-1762.019645,-3627.009116,11991.336260
1624.885711,-1915.238745,-1850.514855,11843.295072
1624.886028,-1378.971896,444.123565,11473.192101
1624.886345,-536.266849,3330.926739,10510.924376
1624.886663,536.266849,5477.523971,8512.368333
1624.886980,1225.752797,5921.647536,6661.853478
1624.887297,1838.629195,5255.462188,8068.244768
1624.887615,2681.334243,3552.988522,7328.038826
1624.887932,3064.381992,1628.453072,5329.482782
1624.888249,3294.210641,-1628.453072,6587.832884
1624.888567,2068.457845,-2886.803174,7624.121203
1624.888884,2451.505594,-5329.482782,8808.450710
1624.889201,1915.238745,-5921.647536,10214.842000
1624.889519,842.705048,-3923.091493,9770.718434
1624.889836,306.438199,-2516.700203,10955.047942
1624.890153,-536.266849,-666.185348,11177.109724
1624.890471,-459.657299,1036.288319,11251.130318
1624.890788,383.047749,3923.091493,11103.089130
1624.891105,76.609550,5033.400406,9326.594869
1624.891423,459.657299,4959.379811,7698.141797
1624.891740,689.485948,4441.235652,8142.265362
1624.892057,1302.362347,2738.761985,8068.244768
1624.892375,2451.505594,1258.350101,5699.585753
1624.892692,2987.772442,-1258.350101,6735.874072
1624.893009,2221.676944,-3552.988522,7179.997637
1624.893327,1915.238745,-5773.606348,9622.677246
1624.893644,1762.019645,-5921.647536,10881.027347
1624.893961,1302.362347,-3256.906145,10362.883188
1624.894279,689.485948,-1628.453072,11473.192101
1624.894596,-919.314598,222.061783,11473.192101
1624.894913,-1149.143247,2146.597232,11251.130318
1624.895231,-689.485948,4811.338623,11621.233289
1624.895548,-1225.752797,5625.565159,8142.265362
1624.895866,-229.828649,4589.276840,9030.512492
1624.896183,-766.095498,2812.782580,9548.656652
1624.896500,-153.219100,1184.329507,7772.162391
1624.896818,1225.752797,-666.185348,7328.038826
1624.897135,1532.190996,-3404.947333,8808.450710
1624.897452,612.876398,-4737.318029,9474.636058
1624.897770,1455.581446,-5699.585753,11473.192101
1624.898087,1072.533697,-4071.132681,10881.027347
1624.898404,1378.971896,-1332.370696,10732.986159
1624.898722,919.314598,-444.123565,12509.480420
1624.899039,-689.485948,1924.535449,10807.006753
1624.899356,689.485948,4663.297435,11177.109724
1624.899674,612.876398,7031.956449,9918.759623
1624.899991,766.095498,5625.565159,9030.512492
1624.900308,995.924147,5107.421000,8882.471304
1624.900626,1072.533697,3182.885551,8512.368333
1624.900943,1225.752797,1406.391290,6661.853478
1624.901260,1762.019645,-1628.453072,7550.100608
1624.901578,1991.848295,-3108.864956,9400.615463
1624.901895,919.314598,-4811.338623,8956.491898
1624.902212,919.314598,-6439.791695,11621.233289
1624.902530,-536.266849,-4885.359217,11547.212695
1624.902847,-459.657299,-2072.576638,12065.356855
1624.903164,-229.828649,444.123565,11473.192101
1624.903481,-612.876398,3256.906145,10214.842000
1624.903799,689.485948,4885.359217,10955.047942
1624.904116,689.485948,6439.791695,8586.388927
1624.904433,1149.143247,5551.544565,7772.162391
1624.904751,1225.752797,4737.318029,7624.121203
1624.905068,1915.238745,2590.720797,7994.224174
1624.905385,995.924147,-0.000000,6513.812290
1624.905702,1455.581446,-2738.761985,7772.162391
1624.906020,689.485948,-4811.338623,8660.409521
1624.906337,-306.438199,-6661.853478,9474.636058
1624.906654,-153.219100,-6883.915261,11843.295072
1624.906971,-689.485948,-4145.153275,10658.965565
1624.907289,-383.047749,-2664.741391,11621.233289
1624.907606,-1149.143247,-1036.288319,11103.089130
1624.907923,-919.314598,1258.350101,11029.068536
1624.908241,-153.219100,4589.276840,9622.677246
1624.908558,919.314598,6513.812290,7550.100608
1624.908875,1455.581446,5625.565159,7624.121203
1624.909192,1608.800546,4515.256246,7698.141797
1624.909510,1991.848295,1924.535449,7105.977043
1624.909827,2068.457845,-518.144159,6735.874072
1624.910144,2221.676944,-3849.070898,8068.244768
1624.910462,2374.896044,-4959.379811,8364.327145
1624.910779,1532.190996,-5995.668130,8808.450710
1624.911096,1225.752797,-5403.503377,10214.842000
1624.911413,689.485948,-3182.885551,10288.862594
1624.911731,919.314598,-1480.411884,11547.212695
1624.912048,612.876398,962.267725,10584.944971
1624.912365,842.705048,3775.050304,9992.780217
1624.912683,383.047749,6143.709319,8586.388927
1624.913000,1455.581446,5181.441594,8512.368333
1624.913317,1685.410096,5403.503377,7328.038826
1624.913634,1915.238745,4663.297435,7772.162391
1624.913952,2068.457845,2294.638420,7179.997637
1624.914269,1915.238745,-74.020594,6513.812290
1624.914586,2681.334243,-2960.823768,8956.491898
1624.914904,1608.800546,-4885.359217,9104.533087
1624.915221,1072.533697,-6587.832884,11029.068536
1624.915538,-153.219100,-5255.462188,11325.150913
1624.915855,0.000000,-2738.761985,11843.295072
1624.916173,-842.705048,-888.247130,11769.274478
1624.916490,-612.876398,1406.391290,11103.089130
1624.916807,-1225.752797,4219.173869,10807.006753
1624.917124,-1378.971896,6069.688724,8882.471304
1624.917442,153.219100,5329.482782,7698.141797
1624.917759,0.000000,4737.318029,7772.162391
1624.918076,153.219100,2590.720797,8808.450710
1624.918394,0.000000,740.205942,7254.018232
1624.918711,689.485948,-2812.782580,8808.450710
1624.919028,766.095498,-4071.132681,9844.739029
1624.919345,766.095498,-5625.565159,10807.006753
1624.919663,766.095498,-5699.585753,11769.274478
1624.919980,383.047749,-3552.988522,11325.150913
1624.920297,842.705048,-1850.514855,12065.356855
1624.920615,-306.438199,-74.020594,11547.212695
1624.920932,229.828649,2886.803174,11473.192101
1624.921249,76.609550,5699.585753,9548.656652
1624.921566,536.266849,6661.853478,8956.491898
1624.921884,1072.533697,6069.688724,8068.244768
1624.922201,1608.800546,4441.235652,8808.450710
1624.922518,2298.286494,2220.617826,8068.244768
1624.922836,2145.067394,-444.123565,7105.977043
1624.923153,2374.896044,-3404.947333,8734.430116
1624.923470,2145.067394,-4441.235652,8956.491898
1624.923787,2221.676944,-5033.400406,9992.780217
1624.924105,1455.581446,-5181.441594,10436.903782
1624.924422,612.876398,-2220.617826,11103.089130
1624.924739,689.485948,-1110.308913,11991.336260
1624.925057,383.047749,2812.782580,10362.883188
1624.925374,689.485948,3775.050304,11473.192101
1624.925691,-306.438199,6513.812290,9474.636058
1624.926008,612.876398,5329.482782,9400.615463
1624.926326,306.438199,5403.503377,7698.141797
1624.926643,1149.143247,2812.782580,8660.409521
1624.926960,689.485948,962.267725,7328.038826
1624.927277,919.314598,-1110.308913,7105.977043
1624.927595,1762.019645,-3627.009116,8660.409521
1624.927912,766.095498,-4737.318029,7550.100608
1624.928229,1302.362347,-7328.038826,10510.924376
1624.928547,-536.266849,-5995.668130,10807.006753
1624.928864,-229.828649,-2886.803174,10214.842000
1624.929181,-229.828649,-0.000000,10436.903782
1624.929498,-842.705048,1258.350101,10881.027347
1624.929816,-766.095498,3701.029710,11547.212695
1624.930133,-306.438199,5625.565159,9104.533087
1624.930450,306.438199,5625.565159,8882.471304
1624.930768,842.705048,5181.441594,7105.977043
1624.931085,1149.143247,2886.803174,8364.327145
1624.931402,1532.190996,-0.000000,7254.018232
1624.931719,1378.971896,-2368.659014,7179.997637
1624.932037,1378.971896,-4071.132681,7994.224174
1624.932354,459.657299,-5329.482782,8734.430116
1624.932671,1072.533697,-5995.668130,10658.965565
1624.932989,0.000000,-3997.112087,9918.759623
1624.933306,76.609550,-2146.597232,10881.027347
1624.933623,-612.876398,-222.061783,10732.986159
1624.933940,0.000000,1850.514855,10955.047942
1624.934258,459.657299,4737.318029,10288.862594
1624.934575,842.705048,7179.997637,8512.368333
1624.934892,1685.410096,6735.874072,7994.224174
1624.935210,1915.238745,6217.729913,7550.100608
1624.935527,2068.457845,3627.009116,7846.182985
1624.935844,2221.676944,1184.329507,6883.915261
1624.936161,2451.505594,-2294.638420,7772.162391
1624.936479,1762.019645,-4145.153275,8808.450710
1624.936796,1072.533697,-6291.750507,9548.656652
1624.937113,536.266849,-6143.709319,10658.965565
1624.937430,0.000000,-4367.215058,11251.130318
1624.937748,76.609550,-2072.576638,12139.377449
1624.938065,-612.876398,-0.000000,11177.109724
1624.938382,0.000000,2442.679609,10881.027347
1624.938700,-383.047749,5033.400406,10362.883188
1624.939017,0.000000,5625.565159,9770.718434
1624.939334,842.705048,5551.544565,8808.450710
1624.939651,766.095498,4885.359217,8068.244768
1624.939969,766.095498,2442.679609,7624.121203
1624.940286,1608.800546,-370.102971,7328.038826
1624.940603,2068.457845,-3330.926739,8586.388927
1624.940921,1455.581446,-4811.338623,9474.636058
1624.941238,1072.533697,-6513.812290,10807.006753
1624.941555,459.657299,-5921.647536,11547.212695
1624.941872,229.828649,-3330.926739,10955.047942
1624.942190,0.000000,-296.082377,11843.295072
1624.942507,-306.438199,1184.329507,11251.130318
1624.942824,-153.219100,3849.070898,10881.027347
1624.943142,0.000000,6069.688724,9400.615463
1624.943459,612.876398,5995.668130,9104.533087
1624.943776,919.314598,5921.647536,7994.224174
1624.944093,1072.533697,3627.009116,8142.265362
1624.944411,919.314598,1924.535449,7328.038826
1624.944728,1378.971896,-1036.288319,7476.080014
1624.945045,1302.362347,-3034.844362,8956.491898
1624.945363,919.314598,-4293.194464,9474.636058
1624.945680,842.705048,-5477.523971,10732.986159
1624.945997,0.000000,-4071.132681,10732.986159
1624.946314,153.219100,-2220.617826,12139.377449
1624.946632,0.000000,-148.041188,11251.130318
1624.946949,229.828649,2516.700203,10362.883188
1624.947266,919.314598,5033.400406,9992.780217
1624.947583,459.657299,6069.688724,8142.265362
1624.947901,1225.752797,5773.606348,7994.224174
1624.948218,1378.971896,5699.585753,6661.853478
1624.948535,1685.410096,4293.194464,7031.956449
1624.948853,1915.238745,1554.432478,6439.791695
1624.949170,2145.067394,-1998.556043,7105.977043
1624.949487,1302.362347,-4219.173869,8586.388927
1624.949804,995.924147,-6217.729913,9548.656652
1624.950122,842.705048,-6587.832884,10955.047942
1624.950439,76.609550,-4441.235652,11843.295072
1624.950756,153.219100,-1776.494261,11769.274478
1624.951074,-536.266849,814.226536,10881.027347
1624.951391,306.438199,2812.782580,10881.027347
1624.951708,459.657299,5181.441594,10362.883188
1624.952025,842.705048,6217.729913,8512.368333
1624.952343,1455.581446,5699.585753,8216.285956
1624.952660,1149.143247,4811.338623,7550.100608
1624.952977,2068.457845,1554.432478,7994.224174
1624.953295,2145.067394,-962.267725,6735.874072
1624.953612,2145.067394,-3404.947333,7772.162391
1624.953929,1991.848295,-5107.421000,8512.368333
1624.954246,2145.067394,-5995.668130,9474.636058
1624.954564,1455.581446,-5699.585753,10955.047942
1624.954881,766.095498,-3034.844362,10658.965565
1624.955198,306.438199,-74.020594,10066.800811
1624.955516,153.219100,1332.370696,10436.903782
1624.955833,536.266849,3404.947333,11325.150913
1624.956150,766.095498,5773.606348,9548.656652
1624.956467,306.438199,5625.565159,8956.491898
1624.956785,919.314598,5033.400406,9104.533087
1624.957102,1225.752797,3923.091493,9178.553681
1624.957419,1302.362347,2368.659014,7994.224174
1624.957736,1762.019645,370.102971,7328.038826
1624.958054,1838.629195,-1998.556043,7698.141797
1624.958371,1685.410096,-4367.215058,8290.306550
1624.958688,1302.362347,-6809.894666,10362.883188
1624.959006,306.438199,-6439.791695,11473.192101
1624.959323,-536.266849,-3330.926739,10955.047942
1624.959640,229.828649,-1554.432478,11621.233289
1624.959957,-459.657299,1850.514855,10881.027347
1624.960275,-229.828649,3627.009116,10658.965565
1624.960592,-1072.533697,5995.668130,8586.388927
1624.960909,0.000000,5551.544565,9696.697840
1624.961227,383.047749,4885.359217,8882.471304
1624.961544,919.314598,3034.844362,8586.388927
1624.961861,842.705048,1036.288319,7920.203579
1624.962178,459.657299,-2146.597232,8142.265362
1624.962496,1378.971896,-4885.359217,9918.759623
1624.962813,459.657299,-6439.791695,9622.677246
1624.963130,1072.533697,-7105.977043,11991.336260
1624.963448,-689.485948,-4441.235652,10214.842000
1624.963765,0.000000,-1998.556043,11991.336260
1624.964082,0.000000,148.041188,10807.006753
1624.964399,229.828649,3108.864956,10066.800811
1624.964717,76.609550,5699.585753,9326.594869
1624.965034,229.828649,6143.709319,8586.388927
1624.965351,1302.362347,5477.523971,8808.450710
1624.965669,919.314598,5033.400406,7772.162391
1624.965986,1915.238745,3256.906145,8290.306550
1624.966303,1762.019645,1480.411884,6587.832884
1624.966620,2298.286494,-2146.597232,7698.141797
1624.966938,1838.629195,-3997.112087,8660.409521
1624.967255,1072.533697,-5921.647536,9696.697840
1624.967572,383.047749,-5995.668130,10436.903782
1624.967889,-689.485948,-4663.297435,11547.212695
1624.968207,-612.876398,-1480.411884,12065.356855
1624.968524,-1149.143247,1184.329507,10288.862594
1624.968841,229.828649,2960.823768,11843.295072
1624.969159,0.000000,5625.565159,8512.368333
1624.969476,1072.533697,5995.668130,8586.388927
1624.969793,1378.971896,5773.606348,7179.997637
1624.970110,1608.800546,4515.256246,7254.018232
1624.970428,2298.286494,2516.700203,5921.647536
1624.970745,1378.971896,-148.041188,6513.812290
1624.971062,1378.971896,-3034.844362,7550.100608
1624.971380,153.219100,-4663.297435,8290.306550
1624.971697,459.657299,-6661.853478,11251.130318
1624.972014,-229.828649,-6809.894666,11547.212695
1624.972331,-766.095498,-4441.235652,12879.583391
1624.972649,-842.705048,-2738.761985,12657.521608
1624.972966,-1455.581446,148.041188,11547.212695
1624.973283,1225.752797,3108.864956,11547.212695
1624.973601,536.266849,5699.585753,9844.739029
1624.973918,1302.362347,6513.812290,8660.409521
1624.974235,1608.800546,6291.750507,7402.059420
1624.974552,2451.505594,4959.379811,7624.121203
1624.974870,4060.306139,1850.514855,7254.018232
1624.975187,3294.210641,-1702.473667,6883.915261
1624.975504,2604.724693,-4589.276840,8512.368333
1624.975822,2604.724693,-5477.523971,8586.388927
1624.976139,2834.553343,-6291.750507,9770.718434
1624.976456,2374.896044,-5107.421000,11473.192101
1624.976773,1608.800546,-2294.638420,10214.842000
1624.977091,1225.752797,222.061783,10732.986159
1624.977408,766.095498,1554.432478,11621.233289
1624.977725,306.438199,3256.906145,11251.130318
1624.978042,0.000000,5995.668130,9770.718434
1624.978360,229.828649,6439.791695,7920.203579
1624.978677,536.266849,6143.709319,7698.141797
1624.978994,612.876398,3108.864956,8734.430116
1624.979312,689.485948,962.267725,7476.080014
1624.979629,2068.457845,-814.226536,6957.935855
1624.979946,1532.190996,-2072.576638,7772.162391
1624.980263,995.924147,-5551.544565,9178.553681
1624.980581,995.924147,-6587.832884,11029.068536
1624.980898,76.609550,-5033.400406,11399.171507
1624.981215,153.219100,-2072.576638,11399.171507
1624.981533,229.828649,148.041188,11103.089130
1624.981850,-383.047749,2960.823768,10066.800811
1624.982167,-536.266849,4811.338623,9770.718434
1624.982484,-842.705048,5921.647536,8660.409521
1624.982802,-306.438199,4737.318029,8438.347739
1624.983119,-689.485948,4515.256246,7550.100608
1624.983436,-536.266849,2368.659014,8364.327145
1624.983754,-842.705048,-0.000000,7179.997637
1624.984071,153.219100,-3701.029710,9030.512492
1624.984388,-612.876398,-5551.544565,10362.883188
1624.984705,-842.705048,-7402.059420,11843.295072
1624.985023,-766.095498,-6439.791695,12509.480420
1624.985340,-306.438199,-3849.070898,12065.356855
1624.985657,612.876398,-1924.535449,11917.315666
1624.985975,0.000000,1036.288319,11621.233289
1624.986292,-229.828649,4441.235652,10140.821405
1624.986609,766.095498,6439.791695,8290.306550
1624.986926,1302.362347,7254.018232,8068.244768
1624.987244,1762.019645,6735.874072,7920.203579
1624.987561,1532.190996,5255.462188,7105.977043
1624.987878,1532.190996,2220.617826,6957.935855
1624.988195,1455.581446,-962.267725,7105.977043
1624.988513,1762.019645,-4071.132681,9178.553681
1624.988830,1072.533697,-5625.565159,9178.553681
1624.989147,459.657299,-6957.935855,10658.965565
1624.989465,0.000000,-5921.647536,11325.150913
1624.989782,-383.047749,-3701.029710,11991.336260
1624.990099,229.828649,-1332.370696,11399.171507
1624.990416,-153.219100,1110.308913,10658.965565
1624.990734,306.438199,4293.194464,10584.944971
1624.991051,689.485948,5995.668130,9326.594869
1624.991368,1838.629195,6439.791695,8364.327145
1624.991686,2298.286494,6439.791695,6809.894666
1624.992003,2604.724693,3923.091493,7402.059420
1624.992320,2604.724693,1406.391290,6513.812290
1624.992637,2681.334243,-1554.432478,5995.668130
1624.992955,2451.505594,-4071.132681,6809.894666
1624.993272,1302.362347,-6217.729913,8734.430116
1624.993589,919.314598,-7772.162391,10881.027347
1624.993907,76.609550,-6365.771101,11843.295072
1624.994224,-536.266849,-3478.967927,11029.068536
1624.994541,-766.095498,-1998.556043,11991.336260
1624.994858,-1149.143247,888.247130,11769.274478
1624.995176,229.828649,3404.947333,11103.089130
1624.995493,0.000000,5699.585753,8660.409521
1624.995810,1149.143247,5625.565159,8586.388927
1624.996128,1532.190996,5107.421000,7476.080014
1624.996445,1991.848295,3478.967927,8068.244768
1624.996762,2528.115143,1332.370696,7105.977043
1624.997079,2604.724693,-1406.391290,7031.956449
1624.997397,2911.162892,-3034.844362,8438.347739
1624.997714,2451.505594,-5329.482782,9474.636058
1624.998031,1991.848295,-5477.523971,10584.944971
1624.998348,1302.362347,-3923.091493,10732.986159
1624.998666,1302.362347,-2146.597232,11177.109724
1624.998983,-306.438199,-222.061783,11547.212695
1624.999300,-306.438199,2220.617826,10584.944971
1624.999618,153.219100,4811.338623,10362.883188
1624.999935,0.000000,6217.729913,9030.512492
1625.000252,766.095498,5921.647536,8586.388927
1625.000569,153.219100,5403.503377,7698.141797
1625.000887,689.485948,2960.823768,8142.265362
1625.001204,459.657299,1480.411884,6291.750507
1625.001521,1455.581446,-1628.453072,7624.121203
1625.001838,1608.800546,-3552.988522,8660.409521
1625.002155,1455.581446,-5773.606348,9696.697840
1625.002473,536.266849,-5551.544565,11399.171507
1625.002790,-536.266849,-3404.947333,11177.109724
1625.003107,229.828649,-1258.350101,12287.418637
1625.003424,-766.095498,1702.473667,10436.903782
1625.003742,-612.876398,3552.988522,10955.047942
1625.004059,-1532.190996,5625.565159,9844.739029
1625.004376,-842.705048,6365.771101,9104.533087
1625.004693,-536.266849,5921.647536,7328.038826
1625.005010,-536.266849,4663.297435,8660.409521
1625.005328,-459.657299,2072.576638,8586.388927
1625.005645,-689.485948,-592.164754,7476.080014
1625.005962,842.705048,-3404.947333,9918.759623
1625.006279,76.609550,-5329.482782,10584.944971
1625.006597,612.876398,-7105.977043,12287.418637
1625.006914,0.000000,-5921.647536,12509.480420
1625.007231,612.876398,-3552.988522,12139.377449
1625.007548,612.876398,-814.226536,11843.295072
1625.007865,766.095498,1924.535449,10732.986159
1625.008183,842.705048,5033.400406,10214.842000
1625.008500,1838.629195,6661.853478,8068.244768
1625.008817,1838.629195,6587.832884,7772.162391
1625.009134,2298.286494,5995.668130,7846.182985
1625.009452,2757.943793,3478.967927,7476.080014
1625.009769,2451.505594,1110.308913,5921.647536
1625.010086,2451.505594,-2516.700203,7624.121203
1625.010403,2068.457845,-4737.318029,8882.471304
1625.010721,1072.533697,-6809.894666,9696.697840
1625.011038,919.314598,-6735.874072,11325.150913
1625.011355,229.828649,-5255.462188,12435.459826
1625.011672,229.828649,-2516.700203,13101.645173
1625.011989,76.609550,-222.061783,11991.336260
1625.012307,536.266849,3182.885551,10732.986159
1625.012624,1225.752797,6069.688724,9326.594869
1625.012941,2221.676944,7105.977043,7179.997637
1625.013258,2757.943793,6439.791695,7179.997637
1625.013576,2451.505594,6217.729913,5625.565159
1625.013893,2681.334243,3627.009116,5699.585753
1625.014210,2068.457845,-74.020594,5403.503377
1625.014527,1532.190996,-3701.029710,7402.059420
1625.014844,842.705048,-5551.544565,8882.471304
1625.015162,-766.095498,-7179.997637,9918.759623
1625.015479,-1532.190996,-7772.162391,11917.315666
1625.015796,-1762.019645,-5551.544565,12287.418637
1625.016113,-919.314598,-3034.844362,13249.686362
1625.016431,-1685.410096,-0.000000,11473.192101
1625.016748,-995.924147,2516.700203,11547.212695
1625.017065,-229.828649,5329.482782,9474.636058
1625.017382,459.657299,6809.894666,7624.121203
1625.017699,459.657299,7402.059420,5995.668130
1625.018017,1608.800546,5403.503377,7772.162391
1625.018334,1685.410096,2960.823768,7254.018232
1625.018651,1838.629195,-74.020594,7031.956449
1625.018968,2451.505594,-3256.906145,8660.409521
1625.019286,1455.581446,-5181.441594,9178.553681
1625.019603,1685.410096,-7328.038826,11103.089130
1625.019920,919.314598,-5329.482782,10807.006753
1625.020237,1149.143247,-2442.679609,9770.718434
1625.020554,995.924147,-370.102971,10510.924376
1625.020872,-229.828649,1628.453072,10807.006753
1625.021189,306.438199,3997.112087,10436.903782
1625.021506,306.438199,6365.771101,9252.574275
1625.021823,612.876398,6661.853478,8808.450710
1625.022141,459.657299,6291.750507,6735.874072
1625.022458,842.705048,4145.153275,8586.388927
1625.022775,689.485948,2664.741391,7105.977043
1625.023092,1991.848295,-74.020594,7254.018232
1625.023409,1838.629195,-3182.885551,9178.553681
1625.023727,1838.629195,-5403.503377,9770.718434
1625.024044,995.924147,-5847.626942,10955.047942
1625.024361,536.266849,-3701.029710,11103.089130
1625.024678,689.485948,-2072.576638,11843.295072
1625.024996,0.000000,370.102971,10955.047942
1625.025313,-306.438199,2516.700203,11029.068536
1625.025630,-306.438199,4737.318029,10732.986159
1625.025947,-612.876398,5699.585753,9474.636058
1625.026264,-153.219100,4959.379811,9104.533087
1625.026582,-459.657299,5181.441594,8290.306550
1625.026899,689.485948,3404.947333,7920.203579
1625.027216,919.314598,148.041188,7179.997637
1625.027533,1762.019645,-2960.823768,8660.409521
1625.027851,1455.581446,-5255.462188,10066.800811
1625.028168,1225.752797,-6957.935855,11325.150913
1625.028485,995.924147,-6217.729913,11843.295072
1625.028802,536.266849,-3923.091493,12139.377449
1625.029120,919.314598,-1036.288319,12657.521608
1625.029437,536.266849,1998.556043,10955.047942
1625.029754,1225.752797,4663.297435,9770.718434
1625.030071,1608.800546,6883.915261,9178.553681
1625.030388,1608.800546,7031.956449,8512.368333
1625.030706,2221.676944,6365.771101,7920.203579
1625.031023,1915.238745,4737.318029,7476.080014
1625.031340,2374.896044,2590.720797,8216.285956
1625.031657,2221.676944,-0.000000,7328.038826
1625.031975,2145.067394,-2590.720797,8216.285956
1625.032292,1685.410096,-4737.318029,9622.677246
1625.032609,1762.019645,-6217.729913,10732.986159
1625.032926,536.266849,-5995.668130,10510.924376
1625.033243,0.000000,-3404.947333,11103.089130
1625.033561,0.000000,-1258.350101,11843.295072
1625.033878,-229.828649,1184.329507,9696.697840
1625.034195,229.828649,3478.967927,9992.780217
1625.034512,0.000000,5921.647536,8438.347739
1625.034830,612.876398,6513.812290,8068.244768
1625.035147,919.314598,5995.668130,7105.977043
1625.035464,1225.752797,4071.132681,6883.915261
1625.035781,995.924147,1406.391290,6809.894666
1625.036098,766.095498,-1628.453072,6883.915261
1625.036416,536.266849,-4367.215058,8290.306550
1625.036733,-229.828649,-6513.812290,9918.759623
1625.037050,-536.266849,-8142.265362,11917.315666
1625.037367,-1915.238745,-6217.729913,11843.295072
1625.037685,-1532.190996,-4293.194464,12657.521608
1625.038002,-1915.238745,-1406.391290,11769.274478
1625.038319,-1072.533697,1406.391290,11177.109724
1625.038636,-229.828649,4515.256246,9918.759623
1625.038953,995.924147,6217.729913,8586.388927
1625.039271,1762.019645,6069.688724,7624.121203
1625.039588,1991.848295,5181.441594,6957.935855
1625.039905,2911.162892,3330.926739,6735.874072
1625.040222,3064.381992,592.164754,6735.874072
1625.040540,2834.553343,-2368.659014,7476.080014
1625.040857,2681.334243,-4367.215058,8290.306550
1625.041174,1991.848295,-5329.482782,9474.636058
1625.041491,1378.971896,-5329.482782,10288.862594
1625.041808,842.705048,-3997.112087,11473.192101
1625.042126,383.047749,-2294.638420,12213.398043
1625.042443,-229.828649,-148.041188,11695.253884
1625.042760,306.438199,2516.700203,10807.006753
1625.043077,536.266849,5255.462188,10214.842000
1625.043395,1072.533697,5403.503377,9400.615463
1625.043712,1915.238745,6217.729913,8142.265362
1625.044029,2374.896044,5773.606348,6957.935855
1625.044346,2681.334243,3330.926739,7402.059420
1625.044664,2681.334243,444.123565,6883.915261
1625.044981,2757.943793,-2072.576638,7328.038826
1625.045298,2298.286494,-4589.276840,8512.368333
1625.045615,1378.971896,-5995.668130,9844.739029
1625.045932,766.095498,-6735.874072,11177.109724
1625.046250,1072.533697,-4145.153275,11695.253884
1625.046567,459.657299,-1628.453072,11991.336260
1625.046884,-383.047749,1184.329507,10214.842000
1625.047201,-383.047749,3330.926739,10732.986159
1625.047519,-536.266849,5255.462188,10066.800811
1625.047836,0.000000,5773.606348,9400.615463
1625.048153,-306.438199,5551.544565,8290.306550
1625.048470,0.000000,4219.173869,8290.306550
1625.048787,689.485948,1924.535449,8660.409521
1625.049105,995.924147,-370.102971,7328.038826
1625.049422,1685.410096,-3256.906145,8882.471304
1625.049739,1072.533697,-4737.318029,9548.656652
1625.050056,1378.971896,-5921.647536,11177.109724
1625.050374,919.314598,-5255.462188,11473.192101
1625.050691,766.095498,-2664.741391,11029.068536
1625.051008,153.219100,-0.000000,11251.130318
1625.051325,0.000000,2664.741391,9770.718434
1625.051642,0.000000,5329.482782,9770.718434
1625.051960,-459.657299,7105.977043,8216.285956
1625.052277,0.000000,5995.668130,9104.533087
1625.052594,-229.828649,6069.688724,7254.018232
1625.052911,383.047749,2960.823768,8808.450710
1625.053229,76.609550,888.247130,7994.224174
1625.053546,612.876398,-2146.597232,8882.471304
1625.053863,0.000000,-4145.153275,9622.677246
1625.054180,153.219100,-5699.585753,10362.883188
1625.054497,383.047749,-5995.668130,11547.212695
1625.054815,-536.266849,-4293.194464,11251.130318
1625.055132,0.000000,-1628.453072,12139.377449
1625.055449,-306.438199,888.247130,11029.068536
1625.055766,76.609550,3478.967927,10362.883188
1625.056084,0.000000,5773.606348,9252.574275
1625.056401,612.876398,6587.832884,8734.430116
1625.056718,995.924147,6291.750507,7624.121203
1625.057035,1685.410096,5181.441594,6661.853478
1625.057352,1838.629195,2516.700203,6661.853478
1625.057670,1838.629195,-148.041188,7105.977043
1625.057987,1455.581446,-3478.967927,7920.203579
1625.058304,766.095498,-5403.503377,9770.718434
1625.058621,919.314598,-7328.038826,11695.253884
1625.058939,-306.438199,-7105.977043,12361.439231
1625.059256,-459.657299,-5033.400406,12509.480420
1625.059573,-536.266849,-2146.597232,12879.583391
1625.059890,229.828649,518.144159,11473.192101
1625.060207,766.095498,2960.823768,10658.965565
1625.060525,1072.533697,5181.441594,9178.553681
1625.060842,2221.676944,5995.668130,8290.306550
1625.061159,2757.943793,6069.688724,6661.853478
1625.061476,3524.039291,4737.318029,7105.977043
1625.061794,3600.648841,1998.556043,6587.832884
1625.062111,3140.991542,-888.247130,6365.771101
1625.062428,3217.601092,-3627.009116,7846.182985
1625.062745,2451.505594,-5403.503377,9104.533087
1625.063063,2374.896044,-6513.812290,10362.883188
1625.063380,919.314598,-5847.626942,10807.006753
1625.063697,306.438199,-3256.906145,10584.944971
1625.064014,383.047749,-1110.308913,11029.068536
1625.064331,76.609550,962.267725,10214.842000
1625.064649,383.047749,2960.823768,10066.800811
1625.064966,612.876398,5033.400406,9474.636058
1625.065283,536.266849,4811.338623,9030.512492
1625.065600,995.924147,5329.482782,7624.121203
1625.065918,1532.190996,3775.050304,7772.162391
1625.066235,1608.800546,2072.576638,6957.935855
1625.066552,1991.848295,-222.061783,6069.688724
1625.066869,2374.896044,-2886.803174,7550.100608
1625.067186,1685.410096,-4885.359217,8290.306550
1625.067504,1072.533697,-6439.791695,10140.821405
1625.067821,0.000000,-5033.400406,10436.903782
1625.068138,-383.047749,-2960.823768,11399.171507
1625.068455,-919.314598,-592.164754,11251.130318
1625.068773,-1608.800546,1850.514855,10140.821405
1625.069090,-1149.143247,3330.926739,11251.130318
1625.069407,-1915.238745,4737.318029,10214.842000
1625.069724,-995.924147,4441.235652,9696.697840
1625.070041,-1225.752797,3775.050304,7476.080014
1625.070359,-383.047749,2368.659014,9844.739029
1625.070676,-229.828649,-0.000000,8216.285956
1625.070993,919.314598,-1628.453072,7698.141797
1625.071310,1302.362347,-3182.885551,9178.553681
1625.071628,459.657299,-4959.379811,9844.739029
1625.071945,919.314598,-5255.462188,10881.027347
1625.072262,76.609550,-3627.009116,10584.944971
1625.072579,306.438199,-2294.638420,12583.501014
1625.072896,-612.876398,222.061783,11029.068536
1625.073214,-689.485948,2812.782580,10584.944971
1625.073531,-229.828649,5033.400406,10658.965565
1625.073848,689.485948,7402.059420,8882.471304
1625.074165,612.876398,7254.018232,7254.018232
1625.074483,995.924147,5921.647536,7920.203579
1625.074800,1915.238745,3182.885551,7624.121203
1625.075117,1532.190996,1702.473667,5699.585753
1625.075434,2298.286494,-2368.659014,8290.306550
1625.075751,1608.800546,-3923.091493,9252.574275
1625.076069,1225.752797,-6883.915261,11399.171507
1625.076386,306.438199,-6661.853478,11547.212695
1625.076703,-229.828649,-4441.235652,12435.459826
1625.077020,0.000000,-1628.453072,12361.439231
1625.077338,-306.438199,1184.329507,10732.986159
1625.077655,76.609550,3701.029710,10658.965565
1625.077972,383.047749,6365.771101,8512.368333
1625.078289,1608.800546,6809.894666,8512.368333
1625.078607,1838.629195,6439.791695,6735.874072
1625.078924,2298.286494,4737.318029,6957.935855
1625.079241,2604.724693,2368.659014,6957.935855
1625.079558,1762.019645,-370.102971,6513.812290
1625.079875,2451.505594,-3701.029710,8512.368333
1625.080193,1685.410096,-6217.729913,10288.862594
1625.080510,842.705048,-7476.080014,11769.274478
1625.080827,153.219100,-6587.832884,12065.356855
1625.081144,0.000000,-4589.276840,12953.603985
1625.081462,0.000000,-2072.576638,12731.542202
1625.081779,229.828649,-0.000000,10881.027347
1625.082096,306.438199,3034.844362,10510.924376
1625.082413,919.314598,5329.482782,8734.430116
1625.082730,1915.238745,6439.791695,7476.080014
1625.083048,1915.238745,6439.791695,6661.853478
1625.083365,2604.724693,4367.215058,7105.977043
1625.083682,2451.505594,1554.432478,6809.894666
1625.083999,1915.238745,-2516.700203,7698.141797
1625.084317,1608.800546,-4737.318029,8808.450710
1625.084634,842.705048,-5625.565159,9622.677246
1625.084951,995.924147,-6661.853478,11103.089130
1625.085268,383.047749,-5329.482782,10881.027347
1625.085585,0.000000,-3182.885551,12139.377449
1625.085903,-153.219100,-296.082377,10881.027347
1625.086220,-229.828649,2368.659014,9770.718434
1625.086537,383.047749,4441.235652,9622.677246
1625.086854,459.657299,5699.585753,8512.368333
1625.087172,153.219100,6143.709319,7031.956449
1625.087489,459.657299,6291.750507,6143.709319
1625.087806,919.314598,3478.967927,6735.874072
1625.088123,766.095498,1998.556043,5921.647536
1625.088440,1685.410096,-1406.391290,7476.080014
1625.088758,229.828649,-3701.029710,8290.306550
1625.089075,459.657299,-6069.688724,9844.739029
1625.089392,-229.828649,-7031.956449,11473.192101
1625.089709,-919.314598,-5107.421000,11843.295072
1625.090027,-1608.800546,-2294.638420,11843.295072
1625.090344,-1915.238745,962.267725,10288.862594
1625.090661,-689.485948,3478.967927,10362.883188
1625.090978,-1072.533697,5477.523971,10066.800811
1625.091295,76.609550,5995.668130,9770.718434
1625.091613,-229.828649,5995.668130,7550.100608
1625.091930,229.828649,4737.318029,7402.059420
1625.092247,766.095498,2664.741391,7846.182985
1625.092564,1072.533697,-0.000000,7179.997637
1625.092882,1838.629195,-2812.782580,8142.265362
1625.093199,1455.581446,-5329.482782,9252.574275
1625.093516,1455.581446,-6883.915261,12139.377449
1625.093833,995.924147,-5995.668130,12435.459826
1625.094150,612.876398,-3404.947333,12213.398043
1625.094468,919.314598,-1036.288319,12583.501014
1625.094785,76.609550,1850.514855,11325.150913
1625.095102,766.095498,4737.318029,10436.903782
1625.095419,1072.533697,7402.059420,8956.491898
1625.095737,1838.629195,7179.997637,8956.491898
1625.096054,2145.067394,6735.874072,7772.162391
1625.096371,2528.115143,4219.173869,8290.306550
1625.096688,2451.505594,1998.556043,7402.059420
1625.097006,2068.457845,-1184.329507,7846.182985
1625.097323,1915.238745,-3627.009116,9178.553681
1625.097640,1838.629195,-4811.338623,9474.636058
1625.097957,1608.800546,-5847.626942,11473.192101
1625.098274,1149.143247,-5033.400406,10955.047942
1625.098592,306.438199,-2664.741391,11843.295072
1625.098909,0.000000,-888.247130,12065.356855
1625.099226,-766.095498,2368.659014,9992.780217
1625.099543,-153.219100,4737.318029,10510.924376
1625.099861,-612.876398,5995.668130,8660.409521
1625.100178,0.000000,5995.668130,9030.512492
1625.100495,0.000000,5625.565159,7031.956449
1625.100812,612.876398,3108.864956,8290.306550
1625.101129,306.438199,888.247130,7624.121203
1625.101447,0.000000,-2220.617826,7254.018232
1625.101764,306.438199,-4737.318029,9104.533087
1625.102081,-306.438199,-6809.894666,10140.821405
1625.102398,76.609550,-7772.162391,11399.171507
1625.102716,-536.266849,-5773.606348,11399.171507
1625.103033,-229.828649,-3256.906145,12213.398043
1625.103350,-153.219100,-0.000000,10584.944971
1625.103667,0.000000,2294.638420,10436.903782
1625.103985,383.047749,4515.256246,9252.574275
1625.104302,229.828649,6661.853478,7772.162391
1625.104619,1225.752797,6735.874072,7031.956449
1625.104936,1608.800546,5551.544565,7179.997637
1625.105253,2298.286494,2812.782580,7550.100608
1625.105571,2068.457845,222.061783,6957.935855
1625.105888,1762.019645,-2664.741391,8142.265362
1625.106205,2068.457845,-5107.421000,9474.636058
1625.106522,2145.067394,-6439.791695,10732.986159
1625.106840,1378.971896,-5847.626942,11103.089130
1625.107157,1455.581446,-3775.050304,11695.253884
1625.107474,842.705048,-1702.473667,11843.295072
1625.107791,1149.143247,592.164754,10140.821405
1625.108109,1685.410096,3404.947333,8882.471304
1625.108426,1685.410096,6291.750507,7920.203579
1625.108743,2451.505594,6513.812290,7846.182985
1625.109060,2451.505594,6291.750507,6661.853478
1625.109377,2528.115143,5181.441594,6661.853478
1625.109695,2451.505594,2960.823768,6809.894666
1625.110012,2068.457845,1184.329507,6365.771101
1625.110329,2451.505594,-2812.782580,7846.182985
1625.110646,1378.971896,-4959.379811,9474.636058
1625.110964,919.314598,-6365.771101,11251.130318
1625.111281,-153.219100,-6365.771101,11251.130318
1625.111598,0.000000,-4515.256246,13101.645173
1625.111915,-153.219100,-1480.411884,11991.336260
1625.112233,-689.485948,1258.350101,10584.944971
1625.112550,-229.828649,3701.029710,10362.883188
1625.112867,-153.219100,5625.565159,8808.450710
1625.113184,306.438199,5995.668130,8216.285956
1625.113502,459.657299,6143.709319,7179.997637
1625.113819,919.314598,4589.276840,7179.997637
1625.114136,1225.752797,2294.638420,7476.080014
1625.114453,1149.143247,-1036.288319,8290.306550
1625.114770,689.485948,-3404.947333,9326.594869
1625.115088,689.485948,-5477.523971,10658.965565
1625.115405,0.000000,-6587.832884,11843.295072
1625.115722,-306.438199,-5477.523971,12065.356855
1625.116039,-306.438199,-3627.009116,13175.665768
1625.116357,-995.924147,-444.123565,12361.439231
1625.116674,-306.438199,1924.535449,11325.150913
1625.116991,-612.876398,4441.235652,10066.800811
1625.117308,76.609550,5551.544565,9622.677246
1625.117626,153.219100,5773.606348,8364.327145
1625.117943,689.485948,4811.338623,7994.224174
1625.118260,842.705048,3108.864956,7476.080014
1625.118577,1302.362347,1036.288319,7772.162391
1625.118894,1685.410096,-2146.597232,8438.347739
1625.119212,995.924147,-3849.070898,9030.512492
1625.119529,1225.752797,-5403.503377,10732.986159
1625.119846,383.047749,-5921.647536,11251.130318
1625.120163,459.657299,-4589.276840,11769.274478
1625.120481,306.438199,-1924.535449,11769.274478
1625.120798,-612.876398,518.144159,10732.986159
1625.121115,0.000000,2960.823768,10658.965565
1625.121432,0.000000,5181.441594,9326.594869
1625.121750,766.095498,6661.853478,8956.491898
1625.122067,995.924147,6883.915261,7179.997637
1625.122384,1378.971896,5699.585753,7031.956449
1625.122701,1608.800546,2886.803174,6735.874072
1625.123019,1455.581446,-592.164754,6883.915261
1625.123336,1532.190996,-3997.112087,8364.327145
1625.123653,995.924147,-5773.606348,9918.759623
1625.123970,1225.752797,-7254.018232,11251.130318
1625.124287,306.438199,-6661.853478,11399.171507
1625.124605,-229.828649,-4811.338623,11917.315666
1625.124922,153.219100,-1480.411884,12139.377449
1625.125239,459.657299,1258.350101,9844.739029
1625.125556,995.924147,4071.132681,10066.800811
1625.125874,1149.143247,6809.894666,8216.285956
1625.126191,1991.848295,7105.977043,7402.059420
1625.126508,2987.772442,7105.977043,6661.853478
1625.126825,3370.820191,4885.359217,6587.832884
1625.127143,3370.820191,1998.556043,6069.688724
1625.127460,3677.258390,-1554.432478,6513.812290
1625.127777,2681.334243,-4145.153275,8512.368333
1625.128094,2221.676944,-6069.688724,9104.533087
1625.128411,1838.629195,-6957.935855,10955.047942
1625.128729,689.485948,-5995.668130,11251.130318
1625.129046,0.000000,-3256.906145,11251.130318
1625.129363,383.047749,-1480.411884,11325.150913
1625.129680,0.000000,2146.597232,9918.759623
1625.129998,766.095498,4663.297435,8882.471304
1625.130315,459.657299,6513.812290,7846.182985
1625.130632,1378.971896,6143.709319,8068.244768
1625.130949,842.705048,6143.709319,6883.915261
1625.131267,995.924147,4219.173869,7624.121203
1625.131584,766.095498,2368.659014,6809.894666
1625.131901,1072.533697,-666.185348,7254.018232
1625.132218,1302.362347,-3923.091493,8734.430116
1625.132536,0.000000,-5995.668130,9770.718434
1625.132853,-306.438199,-7105.977043,11917.315666
1625.133170,-1302.362347,-5403.503377,11621.233289
1625.133487,-1225.752797,-2960.823768,11991.336260
1625.133804,-1455.581446,-222.061783,10955.047942
1625.134122,-1149.143247,2294.638420,10807.006753
1625.134439,-1225.752797,4367.215058,9326.594869
1625.134756,-919.314598,5625.565159,8808.450710
1625.135073,-229.828649,5551.544565,8734.430116
1625.135391,-383.047749,5107.421000,7550.100608
1625.135708,842.705048,3182.885551,7772.162391
1625.136025,536.266849,518.144159,8216.285956
1625.136342,995.924147,-2368.659014,9326.594869
1625.136660,306.438199,-4959.379811,10584.944971
1625.136977,842.705048,-5847.626942,11325.150913
1625.137294,459.657299,-5773.606348,12065.356855
1625.137611,306.438199,-4811.338623,13175.665768
1625.137928,-229.828649,-2738.761985,13471.748144
1625.138246,-153.219100,-296.082377,11843.295072
1625.138563,383.047749,3108.864956,10807.006753
1625.138880,766.095498,4737.318029,9918.759623
1625.139197,1225.752797,6217.729913,8808.450710
1625.139515,2068.457845,5847.626942,7698.141797
1625.139832,2451.505594,4367.215058,8142.265362
1625.140149,2451.505594,2886.803174,7031.956449
1625.140466,2298.286494,592.164754,6957.935855
1625.140784,2681.334243,-1850.514855,7624.121203
1625.141101,2604.724693,-4441.235652,9770.718434
1625.141418,2374.896044,-6365.771101,10881.027347
1625.141735,766.095498,-6661.853478,11769.274478
1625.142053,-76.609550,-3923.091493,12583.501014
1625.142370,0.000000,-1480.411884,12583.501014
1625.142687,-229.828649,1480.411884,10510.924376
1625.143004,383.047749,3404.947333,10732.986159
1625.143321,-383.047749,5773.606348,8586.388927
1625.143639,1072.533697,5477.523971,8512.368333
1625.143956,842.705048,6587.832884,6513.812290
1625.144273,2374.896044,4145.153275,6883.915261
1625.144590,1072.533697,1998.556043,5773.606348
1625.144908,1378.971896,-814.226536,5921.647536
1625.145225,1762.019645,-4441.235652,7698.141797
1625.145542,2374.896044,-6291.750507,8586.388927
1625.145859,1302.362347,-7994.224174,9918.759623
1625.146177,306.438199,-6069.688724,10732.986159
1625.146494,153.219100,-3330.926739,11103.089130
1625.146811,-229.828649,-518.144159,10510.924376
1625.147128,-383.047749,962.267725,9696.697840
1625.147445,0.000000,3775.050304,9918.759623
1625.147763,-229.828649,5921.647536,7994.224174
1625.148080,1378.971896,6217.729913,7920.203579
1625.148397,1378.971896,5995.668130,6883.915261
1625.148714,1991.848295,4219.173869,7698.141797
1625.149032,2068.457845,1258.350101,7328.038826
1625.149349,2681.334243,-1406.391290,7105.977043
1625.149666,2451.505594,-4071.132681,8216.285956
1625.149983,2145.067394,-5403.503377,9992.780217
1625.150301,2068.457845,-5699.585753,9918.759623
1625.150618,1532.190996,-4885.359217,9992.780217
1625.150935,1072.533697,-2072.576638,12139.377449
1625.151252,229.828649,-0.000000,10584.944971
1625.151570,306.438199,2220.617826,9326.594869
1625.151887,842.705048,4367.215058,9696.697840
1625.152204,459.657299,5921.647536,7994.224174
1625.152521,842.705048,5921.647536,7920.203579
1625.152838,612.876398,5255.462188,7476.080014
1625.153156,766.095498,3701.029710,7772.162391
1625.153473,306.438199,1036.288319,7772.162391
1625.153790,536.266849,-2146.597232,9326.594869
1625.154107,0.000000,-4219.173869,10732.986159
1625.154425,-995.924147,-6069.688724,11473.192101
1625.154742,-1225.752797,-6513.812290,12805.562797
1625.155059,-1532.190996,-5329.482782,13101.645173
1625.155376,-1608.800546,-2516.700203,13471.748144
1625.155694,-1225.752797,-74.020594,12435.459826
1625.156011,-1149.143247,3701.029710,9474.636058
1625.156328,76.609550,5773.606348,9252.574275
1625.156645,153.219100,6439.791695,8512.368333
1625.156962,0.000000,6809.894666,7550.100608
1625.157280,229.828649,5699.585753,6217.729913
1625.157597,383.047749,2960.823768,7624.121203
1625.157914,459.657299,-814.226536,8586.388927
1625.158231,306.438199,-3478.967927,10214.842000
1625.158549,153.219100,-5477.523971,11769.274478
1625.158866,-383.047749,-6661.853478,13101.645173
1625.159183,-383.047749,-5921.647536,13101.645173
1625.159500,153.219100,-4145.153275,13027.624579
1625.159818,0.000000,-888.247130,12065.356855
1625.160135,536.266849,1998.556043,10732.986159
1625.160452,153.219100,5107.421000,9252.574275
1625.160769,1225.752797,6291.750507,8808.450710
1625.161087,1838.629195,6365.771101,7105.977043
1625.161404,1838.629195,6291.750507,7550.100608
1625.161721,2528.115143,4737.318029,6291.750507
1625.162038,2451.505594,2368.659014,6217.729913
1625.162355,2451.505594,-1258.350101,7105.977043
1625.162673,2145.067394,-4071.132681,9104.533087
1625.162990,1685.410096,-5625.565159,10066.800811
1625.163307,1149.143247,-6587.832884,11103.089130
1625.163624,0.000000,-5699.585753,12139.377449
1625.163942,-919.314598,-3404.947333,13027.624579
1625.164259,-383.047749,-814.226536,11769.274478
1625.164576,536.266849,2590.720797,9696.697840
1625.164893,689.485948,5107.421000,9326.594869
1625.165211,1532.190996,6291.750507,8142.265362
1625.165528,1762.019645,6809.894666,6883.915261
1625.165845,2298.286494,5699.585753,6513.812290
1625.166162,2451.505594,4071.132681,5921.647536
1625.166479,2145.067394,1406.391290,6143.709319
1625.166797,1838.629195,-1776.494261,6883.915261
1625.167114,2221.676944,-4515.256246,8068.244768
1625.167431,1608.800546,-6217.729913,9474.636058
1625.167748,1302.362347,-7105.977043,11251.130318
1625.168066,0.000000,-4737.318029,10510.924376
1625.168383,0.000000,-3478.967927,12583.501014
1625.168700,-766.095498,592.164754,10658.965565
1625.169017,0.000000,3182.885551,9992.780217
1625.169335,-459.657299,4959.379811,9104.533087
1625.169652,0.000000,5477.523971,8956.491898
1625.169969,383.047749,5995.668130,8512.368333
1625.170286,766.095498,5033.400406,7772.162391
1625.170604,1378.971896,2590.720797,7550.100608
1625.170921,1685.410096,370.102971,7328.038826
1625.171238,2145.067394,-3552.988522,8512.368333
1625.171555,2374.896044,-4367.215058,8512.368333
1625.171872,1762.019645,-6661.853478,9992.780217
1625.172190,1455.581446,-5921.647536,10510.924376
1625.172507,612.876398,-2960.823768,10510.924376
1625.172824,1225.752797,-1480.411884,11843.295072
1625.173141,-459.657299,1702.473667,9030.512492
1625.173459,536.266849,3627.009116,10288.862594
1625.173776,0.000000,5921.647536,8808.450710
1625.174093,919.314598,5477.523971,9696.697840
1625.174410,1608.800546,5995.668130,8068.244768
1625.174728,1149.143247,4441.235652,7920.203579
1625.175045,1608.800546,2812.782580,7920.203579
1625.175362,1455.581446,-296.082377,7772.162391
1625.175679,1915.238745,-3034.844362,8882.471304
1625.175996,1302.362347,-5477.523971,10807.006753
1625.176314,229.828649,-7105.977043,11621.233289
1625.176631,-536.266849,-5107.421000,11991.336260
1625.176948,459.657299,-3256.906145,13397.727550
1625.177265,0.000000,-888.247130,11917.315666
1625.177583,-766.095498,1258.350101,10288.862594
1625.177900,-153.219100,3552.988522,10288.862594
1625.178217,-383.047749,5181.441594,8808.450710
1625.178534,1302.362347,4737.318029,9474.636058
1625.178852,229.828649,5551.544565,7254.018232
1625.179169,1225.752797,4515.256246,8882.471304
1625.179486,229.828649,3034.844362,7328.038826
1625.179803,1225.752797,-0.000000,8438.347739
1625.180120,1149.143247,-2442.679609,9548.656652
1625.180438,1072.533697,-5625.565159,10881.027347
1625.180755,0.000000,-6439.791695,11843.295072
1625.181072,0.000000,-5773.606348,12361.439231
1625.181389,0.000000,-3849.070898,13175.665768
1625.181707,229.828649,-518.144159,10955.047942
1625.182024,-229.828649,1776.494261,9992.780217
1625.182341,76.609550,4811.338623,8660.409521
1625.182658,383.047749,6217.729913,7254.018232
1625.182976,1225.752797,6365.771101,6661.853478
1625.183293,1225.752797,6513.812290,6883.915261
1625.183610,1072.533697,4367.215058,7031.956449
1625.183927,1072.533697,2146.597232,5699.585753
1625.184245,1072.533697,-814.226536,7624.121203
1625.184562,995.924147,-4515.256246,9252.574275
1625.184879,0.000000,-5551.544565,9770.718434
1625.185196,0.000000,-6291.750507,11325.150913
1625.185513,-842.705048,-5181.441594,12657.521608
1625.185831,-1072.533697,-2664.741391,12657.521608
1625.186148,-1072.533697,-518.144159,11547.212695
1625.186465,-919.314598,2442.679609,9844.739029
1625.186782,0.000000,4589.276840,9030.512492
1625.187100,459.657299,5403.503377,7179.997637
1625.187417,766.095498,5921.647536,6291.750507
1625.187734,1838.629195,4811.338623,6883.915261
1625.188051,2451.505594,2442.679609,5847.626942
1625.188369,2451.505594,-592.164754,6513.812290
1625.188686,2604.724693,-3404.947333,7772.162391
1625.189003,1838.629195,-4959.379811,9474.636058
1625.189320,1608.800546,-6735.874072,10436.903782
1625.189637,1302.362347,-6587.832884,11621.233289
1625.189955,76.609550,-4737.318029,12805.562797
1625.190272,-306.438199,-2368.659014,13545.768739
1625.190589,0.000000,740.205942,11029.068536
1625.190906,1072.533697,2738.761985,10732.986159
1625.191224,1149.143247,4367.215058,8586.388927
1625.191541,1915.238745,4885.359217,8586.388927
1625.191858,1762.019645,5033.400406,7031.956449
1625.192175,3217.601092,3701.029710,7476.080014
1625.192493,3294.210641,1776.494261,6069.688724
1625.192810,2987.772442,148.041188,6513.812290
1625.193127,3140.991542,-1628.453072,7328.038826
1625.193444,2681.334243,-3330.926739,8586.388927
1625.193762,1991.848295,-5329.482782,9696.697840
1625.194079,842.705048,-6143.709319,11991.336260
1625.194396,0.000000,-3552.988522,12361.439231
1625.194713,153.219100,-1110.308913,12435.459826
1625.195030,0.000000,1924.535449,10881.027347
1625.195348,842.705048,3997.112087,11251.130318
1625.195665,536.266849,6513.812290,8068.244768
1625.195982,1072.533697,6291.750507,8068.244768
1625.196299,1225.752797,6809.894666,6439.791695
1625.196617,1378.971896,4145.153275,7031.956449
1625.196934,919.314598,2146.597232,6143.709319
1625.197251,842.705048,-814.226536,7105.977043
1625.197568,612.876398,-3923.091493,9326.594869
1625.197886,383.047749,-6439.791695,10214.842000
1625.198203,153.219100,-7624.121203,12139.377449
1625.198520,229.828649,-6217.729913,11917.315666
1625.198837,0.000000,-3923.091493,12361.439231
1625.199154,-459.657299,-1036.288319,11325.150913
1625.199472,-306.438199,2072.576638,10955.047942
1625.199789,-153.219100,5255.462188,9474.636058
1625.200106,-306.438199,7105.977043,8364.327145
1625.200423,0.000000,7920.203579,7920.203579
1625.200741,0.000000,7179.997637,7550.100608
1625.201058,536.266849,5033.400406,7994.224174
1625.201375,383.047749,1554.432478,8364.327145
1625.201692,459.657299,-1998.556043,9178.553681
1625.202010,76.609550,-5107.421000,10584.944971
1625.202327,383.047749,-6883.915261,11843.295072
1625.202644,383.047749,-7476.080014,12805.562797
1625.202961,-153.219100,-5181.441594,12287.418637
1625.203279,536.266849,-2146.597232,12139.377449
1625.203596,0.000000,1332.370696,9770.718434
1625.203913,766.095498,4071.132681,9918.759623
1625.204230,1302.362347,6883.915261,8512.368333
1625.204548,1685.410096,7105.977043,7402.059420
1625.204865,1532.190996,7402.059420,6735.874072
1625.205182,2068.457845,6217.729913,7105.977043
1625.205499,2221.676944,3775.050304,6661.853478
1625.205817,2145.067394,518.144159,6809.894666
1625.206134,1991.848295,-3108.864956,9400.615463
1625.206451,842.705048,-5699.585753,10510.924376
1625.206768,306.438199,-7624.121203,11991.336260
1625.207086,-612.876398,-7772.162391,13249.686362
1625.207403,-1378.971896,-6143.709319,14434.015869
1625.207720,-1302.362347,-3478.967927,13323.706956
1625.208037,-1302.362347,-74.020594,11251.130318
1625.208355,0.000000,3701.029710,10066.800811
1625.208672,689.485948,5847.626942,8216.285956
1625.208989,2145.067394,6883.915261,6957.935855
1625.209307,3447.429741,6365.771101,5551.544565
1625.209624,2911.162892,4811.338623,5477.523971
1625.209941,2911.162892,1924.535449,5625.565159
1625.210258,2681.334243,-888.247130,7105.977043
1625.210576,2374.896044,-3627.009116,8734.430116
1625.210893,1225.752797,-6883.915261,10807.006753
1625.211210,0.000000,-8216.285956,12361.439231
1625.211527,-919.314598,-7624.121203,13249.686362
1625.211845,-995.924147,-5255.462188,13323.706956
1625.212162,-766.095498,-2220.617826,12657.521608
1625.212479,-995.924147,740.205942,10584.944971
1625.212796,0.000000,3182.885551,8882.471304
1625.213114,306.438199,4885.359217,7402.059420
1625.213431,1149.143247,5403.503377,7402.059420
1625.213748,1455.581446,5255.462188,5847.626942
1625.214065,1762.019645,3775.050304,5699.585753
1625.214383,2298.286494,1628.453072,5921.647536
1625.214700,2068.457845,-1184.329507,7031.956449
1625.215017,2451.505594,-3627.009116,8512.368333
1625.215334,2298.286494,-6069.688724,9622.677246
1625.215652,1608.800546,-6291.750507,10881.027347
1625.215969,1072.533697,-4959.379811,10807.006753
1625.216286,689.485948,-2590.720797,11695.253884
1625.216603,459.657299,-296.082377,10510.924376
1625.216921,689.485948,1924.535449,9548.656652
1625.217238,306.438199,4293.194464,9104.533087
1625.217555,536.266849,5625.565159,7994.224174
1625.217873,766.095498,6587.832884,7105.977043
1625.218190,1149.143247,6143.709319,6439.791695
1625.218507,1762.019645,3997.112087,7254.018232
1625.218824,1685.410096,1924.535449,7179.997637
1625.219142,2374.896044,-1036.288319,7846.182985
1625.219459,2145.067394,-3701.029710,9548.656652
1625.219776,2221.676944,-5329.482782,11769.274478
1625.220093,1991.848295,-4885.359217,11843.295072
1625.220411,1302.362347,-2738.761985,12361.439231
1625.220728,1302.362347,-1258.350101,12213.398043
1625.221045,76.609550,1554.432478,10584.944971
1625.221362,0.000000,3849.070898,10066.800811
1625.221680,-229.828649,5773.606348,8586.388927
1625.221997,-229.828649,6069.688724,8068.244768
1625.222314,-612.876398,5773.606348,7698.141797
1625.222631,-766.095498,4515.256246,7846.182985
1625.222949,-536.266849,1998.556043,8290.306550
1625.223266,-459.657299,-444.123565,8216.285956
1625.223583,-229.828649,-3330.926739,10436.903782
1625.223900,-306.438199,-5255.462188,11103.089130
1625.224218,-459.657299,-6365.771101,12509.480420
1625.224535,-1072.533697,-5625.565159,12879.583391
1625.224852,-766.095498,-3256.906145,13767.830521
1625.225170,-612.876398,-0.000000,11917.315666
1625.225487,-612.876398,2738.761985,10658.965565
1625.225804,0.000000,5699.585753,9548.656652
1625.226121,76.609550,7179.997637,8290.306550
1625.226439,612.876398,7624.121203,7328.038826
1625.226756,1532.190996,7105.977043,7328.038826
1625.227073,1225.752797,5625.565159,6513.812290
1625.227390,1149.143247,2590.720797,5995.668130
1625.227708,1072.533697,-1184.329507,7624.121203
1625.228025,689.485948,-4663.297435,9918.759623
1625.228342,-229.828649,-7254.018232,11177.109724
1625.228659,-842.705048,-8364.327145,13027.624579
1625.228977,-1608.800546,-7254.018232,14211.954086
1625.229294,-1608.800546,-4219.173869,14285.974681
1625.229611,-1149.143247,-1184.329507,12731.542202
1625.229928,-383.047749,2368.659014,11473.192101
1625.230246,383.047749,5477.523971,9400.615463
1625.230563,2145.067394,7550.100608,7105.977043
1625.230880,2681.334243,7476.080014,5847.626942
1625.231197,3524.039291,6291.750507,6513.812290
1625.231515,3830.477490,3478.967927,6365.771101
1625.231832,3370.820191,-0.000000,6143.709319
1625.232149,3064.381992,-3701.029710,7846.182985
1625.232467,2757.943793,-6587.832884,10436.903782
1625.232784,1838.629195,-8216.285956,11325.150913
1625.233101,1225.752797,-8512.368333,12731.542202
1625.233418,459.657299,-5995.668130,12879.583391
1625.233736,766.095498,-2960.823768,12657.521608
1625.234053,76.609550,-370.102971,10584.944971
1625.234370,919.314598,1924.535449,9400.615463
1625.234687,1532.190996,4515.256246,7920.203579
1625.235005,1838.629195,5995.668130,6439.791695
1625.235322,2451.505594,6217.729913,6069.688724
1625.235639,2604.724693,5181.441594,6069.688724
1625.235956,3294.210641,2886.803174,6809.894666
1625.236274,2757.943793,-0.000000,6587.832884
1625.236591,2221.676944,-3034.844362,8586.388927
1625.236908,1225.752797,-5255.462188,9548.656652
1625.237225,919.314598,-6513.812290,9992.780217
1625.237543,612.876398,-6069.688724,10732.986159
1625.237860,-306.438199,-4515.256246,11399.171507
1625.238177,153.219100,-2368.659014,11399.171507
1625.238494,-612.876398,1406.391290,8068.244768
1625.238812,153.219100,3701.029710,8734.430116
1625.239129,0.000000,5551.544565,7402.059420
1625.239446,689.485948,5625.565159,7402.059420
1625.239764,0.000000,4959.379811,5773.606348
1625.240081,306.438199,4589.276840,7031.956449
1625.240398,459.657299,2738.761985,6735.874072
1625.240715,536.266849,-222.061783,7105.977043
1625.241033,1455.581446,-2960.823768,9474.636058
1625.241350,306.438199,-4811.338623,10732.986159
1625.241667,459.657299,-5773.606348,11473.192101
1625.241984,-306.438199,-4885.359217,11547.212695
1625.242302,-766.095498,-3330.926739,13101.645173
1625.242619,-1378.971896,-444.123565,11621.233289
1625.242936,-1302.362347,2146.597232,10140.821405
1625.243253,-1072.533697,4293.194464,9474.636058
1625.243571,-919.314598,5847.626942,8808.450710
1625.243888,306.438199,6217.729913,7698.141797
1625.244205,-536.266849,5551.544565,7105.977043
1625.244522,-306.438199,3330.926739,7698.141797
1625.244840,-229.828649,518.144159,7994.224174
1625.245157,536.266849,-2368.659014,9474.636058
1625.245474,1225.752797,-3849.070898,10955.047942
1625.245791,842.705048,-4811.338623,12065.356855
1625.246109,0.000000,-5329.482782,12065.356855
1625.246426,536.266849,-3330.926739,13101.645173
1625.246743,459.657299,-444.123565,12805.562797
1625.247060,0.000000,2220.617826,10658.965565
1625.247378,229.828649,4737.318029,9696.697840
1625.247695,153.219100,6735.874072,9030.512492
1625.248012,919.314598,6957.935855,8660.409521
1625.248330,1072.533697,6143.709319,7476.080014
1625.248647,1455.581446,4737.318029,7772.162391
1625.248964,1762.019645,2664.741391,7624.121203
1625.249281,2145.067394,-814.226536,8216.285956
1625.249599,1608.800546,-2960.823768,8808.450710
1625.249916,1915.238745,-4885.359217,10955.047942
1625.250233,1302.362347,-6069.688724,11843.295072
1625.250550,383.047749,-5625.565159,12435.459826
1625.250868,995.924147,-3404.947333,13545.768739
1625.251185,919.314598,-518.144159,12435.459826
1625.251502,689.485948,2368.659014,10955.047942
1625.251819,1608.800546,4515.256246,9844.739029
1625.252137,1685.410096,6217.729913,8660.409521
1625.252454,2681.334243,6439.791695,7402.059420
1625.252771,2757.943793,6143.709319,6661.853478
1625.253088,2834.553343,4959.379811,6883.915261
1625.253406,2757.943793,1998.556043,6883.915261
1625.253723,1608.800546,-1406.391290,7550.100608
1625.254040,1149.143247,-4959.379811,9770.718434
1625.254357,0.000000,-6661.853478,11177.109724
1625.254675,-536.266849,-7846.182985,12139.377449
1625.254992,-1149.143247,-7105.977043,12953.603985
1625.255309,-995.924147,-4663.297435,13545.768739
1625.255627,-842.705048,-1332.370696,11991.336260
1625.255944,0.000000,1554.432478,9252.574275
1625.256261,306.438199,4367.215058,8660.409521
1625.256578,1072.533697,6291.750507,6883.915261
1625.256896,1455.581446,6809.894666,5995.668130
1625.257213,1378.971896,6809.894666,4811.338623
1625.257530,1991.848295,4219.173869,6069.688724
1625.257847,1378.971896,1258.350101,6661.853478
1625.258165,1762.019645,-2294.638420,7550.100608
1625.258482,1762.019645,-4737.318029,8808.450710
1625.258799,995.924147,-6439.791695,10658.965565
1625.259116,459.657299,-7476.080014,11547.212695
1625.259434,76.609550,-5625.565159,11251.130318
1625.259751,919.314598,-2886.803174,11843.295072
1625.260068,0.000000,-74.020594,9696.697840
1625.260385,1149.143247,2442.679609,9030.512492
1625.260703,1302.362347,5255.462188,7772.162391
1625.261020,2145.067394,6439.791695,6809.894666
1625.261337,2528.115143,6439.791695,5995.668130
1625.261654,1991.848295,5329.482782,5625.565159
1625.261972,2451.505594,3256.906145,6069.688724
1625.262289,1608.800546,814.226536,6439.791695
1625.262606,1685.410096,-2072.576638,7994.224174
1625.262924,842.705048,-4515.256246,9992.780217
1625.263241,153.219100,-6587.832884,11991.336260
1625.263558,-459.657299,-7105.977043,13101.645173
1625.263875,-919.314598,-5625.565159,14211.954086
1625.264193,-1149.143247,-3256.906145,13693.809927
1625.264510,-842.705048,-444.123565,12287.418637
1625.264827,-383.047749,2220.617826,10955.047942
1625.265144,306.438199,4515.256246,9548.656652
1625.265462,1149.143247,5847.626942,8068.244768
1625.265779,1378.971896,6291.750507,6661.853478
1625.266096,1915.238745,5625.565159,6069.688724
1625.266413,2068.457845,3108.864956,5995.668130
1625.266731,1685.410096,222.061783,6735.874072
1625.267048,1455.581446,-2294.638420,8586.388927
1625.267365,689.485948,-4811.338623,10658.965565
1625.267682,-153.219100,-6883.915261,12509.480420
1625.268000,-612.876398,-5995.668130,14211.954086
1625.268317,-1072.533697,-3552.988522,14434.015869
1625.268634,-1302.362347,-666.185348,13545.768739
1625.268951,-995.924147,2072.576638,11917.315666
1625.269269,0.000000,4367.215058,10288.862594
1625.269586,306.438199,6957.935855,8586.388927
1625.269903,1225.752797,8142.265362,6883.915261
1625.270221,1532.190996,7254.018232,6365.771101
1625.270538,2374.896044,5625.565159,6217.729913
1625.270855,1455.581446,3108.864956,6513.812290
1625.271172,1762.019645,-0.000000,7402.059420
1625.271490,1762.019645,-2368.659014,8512.368333
1625.271807,1149.143247,-4737.318029,9992.780217
1625.272124,995.924147,-5847.626942,12139.377449
1625.272441,0.000000,-4811.338623,12435.459826
1625.272759,76.609550,-3404.947333,12805.562797
1625.273076,-459.657299,-444.123565,11917.315666
1625.273393,-459.657299,2516.700203,10955.047942
1625.273710,229.828649,5329.482782,9326.594869
1625.274028,306.438199,7254.018232,8068.244768
1625.274345,995.924147,7105.977043,7402.059420
1625.274662,766.095498,6365.771101,6661.853478
1625.274979,995.924147,4145.153275,7031.956449
1625.275297,1378.971896,1036.288319,7031.956449
1625.275614,1072.533697,-3034.844362,8586.388927
1625.275931,995.924147,-6217.729913,10436.903782
1625.276248,459.657299,-7846.182985,11251.130318
1625.276566,383.047749,-8216.285956,12509.480420
1625.276883,76.609550,-6291.750507,12583.501014
1625.277200,459.657299,-2812.782580,12805.562797
1625.277517,76.609550,592.164754,10436.903782
1625.277835,383.047749,2886.803174,8956.491898
1625.278152,766.095498,5551.544565,8216.285956
1625.278469,536.266849,6809.894666,6883.915261
1625.278787,1532.190996,7105.977043,6217.729913
1625.279104,1762.019645,6365.771101,5477.523971
1625.279421,2298.286494,2664.741391,7031.956449
1625.279738,1608.800546,-740.205942,7476.080014
1625.280056,1302.362347,-4367.215058,8882.471304
1625.280373,1149.143247,-6513.812290,10362.883188
1625.280690,612.876398,-7476.080014,11917.315666
1625.281007,229.828649,-7402.059420,12361.439231
1625.281325,153.219100,-4959.379811,12065.356855
1625.281642,306.438199,-1850.514855,11621.233289
1625.281959,229.828649,1184.329507,9030.512492
1625.282276,1225.752797,3775.050304,8586.388927
1625.282594,1991.848295,6291.750507,7179.997637
1625.282911,2528.115143,6957.935855,6069.688724
1625.283228,2298.286494,6587.832884,5181.441594
1625.283545,2145.067394,4737.318029,6069.688724
1625.283863,2221.676944,2442.679609,6661.853478
1625.284180,1838.629195,-370.102971,7328.038826
1625.284497,1838.629195,-3478.967927,9548.656652
1625.284814,76.609550,-6217.729913,11325.150913
1625.285132,76.609550,-7550.100608,13249.686362
1625.285449,-383.047749,-7031.956449,13175.665768
1625.285766,-536.266849,-5255.462188,13693.809927
1625.286084,-536.266849,-1998.556043,12139.377449
1625.286401,0.000000,1406.391290,9918.759623
1625.286718,459.657299,4219.173869,8290.306550
1625.287035,1915.238745,5403.503377,7698.141797
1625.287353,1455.581446,5921.647536,7105.977043
1625.287670,995.924147,6143.709319,5995.668130
1625.287987,1072.533697,3997.112087,7031.956449
1625.288304,689.485948,1628.453072,7476.080014
1625.288622,995.924147,-1628.453072,9622.677246
1625.288939,229.828649,-3627.009116,11103.089130
1625.289256,306.438199,-5847.626942,12879.583391
1625.289573,153.219100,-6809.894666,13471.748144
1625.289891,383.047749,-5107.421000,13619.789333
1625.290208,612.876398,-2368.659014,13175.665768
1625.290525,536.266849,-0.000000,11547.212695
1625.290842,1225.752797,2590.720797,9326.594869
1625.291160,1302.362347,4885.359217,7920.203579
1625.291477,2145.067394,6661.853478,6883.915261
1625.291794,2681.334243,6883.915261,5255.462188
1625.292111,2604.724693,6143.709319,4959.379811
1625.292429,2528.115143,4663.297435,5107.421000
1625.292746,2451.505594,1702.473667,5921.647536
1625.293063,2451.505594,-592.164754,6735.874072
1625.293381,2068.457845,-3775.050304,9178.553681
1625.293698,306.438199,-6291.750507,11917.315666
1625.294015,-842.705048,-6809.894666,13323.706956
1625.294332,-1762.019645,-4737.318029,13841.851115
1625.294650,-2374.896044,-1924.535449,14285.974681
1625.294967,-2145.067394,592.164754,13545.768739
1625.295284,-2451.505594,3552.988522,11399.171507
1625.295601,-995.924147,5921.647536,9918.759623
1625.295919,-766.095498,7105.977043,7624.121203
1625.296236,-153.219100,6661.853478,6587.832884
1625.296553,1225.752797,5625.565159,6069.688724
1625.296870,1608.800546,3849.070898,5403.503377
1625.297188,2145.067394,-0.000000,6513.812290
1625.297505,1685.410096,-3256.906145,7624.121203
1625.297822,1455.581446,-6069.688724,9844.739029
1625.298139,766.095498,-7254.018232,11621.233289
1625.298457,-689.485948,-6809.894666,12287.418637
1625.298774,-919.314598,-4589.276840,13101.645173
1625.299091,-1532.190996,-1776.494261,12435.459826
1625.299408,-1378.971896,1036.288319,11029.068536
1625.299726,-612.876398,2812.782580,10362.883188
1625.300043,-612.876398,5255.462188,9252.574275
1625.300360,612.876398,6069.688724,7550.100608
1625.300678,842.705048,6513.812290,6365.771101
1625.300995,1915.238745,5107.421000,6957.935855
1625.301312,2145.067394,2738.761985,6587.832884
1625.301629,1838.629195,-444.123565,7031.956449
1625.301947,2604.724693,-3256.906145,9104.533087
1625.302264,2451.505594,-5847.626942,10584.944971
1625.302581,2068.457845,-7328.038826,11621.233289
1625.302899,1455.581446,-5921.647536,11991.336260
1625.303216,1762.019645,-3552.988522,12287.418637
1625.303533,1838.629195,-1258.350101,11621.233289
1625.303851,1455.581446,1258.350101,9770.718434
1625.304168,2068.457845,4663.297435,9178.553681
1625.304485,1991.848295,6809.894666,7328.038826
1625.304803,2528.115143,7105.977043,6513.812290
1625.305120,2374.896044,6291.750507,6217.729913
1625.305437,1685.410096,4145.153275,6365.771101
1625.305754,1302.362347,1480.411884,6587.832884
1625.306072,842.705048,-2368.659014,8586.388927
1625.306389,459.657299,-5551.544565,10881.027347
1625.306706,0.000000,-7772.162391,12879.583391
1625.307024,-229.828649,-8290.306550,14137.933492
1625.307341,-153.219100,-6439.791695,14285.974681
1625.307658,0.000000,-3849.070898,13323.706956
1625.307976,536.266849,-0.000000,10881.027347
1625.308293,919.314598,3108.864956,8364.327145
1625.308610,1608.800546,6291.750507,6439.791695
1625.308928,1915.238745,7105.977043,5107.421000
1625.309245,1455.581446,7328.038826,4589.276840
1625.309562,1685.410096,5699.585753,5847.626942
1625.309880,229.828649,3775.050304,5773.606348
1625.310197,153.219100,-0.000000,7105.977043
1625.310514,0.000000,-3701.029710,10510.924376
1625.310832,-536.266849,-6217.729913,11843.295072
1625.311149,-383.047749,-7105.977043,13323.706956
1625.311466,-536.266849,-6957.935855,13397.727550
1625.311783,153.219100,-4441.235652,13471.748144
1625.312101,229.828649,-1332.370696,12213.398043
1625.312418,153.219100,1702.473667,9326.594869
1625.312735,536.266849,4811.338623,7772.162391
1625.313053,1378.971896,7402.059420,6809.894666
1625.313370,1302.362347,7994.224174,5551.544565
