#time,accel_x,accel_y,accel_z
1884.545643,2834.553343,3552.988522,12583.501014
1884.545961,2604.724693,2886.803174,13027.624579
1884.546278,1915.238745,2368.659014,13249.686362
1884.546596,995.924147,2294.638420,13915.871710
1884.546913,0.000000,2442.679609,14434.015869
1884.547231,-153.219100,2812.782580,14952.160028
1884.547548,-689.485948,2590.720797,14359.995275
1884.547866,-153.219100,2590.720797,13915.871710
1884.548183,306.438199,2072.576638,13323.706956
1884.548501,919.314598,1184.329507,11843.295072
1884.548818,1378.971896,148.041188,11473.192101
1884.549136,1378.971896,-444.123565,11251.130318
1884.549454,1455.581446,-740.205942,10362.883188
1884.549771,459.657299,-592.164754,10288.862594
1884.550089,0.000000,-222.061783,10288.862594
1884.550406,-1225.752797,370.102971,10066.800811
1884.550724,-2451.505594,444.123565,9696.697840
1884.551041,-2528.115143,888.247130,9918.759623
1884.551359,-2757.943793,-0.000000,9548.656652
1884.551676,-2068.457845,-888.247130,9622.677246
1884.551994,-1608.800546,-1406.391290,9030.512492
1884.552311,-1149.143247,-1998.556043,8660.409521
1884.552629,-459.657299,-1554.432478,8512.368333
1884.552946,-536.266849,-740.205942,7994.224174
1884.553264,-383.047749,-74.020594,7254.018232
1884.553581,-383.047749,296.082377,7402.059420
1884.553899,-536.266849,222.061783,7328.038826
1884.554217,-766.095498,-0.000000,7179.997637
1884.554534,76.609550,-222.061783,6661.853478
1884.554852,459.657299,-740.205942,6513.812290
1884.555169,1302.362347,-1554.432478,5995.668130
1884.555487,1608.800546,-1998.556043,5699.585753
1884.555804,2528.115143,-1998.556043,5033.400406
1884.556122,2911.162892,-2146.597232,5181.441594
1884.556439,2834.553343,-1924.535449,5033.400406
1884.556757,2374.896044,-1776.494261,5551.544565
1884.557074,1685.410096,-2220.617826,5847.626942
1884.557392,536.266849,-2516.700203,6661.853478
1884.557709,-306.438199,-2590.720797,6957.935855
1884.558027,-536.266849,-2368.659014,7105.977043
1884.558345,-842.705048,-2368.659014,7105.977043
1884.558662,-1225.752797,-1850.514855,7328.038826
1884.558980,-1608.800546,-1776.494261,7254.018232
1884.559297,-2374.896044,-1406.391290,7476.080014
1884.559615,-3140.991542,-888.247130,8142.265362
1884.559932,-3753.867940,-444.123565,7920.203579
1884.560250,-4903.011187,444.123565,8808.450710
1884.560567,-5439.278036,1258.350101,8882.471304
1884.560885,-6052.154434,1924.535449,9548.656652
1884.561202,-6588.421283,2220.617826,9474.636058
1884.561520,-6511.811733,2664.741391,9474.636058
1884.561837,-6511.811733,3256.906145,9326.594869
1884.562155,-6435.202183,3923.091493,8808.450710
1884.562472,-6128.763984,4293.194464,8734.430116
1884.562790,-5745.716235,5033.400406,8734.430116
1884.563108,-5745.716235,5403.503377,8586.388927
1884.563425,-5209.449386,6217.729913,8734.430116
1884.563743,-5209.449386,6513.812290,8808.450710
1884.564060,-5056.230287,7031.956449,9400.615463
1884.564378,-4673.182538,6365.771101,10140.821405
1884.564695,-4213.525239,6587.832884,10955.047942
1884.565013,-3064.381992,6809.894666,11547.212695
1884.565330,-1915.238745,7328.038826,11177.109724
1884.565648,-306.438199,7772.162391,10807.006753
1884.565965,1532.190996,8068.244768,10140.821405
1884.566283,2681.334243,7698.141797,9252.574275
1884.566600,3753.867940,8512.368333,8142.265362
1884.566918,3983.696590,8586.388927,7624.121203
1884.567235,3370.820191,7846.182985,7994.224174
1884.567553,1838.629195,7328.038826,8512.368333
1884.567871,153.219100,6365.771101,9770.718434
1884.568188,-1915.238745,5551.544565,10658.965565
1884.568506,-3983.696590,4737.318029,11843.295072
1884.568823,-5056.230287,4145.153275,13471.748144
1884.569141,-5286.058936,3849.070898,14211.954086
1884.569458,-5515.887586,4219.173869,14285.974681
1884.569776,-5056.230287,3997.112087,14730.098246
1884.570093,-4519.963438,4663.297435,14804.118840
1884.570411,-3677.258390,4959.379811,14582.057057
1884.570728,-2068.457845,5329.482782,14508.036463
1884.571046,-1072.533697,5477.523971,13545.768739
1884.571363,229.828649,5847.626942,12805.562797
1884.571681,1378.971896,5995.668130,12435.459826
1884.571998,3140.991542,5403.503377,11769.274478
1884.572316,4136.915689,4367.215058,10955.047942
1884.572634,3830.477490,3997.112087,9252.574275
1884.572951,4903.011187,2738.761985,9622.677246
1884.573269,4903.011187,2960.823768,8290.306550
1884.573586,5286.058936,1332.370696,8808.450710
1884.573904,4596.572988,444.123565,9178.553681
1884.574221,3064.381992,-0.000000,9918.759623
1884.574539,1915.238745,-1110.308913,10436.903782
1884.574856,306.438199,-2072.576638,11103.089130
1884.575174,0.000000,-2516.700203,12509.480420
1884.575491,76.609550,-2368.659014,11917.315666
1884.575809,919.314598,-1850.514855,10732.986159
1884.576126,2068.457845,-1850.514855,9992.780217
1884.576444,3370.820191,-2220.617826,9770.718434
1884.576762,3753.867940,-2368.659014,8438.347739
1884.577079,3600.648841,-2960.823768,8290.306550
1884.577397,2834.553343,-3330.926739,8660.409521
1884.577714,2374.896044,-3775.050304,9178.553681
1884.578032,1838.629195,-3552.988522,8808.450710
1884.578349,1532.190996,-3478.967927,8882.471304
1884.578667,1762.019645,-3330.926739,8438.347739
1884.578984,1532.190996,-3108.864956,7179.997637
1884.579302,1072.533697,-3923.091493,6809.894666
1884.579619,536.266849,-5181.441594,7550.100608
1884.579937,0.000000,-6513.812290,7254.018232
1884.580254,-229.828649,-7031.956449,7179.997637
1884.580572,-459.657299,-6883.915261,7550.100608
1884.580889,0.000000,-6217.729913,7328.038826
1884.581207,0.000000,-5477.523971,7328.038826
1884.581525,459.657299,-4663.297435,7328.038826
1884.581842,459.657299,-3923.091493,7031.956449
1884.582160,459.657299,-3108.864956,6735.874072
1884.582477,612.876398,-2664.741391,6439.791695
1884.582795,919.314598,-2664.741391,6217.729913
1884.583112,1378.971896,-2220.617826,5477.523971
1884.583430,1149.143247,-1924.535449,5773.606348
1884.583747,1532.190996,-2072.576638,6587.832884
1884.584065,1838.629195,-1998.556043,6587.832884
1884.584382,1838.629195,-1258.350101,6365.771101
1884.584700,1685.410096,-370.102971,5921.647536
1884.585017,1532.190996,370.102971,5403.503377
1884.585335,1455.581446,814.226536,4811.338623
1884.585652,1225.752797,1480.411884,4885.359217
1884.585970,1455.581446,1554.432478,5181.441594
1884.586288,1302.362347,1628.453072,5847.626942
1884.586605,1302.362347,1628.453072,7105.977043
1884.586923,995.924147,2146.597232,8216.285956
1884.587240,612.876398,2294.638420,8734.430116
1884.587558,459.657299,2960.823768,9548.656652
1884.587875,306.438199,3997.112087,9844.739029
1884.588193,459.657299,5181.441594,9696.697840
1884.588510,766.095498,5107.421000,9622.677246
1884.588828,1149.143247,5477.523971,9770.718434
1884.589145,1072.533697,5625.565159,9696.697840
1884.589463,153.219100,5255.462188,9992.780217
1884.589780,-689.485948,4811.338623,10955.047942
1884.590098,-1378.971896,3997.112087,11843.295072
1884.590415,-2068.457845,3478.967927,12805.562797
1884.590733,-2451.505594,3627.009116,13619.789333
1884.591050,-2451.505594,2812.782580,13545.768739
1884.591368,-2451.505594,2738.761985,13175.665768
1884.591685,-1762.019645,2738.761985,13175.665768
1884.592003,-2068.457845,2812.782580,13471.748144
1884.592320,-2298.286494,2368.659014,13397.727550
1884.592638,-2681.334243,2368.659014,14063.912898
1884.592955,-2757.943793,2738.761985,13989.892304
1884.593273,-3064.381992,3330.926739,14211.954086
1884.593591,-1838.629195,4071.132681,13915.871710
1884.593908,-1302.362347,4737.318029,13027.624579
1884.594226,-306.438199,4811.338623,12805.562797
1884.594543,76.609550,5033.400406,11843.295072
1884.594861,766.095498,4589.276840,11547.212695
1884.595178,612.876398,3256.906145,11769.274478
1884.595496,383.047749,2886.803174,11473.192101
1884.595813,0.000000,2442.679609,11843.295072
1884.596131,153.219100,2146.597232,12361.439231
1884.596448,383.047749,2368.659014,12361.439231
1884.596766,612.876398,2368.659014,12287.418637
1884.597083,1072.533697,2368.659014,11917.315666
1884.597401,1455.581446,1702.473667,10955.047942
1884.597718,1685.410096,1258.350101,11029.068536
1884.598036,2221.676944,814.226536,9770.718434
1884.598353,2681.334243,1036.288319,9252.574275
1884.598671,3447.429741,1036.288319,8734.430116
1884.598988,3983.696590,1184.329507,8512.368333
1884.599306,4826.401637,740.205942,8142.265362
1884.599623,4290.134789,814.226536,7920.203579
1884.599941,4290.134789,-222.061783,7476.080014
1884.600258,3600.648841,-1332.370696,7105.977043
1884.600576,3217.601092,-2886.803174,7476.080014
1884.600894,2681.334243,-4293.194464,7994.224174
1884.601211,2528.115143,-5181.441594,7698.141797
1884.601529,2451.505594,-5255.462188,7624.121203
1884.601846,1838.629195,-5033.400406,8216.285956
1884.602164,1685.410096,-4737.318029,7772.162391
1884.602481,1532.190996,-4515.256246,8586.388927
1884.602799,995.924147,-4737.318029,7846.182985
1884.603116,229.828649,-4885.359217,7698.141797
1884.603434,0.000000,-5107.421000,7994.224174
1884.603751,459.657299,-4885.359217,7550.100608
1884.604069,459.657299,-4071.132681,7105.977043
1884.604386,842.705048,-3849.070898,6661.853478
1884.604704,689.485948,-3552.988522,6217.729913
1884.605021,536.266849,-3627.009116,6143.709319
1884.605339,459.657299,-3552.988522,6365.771101
1884.605656,-229.828649,-3627.009116,7031.956449
1884.605974,-612.876398,-3404.947333,6883.915261
1884.606291,-689.485948,-2960.823768,6883.915261
1884.606609,-1072.533697,-2960.823768,7031.956449
1884.606926,-766.095498,-3182.885551,7105.977043
1884.607244,-536.266849,-2516.700203,6883.915261
1884.607561,-306.438199,-1924.535449,7476.080014
1884.607879,-229.828649,-1924.535449,7698.141797
1884.608196,383.047749,-2146.597232,7846.182985
1884.608514,229.828649,-1480.411884,8142.265362
1884.608832,842.705048,-962.267725,8142.265362
1884.609149,1685.410096,-370.102971,7550.100608
1884.609467,2604.724693,518.144159,7254.018232
1884.609784,3217.601092,1258.350101,7402.059420
1884.610102,3294.210641,1332.370696,7328.038826
1884.610419,2911.162892,1258.350101,7994.224174
1884.610737,2604.724693,666.185348,8660.409521
1884.611054,1685.410096,666.185348,9400.615463
1884.611372,1762.019645,148.041188,9770.718434
1884.611689,1149.143247,814.226536,10288.862594
1884.612007,1608.800546,1480.411884,10584.944971
1884.612324,1915.238745,1702.473667,11029.068536
1884.612642,2528.115143,1776.494261,11325.150913
1884.612959,1915.238745,1628.453072,11843.295072
1884.613277,1225.752797,1998.556043,11917.315666
1884.613594,1378.971896,2146.597232,12065.356855
1884.613912,1532.190996,2368.659014,12139.377449
1884.614229,1915.238745,2664.741391,12139.377449
1884.614547,1991.848295,3256.906145,12361.439231
1884.614864,2068.457845,3478.967927,12065.356855
1884.615182,1915.238745,3552.988522,11547.212695
1884.615499,1762.019645,3404.947333,11695.253884
1884.615817,919.314598,2960.823768,11843.295072
1884.616134,459.657299,2516.700203,11843.295072
1884.616452,-153.219100,1998.556043,12065.356855
1884.616770,-995.924147,1924.535449,12139.377449
1884.617087,-1378.971896,1776.494261,12361.439231
1884.617405,-1225.752797,1480.411884,12583.501014
1884.617722,-1762.019645,1480.411884,12879.583391
1884.618040,-2145.067394,1628.453072,12287.418637
1884.618357,-2145.067394,1406.391290,11917.315666
1884.618675,-2145.067394,1036.288319,11621.233289
1884.618992,-1915.238745,1184.329507,11695.253884
1884.619310,-1532.190996,1036.288319,10436.903782
1884.619627,-919.314598,1332.370696,9548.656652
1884.619945,-536.266849,1258.350101,9770.718434
1884.620262,229.828649,1628.453072,10807.006753
1884.620580,306.438199,962.267725,9696.697840
1884.620897,-153.219100,370.102971,9104.533087
1884.621215,229.828649,444.123565,9326.594869
1884.621532,689.485948,296.082377,8808.450710
1884.621850,1455.581446,-444.123565,8660.409521
1884.622167,1225.752797,-666.185348,8660.409521
1884.622485,1685.410096,-592.164754,8438.347739
1884.622802,2145.067394,-592.164754,7772.162391
1884.623120,2528.115143,-1110.308913,8142.265362
1884.623437,2681.334243,-1554.432478,8216.285956
1884.623755,2681.334243,-1850.514855,8290.306550
1884.624073,2681.334243,-1924.535449,7772.162391
1884.624390,2681.334243,-2294.638420,8068.244768
1884.624708,2834.553343,-2590.720797,7920.203579
1884.625025,3294.210641,-2812.782580,7772.162391
1884.625343,3064.381992,-2516.700203,7179.997637
1884.625660,3600.648841,-2590.720797,7105.977043
1884.625978,3524.039291,-2738.761985,7031.956449
1884.626295,3370.820191,-2960.823768,7328.038826
1884.626613,2451.505594,-3923.091493,7476.080014
1884.626930,2221.676944,-3997.112087,7254.018232
1884.627248,1915.238745,-4515.256246,7179.997637
1884.627565,1915.238745,-4071.132681,7624.121203
1884.627883,1915.238745,-3849.070898,7550.100608
1884.628200,1685.410096,-3552.988522,7624.121203
1884.628518,1532.190996,-3108.864956,7624.121203
1884.628835,1532.190996,-3034.844362,7772.162391
1884.629153,1225.752797,-2960.823768,7476.080014
1884.629470,919.314598,-2664.741391,7698.141797
1884.629788,536.266849,-2072.576638,7920.203579
1884.630105,536.266849,-1332.370696,7624.121203
1884.630423,536.266849,-1258.350101,8068.244768
1884.630740,536.266849,-740.205942,7772.162391
1884.631058,459.657299,-518.144159,8290.306550
1884.631375,153.219100,-148.041188,8216.285956
1884.631693,-306.438199,-0.000000,8586.388927
1884.632011,-536.266849,296.082377,8660.409521
1884.632328,-536.266849,-0.000000,9326.594869
1884.632646,-612.876398,-148.041188,9548.656652
1884.632963,-306.438199,814.226536,9696.697840
1884.633281,0.000000,1554.432478,9474.636058
1884.633598,306.438199,1702.473667,9400.615463
1884.633916,612.876398,1554.432478,9918.759623
1884.634233,536.266849,1554.432478,9770.718434
1884.634551,459.657299,1702.473667,9992.780217
1884.634868,76.609550,1554.432478,10066.800811
1884.635186,383.047749,1850.514855,10288.862594
1884.635503,689.485948,2294.638420,10288.862594
1884.635821,842.705048,2368.659014,10807.006753
1884.636138,1378.971896,2368.659014,10658.965565
1884.636456,1149.143247,2294.638420,11103.089130
1884.636773,1302.362347,1850.514855,11399.171507
1884.637091,919.314598,1628.453072,11547.212695
1884.637408,612.876398,1850.514855,11621.233289
1884.637726,995.924147,2368.659014,11695.253884
1884.638043,1149.143247,2516.700203,11547.212695
1884.638361,1608.800546,2960.823768,11473.192101
1884.638678,2068.457845,3478.967927,11473.192101
1884.638996,2298.286494,3404.947333,11103.089130
1884.639313,2221.676944,3034.844362,11177.109724
1884.639631,1991.848295,2442.679609,11177.109724
1884.639949,1532.190996,2516.700203,11325.150913
1884.640266,1685.410096,2368.659014,10807.006753
1884.640584,1072.533697,2368.659014,11029.068536
1884.640901,995.924147,3108.864956,10584.944971
1884.641219,1225.752797,3256.906145,10584.944971
1884.641536,612.876398,3256.906145,10955.047942
1884.641854,229.828649,2516.700203,10807.006753
1884.642171,-306.438199,2220.617826,10584.944971
1884.642489,-995.924147,1776.494261,10807.006753
1884.642806,-1149.143247,1406.391290,10732.986159
1884.643124,-1302.362347,1036.288319,10807.006753
1884.643441,-766.095498,814.226536,10732.986159
1884.643759,-842.705048,814.226536,10288.862594
1884.644076,-766.095498,370.102971,9918.759623
1884.644394,-383.047749,-0.000000,9696.697840
1884.644711,-842.705048,-444.123565,9326.594869
1884.645029,-1302.362347,-370.102971,9104.533087
1884.645346,-1378.971896,-1406.391290,9104.533087
1884.645664,-1455.581446,-1110.308913,8142.265362
1884.645981,-689.485948,-962.267725,8142.265362
1884.646299,-842.705048,-1036.288319,8142.265362
1884.646616,-612.876398,-666.185348,9030.512492
1884.646934,-842.705048,-1184.329507,8364.327145
1884.647252,-1225.752797,-2368.659014,8216.285956
1884.647569,-306.438199,-2146.597232,8216.285956
1884.647887,-995.924147,-2146.597232,8364.327145
1884.648204,-689.485948,-2220.617826,8438.347739
1884.648522,-229.828649,-2368.659014,8438.347739
1884.648839,842.705048,-1850.514855,8438.347739
1884.649157,2374.896044,-1480.411884,8068.244768
1884.649474,2374.896044,-1554.432478,8142.265362
1884.649792,3217.601092,-1628.453072,7698.141797
1884.650109,3217.601092,-1184.329507,7031.956449
1884.650427,3524.039291,-888.247130,6291.750507
1884.650744,4136.915689,-370.102971,6439.791695
1884.651062,4060.306139,-296.082377,6217.729913
1884.651379,4060.306139,-296.082377,6439.791695
1884.651697,4213.525239,-0.000000,6365.771101
1884.652014,3830.477490,-666.185348,7031.956449
1884.652332,3217.601092,-814.226536,7105.977043
1884.652649,2528.115143,-962.267725,7476.080014
1884.652967,2068.457845,-888.247130,7994.224174
1884.653284,1685.410096,-1406.391290,8660.409521
1884.653602,2145.067394,-814.226536,9252.574275
1884.653919,1455.581446,-666.185348,9400.615463
1884.654237,1838.629195,-0.000000,9030.512492
1884.654554,1762.019645,148.041188,9030.512492
1884.654872,1838.629195,296.082377,9104.533087
1884.655190,1225.752797,666.185348,9252.574275
1884.655507,919.314598,962.267725,9548.656652
1884.655825,689.485948,1110.308913,9178.553681
1884.656142,0.000000,962.267725,9400.615463
1884.656460,0.000000,1110.308913,9548.656652
1884.656777,-459.657299,1554.432478,10214.842000
1884.657095,-306.438199,1850.514855,9992.780217
1884.657412,-1072.533697,1554.432478,9918.759623
1884.657730,-1532.190996,1702.473667,10510.924376
1884.658047,-1991.848295,1480.411884,11251.130318
1884.658365,-2911.162892,1480.411884,11621.233289
1884.658682,-3064.381992,1628.453072,11917.315666
1884.659000,-3370.820191,1702.473667,12361.439231
1884.659317,-2681.334243,2220.617826,12139.377449
1884.659635,-1991.848295,2590.720797,12435.459826
1884.659952,-1378.971896,3034.844362,12287.418637
1884.660270,-612.876398,3256.906145,11843.295072
1884.660587,-383.047749,2886.803174,11769.274478
1884.660905,0.000000,2960.823768,11473.192101
1884.661222,229.828649,3182.885551,10955.047942
1884.661540,842.705048,3330.926739,10881.027347
1884.661857,1532.190996,3552.988522,10955.047942
1884.662175,2145.067394,3404.947333,10584.944971
1884.662492,1685.410096,3404.947333,9992.780217
1884.662810,1991.848295,3701.029710,10584.944971
1884.663128,1838.629195,3034.844362,9696.697840
1884.663445,1302.362347,2590.720797,9992.780217
1884.663763,1302.362347,2220.617826,10214.842000
1884.664080,842.705048,1850.514855,10288.862594
1884.664398,1455.581446,1850.514855,10732.986159
1884.664715,1838.629195,1998.556043,10140.821405
1884.665033,1838.629195,2220.617826,10288.862594
1884.665350,2145.067394,2146.597232,10140.821405
1884.665668,1915.238745,2294.638420,10214.842000
1884.665985,1915.238745,1998.556043,9696.697840
1884.666303,1915.238745,1998.556043,9474.636058
1884.666620,1685.410096,2072.576638,8660.409521
1884.666938,1532.190996,1554.432478,8660.409521
1884.667255,1685.410096,1258.350101,8438.347739
1884.667573,1455.581446,814.226536,8216.285956
1884.667890,919.314598,-148.041188,8290.306550
1884.668208,383.047749,-296.082377,8734.430116
1884.668525,-153.219100,-1332.370696,8364.327145
1884.668843,-1225.752797,-1332.370696,8512.368333
1884.669160,-1991.848295,-2368.659014,9030.512492
1884.669478,-2374.896044,-2368.659014,9252.574275
1884.669795,-2374.896044,-2516.700203,9104.533087
1884.670113,-2374.896044,-2294.638420,9252.574275
1884.670431,-1991.848295,-2072.576638,9622.677246
1884.670748,-1378.971896,-1924.535449,9252.574275
1884.671066,-995.924147,-2960.823768,8956.491898
1884.671383,-842.705048,-2516.700203,8586.388927
1884.671701,-919.314598,-3034.844362,8290.306550
1884.672018,-1072.533697,-2442.679609,7920.203579
1884.672336,-153.219100,-2294.638420,7920.203579
1884.672653,459.657299,-1998.556043,7476.080014
1884.672971,919.314598,-2072.576638,7031.956449
1884.673288,919.314598,-2146.597232,7550.100608
1884.673606,1225.752797,-2516.700203,7698.141797
1884.673923,1302.362347,-3034.844362,7772.162391
1884.674241,1149.143247,-2812.782580,7624.121203
1884.674558,2221.676944,-2368.659014,8216.285956
1884.674876,2374.896044,-2368.659014,8364.327145
1884.675193,3217.601092,-1554.432478,7994.224174
1884.675511,2911.162892,-888.247130,7698.141797
1884.675828,3217.601092,-370.102971,8142.265362
1884.676146,3447.429741,-296.082377,7920.203579
1884.676463,3064.381992,-0.000000,8142.265362
1884.676781,2757.943793,-74.020594,8586.388927
1884.677098,2681.334243,-148.041188,8586.388927
1884.677416,2681.334243,-0.000000,8364.327145
1884.677733,2834.553343,222.061783,8734.430116
1884.678051,2681.334243,814.226536,8882.471304
1884.678369,2374.896044,666.185348,8364.327145
1884.678686,1762.019645,740.205942,8586.388927
1884.679004,1378.971896,444.123565,9178.553681
1884.679321,612.876398,-0.000000,9474.636058
1884.679639,0.000000,148.041188,9696.697840
1884.679956,-536.266849,-0.000000,10066.800811
1884.680274,-536.266849,444.123565,10510.924376
1884.680591,-153.219100,740.205942,10881.027347
1884.680909,0.000000,1184.329507,10584.944971
1884.681226,-153.219100,1406.391290,10362.883188
1884.681544,-459.657299,1628.453072,10510.924376
1884.681861,-612.876398,1850.514855,10436.903782
1884.682179,-1072.533697,2220.617826,10732.986159
1884.682496,-1302.362347,2516.700203,10584.944971
1884.682814,-1532.190996,2664.741391,10881.027347
1884.683131,-1302.362347,2442.679609,11029.068536
1884.683449,-1302.362347,2960.823768,11029.068536
1884.683766,-1455.581446,2886.803174,11177.109724
1884.684084,-1608.800546,2516.700203,11695.253884
1884.684401,-1915.238745,2368.659014,11547.212695
1884.684719,-1685.410096,2072.576638,11695.253884
1884.685036,-1532.190996,2442.679609,11325.150913
1884.685354,-689.485948,2146.597232,11621.233289
1884.685671,-459.657299,2294.638420,11251.130318
1884.685989,0.000000,2368.659014,11251.130318
1884.686307,306.438199,2664.741391,11325.150913
1884.686624,306.438199,2368.659014,11547.212695
1884.686942,689.485948,2072.576638,11103.089130
1884.687259,459.657299,2368.659014,10732.986159
1884.687577,383.047749,2220.617826,10658.965565
1884.687894,1149.143247,2072.576638,10214.842000
1884.688212,1685.410096,1776.494261,10214.842000
1884.688529,1838.629195,1332.370696,10140.821405
1884.688847,1762.019645,962.267725,10140.821405
1884.689164,1532.190996,740.205942,9844.739029
1884.689481,1455.581446,222.061783,9770.718434
1884.689799,1532.190996,370.102971,9918.759623
1884.690116,1225.752797,444.123565,9326.594869
1884.690434,1685.410096,-0.000000,9622.677246
1884.690751,1302.362347,-740.205942,9622.677246
1884.691068,1991.848295,-370.102971,9474.636058
1884.691386,2374.896044,-148.041188,9030.512492
1884.691703,2528.115143,-444.123565,8882.471304
1884.692021,2604.724693,-740.205942,8216.285956
1884.692338,2221.676944,-592.164754,7846.182985
1884.692655,2298.286494,-518.144159,7846.182985
1884.692973,2374.896044,-518.144159,7476.080014
1884.693290,1991.848295,-370.102971,7402.059420
1884.693608,1532.190996,-592.164754,7920.203579
1884.693925,1685.410096,-740.205942,7994.224174
1884.694243,1302.362347,-1554.432478,8142.265362
1884.694560,1072.533697,-2072.576638,8512.368333
1884.694877,919.314598,-2368.659014,8512.368333
1884.695195,919.314598,-2664.741391,8290.306550
1884.695512,1072.533697,-2590.720797,8216.285956
1884.695830,1378.971896,-2590.720797,8512.368333
1884.696147,1838.629195,-2146.597232,7846.182985
1884.696464,1991.848295,-1924.535449,7624.121203
1884.696782,2221.676944,-2220.617826,7846.182985
1884.697099,2068.457845,-2220.617826,7624.121203
1884.697417,1991.848295,-2664.741391,7846.182985
1884.697734,1685.410096,-2960.823768,7550.100608
1884.698051,1608.800546,-3034.844362,7994.224174
1884.698369,1762.019645,-3034.844362,7772.162391
1884.698686,2145.067394,-2812.782580,7476.080014
1884.699004,1685.410096,-2664.741391,7920.203579
1884.699321,1455.581446,-2960.823768,8290.306550
1884.699638,689.485948,-2886.803174,8586.388927
1884.699956,153.219100,-3108.864956,9104.533087
1884.700273,-612.876398,-3404.947333,9104.533087
1884.700591,-306.438199,-2960.823768,9474.636058
1884.700908,-383.047749,-2812.782580,10066.800811
1884.701226,0.000000,-2072.576638,9918.759623
1884.701543,612.876398,-1776.494261,9622.677246
1884.701860,995.924147,-1184.329507,9770.718434
1884.702178,1838.629195,-518.144159,9474.636058
1884.702495,1685.410096,-148.041188,8882.471304
1884.702813,1685.410096,-74.020594,8734.430116
1884.703130,1378.971896,-0.000000,8438.347739
1884.703447,1149.143247,296.082377,8512.368333
1884.703765,1225.752797,740.205942,8808.450710
1884.704082,1378.971896,1406.391290,8734.430116
1884.704400,766.095498,1406.391290,8734.430116
1884.704717,383.047749,888.247130,9400.615463
1884.705034,-383.047749,592.164754,9918.759623
1884.705352,-842.705048,148.041188,10140.821405
1884.705669,-1072.533697,222.061783,10658.965565
1884.705987,-766.095498,592.164754,11029.068536
1884.706304,-229.828649,1406.391290,10807.006753
1884.706621,0.000000,1850.514855,10807.006753
1884.706939,689.485948,2590.720797,10881.027347
1884.707256,1378.971896,2886.803174,10362.883188
1884.707574,1378.971896,2886.803174,10214.842000
1884.707891,1685.410096,2442.679609,10214.842000
1884.708209,1302.362347,2368.659014,10288.862594
1884.708526,1838.629195,2442.679609,9992.780217
1884.708843,2068.457845,2664.741391,9770.718434
1884.709161,2451.505594,2516.700203,9622.677246
1884.709478,2681.334243,2368.659014,9918.759623
1884.709796,2451.505594,2368.659014,9696.697840
1884.710113,1302.362347,1998.556043,9548.656652
1884.710430,536.266849,1406.391290,10214.842000
1884.710748,0.000000,1110.308913,10362.883188
1884.711065,0.000000,740.205942,11325.150913
1884.711383,-306.438199,1184.329507,11473.192101
1884.711700,-153.219100,1184.329507,11621.233289
1884.712017,76.609550,1406.391290,11399.171507
1884.712335,306.438199,1406.391290,11251.130318
1884.712652,612.876398,1850.514855,11621.233289
1884.712970,306.438199,1554.432478,10881.027347
1884.713287,459.657299,1406.391290,10066.800811
1884.713604,766.095498,1628.453072,9548.656652
1884.713922,919.314598,1258.350101,9696.697840
1884.714239,766.095498,1036.288319,9178.553681
1884.714557,612.876398,814.226536,9178.553681
1884.714874,536.266849,296.082377,9252.574275
1884.715192,383.047749,444.123565,9326.594869
1884.715509,229.828649,-0.000000,8882.471304
1884.715826,-306.438199,-74.020594,8882.471304
1884.716144,-383.047749,-148.041188,8882.471304
1884.716461,-459.657299,-518.144159,8956.491898
1884.716779,-153.219100,-814.226536,8956.491898
1884.717096,-229.828649,-296.082377,9178.553681
1884.717413,229.828649,-0.000000,9178.553681
1884.717731,612.876398,-0.000000,8956.491898
1884.718048,689.485948,-0.000000,8808.450710
1884.718366,536.266849,370.102971,8734.430116
1884.718683,1532.190996,296.082377,8660.409521
1884.719000,1532.190996,370.102971,8216.285956
1884.719318,2374.896044,814.226536,7920.203579
1884.719635,2374.896044,592.164754,7920.203579
1884.719953,2451.505594,370.102971,7624.121203
1884.720270,2681.334243,222.061783,7328.038826
1884.720587,2221.676944,-222.061783,7550.100608
1884.720905,1838.629195,-518.144159,7698.141797
1884.721222,1532.190996,-962.267725,8068.244768
1884.721540,689.485948,-1110.308913,8512.368333
1884.721857,766.095498,-1406.391290,8808.450710
1884.722174,995.924147,-1480.411884,9252.574275
1884.722492,1149.143247,-1258.350101,9252.574275
1884.722809,1762.019645,-1554.432478,9400.615463
1884.723127,2068.457845,-1480.411884,9400.615463
1884.723444,1762.019645,-1628.453072,9474.636058
1884.723762,1302.362347,-1628.453072,9400.615463
1884.724079,1225.752797,-1036.288319,9178.553681
1884.724396,1762.019645,-888.247130,9252.574275
1884.724714,1838.629195,-518.144159,9474.636058
1884.725031,1762.019645,-740.205942,9252.574275
1884.725349,1608.800546,-666.185348,9178.553681
1884.725666,1685.410096,-962.267725,9178.553681
1884.725983,1225.752797,-1184.329507,9178.553681
1884.726301,1072.533697,-1406.391290,9474.636058
1884.726618,306.438199,-1702.473667,9622.677246
1884.726936,306.438199,-1406.391290,9918.759623
1884.727253,229.828649,-1258.350101,10214.842000
1884.727570,383.047749,-814.226536,10214.842000
1884.727888,306.438199,-370.102971,9844.739029
1884.728205,306.438199,-148.041188,10140.821405
1884.728523,536.266849,-0.000000,9770.718434
1884.728840,306.438199,444.123565,9548.656652
1884.729157,306.438199,296.082377,9770.718434
1884.729475,536.266849,518.144159,9696.697840
1884.729792,842.705048,814.226536,9400.615463
1884.730110,1072.533697,1554.432478,9326.594869
1884.730427,919.314598,1184.329507,9178.553681
1884.730745,842.705048,1110.308913,9252.574275
1884.731062,689.485948,1036.288319,9178.553681
1884.731379,229.828649,814.226536,9622.677246
1884.731697,0.000000,814.226536,9770.718434
1884.732014,-153.219100,444.123565,10140.821405
1884.732332,-459.657299,444.123565,9992.780217
1884.732649,229.828649,592.164754,10362.883188
1884.732966,306.438199,1110.308913,10214.842000
1884.733284,766.095498,888.247130,9844.739029
1884.733601,995.924147,1480.411884,9844.739029
1884.733919,1302.362347,1480.411884,9474.636058
1884.734236,1072.533697,1554.432478,9104.533087
1884.734553,1149.143247,1998.556043,9178.553681
1884.734871,1302.362347,2146.597232,9178.553681
1884.735188,1685.410096,2368.659014,8808.450710
1884.735506,1378.971896,2368.659014,8808.450710
1884.735823,766.095498,2072.576638,8956.491898
1884.736140,689.485948,1628.453072,9030.512492
1884.736458,536.266849,1110.308913,9400.615463
1884.736775,0.000000,814.226536,9474.636058
1884.737093,-76.609550,666.185348,9770.718434
1884.737410,-229.828649,518.144159,9548.656652
1884.737728,-153.219100,888.247130,9622.677246
1884.738045,229.828649,1184.329507,9770.718434
1884.738362,229.828649,1628.453072,9548.656652
1884.738680,0.000000,1332.370696,9326.594869
1884.738997,229.828649,1258.350101,9474.636058
1884.739315,0.000000,1258.350101,9252.574275
1884.739632,0.000000,962.267725,9178.553681
1884.739949,-229.828649,888.247130,9474.636058
1884.740267,-459.657299,962.267725,9400.615463
1884.740584,0.000000,1110.308913,8882.471304
1884.740902,0.000000,1554.432478,8808.450710
1884.741219,0.000000,1406.391290,9104.533087
1884.741536,-229.828649,1332.370696,9400.615463
1884.741854,-459.657299,1036.288319,9178.553681
1884.742171,-842.705048,518.144159,9770.718434
1884.742489,-1302.362347,148.041188,9918.759623
1884.742806,-842.705048,-74.020594,10362.883188
1884.743123,-459.657299,518.144159,10066.800811
1884.743441,0.000000,518.144159,10288.862594
1884.743758,689.485948,666.185348,9918.759623
1884.744076,842.705048,1036.288319,9474.636058
1884.744393,1762.019645,962.267725,9400.615463
1884.744711,1378.971896,814.226536,9400.615463
1884.745028,2068.457845,962.267725,9104.533087
1884.745345,1915.238745,740.205942,9030.512492
1884.745663,1685.410096,592.164754,9252.574275
1884.745980,1762.019645,740.205942,9474.636058
1884.746298,1915.238745,592.164754,9548.656652
1884.746615,1915.238745,518.144159,9474.636058
1884.746932,1762.019645,-74.020594,9696.697840
1884.747250,1225.752797,-444.123565,9844.739029
1884.747567,1149.143247,-370.102971,10288.862594
1884.747885,1072.533697,-666.185348,10066.800811
1884.748202,1302.362347,-296.082377,10362.883188
1884.748519,1455.581446,-222.061783,10140.821405
1884.748837,1685.410096,-148.041188,10066.800811
1884.749154,2221.676944,-148.041188,9696.697840
1884.749472,2068.457845,-296.082377,9622.677246
1884.749789,1838.629195,-148.041188,9326.594869
1884.750106,1685.410096,-370.102971,9178.553681
1884.750424,1685.410096,-518.144159,9326.594869
1884.750741,1072.533697,-518.144159,9030.512492
1884.751059,1072.533697,-740.205942,8808.450710
1884.751376,1149.143247,-740.205942,9104.533087
1884.751694,459.657299,-666.185348,9104.533087
1884.752011,-153.219100,-888.247130,9474.636058
1884.752328,-536.266849,-1110.308913,9548.656652
1884.752646,-1072.533697,-1184.329507,9696.697840
1884.752963,-1455.581446,-1184.329507,9992.780217
1884.753281,-766.095498,-1036.288319,10066.800811
1884.753598,-1302.362347,-888.247130,9770.718434
1884.753915,-689.485948,-518.144159,9844.739029
1884.754233,0.000000,-0.000000,9770.718434
1884.754550,0.000000,-222.061783,9474.636058
1884.754868,76.609550,-0.000000,9104.533087
1884.755185,306.438199,222.061783,8734.430116
1884.755502,612.876398,518.144159,8586.388927
1884.755820,689.485948,888.247130,8290.306550
1884.756137,842.705048,1036.288319,8142.265362
1884.756455,459.657299,1184.329507,8142.265362
1884.756772,995.924147,888.247130,8364.327145
1884.757089,919.314598,518.144159,8586.388927
1884.757407,76.609550,222.061783,8364.327145
1884.757724,0.000000,-0.000000,8808.450710
1884.758042,-383.047749,-148.041188,9400.615463
1884.758359,-153.219100,-148.041188,9326.594869
1884.758676,76.609550,-74.020594,9326.594869
1884.758994,153.219100,296.082377,9400.615463
1884.759311,689.485948,222.061783,9474.636058
1884.759629,689.485948,444.123565,9252.574275
1884.759946,689.485948,592.164754,9252.574275
1884.760264,995.924147,888.247130,9474.636058
1884.760581,919.314598,888.247130,8956.491898
1884.760898,689.485948,1184.329507,8882.471304
1884.761216,1225.752797,1480.411884,8956.491898
1884.761533,1455.581446,1258.350101,9178.553681
1884.761851,1532.190996,962.267725,8882.471304
1884.762168,1378.971896,592.164754,9104.533087
1884.762485,1149.143247,222.061783,9030.512492
1884.762803,1378.971896,666.185348,9252.574275
1884.763120,842.705048,444.123565,9400.615463
1884.763438,536.266849,296.082377,9770.718434
1884.763755,1225.752797,-0.000000,9696.697840
1884.764072,612.876398,-0.000000,10214.842000
1884.764390,919.314598,296.082377,9992.780217
1884.764707,995.924147,296.082377,10140.821405
1884.765025,1378.971896,444.123565,10140.821405
1884.765342,1455.581446,666.185348,10066.800811
1884.765659,1302.362347,518.144159,9548.656652
1884.765977,1225.752797,592.164754,9770.718434
1884.766294,1149.143247,888.247130,9918.759623
1884.766612,1302.362347,370.102971,9622.677246
1884.766929,1225.752797,222.061783,9474.636058
1884.767247,1378.971896,222.061783,10066.800811
1884.767564,689.485948,296.082377,9918.759623
1884.767881,766.095498,-0.000000,9770.718434
1884.768199,383.047749,-222.061783,9992.780217
1884.768516,76.609550,-74.020594,10140.821405
1884.768834,76.609550,-296.082377,10362.883188
1884.769151,153.219100,-296.082377,10288.862594
1884.769468,0.000000,-148.041188,10658.965565
1884.769786,229.828649,-148.041188,10436.903782
1884.770103,0.000000,-148.041188,10658.965565
1884.770421,383.047749,296.082377,10288.862594
1884.770738,76.609550,-74.020594,10066.800811
1884.771055,229.828649,-0.000000,9992.780217
1884.771373,306.438199,-0.000000,9696.697840
1884.771690,306.438199,-0.000000,9622.677246
1884.772008,766.095498,-0.000000,9474.636058
1884.772325,842.705048,-0.000000,9474.636058
1884.772642,536.266849,-444.123565,9474.636058
1884.772960,689.485948,-888.247130,9178.553681
1884.773277,612.876398,-518.144159,9178.553681
1884.773595,229.828649,-740.205942,9548.656652
1884.773912,459.657299,-592.164754,9474.636058
1884.774230,229.828649,-222.061783,8956.491898
1884.774547,1149.143247,-370.102971,9474.636058
1884.774864,1149.143247,-0.000000,9326.594869
1884.775182,1685.410096,-74.020594,9178.553681
1884.775499,2068.457845,-0.000000,8660.409521
1884.775817,1838.629195,444.123565,8734.430116
1884.776134,2145.067394,-0.000000,8438.347739
1884.776451,2068.457845,-0.000000,8364.327145
1884.776769,2374.896044,814.226536,8364.327145
1884.777086,2298.286494,888.247130,8142.265362
1884.777404,2604.724693,888.247130,8068.244768
1884.777721,2604.724693,518.144159,8068.244768
1884.778038,2374.896044,296.082377,8216.285956
1884.778356,2068.457845,-0.000000,8216.285956
1884.778673,1455.581446,-370.102971,8438.347739
1884.778991,995.924147,-518.144159,8734.430116
1884.779308,1149.143247,-666.185348,9252.574275
1884.779625,689.485948,-296.082377,9252.574275
1884.779943,229.828649,-74.020594,9400.615463
1884.780260,689.485948,-0.000000,9474.636058
1884.780578,612.876398,296.082377,9104.533087
1884.780895,612.876398,-148.041188,9548.656652
1884.781213,229.828649,-74.020594,9474.636058
1884.781530,0.000000,-0.000000,9326.594869
1884.781847,0.000000,296.082377,9030.512492
1884.782165,76.609550,444.123565,9400.615463
1884.782482,-306.438199,222.061783,9622.677246
1884.782800,-536.266849,-74.020594,9548.656652
1884.783117,-689.485948,148.041188,9696.697840
1884.783434,-766.095498,-518.144159,9696.697840
1884.783752,-1225.752797,-518.144159,10214.842000
1884.784069,-1378.971896,-814.226536,10066.800811
1884.784387,-1378.971896,-814.226536,10288.862594
1884.784704,-1455.581446,-444.123565,10362.883188
1884.785021,-842.705048,-444.123565,10584.944971
1884.785339,-459.657299,-0.000000,10510.924376
1884.785656,229.828649,222.061783,9918.759623
1884.785974,766.095498,518.144159,9696.697840
1884.786291,689.485948,518.144159,9770.718434
1884.786608,1225.752797,888.247130,9252.574275
1884.786926,1378.971896,1036.288319,8808.450710
1884.787243,1378.971896,1036.288319,8660.409521
1884.787561,1532.190996,1332.370696,8882.471304
1884.787878,1915.238745,1554.432478,8808.450710
1884.788196,2298.286494,1332.370696,8956.491898
1884.788513,1838.629195,1258.350101,9770.718434
1884.788831,1608.800546,666.185348,9474.636058
1884.789148,1685.410096,518.144159,9326.594869
1884.789465,1685.410096,296.082377,9770.718434
1884.789783,1762.019645,-0.000000,9844.739029
1884.790100,2145.067394,740.205942,9696.697840
1884.790418,2681.334243,814.226536,9622.677246
1884.790735,2681.334243,1110.308913,9474.636058
1884.791053,3217.601092,1110.308913,9474.636058
1884.791370,3217.601092,814.226536,8660.409521
1884.791688,3064.381992,1036.288319,8808.450710
1884.792005,2451.505594,74.020594,9104.533087
1884.792322,2068.457845,444.123565,8882.471304
1884.792640,1991.848295,296.082377,9030.512492
1884.792957,1685.410096,-0.000000,9178.553681
1884.793275,919.314598,-148.041188,9178.553681
1884.793592,689.485948,-370.102971,9696.697840
1884.793910,0.000000,-814.226536,9844.739029
1884.794227,-689.485948,-1184.329507,10066.800811
1884.794545,-1532.190996,-1332.370696,10510.924376
1884.794862,-1762.019645,-1110.308913,10807.006753
1884.795179,-1685.410096,-1258.350101,11103.089130
1884.795497,-1302.362347,-814.226536,10955.047942
1884.795814,-536.266849,-370.102971,11029.068536
1884.796132,-306.438199,-74.020594,10436.903782
1884.796449,383.047749,148.041188,9918.759623
1884.796767,1149.143247,-222.061783,9622.677246
1884.797084,1532.190996,-74.020594,8956.491898
1884.797402,1762.019645,222.061783,9326.594869
1884.797719,1838.629195,222.061783,8660.409521
1884.798036,2298.286494,666.185348,8438.347739
1884.798354,2374.896044,740.205942,8364.327145
1884.798671,2374.896044,592.164754,8512.368333
1884.798989,2374.896044,222.061783,8364.327145
1884.799306,2145.067394,-74.020594,8438.347739
1884.799624,1302.362347,-444.123565,8512.368333
1884.799941,1225.752797,-666.185348,8956.491898
1884.800259,1225.752797,-666.185348,9252.574275
1884.800576,1149.143247,-592.164754,9474.636058
1884.800893,1455.581446,-296.082377,9400.615463
1884.801211,1608.800546,-0.000000,9400.615463
1884.801528,1838.629195,296.082377,9104.533087
1884.801846,1302.362347,148.041188,8660.409521
1884.802163,1991.848295,444.123565,8882.471304
1884.802481,1762.019645,518.144159,8808.450710
1884.802798,1762.019645,518.144159,8364.327145
1884.803116,1532.190996,222.061783,8438.347739
1884.803433,1378.971896,222.061783,8438.347739
1884.803750,1072.533697,148.041188,8734.430116
1884.804068,766.095498,-0.000000,8734.430116
1884.804385,76.609550,-296.082377,9178.553681
1884.804703,-383.047749,-444.123565,9770.718434
1884.805020,-766.095498,-296.082377,9992.780217
1884.805338,-1302.362347,-814.226536,9918.759623
1884.805655,-1225.752797,-296.082377,10288.862594
1884.805973,-1072.533697,-0.000000,10510.924376
1884.806290,-689.485948,296.082377,10510.924376
1884.806607,0.000000,518.144159,10288.862594
1884.806925,153.219100,592.164754,10066.800811
1884.807242,689.485948,740.205942,9918.759623
1884.807560,1072.533697,1184.329507,9474.636058
1884.807877,1072.533697,1406.391290,8882.471304
1884.808195,995.924147,1258.350101,8734.430116
1884.808512,1762.019645,1998.556043,8734.430116
1884.808830,1762.019645,1776.494261,8586.388927
1884.809147,1378.971896,1628.453072,9030.512492
1884.809464,1149.143247,1110.308913,8882.471304
1884.809782,306.438199,888.247130,9178.553681
1884.810099,0.000000,666.185348,9474.636058
1884.810417,-459.657299,444.123565,9770.718434
1884.810734,0.000000,370.102971,10140.821405
1884.811052,-536.266849,296.082377,10140.821405
1884.811369,-383.047749,814.226536,10288.862594
1884.811687,-306.438199,1480.411884,10140.821405
1884.812004,-306.438199,962.267725,10066.800811
1884.812321,0.000000,1110.308913,9844.739029
1884.812639,153.219100,814.226536,9770.718434
1884.812956,76.609550,962.267725,9696.697840
1884.813274,229.828649,962.267725,9622.677246
1884.813591,229.828649,888.247130,9474.636058
1884.813909,229.828649,962.267725,9622.677246
1884.814226,689.485948,962.267725,9400.615463
1884.814544,383.047749,444.123565,9400.615463
1884.814861,306.438199,-74.020594,9474.636058
1884.815178,153.219100,-666.185348,9474.636058
1884.815496,-229.828649,-740.205942,10140.821405
1884.815813,0.000000,-666.185348,10140.821405
1884.816131,76.609550,-666.185348,10214.842000
1884.816448,229.828649,-518.144159,10362.883188
1884.816766,612.876398,-370.102971,10436.903782
1884.817083,1762.019645,-222.061783,10214.842000
1884.817401,1915.238745,518.144159,9770.718434
1884.817718,2451.505594,444.123565,9696.697840
1884.818035,2451.505594,666.185348,9326.594869
1884.818353,2834.553343,666.185348,8808.450710
1884.818670,2911.162892,962.267725,8956.491898
1884.818988,2757.943793,666.185348,8882.471304
1884.819305,2604.724693,814.226536,8660.409521
1884.819623,2451.505594,814.226536,8364.327145
1884.819940,2681.334243,-0.000000,8882.471304
1884.820258,1915.238745,-0.000000,9030.512492
1884.820575,1302.362347,-296.082377,8882.471304
1884.820892,1149.143247,-444.123565,8882.471304
1884.821210,536.266849,-740.205942,9104.533087
1884.821527,689.485948,-444.123565,9400.615463
1884.821845,459.657299,-148.041188,9474.636058
1884.822162,689.485948,-74.020594,9104.533087
1884.822480,536.266849,148.041188,9252.574275
1884.822797,536.266849,-0.000000,9252.574275
1884.823115,536.266849,222.061783,9104.533087
1884.823432,459.657299,296.082377,8882.471304
1884.823749,0.000000,296.082377,8586.388927
1884.824067,-306.438199,74.020594,8364.327145
1884.824384,-153.219100,-0.000000,8512.368333
1884.824702,-383.047749,-370.102971,8216.285956
1884.825019,-689.485948,-444.123565,8734.430116
1884.825337,-766.095498,-592.164754,9030.512492
1884.825654,-842.705048,-592.164754,9178.553681
1884.825972,-1302.362347,-888.247130,9400.615463
1884.826289,-1762.019645,-814.226536,9696.697840
1884.826606,-1225.752797,-444.123565,9992.780217
1884.826924,-689.485948,-74.020594,9622.677246
1884.827241,-383.047749,222.061783,10066.800811
1884.827559,0.000000,148.041188,9696.697840
1884.827876,919.314598,666.185348,9474.636058
1884.828194,1149.143247,1110.308913,9400.615463
1884.828511,1838.629195,1258.350101,9104.533087
1884.828829,1685.410096,1554.432478,8734.430116
1884.829146,2145.067394,1924.535449,8808.450710
1884.829463,2221.676944,1850.514855,8660.409521
1884.829781,2068.457845,2072.576638,8882.471304
1884.830098,2145.067394,1998.556043,9252.574275
1884.830416,1838.629195,1406.391290,9104.533087
1884.830733,1149.143247,1110.308913,9474.636058
1884.831051,689.485948,1184.329507,9548.656652
1884.831368,612.876398,962.267725,9992.780217
1884.831686,383.047749,666.185348,10140.821405
1884.832003,536.266849,518.144159,10510.924376
1884.832320,919.314598,592.164754,10510.924376
1884.832638,995.924147,740.205942,10584.944971
1884.832955,689.485948,740.205942,10362.883188
1884.833273,612.876398,444.123565,10140.821405
1884.833590,612.876398,518.144159,10288.862594
1884.833908,153.219100,592.164754,9918.759623
1884.834225,383.047749,444.123565,9696.697840
1884.834543,383.047749,518.144159,9696.697840
1884.834860,306.438199,-148.041188,9844.739029
1884.835177,153.219100,-0.000000,9696.697840
1884.835495,76.609550,-74.020594,10140.821405
1884.835812,-459.657299,-518.144159,9696.697840
1884.836130,-612.876398,-444.123565,9992.780217
1884.836447,-1455.581446,-814.226536,9918.759623
1884.836765,-1378.971896,-814.226536,10214.842000
1884.837082,-1838.629195,-666.185348,10510.924376
1884.837400,-1149.143247,-740.205942,10807.006753
1884.837717,-612.876398,-444.123565,10584.944971
1884.838034,-153.219100,-296.082377,10658.965565
1884.838352,536.266849,-0.000000,10214.842000
1884.838669,919.314598,-0.000000,9622.677246
1884.838987,1149.143247,296.082377,9104.533087
1884.839304,1532.190996,814.226536,8734.430116
1884.839622,1991.848295,888.247130,8512.368333
1884.839939,1762.019645,1110.308913,8068.244768
1884.840257,1915.238745,1406.391290,8142.265362
1884.840574,1762.019645,1110.308913,8142.265362
1884.840891,1762.019645,740.205942,8142.265362
1884.841209,1762.019645,296.082377,8438.347739
1884.841526,1149.143247,222.061783,8290.306550
1884.841844,766.095498,-0.000000,8364.327145
1884.842161,919.314598,-74.020594,8734.430116
1884.842479,995.924147,-518.144159,8586.388927
1884.842796,689.485948,-0.000000,8956.491898
1884.843114,919.314598,-0.000000,9030.512492
1884.843431,995.924147,-0.000000,9104.533087
1884.843748,689.485948,296.082377,9030.512492
1884.844066,612.876398,370.102971,8882.471304
1884.844383,689.485948,296.082377,8586.388927
1884.844701,612.876398,-0.000000,8512.368333
1884.845018,612.876398,-0.000000,8290.306550
1884.845336,995.924147,148.041188,8364.327145
1884.845653,842.705048,-74.020594,8438.347739
1884.845971,383.047749,-0.000000,8734.430116
1884.846288,0.000000,-740.205942,8956.491898
1884.846605,-612.876398,-814.226536,9400.615463
1884.846923,-766.095498,-740.205942,9548.656652
1884.847240,-919.314598,-1184.329507,9844.739029
1884.847558,-1455.581446,-592.164754,9992.780217
1884.847875,-919.314598,-666.185348,10436.903782
1884.848193,-459.657299,-296.082377,10362.883188
1884.848510,0.000000,-222.061783,10362.883188
1884.848828,919.314598,-0.000000,10584.944971
1884.849145,842.705048,370.102971,10066.800811
1884.849462,1455.581446,666.185348,9844.739029
1884.849780,1991.848295,1110.308913,9474.636058
1884.850097,2145.067394,962.267725,9474.636058
1884.850415,2145.067394,1184.329507,9178.553681
1884.850732,2298.286494,1332.370696,8882.471304
1884.851050,2451.505594,1406.391290,8882.471304
1884.851367,2298.286494,666.185348,9178.553681
1884.851685,1838.629195,370.102971,9326.594869
1884.852002,1532.190996,-0.000000,9474.636058
1884.852319,1455.581446,-370.102971,9770.718434
1884.852637,995.924147,-222.061783,10288.862594
1884.852954,1378.971896,-0.000000,10362.883188
1884.853272,1225.752797,-370.102971,10732.986159
1884.853589,1302.362347,296.082377,10362.883188
1884.853907,1762.019645,444.123565,10066.800811
1884.854224,1838.629195,518.144159,10140.821405
1884.854542,1915.238745,444.123565,9696.697840
1884.854859,1991.848295,518.144159,9696.697840
1884.855176,1762.019645,518.144159,9548.656652
1884.855494,1762.019645,518.144159,9696.697840
1884.855811,1685.410096,370.102971,9622.677246
1884.856129,1685.410096,148.041188,9622.677246
1884.856446,1532.190996,148.041188,9474.636058
1884.856764,1072.533697,-0.000000,9548.656652
1884.857081,689.485948,-222.061783,9548.656652
1884.857399,229.828649,-222.061783,9844.739029
1884.857716,76.609550,-222.061783,9844.739029
1884.858033,-229.828649,-0.000000,9992.780217
1884.858351,-229.828649,-0.000000,10140.821405
1884.858668,229.828649,-0.000000,9696.697840
1884.858986,306.438199,-222.061783,9696.697840
1884.859303,766.095498,-74.020594,9770.718434
1884.859621,919.314598,296.082377,9696.697840
1884.859938,1149.143247,444.123565,8956.491898
1884.860256,1455.581446,518.144159,8882.471304
1884.860573,995.924147,592.164754,8808.450710
1884.860890,1225.752797,518.144159,8438.347739
1884.861208,1302.362347,740.205942,8216.285956
1884.861525,1225.752797,444.123565,8586.388927
1884.861843,459.657299,74.020594,8438.347739
1884.862160,612.876398,296.082377,8734.430116
1884.862478,766.095498,-0.000000,8438.347739
1884.862795,153.219100,-222.061783,8586.388927
1884.863113,0.000000,-370.102971,8956.491898
1884.863430,229.828649,-444.123565,9030.512492
1884.863747,306.438199,-296.082377,8956.491898
1884.864065,536.266849,-222.061783,8882.471304
1884.864382,689.485948,-148.041188,8660.409521
1884.864700,689.485948,-296.082377,9030.512492
1884.865017,689.485948,-74.020594,9104.533087
1884.865335,689.485948,-0.000000,8586.388927
1884.865652,766.095498,444.123565,8734.430116
1884.865970,919.314598,370.102971,8660.409521
1884.866287,689.485948,-0.000000,8734.430116
1884.866604,612.876398,-0.000000,8808.450710
1884.866922,689.485948,-74.020594,9030.512492
1884.867239,459.657299,-0.000000,9252.574275
1884.867557,0.000000,-0.000000,9326.594869
1884.867874,0.000000,-296.082377,9548.656652
1884.868192,-229.828649,-370.102971,9992.780217
1884.868509,-383.047749,-518.144159,10436.903782
1884.868827,306.438199,-148.041188,10288.862594
1884.869144,76.609550,-74.020594,10214.842000
1884.869461,766.095498,222.061783,9918.759623
1884.869779,1378.971896,444.123565,9770.718434
1884.870096,1685.410096,740.205942,9696.697840
1884.870414,1915.238745,962.267725,9252.574275
1884.870731,1991.848295,1036.288319,8734.430116
1884.871049,2068.457845,1110.308913,8808.450710
1884.871366,2221.676944,1110.308913,9104.533087
1884.871684,1838.629195,740.205942,8882.471304
1884.872001,1532.190996,814.226536,9030.512492
1884.872318,1838.629195,518.144159,9400.615463
1884.872636,1302.362347,148.041188,9622.677246
1884.872953,1685.410096,-74.020594,10066.800811
1884.873271,612.876398,-148.041188,10140.821405
1884.873588,536.266849,-148.041188,10510.924376
1884.873906,842.705048,-0.000000,10658.965565
1884.874223,1455.581446,370.102971,10288.862594
1884.874541,1838.629195,370.102971,10140.821405
1884.874858,1762.019645,666.185348,9992.780217
1884.875175,2068.457845,814.226536,9696.697840
1884.875493,1762.019645,740.205942,9474.636058
1884.875810,1762.019645,518.144159,9622.677246
1884.876128,1532.190996,444.123565,9474.636058
1884.876445,1455.581446,222.061783,9622.677246
1884.876763,1455.581446,-0.000000,9622.677246
1884.877080,1149.143247,-222.061783,9474.636058
1884.877398,1149.143247,-444.123565,9548.656652
1884.877715,1072.533697,-592.164754,9844.739029
1884.878033,-306.438199,-1036.288319,9696.697840
1884.878350,-536.266849,-962.267725,10066.800811
1884.878667,-919.314598,-888.247130,10436.903782
1884.878985,-842.705048,-814.226536,10584.944971
1884.879302,-995.924147,-740.205942,10510.924376
1884.879620,-612.876398,-370.102971,10658.965565
1884.879937,76.609550,-296.082377,10436.903782
1884.880255,229.828649,-0.000000,9770.718434
1884.880572,536.266849,296.082377,9992.780217
1884.880890,995.924147,1036.288319,9030.512492
1884.881207,1532.190996,1036.288319,8142.265362
1884.881524,1302.362347,1258.350101,8216.285956
1884.881842,1455.581446,1480.411884,8364.327145
1884.882159,1455.581446,1406.391290,8586.388927
1884.882477,1302.362347,1258.350101,8142.265362
1884.882794,995.924147,888.247130,8142.265362
1884.883112,842.705048,740.205942,8438.347739
1884.883429,612.876398,518.144159,8290.306550
1884.883747,689.485948,518.144159,8142.265362
1884.884064,612.876398,814.226536,8438.347739
1884.884381,306.438199,370.102971,8290.306550
1884.884699,536.266849,370.102971,8438.347739
1884.885016,536.266849,148.041188,8956.491898
1884.885334,995.924147,518.144159,9252.574275
1884.885651,842.705048,888.247130,9178.553681
1884.885969,383.047749,1036.288319,8660.409521
1884.886286,689.485948,1184.329507,9030.512492
1884.886604,536.266849,1480.411884,8586.388927
1884.886921,1072.533697,1554.432478,8586.388927
1884.887238,1302.362347,962.267725,8438.347739
1884.887556,1455.581446,370.102971,8660.409521
1884.887873,1302.362347,148.041188,9030.512492
1884.888191,689.485948,-222.061783,9178.553681
1884.888508,153.219100,-222.061783,9326.594869
1884.888825,-306.438199,-296.082377,9622.677246
1884.889143,-766.095498,-296.082377,9844.739029
1884.889460,-995.924147,-148.041188,9992.780217
1884.889777,-919.314598,-222.061783,10732.986159
1884.890095,-459.657299,-0.000000,10732.986159
1884.890412,-153.219100,-0.000000,10732.986159
1884.890729,0.000000,-74.020594,10214.842000
1884.891046,306.438199,-0.000000,10510.924376
1884.891364,689.485948,296.082377,9918.759623
1884.891681,766.095498,814.226536,10066.800811
1884.891998,1072.533697,1110.308913,9696.697840
1884.892315,1149.143247,1184.329507,9622.677246
1884.892633,1455.581446,1554.432478,9622.677246
1884.892950,1838.629195,1036.288319,9622.677246
1884.893267,1378.971896,222.061783,9770.718434
1884.893584,1072.533697,-0.000000,9918.759623
1884.893902,689.485948,-370.102971,10066.800811
1884.894219,919.314598,-222.061783,10214.842000
1884.894536,612.876398,-666.185348,10288.862594
1884.894854,459.657299,-148.041188,10510.924376
1884.895171,612.876398,-0.000000,10362.883188
1884.895488,919.314598,370.102971,10066.800811
1884.895805,1378.971896,592.164754,9696.697840
1884.896123,1532.190996,148.041188,9918.759623
1884.896440,1762.019645,518.144159,9548.656652
1884.896757,1455.581446,370.102971,9474.636058
1884.897074,1532.190996,222.061783,9104.533087
1884.897392,1838.629195,444.123565,8882.471304
1884.897709,1991.848295,592.164754,8734.430116
1884.898026,1915.238745,814.226536,8734.430116
1884.898344,1991.848295,518.144159,9030.512492
1884.898661,1915.238745,-0.000000,8882.471304
1884.898978,1225.752797,-74.020594,8882.471304
1884.899295,919.314598,-148.041188,9326.594869
1884.899613,459.657299,-370.102971,9326.594869
1884.899930,153.219100,-296.082377,9548.656652
1884.900247,536.266849,-222.061783,9474.636058
1884.900564,689.485948,370.102971,9326.594869
1884.900882,919.314598,-0.000000,9400.615463
1884.901199,1225.752797,296.082377,9178.553681
1884.901516,1149.143247,-148.041188,9030.512492
1884.901833,766.095498,148.041188,8808.450710
1884.902151,919.314598,370.102971,8586.388927
1884.902468,536.266849,444.123565,8290.306550
1884.902785,766.095498,296.082377,8364.327145
1884.903103,383.047749,518.144159,8512.368333
1884.903420,229.828649,-0.000000,8586.388927
1884.903737,76.609550,-74.020594,8586.388927
1884.904054,-153.219100,-296.082377,9178.553681
1884.904372,-459.657299,-296.082377,9400.615463
1884.904689,-153.219100,-444.123565,8956.491898
1884.905006,-689.485948,-444.123565,9400.615463
1884.905323,-306.438199,-296.082377,9400.615463
1884.905641,-153.219100,-148.041188,9548.656652
1884.905958,0.000000,-0.000000,9474.636058
1884.906275,153.219100,148.041188,9474.636058
1884.906592,229.828649,-0.000000,9400.615463
1884.906910,229.828649,370.102971,9474.636058
1884.907227,0.000000,-222.061783,9252.574275
1884.907544,0.000000,-0.000000,9400.615463
1884.907862,-383.047749,296.082377,9326.594869
1884.908179,459.657299,740.205942,9326.594869
1884.908496,459.657299,740.205942,9252.574275
1884.908813,536.266849,370.102971,9400.615463
1884.909131,383.047749,-0.000000,9696.697840
1884.909448,153.219100,-222.061783,9696.697840
1884.909765,0.000000,370.102971,9622.677246
1884.910082,0.000000,222.061783,9770.718434
1884.910400,76.609550,370.102971,10140.821405
1884.910717,153.219100,444.123565,10140.821405
1884.911034,536.266849,740.205942,9844.739029
1884.911352,1072.533697,888.247130,9696.697840
1884.911669,1608.800546,962.267725,9844.739029
1884.911986,1685.410096,888.247130,9770.718434
1884.912303,1762.019645,1036.288319,9474.636058
1884.912621,1532.190996,1110.308913,9104.533087
1884.912938,1915.238745,1184.329507,9770.718434
1884.913255,1762.019645,1480.411884,9326.594869
1884.913572,1685.410096,1850.514855,9252.574275
1884.913890,1608.800546,1924.535449,9474.636058
1884.914207,1455.581446,1036.288319,9548.656652
1884.914524,1378.971896,518.144159,9622.677246
1884.914841,1072.533697,222.061783,9548.656652
1884.915159,919.314598,296.082377,9770.718434
1884.915476,1072.533697,-0.000000,9992.780217
1884.915793,1072.533697,740.205942,10066.800811
1884.916111,1302.362347,1036.288319,9696.697840
1884.916428,1685.410096,1036.288319,9992.780217
1884.916745,1378.971896,1036.288319,9844.739029
1884.917062,1608.800546,814.226536,9992.780217
1884.917380,1302.362347,666.185348,9696.697840
1884.917697,995.924147,592.164754,9622.677246
1884.918014,536.266849,518.144159,9400.615463
1884.918331,766.095498,148.041188,9252.574275
1884.918649,612.876398,296.082377,9178.553681
1884.918966,689.485948,148.041188,9178.553681
1884.919283,306.438199,-370.102971,9474.636058
1884.919601,0.000000,-740.205942,9548.656652
1884.919918,-995.924147,-1036.288319,9918.759623
1884.920235,-1225.752797,-1258.350101,10066.800811
1884.920552,-1608.800546,-1406.391290,10214.842000
1884.920870,-1378.971896,-888.247130,10140.821405
1884.921187,-1532.190996,-740.205942,10140.821405
1884.921504,-842.705048,-962.267725,9918.759623
1884.921821,0.000000,-666.185348,9696.697840
1884.922139,76.609550,-888.247130,9622.677246
1884.922456,229.828649,-592.164754,8956.491898
1884.922773,383.047749,-592.164754,8734.430116
1884.923090,536.266849,-518.144159,8290.306550
1884.923408,919.314598,-0.000000,7846.182985
1884.923725,919.314598,370.102971,7624.121203
1884.924042,1072.533697,370.102971,7698.141797
1884.924360,536.266849,148.041188,7846.182985
1884.924677,919.314598,-0.000000,7994.224174
1884.924994,995.924147,-222.061783,8586.388927
1884.925311,689.485948,-370.102971,8586.388927
1884.925629,689.485948,-222.061783,8882.471304
1884.925946,1149.143247,-296.082377,9178.553681
1884.926263,1072.533697,-222.061783,9104.533087
1884.926580,1455.581446,296.082377,9104.533087
1884.926898,2068.457845,592.164754,9030.512492
1884.927215,2298.286494,740.205942,8660.409521
1884.927532,2298.286494,444.123565,8808.450710
1884.927849,2298.286494,370.102971,8734.430116
1884.928167,2374.896044,740.205942,8290.306550
1884.928484,2374.896044,444.123565,8512.368333
1884.928801,2987.772442,962.267725,8512.368333
1884.929119,2374.896044,518.144159,8586.388927
1884.929436,2374.896044,370.102971,8882.471304
1884.929753,1991.848295,-0.000000,8882.471304
1884.930070,1608.800546,-444.123565,9326.594869
1884.930388,995.924147,-666.185348,9844.739029
1884.930705,306.438199,-666.185348,10066.800811
1884.931022,-153.219100,-814.226536,10584.944971
1884.931339,-229.828649,-592.164754,10807.006753
1884.931657,0.000000,-370.102971,10807.006753
1884.931974,-383.047749,-370.102971,10732.986159
1884.932291,229.828649,-148.041188,10955.047942
1884.932609,689.485948,148.041188,10288.862594
1884.932926,689.485948,444.123565,10362.883188
1884.933243,995.924147,370.102971,9696.697840
1884.933560,919.314598,1184.329507,9474.636058
1884.933878,995.924147,1258.350101,9326.594869
1884.934195,383.047749,1258.350101,9622.677246
1884.934512,459.657299,1184.329507,9474.636058
1884.934829,229.828649,740.205942,9474.636058
1884.935147,0.000000,370.102971,9992.780217
1884.935464,-153.219100,518.144159,9844.739029
1884.935781,-306.438199,148.041188,10066.800811
1884.936098,-383.047749,148.041188,9992.780217
1884.936416,-153.219100,296.082377,10362.883188
1884.936733,0.000000,740.205942,9918.759623
1884.937050,0.000000,592.164754,9992.780217
1884.937368,459.657299,814.226536,10214.842000
1884.937685,1608.800546,740.205942,10140.821405
1884.938002,766.095498,962.267725,10066.800811
1884.938319,995.924147,1110.308913,9918.759623
1884.938637,1685.410096,1184.329507,9252.574275
1884.938954,1608.800546,1258.350101,9178.553681
1884.939271,2068.457845,1258.350101,8956.491898
1884.939588,2221.676944,814.226536,8882.471304
1884.939906,2374.896044,592.164754,8734.430116
1884.940223,2298.286494,740.205942,8734.430116
1884.940540,2298.286494,444.123565,9030.512492
1884.940858,1685.410096,-0.000000,9252.574275
1884.941175,1532.190996,-370.102971,9252.574275
1884.941492,766.095498,-666.185348,9474.636058
1884.941809,459.657299,-740.205942,9918.759623
1884.942127,459.657299,-962.267725,10214.842000
1884.942444,536.266849,-666.185348,10140.821405
1884.942761,536.266849,-740.205942,10362.883188
1884.943078,842.705048,-444.123565,9918.759623
1884.943396,766.095498,-444.123565,9548.656652
1884.943713,766.095498,-148.041188,9400.615463
1884.944030,919.314598,-148.041188,8956.491898
1884.944347,612.876398,444.123565,9030.512492
1884.944665,919.314598,222.061783,8882.471304
1884.944982,689.485948,370.102971,8660.409521
1884.945299,459.657299,-0.000000,8512.368333
1884.945617,229.828649,-444.123565,8808.450710
1884.945934,306.438199,-518.144159,8734.430116
1884.946251,153.219100,-666.185348,8808.450710
1884.946568,229.828649,-814.226536,8808.450710
1884.946886,229.828649,-740.205942,8808.450710
1884.947203,76.609550,-518.144159,8956.491898
1884.947520,383.047749,-0.000000,9178.553681
1884.947837,229.828649,-0.000000,9030.512492
1884.948155,383.047749,-0.000000,8956.491898
1884.948472,536.266849,222.061783,9030.512492
1884.948789,612.876398,-0.000000,9030.512492
1884.949106,1072.533697,-0.000000,8882.471304
1884.949424,1149.143247,148.041188,9030.512492
1884.949741,1378.971896,370.102971,8882.471304
1884.950058,1685.410096,666.185348,8882.471304
1884.950376,1991.848295,222.061783,8586.388927
1884.950693,1455.581446,370.102971,8660.409521
1884.951010,1608.800546,-0.000000,8956.491898
1884.951327,1225.752797,-222.061783,9252.574275
1884.951645,1072.533697,-666.185348,9474.636058
1884.951962,612.876398,-444.123565,9696.697840
1884.952279,766.095498,-296.082377,10066.800811
1884.952596,919.314598,-74.020594,10288.862594
1884.952914,1225.752797,-74.020594,9992.780217
1884.953231,1608.800546,-0.000000,9844.739029
1884.953548,1915.238745,444.123565,9696.697840
1884.953866,1685.410096,370.102971,9474.636058
1884.954183,1762.019645,592.164754,9844.739029
1884.954500,1608.800546,740.205942,9474.636058
1884.954817,1149.143247,666.185348,9622.677246
1884.955135,1225.752797,888.247130,9622.677246
1884.955452,919.314598,1036.288319,9696.697840
1884.955769,842.705048,888.247130,10066.800811
1884.956086,919.314598,592.164754,10584.944971
1884.956404,689.485948,444.123565,9918.759623
1884.956721,153.219100,148.041188,9918.759623
1884.957038,229.828649,296.082377,10140.821405
1884.957355,536.266849,444.123565,9918.759623
1884.957673,153.219100,592.164754,9770.718434
1884.957990,306.438199,888.247130,9844.739029
1884.958307,536.266849,1110.308913,9844.739029
1884.958625,383.047749,1258.350101,9622.677246
1884.958942,383.047749,888.247130,9548.656652
1884.959259,689.485948,1110.308913,9474.636058
1884.959576,459.657299,962.267725,9178.553681
1884.959894,842.705048,962.267725,9178.553681
1884.960211,995.924147,518.144159,8956.491898
1884.960528,459.657299,518.144159,9252.574275
1884.960845,919.314598,592.164754,9252.574275
1884.961163,919.314598,740.205942,9252.574275
1884.961480,689.485948,444.123565,9326.594869
1884.961797,459.657299,444.123565,9474.636058
1884.962115,76.609550,-0.000000,9622.677246
1884.962432,153.219100,-0.000000,9696.697840
1884.962749,76.609550,-0.000000,9474.636058
1884.963066,383.047749,-0.000000,9622.677246
1884.963384,842.705048,-148.041188,9770.718434
1884.963701,1225.752797,-444.123565,9548.656652
1884.964018,1225.752797,-518.144159,9622.677246
1884.964335,1608.800546,-370.102971,9400.615463
1884.964653,1455.581446,-148.041188,9178.553681
1884.964970,766.095498,222.061783,8734.430116
1884.965287,1455.581446,740.205942,8956.491898
1884.965604,1302.362347,444.123565,8734.430116
1884.965922,766.095498,518.144159,8882.471304
1884.966239,919.314598,370.102971,8808.450710
1884.966556,536.266849,-0.000000,8808.450710
1884.966874,689.485948,-74.020594,9252.574275
1884.967191,536.266849,-0.000000,9104.533087
1884.967508,0.000000,-0.000000,9030.512492
1884.967825,-306.438199,296.082377,8956.491898
1884.968143,-383.047749,148.041188,9474.636058
1884.968460,-306.438199,444.123565,9252.574275
1884.968777,-383.047749,518.144159,9474.636058
1884.969094,-306.438199,592.164754,9548.656652
1884.969412,-229.828649,370.102971,9474.636058
1884.969729,0.000000,444.123565,9474.636058
1884.970046,153.219100,962.267725,9326.594869
1884.970364,0.000000,740.205942,8734.430116
1884.970681,766.095498,962.267725,8290.306550
1884.970998,1072.533697,888.247130,8364.327145
1884.971315,1225.752797,370.102971,8438.347739
1884.971633,1225.752797,148.041188,8808.450710
1884.971950,766.095498,-0.000000,8956.491898
1884.972267,536.266849,-370.102971,9400.615463
1884.972584,153.219100,-518.144159,9474.636058
1884.972902,76.609550,-740.205942,9844.739029
1884.973219,0.000000,-296.082377,9992.780217
1884.973536,76.609550,148.041188,9992.780217
1884.973853,842.705048,-0.000000,10214.842000
1884.974171,1149.143247,-0.000000,10214.842000
1884.974488,1455.581446,-0.000000,10288.862594
1884.974805,1608.800546,-74.020594,10066.800811
1884.975123,1685.410096,296.082377,9696.697840
1884.975440,1915.238745,666.185348,9622.677246
1884.975757,1915.238745,-0.000000,9696.697840
1884.976074,2145.067394,666.185348,9696.697840
1884.976392,2145.067394,814.226536,9622.677246
1884.976709,2145.067394,444.123565,9770.718434
1884.977026,1838.629195,148.041188,9474.636058
1884.977343,1915.238745,-148.041188,9548.656652
1884.977661,1378.971896,-296.082377,9844.739029
1884.977978,1149.143247,-370.102971,9992.780217
1884.978295,995.924147,-148.041188,9844.739029
1884.978612,689.485948,-222.061783,10214.842000
1884.978930,536.266849,-74.020594,10436.903782
1884.979247,612.876398,-0.000000,9918.759623
1884.979564,612.876398,-0.000000,9844.739029
1884.979882,689.485948,222.061783,9622.677246
1884.980199,689.485948,296.082377,9474.636058
1884.980516,459.657299,444.123565,9548.656652
1884.980833,689.485948,370.102971,9104.533087
1884.981151,612.876398,296.082377,8882.471304
1884.981468,689.485948,222.061783,8956.491898
1884.981785,612.876398,-0.000000,9030.512492
1884.982102,306.438199,-74.020594,9104.533087
1884.982420,-229.828649,-222.061783,9474.636058
1884.982737,-383.047749,-370.102971,9326.594869
1884.983054,-612.876398,-296.082377,9252.574275
1884.983372,-919.314598,-148.041188,9326.594869
1884.983689,-995.924147,-148.041188,9400.615463
1884.984006,-1149.143247,-296.082377,9252.574275
1884.984323,0.000000,-222.061783,9918.759623
1884.984641,153.219100,-148.041188,9696.697840
1884.984958,306.438199,-0.000000,9252.574275
1884.985275,842.705048,148.041188,8956.491898
1884.985592,995.924147,740.205942,8734.430116
1884.985910,1378.971896,962.267725,8364.327145
1884.986227,1532.190996,1554.432478,8068.244768
1884.986544,1378.971896,1406.391290,8142.265362
1884.986861,1685.410096,1184.329507,8364.327145
1884.987179,1685.410096,1258.350101,8438.347739
1884.987496,1532.190996,740.205942,8512.368333
1884.987813,1378.971896,148.041188,8882.471304
1884.988131,995.924147,-74.020594,9252.574275
1884.988448,919.314598,222.061783,9178.553681
1884.988765,459.657299,222.061783,9178.553681
1884.989082,459.657299,-0.000000,9178.553681
1884.989400,766.095498,444.123565,9474.636058
1884.989717,459.657299,296.082377,9474.636058
1884.990034,612.876398,444.123565,9474.636058
1884.990352,459.657299,666.185348,9178.553681
1884.990669,612.876398,592.164754,9178.553681
1884.990987,229.828649,592.164754,9474.636058
1884.991304,306.438199,814.226536,9030.512492
1884.991621,383.047749,740.205942,9252.574275
1884.991938,153.219100,814.226536,9104.533087
1884.992256,76.609550,370.102971,9252.574275
1884.992573,-383.047749,444.123565,9474.636058
1884.992890,-689.485948,-0.000000,9548.656652
1884.993207,-995.924147,-0.000000,9844.739029
1884.993525,-1608.800546,-74.020594,10066.800811
1884.993842,-1685.410096,-222.061783,10732.986159
1884.994159,-1915.238745,370.102971,10881.027347
1884.994476,-1302.362347,370.102971,10955.047942
1884.994794,-612.876398,518.144159,11029.068536
1884.995111,0.000000,592.164754,10732.986159
1884.995428,1149.143247,814.226536,10362.883188
1884.995745,1378.971896,592.164754,9844.739029
1884.996063,1991.848295,1258.350101,9474.636058
1884.996380,2298.286494,962.267725,9474.636058
1884.996697,2298.286494,1184.329507,8956.491898
1884.997014,2298.286494,1110.308913,9104.533087
1884.997332,2451.505594,1406.391290,9326.594869
1884.997649,2145.067394,1184.329507,9104.533087
1884.997966,2145.067394,666.185348,9400.615463
1884.998283,1838.629195,-0.000000,9918.759623
1884.998600,1608.800546,-222.061783,9918.759623
1884.998918,1302.362347,-518.144159,9770.718434
1884.999235,1608.800546,-296.082377,10066.800811
1884.999552,1072.533697,-518.144159,10066.800811
1884.999869,1225.752797,-740.205942,10436.903782
1885.000187,995.924147,-296.082377,10362.883188
1885.000504,1302.362347,-148.041188,10140.821405
1885.000821,1225.752797,-74.020594,10066.800811
1885.001138,1455.581446,-0.000000,9918.759623
1885.001456,1302.362347,-0.000000,9474.636058
1885.001773,1455.581446,-0.000000,9104.533087
1885.002090,1762.019645,74.020594,8882.471304
1885.002407,1838.629195,-0.000000,8438.347739
1885.002725,1378.971896,-0.000000,8438.347739
1885.003042,1532.190996,-0.000000,8438.347739
1885.003359,842.705048,-370.102971,8586.388927
1885.003676,229.828649,-740.205942,8882.471304
1885.003994,-229.828649,-592.164754,9252.574275
1885.004311,-842.705048,-444.123565,9400.615463
1885.004628,-1072.533697,-1406.391290,9474.636058
1885.004945,-766.095498,-666.185348,9770.718434
1885.005263,-689.485948,-1036.288319,9844.739029
1885.005580,-383.047749,-518.144159,9548.656652
1885.005897,153.219100,-222.061783,9252.574275
1885.006214,459.657299,-0.000000,8660.409521
1885.006532,383.047749,148.041188,8808.450710
1885.006849,842.705048,370.102971,8734.430116
1885.007166,919.314598,592.164754,8216.285956
1885.007483,689.485948,-74.020594,8142.265362
1885.007801,919.314598,444.123565,8586.388927
1885.008118,919.314598,444.123565,8290.306550
1885.008435,1149.143247,-0.000000,8216.285956
1885.008752,766.095498,-222.061783,8364.327145
1885.009070,612.876398,-222.061783,8216.285956
1885.009387,612.876398,-370.102971,8660.409521
1885.009704,536.266849,-370.102971,8734.430116
1885.010021,153.219100,-666.185348,9178.553681
1885.010338,0.000000,-740.205942,9770.718434
1885.010656,383.047749,-370.102971,9696.697840
1885.010973,153.219100,-0.000000,10214.842000
1885.011290,919.314598,-0.000000,9918.759623
1885.011607,536.266849,296.082377,9844.739029
1885.011925,1149.143247,740.205942,9622.677246
1885.012242,1378.971896,666.185348,9474.636058
1885.012559,1762.019645,666.185348,9326.594869
1885.012876,1838.629195,888.247130,9104.533087
1885.013194,1915.238745,888.247130,9178.553681
1885.013511,1762.019645,444.123565,9104.533087
1885.013828,1762.019645,148.041188,9474.636058
1885.014145,1455.581446,-74.020594,9548.656652
1885.014463,1225.752797,-0.000000,9844.739029
1885.014780,766.095498,-74.020594,9770.718434
1885.015097,919.314598,-74.020594,10214.842000
1885.015414,842.705048,-148.041188,10362.883188
1885.015732,1072.533697,-0.000000,10807.006753
1885.016049,1378.971896,148.041188,10288.862594
1885.016366,1455.581446,370.102971,10288.862594
1885.016683,1378.971896,740.205942,10658.965565
1885.017001,1225.752797,518.144159,10214.842000
1885.017318,1378.971896,888.247130,9548.656652
1885.017635,1378.971896,1110.308913,9844.739029
1885.017952,1302.362347,1554.432478,9474.636058
1885.018270,1072.533697,1332.370696,9474.636058
1885.018587,1149.143247,1480.411884,9474.636058
1885.018904,1149.143247,1036.288319,9474.636058
1885.019221,459.657299,592.164754,9400.615463
1885.019539,306.438199,592.164754,9474.636058
1885.019856,306.438199,296.082377,9696.697840
1885.020173,-153.219100,296.082377,9918.759623
1885.020490,-229.828649,666.185348,9992.780217
1885.020808,0.000000,370.102971,10140.821405
1885.021125,229.828649,592.164754,10066.800811
1885.021442,0.000000,666.185348,9844.739029
1885.021759,153.219100,740.205942,9770.718434
1885.022076,383.047749,518.144159,9548.656652
1885.022394,612.876398,518.144159,9400.615463
1885.022711,995.924147,592.164754,8956.491898
1885.023028,766.095498,666.185348,8734.430116
1885.023345,995.924147,444.123565,8808.450710
1885.023663,919.314598,222.061783,8882.471304
1885.023980,1302.362347,-148.041188,9104.533087
1885.024297,612.876398,-518.144159,9104.533087
1885.024614,153.219100,-666.185348,9474.636058
1885.024932,0.000000,-1110.308913,9474.636058
1885.025249,0.000000,-666.185348,9622.677246
1885.025566,0.000000,-888.247130,9622.677246
1885.025883,306.438199,-296.082377,9622.677246
1885.026201,689.485948,-518.144159,9474.636058
1885.026518,919.314598,-370.102971,9252.574275
1885.026835,1685.410096,-222.061783,9030.512492
1885.027152,1915.238745,-0.000000,9104.533087
1885.027470,1532.190996,148.041188,8438.347739
1885.027787,1685.410096,518.144159,8216.285956
1885.028104,1378.971896,962.267725,7920.203579
1885.028421,1532.190996,814.226536,8142.265362
1885.028739,1302.362347,592.164754,8586.388927
1885.029056,995.924147,148.041188,8512.368333
1885.029373,689.485948,-74.020594,8956.491898
1885.029690,536.266849,-444.123565,9400.615463
1885.030008,0.000000,-148.041188,9252.574275
1885.030325,229.828649,-222.061783,9178.553681
1885.030642,153.219100,-0.000000,9178.553681
1885.030959,76.609550,296.082377,9252.574275
1885.031277,459.657299,444.123565,9326.594869
1885.031594,995.924147,518.144159,9474.636058
1885.031911,1149.143247,592.164754,9548.656652
1885.032228,1072.533697,370.102971,9400.615463
1885.032546,1532.190996,666.185348,8956.491898
1885.032863,1608.800546,444.123565,9326.594869
1885.033180,1455.581446,814.226536,9030.512492
1885.033497,1608.800546,592.164754,8660.409521
1885.033814,1838.629195,296.082377,9252.574275
1885.034132,1762.019645,222.061783,9252.574275
1885.034449,1378.971896,-148.041188,9696.697840
1885.034766,766.095498,-518.144159,9918.759623
1885.035083,229.828649,-888.247130,10140.821405
1885.035401,76.609550,-1036.288319,10288.862594
1885.035718,0.000000,-740.205942,10510.924376
1885.036035,0.000000,-592.164754,10732.986159
1885.036352,229.828649,-740.205942,10955.047942
1885.036670,306.438199,-518.144159,11103.089130
1885.036987,1149.143247,-444.123565,11029.068536
1885.037304,1302.362347,-296.082377,10732.986159
1885.037621,1455.581446,-0.000000,10288.862594
1885.037939,1532.190996,444.123565,9918.759623
1885.038256,2221.676944,814.226536,9474.636058
1885.038573,2068.457845,1184.329507,8956.491898
1885.038890,1991.848295,1554.432478,8956.491898
1885.039208,1915.238745,1554.432478,9030.512492
1885.039525,2298.286494,1258.350101,9178.553681
1885.039842,1532.190996,962.267725,9030.512492
1885.040159,1225.752797,444.123565,9178.553681
1885.040477,766.095498,148.041188,9178.553681
1885.040794,459.657299,148.041188,9104.533087
1885.041111,229.828649,444.123565,9474.636058
1885.041428,76.609550,370.102971,9400.615463
1885.041746,-153.219100,740.205942,9474.636058
1885.042063,0.000000,740.205942,9696.697840
1885.042380,76.609550,740.205942,9622.677246
1885.042697,0.000000,888.247130,9622.677246
1885.043015,0.000000,888.247130,9474.636058
1885.043332,0.000000,1332.370696,9252.574275
1885.043649,153.219100,1184.329507,8660.409521
1885.043966,612.876398,962.267725,8364.327145
1885.044284,306.438199,1184.329507,8290.306550
1885.044601,306.438199,962.267725,8216.285956
1885.044918,459.657299,814.226536,8586.388927
1885.045235,153.219100,222.061783,8734.430116
1885.045552,0.000000,-0.000000,9252.574275
1885.045870,-383.047749,-0.000000,9326.594869
1885.046187,-919.314598,-0.000000,9474.636058
1885.046504,-842.705048,-0.000000,9622.677246
1885.046821,-536.266849,-0.000000,9992.780217
1885.047139,0.000000,-0.000000,9992.780217
1885.047456,76.609550,-0.000000,9696.697840
1885.047773,306.438199,148.041188,9696.697840
1885.048090,612.876398,518.144159,9622.677246
1885.048408,995.924147,222.061783,9474.636058
1885.048725,689.485948,444.123565,9474.636058
1885.049042,1149.143247,740.205942,9104.533087
1885.049359,1608.800546,370.102971,9178.553681
1885.049677,1532.190996,444.123565,9178.553681
1885.049994,2068.457845,148.041188,9104.533087
1885.050311,2221.676944,-0.000000,8882.471304
1885.050628,1838.629195,-296.082377,9030.512492
1885.050946,1455.581446,-296.082377,9326.594869
1885.051263,1302.362347,-444.123565,9474.636058
1885.051580,1225.752797,-444.123565,9548.656652
1885.051897,1149.143247,-296.082377,9844.739029
1885.052215,919.314598,-74.020594,9696.697840
1885.052532,1302.362347,-518.144159,9992.780217
1885.052849,1532.190996,-74.020594,10066.800811
1885.053166,1302.362347,-370.102971,9992.780217
1885.053484,1378.971896,-0.000000,9474.636058
1885.053801,1072.533697,-0.000000,9030.512492
1885.054118,1149.143247,-0.000000,8956.491898
1885.054435,1072.533697,518.144159,8956.491898
1885.054753,995.924147,444.123565,9030.512492
1885.055070,766.095498,592.164754,9104.533087
1885.055387,766.095498,296.082377,9030.512492
1885.055704,229.828649,-296.082377,9622.677246
1885.056022,-306.438199,-814.226536,10140.821405
1885.056339,-612.876398,-370.102971,10140.821405
1885.056656,-995.924147,-296.082377,9844.739029
1885.056973,-1149.143247,-148.041188,9918.759623
1885.057290,-689.485948,-0.000000,9918.759623
1885.057608,-383.047749,148.041188,10066.800811
1885.057925,0.000000,444.123565,9696.697840
1885.058242,76.609550,222.061783,9622.677246
1885.058559,229.828649,222.061783,9844.739029
1885.058877,766.095498,-0.000000,9400.615463
1885.059194,383.047749,148.041188,9474.636058
1885.059511,612.876398,370.102971,9252.574275
1885.059828,0.000000,1036.288319,7402.059420
1885.060146,-306.438199,1406.391290,7772.162391
1885.060463,1302.362347,-740.205942,10140.821405
1885.060780,-536.266849,-74.020594,8660.409521
1885.061097,-306.438199,-888.247130,9474.636058
1885.061415,-1149.143247,-148.041188,9400.615463
1885.061732,-536.266849,-1628.453072,12065.356855
1885.062049,-995.924147,-2146.597232,11177.109724
1885.062366,-2145.067394,-592.164754,8808.450710
1885.062684,1149.143247,1776.494261,11103.089130
1885.063001,1532.190996,1406.391290,10436.903782
1885.063318,2451.505594,962.267725,9030.512492
1885.063635,2911.162892,1406.391290,8216.285956
1885.063953,2834.553343,1036.288319,9622.677246
1885.064270,3294.210641,1554.432478,8512.368333
1885.064587,3294.210641,-296.082377,8142.265362
1885.064904,3677.258390,1332.370696,7624.121203
1885.065222,3524.039291,1406.391290,8068.244768
1885.065539,2298.286494,1702.473667,7624.121203
1885.065856,2834.553343,-0.000000,9992.780217
1885.066173,1532.190996,-518.144159,9326.594869
1885.066491,383.047749,444.123565,8142.265362
1885.066808,0.000000,-444.123565,11103.089130
1885.067125,-536.266849,-1406.391290,10658.965565
1885.067442,-383.047749,-814.226536,9326.594869
1885.067760,-1225.752797,518.144159,9992.780217
1885.068077,-842.705048,-518.144159,11769.274478
1885.068394,383.047749,-370.102971,9622.677246
1885.068711,0.000000,444.123565,9252.574275
1885.069028,383.047749,296.082377,11103.089130
1885.069346,612.876398,-0.000000,9696.697840
1885.069663,995.924147,666.185348,8068.244768
1885.069980,1225.752797,518.144159,8512.368333
1885.070297,1072.533697,1184.329507,8808.450710
1885.070615,536.266849,1184.329507,8068.244768
1885.070932,842.705048,888.247130,9178.553681
1885.071249,612.876398,-0.000000,9178.553681
1885.071566,383.047749,370.102971,8512.368333
1885.071884,-612.876398,148.041188,9474.636058
1885.072201,-766.095498,-666.185348,10288.862594
1885.072518,153.219100,-666.185348,9770.718434
1885.072835,-536.266849,814.226536,9622.677246
1885.073153,229.828649,1036.288319,10436.903782
1885.073470,919.314598,-0.000000,10066.800811
1885.073787,1532.190996,296.082377,9474.636058
1885.074104,1685.410096,1480.411884,8882.471304
1885.074422,1838.629195,1332.370696,9474.636058
1885.074739,2145.067394,518.144159,9104.533087
1885.075056,1991.848295,1258.350101,8290.306550
1885.075373,2145.067394,2146.597232,8438.347739
1885.075691,1608.800546,1036.288319,9474.636058
1885.076008,1838.629195,888.247130,8956.491898
1885.076325,1532.190996,1332.370696,7994.224174
1885.076642,919.314598,592.164754,8956.491898
1885.076960,0.000000,-74.020594,9696.697840
1885.077277,-76.609550,-518.144159,9844.739029
1885.077594,-766.095498,-814.226536,9474.636058
1885.077911,-1378.971896,-1110.308913,10732.986159
1885.078229,-1455.581446,-1036.288319,11251.130318
1885.078546,-1149.143247,-1110.308913,10881.027347
1885.078863,-766.095498,-1110.308913,10955.047942
1885.079180,-536.266849,-74.020594,11029.068536
1885.079498,0.000000,740.205942,10436.903782
1885.079815,919.314598,962.267725,9326.594869
1885.080132,1072.533697,962.267725,9030.512492
1885.080449,1149.143247,1406.391290,8438.347739
1885.080766,1225.752797,1258.350101,8512.368333
1885.081084,1455.581446,962.267725,9178.553681
1885.081401,1762.019645,370.102971,9030.512492
1885.081718,1762.019645,296.082377,8882.471304
1885.082035,1532.190996,370.102971,9252.574275
1885.082353,1378.971896,-74.020594,9326.594869
1885.082670,1149.143247,-444.123565,9474.636058
1885.082987,1302.362347,-74.020594,9918.759623
1885.083304,1685.410096,148.041188,9770.718434
1885.083622,1532.190996,222.061783,9992.780217
1885.083939,1762.019645,-0.000000,10066.800811
1885.084256,1915.238745,-222.061783,10214.842000
1885.084573,2604.724693,-0.000000,10214.842000
1885.084891,2451.505594,222.061783,9696.697840
1885.085208,2451.505594,592.164754,9252.574275
1885.085525,2451.505594,962.267725,8734.430116
1885.085842,2604.724693,814.226536,8586.388927
1885.086160,2681.334243,296.082377,8216.285956
1885.086477,2681.334243,-0.000000,8438.347739
1885.086794,2068.457845,-222.061783,8216.285956
1885.087111,2068.457845,-518.144159,8290.306550
1885.087429,1915.238745,-1332.370696,9178.553681
1885.087746,383.047749,-1850.514855,9474.636058
1885.088063,-306.438199,-1702.473667,9474.636058
1885.088380,-919.314598,-1406.391290,9622.677246
1885.088698,-842.705048,-1184.329507,10288.862594
1885.089015,-766.095498,-1406.391290,10510.924376
1885.089332,-612.876398,-1110.308913,10214.842000
1885.089649,-612.876398,-888.247130,10288.862594
1885.089967,-383.047749,-296.082377,9844.739029
1885.090284,153.219100,-296.082377,9400.615463
1885.090601,0.000000,-370.102971,9326.594869
1885.090918,612.876398,222.061783,8808.450710
1885.091236,229.828649,592.164754,8142.265362
1885.091553,536.266849,518.144159,8216.285956
1885.091870,612.876398,148.041188,8512.368333
1885.092187,842.705048,222.061783,8734.430116
1885.092505,459.657299,-0.000000,8586.388927
1885.092822,153.219100,-0.000000,8882.471304
1885.093139,-153.219100,-518.144159,8956.491898
1885.093457,-383.047749,-444.123565,9326.594869
1885.093774,-229.828649,-296.082377,9178.553681
1885.094091,0.000000,222.061783,9548.656652
1885.094409,229.828649,222.061783,9474.636058
1885.094726,153.219100,-0.000000,9696.697840
1885.095043,536.266849,444.123565,9474.636058
1885.095361,689.485948,962.267725,9474.636058
1885.095678,919.314598,1110.308913,9178.553681
1885.095995,1378.971896,1110.308913,8882.471304
1885.096313,1302.362347,1776.494261,8438.347739
1885.096630,1608.800546,1776.494261,8216.285956
1885.096947,1608.800546,1258.350101,8586.388927
1885.097265,1455.581446,1036.288319,8882.471304
1885.097582,1225.752797,962.267725,8882.471304
1885.097899,766.095498,740.205942,9104.533087
1885.098217,383.047749,148.041188,9548.656652
1885.098534,76.609550,222.061783,9770.718434
1885.098851,-153.219100,666.185348,9770.718434
1885.099169,0.000000,1036.288319,9992.780217
1885.099486,229.828649,888.247130,10584.944971
1885.099803,383.047749,814.226536,10658.965565
1885.100121,995.924147,888.247130,10288.862594
1885.100438,1149.143247,1184.329507,10140.821405
1885.100755,1378.971896,1332.370696,9696.697840
1885.101073,1532.190996,1406.391290,9474.636058
1885.101390,1685.410096,1850.514855,9474.636058
1885.101707,1608.800546,1628.453072,9326.594869
1885.102025,1608.800546,1628.453072,9252.574275
1885.102342,1532.190996,1406.391290,9548.656652
1885.102659,1532.190996,1036.288319,9548.656652
1885.102977,1072.533697,740.205942,9770.718434
1885.103294,229.828649,-0.000000,10066.800811
1885.103611,0.000000,-296.082377,10584.944971
1885.103929,0.000000,-0.000000,10288.862594
1885.104246,76.609550,370.102971,9844.739029
1885.104563,459.657299,592.164754,10140.821405
1885.104881,76.609550,518.144159,10436.903782
1885.105198,306.438199,740.205942,10140.821405
1885.105515,459.657299,740.205942,10066.800811
1885.105833,306.438199,222.061783,9992.780217
1885.106150,383.047749,-222.061783,9770.718434
1885.106467,153.219100,370.102971,9696.697840
1885.106785,229.828649,444.123565,9474.636058
1885.107102,306.438199,444.123565,9474.636058
1885.107419,766.095498,296.082377,9326.594869
1885.107737,919.314598,-0.000000,9474.636058
1885.108054,612.876398,-148.041188,9474.636058
1885.108371,229.828649,-592.164754,9770.718434
1885.108689,0.000000,-814.226536,9770.718434
1885.109006,-153.219100,-666.185348,9844.739029
1885.109323,153.219100,-518.144159,10066.800811
1885.109641,0.000000,-444.123565,9622.677246
1885.109958,1149.143247,-222.061783,9474.636058
1885.110275,1608.800546,-444.123565,9252.574275
1885.110593,2374.896044,-296.082377,9030.512492
1885.110910,2374.896044,-962.267725,9326.594869
1885.111227,2528.115143,-740.205942,8808.450710
1885.111545,2528.115143,-370.102971,8438.347739
1885.111862,2681.334243,-0.000000,8216.285956
1885.112179,2604.724693,-0.000000,8290.306550
1885.112497,2834.553343,-296.082377,8290.306550
1885.112814,2834.553343,-0.000000,8290.306550
1885.113131,2451.505594,-74.020594,8290.306550
1885.113449,1915.238745,-592.164754,8734.430116
1885.113766,1838.629195,-814.226536,8882.471304
1885.114083,1685.410096,-1036.288319,9104.533087
1885.114401,1838.629195,-1036.288319,8956.491898
1885.114718,1455.581446,-888.247130,9104.533087
1885.115035,1302.362347,-814.226536,9104.533087
1885.115353,1225.752797,-222.061783,9326.594869
1885.115670,1225.752797,-444.123565,9178.553681
1885.115987,1685.410096,-0.000000,8882.471304
1885.116305,1225.752797,-0.000000,8512.368333
1885.116622,1302.362347,-0.000000,8586.388927
1885.116939,1302.362347,-0.000000,8438.347739
1885.117257,842.705048,148.041188,8364.327145
1885.117574,919.314598,222.061783,8512.368333
1885.117891,612.876398,148.041188,8438.347739
1885.118209,459.657299,-0.000000,8734.430116
1885.118526,229.828649,-222.061783,8734.430116
1885.118843,-459.657299,-370.102971,9178.553681
1885.119161,-1378.971896,-222.061783,9548.656652
1885.119478,-1608.800546,-148.041188,9548.656652
1885.119795,-1455.581446,-148.041188,9844.739029
1885.120113,-1608.800546,-0.000000,10436.903782
1885.120430,-1149.143247,-148.041188,10436.903782
1885.120747,-995.924147,-0.000000,10066.800811
1885.121065,-306.438199,296.082377,9918.759623
1885.121382,229.828649,148.041188,10140.821405
1885.121699,229.828649,814.226536,9474.636058
1885.122017,306.438199,1036.288319,9400.615463
1885.122334,689.485948,1258.350101,9104.533087
1885.122651,612.876398,1924.535449,9030.512492
1885.122969,1225.752797,1998.556043,9178.553681
1885.123286,766.095498,1702.473667,9400.615463
1885.123603,842.705048,1258.350101,9474.636058
1885.123921,842.705048,1184.329507,9474.636058
1885.124238,459.657299,814.226536,9770.718434
1885.124555,306.438199,296.082377,9918.759623
1885.124873,383.047749,518.144159,9992.780217
1885.125190,689.485948,814.226536,10140.821405
1885.125507,995.924147,1036.288319,10288.862594
1885.125825,1302.362347,1628.453072,10288.862594
1885.126142,1608.800546,1480.411884,10140.821405
1885.126459,1838.629195,1776.494261,9844.739029
1885.126776,1762.019645,1554.432478,9548.656652
1885.127094,1685.410096,1924.535449,9548.656652
1885.127411,1915.238745,1702.473667,9548.656652
1885.127728,1762.019645,1776.494261,9474.636058
1885.128046,1455.581446,1332.370696,9474.636058
1885.128363,1762.019645,1036.288319,9474.636058
1885.128680,1225.752797,592.164754,9548.656652
1885.128998,1378.971896,444.123565,9696.697840
1885.129315,612.876398,-0.000000,9622.677246
1885.129632,153.219100,-0.000000,10066.800811
1885.129950,-306.438199,-0.000000,10140.821405
1885.130267,-306.438199,370.102971,10288.862594
1885.130584,-229.828649,518.144159,10214.842000
1885.130902,0.000000,370.102971,10510.924376
1885.131219,383.047749,740.205942,10510.924376
1885.131536,612.876398,222.061783,10066.800811
1885.131854,1149.143247,370.102971,10066.800811
1885.132171,1072.533697,148.041188,9696.697840
1885.132488,1302.362347,370.102971,9178.553681
1885.132806,1149.143247,666.185348,8660.409521
1885.133123,1302.362347,592.164754,8808.450710
1885.133440,1072.533697,148.041188,8660.409521
1885.133758,1072.533697,370.102971,8882.471304
1885.134075,995.924147,-74.020594,8734.430116
1885.134392,0.000000,-444.123565,9178.553681
1885.134710,-229.828649,-1036.288319,9474.636058
1885.135027,-612.876398,-1036.288319,9844.739029
1885.135344,-536.266849,-962.267725,9696.697840
1885.135662,-536.266849,-1036.288319,9992.780217
1885.135979,0.000000,-962.267725,9844.739029
1885.136296,459.657299,-962.267725,9696.697840
1885.136614,919.314598,-592.164754,9548.656652
1885.136931,1225.752797,-666.185348,9326.594869
1885.137248,1455.581446,-592.164754,9178.553681
1885.137566,1378.971896,-518.144159,8734.430116
1885.137883,1532.190996,-370.102971,8586.388927
1885.138200,1762.019645,-0.000000,7994.224174
1885.138518,1991.848295,148.041188,8068.244768
1885.138835,1838.629195,-74.020594,8216.285956
1885.139152,1838.629195,-444.123565,8142.265362
1885.139470,1608.800546,-1110.308913,8364.327145
1885.139787,842.705048,-1184.329507,8364.327145
1885.140104,383.047749,-1406.391290,8808.450710
1885.140422,76.609550,-1110.308913,9104.533087
1885.140739,-229.828649,-1184.329507,9548.656652
1885.141056,459.657299,-1258.350101,9696.697840
1885.141374,153.219100,-518.144159,9770.718434
1885.141691,383.047749,-444.123565,9844.739029
1885.142008,842.705048,-148.041188,9548.656652
1885.142326,1608.800546,222.061783,9178.553681
1885.142643,1762.019645,592.164754,9104.533087
1885.142960,1915.238745,888.247130,8364.327145
1885.143278,2298.286494,1406.391290,8068.244768
1885.143595,2298.286494,1480.411884,7846.182985
1885.143912,2604.724693,1480.411884,8216.285956
1885.144230,2298.286494,1110.308913,8512.368333
1885.144547,1378.971896,1036.288319,8512.368333
1885.144864,1072.533697,444.123565,9030.512492
1885.145182,383.047749,-0.000000,9474.636058
1885.145499,-306.438199,-222.061783,9622.677246
1885.145816,-383.047749,-296.082377,9918.759623
1885.146134,-383.047749,148.041188,10140.821405
1885.146451,-229.828649,222.061783,10362.883188
1885.146768,0.000000,518.144159,10584.944971
1885.147086,76.609550,888.247130,10510.924376
1885.147403,306.438199,962.267725,10288.862594
1885.147720,459.657299,1110.308913,9992.780217
1885.148038,229.828649,1184.329507,9992.780217
1885.148355,306.438199,1184.329507,9696.697840
1885.148672,842.705048,962.267725,10140.821405
1885.148990,612.876398,962.267725,9622.677246
1885.149307,612.876398,1036.288319,9844.739029
1885.149624,459.657299,592.164754,9696.697840
1885.149942,229.828649,148.041188,9474.636058
1885.150259,-536.266849,-0.000000,9992.780217
1885.150576,-919.314598,-370.102971,9992.780217
1885.150894,-1225.752797,-0.000000,10584.944971
1885.151211,-1225.752797,296.082377,10584.944971
1885.151528,-1149.143247,148.041188,10732.986159
1885.151846,-536.266849,444.123565,10807.006753
1885.152163,-153.219100,666.185348,10510.924376
1885.152480,459.657299,592.164754,10510.924376
1885.152798,689.485948,666.185348,9992.780217
1885.153115,1915.238745,740.205942,9474.636058
1885.153432,2221.676944,1702.473667,9178.553681
1885.153750,2145.067394,1554.432478,8882.471304
1885.154067,2374.896044,1554.432478,8290.306550
1885.154384,2451.505594,1702.473667,8734.430116
1885.154702,2221.676944,1554.432478,8734.430116
1885.155019,1991.848295,1332.370696,8808.450710
1885.155336,1532.190996,888.247130,8808.450710
1885.155654,1225.752797,370.102971,9030.512492
1885.155971,842.705048,-0.000000,9474.636058
1885.156288,459.657299,-296.082377,9844.739029
1885.156606,536.266849,-0.000000,9918.759623
1885.156923,689.485948,-74.020594,9770.718434
1885.157240,919.314598,-0.000000,10140.821405
1885.157558,1225.752797,148.041188,9918.759623
1885.157875,1225.752797,444.123565,9474.636058
1885.158192,1608.800546,740.205942,9326.594869
1885.158510,1685.410096,444.123565,9400.615463
1885.158827,2068.457845,592.164754,8882.471304
1885.159144,2451.505594,74.020594,8808.450710
1885.159462,1608.800546,148.041188,8586.388927
1885.159779,1685.410096,296.082377,8364.327145
1885.160096,1532.190996,222.061783,8364.327145
1885.160414,1302.362347,-148.041188,8660.409521
1885.160731,842.705048,-666.185348,8808.450710
1885.161048,0.000000,-814.226536,9474.636058
1885.161366,-612.876398,-1184.329507,9548.656652
1885.161683,-1225.752797,-1258.350101,9844.739029
1885.162000,-1225.752797,-1406.391290,10362.883188
1885.162318,-1149.143247,-1184.329507,10214.842000
1885.162635,-1838.629195,-1036.288319,9178.553681
1885.162952,-1685.410096,-1110.308913,9548.656652
1885.163270,-612.876398,-1924.535449,10436.903782
1885.163587,-1072.533697,-1110.308913,9696.697840
1885.163904,-1072.533697,-1850.514855,9918.759623
1885.164222,-1149.143247,-740.205942,9400.615463
1885.164539,-229.828649,-1406.391290,10881.027347
1885.164856,-229.828649,-888.247130,9548.656652
1885.165174,153.219100,-0.000000,8808.450710
1885.165491,1225.752797,814.226536,8882.471304
1885.165808,2145.067394,444.123565,9326.594869
1885.166126,2068.457845,-222.061783,8808.450710
1885.166443,2528.115143,-148.041188,8512.368333
1885.166760,2911.162892,-0.000000,9400.615463
1885.167078,2911.162892,-0.000000,8808.450710
1885.167395,3370.820191,-592.164754,9326.594869
1885.167712,3370.820191,740.205942,8660.409521
1885.168030,3907.087040,296.082377,9178.553681
1885.168347,3217.601092,962.267725,8956.491898
1885.168664,3753.867940,-148.041188,9844.739029
1885.168982,2987.772442,592.164754,8660.409521
1885.169299,2834.553343,1776.494261,8586.388927
1885.169616,2528.115143,1110.308913,9770.718434
1885.169934,2221.676944,148.041188,9548.656652
1885.170251,2145.067394,1110.308913,8290.306550
1885.170568,1762.019645,1554.432478,9252.574275
1885.170886,1685.410096,296.082377,10584.944971
1885.171203,1378.971896,-222.061783,9252.574275
1885.171520,536.266849,-0.000000,9474.636058
1885.171837,0.000000,444.123565,10288.862594
1885.172155,-229.828649,222.061783,9400.615463
1885.172472,-76.609550,-0.000000,9326.594869
1885.172789,-536.266849,148.041188,9770.718434
1885.173107,-536.266849,888.247130,9622.677246
1885.173424,-1072.533697,814.226536,9400.615463
1885.173741,-383.047749,518.144159,9992.780217
1885.174059,-612.876398,518.144159,9252.574275
1885.174376,-766.095498,962.267725,8808.450710
1885.174693,-995.924147,962.267725,9178.553681
1885.175011,-995.924147,740.205942,9400.615463
1885.175328,-459.657299,1332.370696,8734.430116
1885.175645,-536.266849,1998.556043,9104.533087
1885.175963,0.000000,1554.432478,9474.636058
1885.176280,0.000000,-0.000000,9548.656652
1885.176597,-229.828649,-74.020594,9326.594869
1885.176915,-689.485948,370.102971,9474.636058
1885.177232,-536.266849,444.123565,10510.924376
1885.177549,0.000000,-222.061783,10288.862594
1885.177867,536.266849,296.082377,9844.739029
1885.178184,612.876398,962.267725,10140.821405
1885.178501,842.705048,592.164754,10140.821405
1885.178819,1225.752797,666.185348,9326.594869
1885.179136,1455.581446,1332.370696,8882.471304
1885.179453,1225.752797,1258.350101,9030.512492
1885.179771,-383.047749,962.267725,8216.285956
1885.180088,306.438199,-370.102971,8882.471304
1885.180405,842.705048,-962.267725,9548.656652
1885.180723,76.609550,-0.000000,9844.739029
1885.181040,76.609550,-666.185348,10214.842000
1885.181357,0.000000,-518.144159,9918.759623
1885.181675,229.828649,-1702.473667,10881.027347
1885.181992,-612.876398,-1184.329507,10288.862594
1885.182309,0.000000,296.082377,10140.821405
1885.182627,0.000000,1332.370696,9252.574275
1885.182944,995.924147,1110.308913,10140.821405
1885.183261,919.314598,1184.329507,9474.636058
1885.183579,1685.410096,1036.288319,10066.800811
1885.183896,2451.505594,-0.000000,10140.821405
1885.184213,2451.505594,148.041188,9104.533087
1885.184531,2987.772442,444.123565,8586.388927
1885.184848,2834.553343,1184.329507,7179.997637
1885.185165,3447.429741,962.267725,7698.141797
1885.185483,2451.505594,888.247130,7920.203579
1885.185800,3294.210641,370.102971,8808.450710
1885.186117,2528.115143,1554.432478,7254.018232
1885.186435,1685.410096,1036.288319,8586.388927
1885.186752,1608.800546,-222.061783,10140.821405
1885.187069,1149.143247,-1110.308913,10066.800811
1885.187387,689.485948,-222.061783,9548.656652
1885.187704,689.485948,296.082377,10288.862594
1885.188021,1685.410096,222.061783,10214.842000
1885.188339,2374.896044,962.267725,9104.533087
1885.188656,2374.896044,888.247130,9474.636058
1885.188973,2374.896044,592.164754,9326.594869
1885.189291,2451.505594,-0.000000,8660.409521
1885.189608,2068.457845,-148.041188,8808.450710
1885.189925,1838.629195,-0.000000,8956.491898
1885.190243,1149.143247,-0.000000,8808.450710
1885.190560,612.876398,-296.082377,9326.594869
1885.190877,689.485948,-518.144159,9326.594869
1885.191195,76.609550,-592.164754,9474.636058
1885.191512,0.000000,-370.102971,9474.636058
1885.191829,-612.876398,-1110.308913,10066.800811
1885.192147,-1149.143247,-1702.473667,10066.800811
1885.192464,-1685.410096,-1480.411884,10214.842000
1885.192781,-2298.286494,-592.164754,10288.862594
1885.193099,-1915.238745,-740.205942,10881.027347
1885.193416,-1455.581446,-1258.350101,11029.068536
1885.193733,-1302.362347,-370.102971,10288.862594
1885.194051,-766.095498,-0.000000,10436.903782
1885.194368,76.609550,-74.020594,10584.944971
1885.194685,842.705048,-0.000000,9400.615463
1885.195003,1225.752797,1036.288319,8882.471304
1885.195320,1455.581446,814.226536,8364.327145
1885.195638,1302.362347,888.247130,8512.368333
1885.195955,1608.800546,814.226536,7920.203579
1885.196272,1762.019645,1036.288319,8438.347739
1885.196590,1302.362347,666.185348,8586.388927
1885.196907,995.924147,444.123565,8734.430116
1885.197224,459.657299,-296.082377,9178.553681
1885.197542,306.438199,-370.102971,9548.656652
1885.197859,0.000000,-0.000000,9548.656652
1885.198176,459.657299,296.082377,9474.636058
1885.198494,612.876398,148.041188,9326.594869
1885.198811,612.876398,296.082377,9400.615463
1885.199129,1149.143247,814.226536,9696.697840
1885.199446,1685.410096,1258.350101,9252.574275
1885.199763,1838.629195,1036.288319,9178.553681
1885.200081,1762.019645,1258.350101,9400.615463
1885.200398,2221.676944,1702.473667,8660.409521
1885.200715,2145.067394,1480.411884,8512.368333
1885.201033,2068.457845,1258.350101,8512.368333
1885.201350,2145.067394,1036.288319,8734.430116
1885.201667,2145.067394,1776.494261,8364.327145
1885.201985,1762.019645,518.144159,8512.368333
1885.202302,1302.362347,-370.102971,8808.450710
1885.202620,383.047749,-222.061783,9326.594869
1885.202937,76.609550,-74.020594,9622.677246
1885.203254,-842.705048,-148.041188,9696.697840
1885.203572,-919.314598,-370.102971,10214.842000
1885.203889,-1149.143247,-0.000000,10732.986159
1885.204206,-1225.752797,-0.000000,10584.944971
1885.204524,-1072.533697,444.123565,10807.006753
1885.204841,-459.657299,222.061783,10362.883188
1885.205158,0.000000,666.185348,9770.718434
1885.205476,0.000000,888.247130,9474.636058
1885.205793,153.219100,1184.329507,9474.636058
1885.206110,76.609550,814.226536,9104.533087
1885.206428,383.047749,962.267725,9030.512492
1885.206745,459.657299,1036.288319,9252.574275
1885.207063,459.657299,1036.288319,9252.574275
1885.207380,383.047749,296.082377,9400.615463
1885.207697,229.828649,-74.020594,9696.697840
1885.208015,153.219100,-0.000000,9622.677246
1885.208332,-229.828649,-222.061783,9474.636058
1885.208649,0.000000,-148.041188,9844.739029
1885.208967,-229.828649,-222.061783,9992.780217
1885.209284,459.657299,-0.000000,10732.986159
1885.209601,536.266849,-0.000000,10362.883188
1885.209919,919.314598,222.061783,10214.842000
1885.210236,1455.581446,-0.000000,10288.862594
1885.210554,1838.629195,296.082377,9918.759623
1885.210871,1149.143247,592.164754,9474.636058
1885.211188,1762.019645,814.226536,9400.615463
1885.211506,2068.457845,1110.308913,9326.594869
1885.211823,2298.286494,1258.350101,8956.491898
1885.212140,2374.896044,962.267725,8586.388927
1885.212458,2374.896044,740.205942,8882.471304
1885.212775,2145.067394,-0.000000,9104.533087
1885.213092,1532.190996,-518.144159,9400.615463
1885.213410,919.314598,-740.205942,9548.656652
1885.213727,536.266849,-1110.308913,9918.759623
1885.214045,383.047749,-1110.308913,10140.821405
1885.214362,459.657299,-888.247130,10510.924376
1885.214679,842.705048,-222.061783,10140.821405
1885.214997,1225.752797,-0.000000,9622.677246
1885.215314,1225.752797,296.082377,9622.677246
1885.215631,1838.629195,-0.000000,9474.636058
1885.215949,1838.629195,-0.000000,9104.533087
1885.216266,1991.848295,370.102971,8438.347739
1885.216583,1762.019645,444.123565,8660.409521
1885.216901,1532.190996,444.123565,8586.388927
1885.217218,1838.629195,962.267725,8660.409521
1885.217535,1532.190996,592.164754,8660.409521
1885.217853,1225.752797,444.123565,8734.430116
1885.218170,1302.362347,-0.000000,8956.491898
1885.218488,229.828649,-74.020594,8956.491898
1885.218805,0.000000,-74.020594,9252.574275
1885.219122,-306.438199,-444.123565,9474.636058
1885.219440,-536.266849,-518.144159,9474.636058
1885.219757,0.000000,-222.061783,10066.800811
1885.220074,-153.219100,-0.000000,9770.718434
1885.220392,-306.438199,-0.000000,9696.697840
1885.220709,-306.438199,-148.041188,9548.656652
1885.221026,-689.485948,-0.000000,9696.697840
1885.221344,459.657299,-0.000000,9326.594869
1885.221661,0.000000,222.061783,8808.450710
1885.221979,0.000000,444.123565,8956.491898
1885.222296,0.000000,518.144159,8882.471304
1885.222613,229.828649,740.205942,8956.491898
1885.222931,383.047749,666.185348,9252.574275
1885.223248,383.047749,-74.020594,9474.636058
1885.223565,-383.047749,-74.020594,9400.615463
1885.223883,-383.047749,-148.041188,9548.656652
1885.224200,0.000000,-0.000000,9844.739029
1885.224517,-459.657299,-0.000000,9992.780217
1885.224835,0.000000,148.041188,9844.739029
1885.225152,306.438199,222.061783,9770.718434
1885.225470,919.314598,148.041188,9622.677246
1885.225787,1072.533697,370.102971,9696.697840
1885.226104,1072.533697,222.061783,9622.677246
1885.226422,1455.581446,592.164754,9326.594869
1885.226739,766.095498,740.205942,8660.409521
1885.227056,1149.143247,888.247130,8808.450710
1885.227374,1072.533697,666.185348,9030.512492
1885.227691,1072.533697,1184.329507,8956.491898
1885.228008,1378.971896,888.247130,9252.574275
1885.228326,1149.143247,592.164754,9252.574275
1885.228643,1072.533697,-74.020594,9770.718434
1885.228960,766.095498,-0.000000,9474.636058
1885.229278,612.876398,-74.020594,9844.739029
1885.229595,612.876398,-0.000000,9992.780217
1885.229913,995.924147,518.144159,10288.862594
1885.230230,1532.190996,518.144159,9992.780217
1885.230547,1915.238745,962.267725,9992.780217
1885.230865,1685.410096,666.185348,9696.697840
1885.231182,1838.629195,592.164754,9622.677246
1885.231499,1762.019645,666.185348,9474.636058
1885.231817,1608.800546,444.123565,9326.594869
1885.232134,1378.971896,592.164754,9178.553681
1885.232451,1455.581446,814.226536,9178.553681
1885.232769,1378.971896,518.144159,9326.594869
1885.233086,1302.362347,592.164754,9178.553681
1885.233404,1302.362347,-0.000000,9696.697840
1885.233721,689.485948,-296.082377,9548.656652
1885.234038,-229.828649,-962.267725,9918.759623
1885.234356,-842.705048,-1332.370696,10288.862594
1885.234673,-1378.971896,-962.267725,10807.006753
1885.234990,-1149.143247,-888.247130,10732.986159
1885.235308,-919.314598,-592.164754,10658.965565
1885.235625,-306.438199,-148.041188,10584.944971
1885.235942,306.438199,-0.000000,10214.842000
1885.236260,766.095498,-0.000000,9770.718434
1885.236577,1225.752797,-0.000000,9252.574275
1885.236895,1225.752797,222.061783,8734.430116
1885.237212,1455.581446,296.082377,8512.368333
1885.237529,1225.752797,740.205942,8438.347739
1885.237847,1532.190996,962.267725,8438.347739
1885.238164,1608.800546,1036.288319,8216.285956
1885.238481,1608.800546,888.247130,8216.285956
1885.238799,1378.971896,444.123565,8512.368333
1885.239116,1149.143247,-0.000000,8660.409521
1885.239433,459.657299,-0.000000,9326.594869
1885.239751,153.219100,-814.226536,9178.553681
1885.240068,0.000000,-814.226536,9548.656652
1885.240385,0.000000,-296.082377,9548.656652
1885.240703,459.657299,-0.000000,9696.697840
1885.241020,919.314598,296.082377,9622.677246
1885.241338,1149.143247,592.164754,9474.636058
1885.241655,1149.143247,666.185348,9326.594869
1885.241972,1455.581446,888.247130,9178.553681
1885.242290,1608.800546,592.164754,8956.491898
1885.242607,1838.629195,518.144159,8660.409521
1885.242924,1838.629195,1036.288319,8290.306550
1885.243242,1762.019645,888.247130,8142.265362
1885.243559,1685.410096,888.247130,8438.347739
1885.243876,1455.581446,222.061783,8660.409521
1885.244194,842.705048,-0.000000,9030.512492
1885.244511,-153.219100,-148.041188,9548.656652
1885.244829,-459.657299,-370.102971,9770.718434
1885.245146,-995.924147,-148.041188,9918.759623
1885.245463,-919.314598,-74.020594,10140.821405
1885.245781,-995.924147,-148.041188,10584.944971
1885.246098,-459.657299,296.082377,10732.986159
1885.246415,229.828649,-0.000000,10288.862594
1885.246733,842.705048,296.082377,10140.821405
1885.247050,919.314598,296.082377,9918.759623
1885.247367,1378.971896,518.144159,9548.656652
1885.247685,1685.410096,740.205942,9104.533087
1885.248002,1685.410096,1110.308913,8808.450710
1885.248320,1685.410096,1332.370696,8660.409521
1885.248637,1915.238745,1110.308913,8808.450710
1885.248954,1532.190996,1036.288319,9178.553681
1885.249272,1302.362347,222.061783,9178.553681
1885.249589,1302.362347,-0.000000,9548.656652
1885.249906,842.705048,-370.102971,9844.739029
1885.250224,306.438199,-444.123565,9770.718434
1885.250541,229.828649,-740.205942,10214.842000
1885.250858,229.828649,-444.123565,10436.903782
1885.251176,383.047749,-74.020594,10510.924376
1885.251493,919.314598,-148.041188,10584.944971
1885.251810,1455.581446,814.226536,10140.821405
1885.252128,1455.581446,74.020594,9770.718434
1885.252445,1532.190996,518.144159,9696.697840
1885.252763,1608.800546,370.102971,9326.594869
1885.253080,1838.629195,444.123565,8734.430116
1885.253397,1608.800546,962.267725,8364.327145
1885.253715,1838.629195,444.123565,8512.368333
1885.254032,1608.800546,148.041188,8734.430116
1885.254349,1455.581446,222.061783,8660.409521
1885.254667,1149.143247,-222.061783,8808.450710
1885.254984,0.000000,-444.123565,9474.636058
1885.255301,-842.705048,-962.267725,9770.718434
1885.255619,-995.924147,-962.267725,10066.800811
1885.255936,-1455.581446,-1110.308913,10214.842000
1885.256254,-1149.143247,-814.226536,10288.862594
1885.256571,-766.095498,-592.164754,10436.903782
1885.256888,0.000000,-0.000000,10140.821405
1885.257206,383.047749,222.061783,9548.656652
1885.257523,306.438199,814.226536,8882.471304
1885.257840,919.314598,962.267725,8734.430116
1885.258158,995.924147,1480.411884,8290.306550
1885.258475,1608.800546,1554.432478,7994.224174
1885.258792,2068.457845,1332.370696,7994.224174
1885.259110,1225.752797,1258.350101,8142.265362
1885.259427,1378.971896,740.205942,8364.327145
1885.259745,1302.362347,370.102971,8956.491898
1885.260062,1072.533697,-148.041188,8956.491898
1885.260379,536.266849,-592.164754,9252.574275
1885.260697,306.438199,-370.102971,9474.636058
1885.261014,0.000000,-0.000000,9622.677246
1885.261331,153.219100,222.061783,9548.656652
1885.261649,0.000000,370.102971,9992.780217
1885.261966,459.657299,444.123565,10362.883188
1885.262283,766.095498,222.061783,9992.780217
1885.262601,995.924147,296.082377,10214.842000
1885.262918,1149.143247,-0.000000,9770.718434
1885.263235,1378.971896,296.082377,9548.656652
1885.263553,1991.848295,740.205942,9030.512492
1885.263870,2221.676944,1036.288319,8734.430116
1885.264188,2298.286494,1258.350101,8586.388927
1885.264505,2451.505594,1184.329507,8512.368333
1885.264822,1915.238745,962.267725,8512.368333
1885.265140,1685.410096,-0.000000,8586.388927
1885.265457,459.657299,-370.102971,9400.615463
1885.265774,0.000000,-296.082377,9844.739029
1885.266092,-459.657299,-296.082377,10214.842000
1885.266409,-766.095498,-518.144159,10510.924376
1885.266726,-689.485948,-518.144159,11029.068536
1885.267044,-153.219100,-444.123565,11177.109724
1885.267361,153.219100,-74.020594,11029.068536
1885.267679,536.266849,-148.041188,10732.986159
1885.267996,689.485948,-0.000000,10658.965565
1885.268313,842.705048,-0.000000,10214.842000
1885.268631,1302.362347,740.205942,9474.636058
1885.268948,1685.410096,1184.329507,9400.615463
1885.269265,1762.019645,1406.391290,8956.491898
1885.269583,2221.676944,1258.350101,9030.512492
1885.269900,2298.286494,1258.350101,8882.471304
1885.270217,2145.067394,740.205942,8734.430116
1885.270535,2068.457845,370.102971,8808.450710
1885.270852,1608.800546,-148.041188,9326.594869
1885.271170,1072.533697,-814.226536,9326.594869
1885.271487,1225.752797,-222.061783,9474.636058
1885.271804,536.266849,-740.205942,10214.842000
1885.272122,766.095498,-148.041188,10214.842000
1885.272439,842.705048,-74.020594,10288.862594
1885.272756,1532.190996,-74.020594,10140.821405
1885.273074,995.924147,-74.020594,9992.780217
1885.273391,1149.143247,-0.000000,9696.697840
1885.273708,1225.752797,296.082377,9178.553681
1885.274026,1685.410096,592.164754,8660.409521
1885.274343,2298.286494,740.205942,8364.327145
1885.274660,1915.238745,666.185348,7846.182985
1885.274978,1532.190996,370.102971,8290.306550
1885.275295,1378.971896,222.061783,8290.306550
1885.275613,919.314598,-296.082377,8364.327145
1885.275930,153.219100,-814.226536,8956.491898
1885.276247,-536.266849,-1184.329507,9178.553681
1885.276565,-1225.752797,-1332.370696,9400.615463
1885.276882,-1378.971896,-1184.329507,9400.615463
1885.277199,-1378.971896,-888.247130,9992.780217
1885.277517,-919.314598,-740.205942,9696.697840
1885.277834,-229.828649,-148.041188,9400.615463
1885.278151,0.000000,-222.061783,9104.533087
1885.278469,229.828649,-148.041188,9252.574275
1885.278786,612.876398,148.041188,9474.636058
1885.279104,306.438199,370.102971,8512.368333
1885.279421,919.314598,740.205942,8364.327145
1885.279738,1072.533697,1036.288319,8364.327145
1885.280056,1455.581446,1258.350101,7994.224174
1885.280373,1532.190996,740.205942,8142.265362
1885.280690,995.924147,666.185348,7994.224174
1885.281008,766.095498,370.102971,8364.327145
1885.281325,536.266849,222.061783,8734.430116
1885.281642,229.828649,-74.020594,8956.491898
1885.281960,0.000000,-74.020594,9474.636058
1885.282277,0.000000,-74.020594,9622.677246
1885.282595,229.828649,370.102971,9770.718434
1885.282912,459.657299,296.082377,9992.780217
1885.283229,842.705048,962.267725,10362.883188
1885.283547,995.924147,888.247130,9696.697840
1885.283864,1072.533697,1332.370696,9548.656652
1885.284181,1455.581446,1332.370696,9030.512492
1885.284499,1455.581446,1480.411884,9104.533087
1885.284816,1991.848295,2220.617826,8882.471304
1885.285133,1762.019645,1554.432478,8882.471304
1885.285451,1915.238745,1850.514855,9326.594869
1885.285768,1455.581446,1406.391290,9030.512492
1885.286085,766.095498,888.247130,9400.615463
1885.286403,0.000000,-0.000000,9622.677246
1885.286720,-612.876398,148.041188,10140.821405
1885.287038,-919.314598,296.082377,10214.842000
1885.287355,-995.924147,296.082377,10584.944971
1885.287672,-766.095498,370.102971,10807.006753
1885.287990,0.000000,222.061783,10732.986159
1885.288307,-306.438199,-0.000000,10955.047942
1885.288624,0.000000,296.082377,11177.109724
1885.288942,153.219100,148.041188,10658.965565
1885.289259,383.047749,444.123565,10436.903782
1885.289576,1072.533697,888.247130,10066.800811
1885.289894,1072.533697,1258.350101,9400.615463
1885.290211,995.924147,1406.391290,9400.615463
1885.290529,1225.752797,1258.350101,9474.636058
1885.290846,1608.800546,814.226536,9400.615463
1885.291163,1225.752797,444.123565,9548.656652
1885.291481,1072.533697,-222.061783,9770.718434
1885.291798,612.876398,-444.123565,9992.780217
1885.292115,383.047749,-592.164754,10362.883188
1885.292433,306.438199,-518.144159,10584.944971
1885.292750,842.705048,-444.123565,10362.883188
1885.293067,842.705048,-222.061783,10510.924376
1885.293385,1378.971896,370.102971,10510.924376
1885.293702,1685.410096,222.061783,10214.842000
1885.294019,2068.457845,370.102971,9918.759623
1885.294337,2298.286494,444.123565,9622.677246
1885.294654,2374.896044,444.123565,9104.533087
1885.294971,2604.724693,814.226536,8808.450710
1885.295289,2911.162892,814.226536,8364.327145
1885.295606,2374.896044,962.267725,8290.306550
1885.295923,2374.896044,962.267725,8216.285956
1885.296240,1915.238745,222.061783,8216.285956
1885.296558,1608.800546,-370.102971,8290.306550
1885.296875,919.314598,-666.185348,8512.368333
1885.297192,229.828649,-1110.308913,8956.491898
1885.297510,-306.438199,-962.267725,8956.491898
1885.297827,-383.047749,-888.247130,9326.594869
1885.298144,-1225.752797,-1036.288319,9770.718434
1885.298462,-536.266849,-666.185348,9770.718434
1885.298779,-153.219100,-518.144159,9474.636058
1885.299096,306.438199,-296.082377,9104.533087
1885.299414,459.657299,-0.000000,8956.491898
1885.299731,76.609550,-0.000000,8882.471304
1885.300048,459.657299,222.061783,8438.347739
1885.300366,459.657299,222.061783,7994.224174
1885.300683,612.876398,444.123565,7698.141797
1885.301000,919.314598,370.102971,8290.306550
1885.301318,612.876398,-0.000000,7920.203579
1885.301635,612.876398,-370.102971,8512.368333
1885.301952,0.000000,-814.226536,8734.430116
1885.302270,-383.047749,-814.226536,9178.553681
1885.302587,76.609550,-814.226536,9030.512492
1885.302904,153.219100,-962.267725,9030.512492
1885.303222,76.609550,-740.205942,9474.636058
1885.303539,-306.438199,-814.226536,9992.780217
1885.303856,76.609550,-592.164754,9770.718434
1885.304174,536.266849,-222.061783,9770.718434
1885.304491,1225.752797,-74.020594,9474.636058
1885.304808,1072.533697,370.102971,9548.656652
1885.305126,1149.143247,666.185348,9252.574275
1885.305443,1225.752797,1036.288319,9178.553681
1885.305760,1915.238745,814.226536,8956.491898
1885.306078,1991.848295,962.267725,8808.450710
1885.306395,1915.238745,962.267725,8808.450710
1885.306712,1532.190996,296.082377,8956.491898
1885.307029,1072.533697,222.061783,9252.574275
1885.307347,842.705048,-0.000000,9474.636058
1885.307664,306.438199,148.041188,9770.718434
1885.307981,0.000000,-0.000000,10066.800811
1885.308299,-306.438199,-0.000000,10214.842000
1885.308616,0.000000,444.123565,10510.924376
1885.308933,229.828649,444.123565,10807.006753
1885.309251,229.828649,592.164754,10658.965565
1885.309568,842.705048,888.247130,10066.800811
1885.309885,919.314598,962.267725,9844.739029
1885.310203,1149.143247,1110.308913,9770.718434
1885.310520,1149.143247,1258.350101,9548.656652
1885.310837,1532.190996,1924.535449,9252.574275
1885.311155,1608.800546,1554.432478,9104.533087
1885.311472,1685.410096,1628.453072,9474.636058
1885.311789,1838.629195,1258.350101,9474.636058
1885.312107,1685.410096,1332.370696,9326.594869
1885.312424,1532.190996,888.247130,9474.636058
1885.312741,995.924147,296.082377,9770.718434
1885.313059,689.485948,370.102971,9992.780217
1885.313376,995.924147,-0.000000,9918.759623
1885.313693,383.047749,370.102971,10140.821405
1885.314011,766.095498,370.102971,10362.883188
1885.314328,842.705048,518.144159,10510.924376
1885.314645,842.705048,518.144159,10288.862594
1885.314963,766.095498,518.144159,10066.800811
1885.315280,766.095498,444.123565,9844.739029
1885.315597,612.876398,1036.288319,9400.615463
1885.315915,612.876398,962.267725,9178.553681
1885.316232,612.876398,1036.288319,8956.491898
1885.316549,536.266849,814.226536,8882.471304
1885.316867,689.485948,666.185348,8882.471304
1885.317184,459.657299,296.082377,8808.450710
1885.317501,153.219100,-148.041188,9252.574275
1885.317818,229.828649,-148.041188,9474.636058
1885.318136,-612.876398,-592.164754,9400.615463
1885.318453,-689.485948,-148.041188,9400.615463
1885.318770,-842.705048,-0.000000,9622.677246
1885.319088,-612.876398,-0.000000,9474.636058
1885.319405,153.219100,-0.000000,9474.636058
1885.319722,76.609550,-0.000000,9326.594869
1885.320040,383.047749,-74.020594,9326.594869
1885.320357,689.485948,-148.041188,9178.553681
1885.320674,536.266849,-0.000000,9030.512492
1885.320992,536.266849,296.082377,8512.368333
1885.321309,689.485948,592.164754,8438.347739
1885.321626,995.924147,666.185348,8438.347739
1885.321944,1685.410096,740.205942,8512.368333
1885.322261,1532.190996,-0.000000,8808.450710
1885.322578,1455.581446,-148.041188,8882.471304
1885.322896,1302.362347,-666.185348,8956.491898
1885.323213,995.924147,-666.185348,9548.656652
1885.323530,842.705048,-962.267725,9622.677246
1885.323848,689.485948,-888.247130,9622.677246
1885.324165,1225.752797,-592.164754,9770.718434
1885.324482,1378.971896,-444.123565,9844.739029
1885.324800,1762.019645,-222.061783,9622.677246
1885.325117,2374.896044,-148.041188,9548.656652
1885.325434,2298.286494,-444.123565,9770.718434
1885.325752,1991.848295,-370.102971,9400.615463
1885.326069,2145.067394,-370.102971,9178.553681
1885.326386,2298.286494,-74.020594,8808.450710
1885.326704,2221.676944,-0.000000,9104.533087
1885.327021,2221.676944,-0.000000,8882.471304
1885.327338,2145.067394,370.102971,8956.491898
1885.327656,2068.457845,-0.000000,9104.533087
1885.327973,1608.800546,-148.041188,9178.553681
1885.328290,995.924147,-222.061783,9326.594869
1885.328607,459.657299,-370.102971,9474.636058
1885.328925,0.000000,-370.102971,9474.636058
1885.329242,-153.219100,-148.041188,9696.697840
1885.329559,-383.047749,-74.020594,9918.759623
1885.329877,-229.828649,-0.000000,10288.862594
1885.330194,-153.219100,148.041188,10288.862594
1885.330511,76.609550,222.061783,9622.677246
1885.330829,0.000000,222.061783,9474.636058
1885.331146,459.657299,518.144159,9400.615463
1885.331463,459.657299,666.185348,8882.471304
1885.331781,306.438199,888.247130,8734.430116
1885.332098,536.266849,1036.288319,8882.471304
1885.332415,766.095498,814.226536,8956.491898
1885.332733,612.876398,518.144159,8882.471304
1885.333050,-153.219100,444.123565,9030.512492
1885.333367,0.000000,222.061783,9474.636058
1885.333685,0.000000,296.082377,9622.677246
1885.334002,-536.266849,222.061783,9696.697840
1885.334319,-383.047749,370.102971,9548.656652
1885.334637,-153.219100,370.102971,9770.718434
1885.334954,0.000000,370.102971,9992.780217
1885.335271,306.438199,74.020594,10214.842000
1885.335589,459.657299,296.082377,9844.739029
1885.335906,1149.143247,666.185348,9992.780217
1885.336223,1072.533697,1184.329507,9622.677246
1885.336541,1685.410096,1184.329507,9548.656652
1885.336858,1762.019645,1184.329507,9400.615463
1885.337175,1838.629195,1110.308913,9030.512492
1885.337493,1685.410096,888.247130,9252.574275
1885.337810,2451.505594,518.144159,9474.636058
1885.338127,1685.410096,222.061783,9400.615463
1885.338445,1302.362347,444.123565,9178.553681
1885.338762,1149.143247,-74.020594,9400.615463
1885.339079,459.657299,-74.020594,9474.636058
1885.339396,76.609550,-74.020594,9696.697840
1885.339714,-153.219100,-222.061783,9770.718434
1885.340031,-153.219100,-296.082377,9992.780217
1885.340348,0.000000,-74.020594,9918.759623
1885.340666,842.705048,-222.061783,9992.780217
1885.340983,1302.362347,-0.000000,9844.739029
1885.341300,1378.971896,296.082377,9474.636058
1885.341618,1378.971896,592.164754,9030.512492
1885.341935,1455.581446,666.185348,8882.471304
1885.342252,1685.410096,962.267725,8660.409521
1885.342570,1838.629195,666.185348,8660.409521
1885.342887,1915.238745,666.185348,8808.450710
1885.343204,1915.238745,370.102971,9104.533087
1885.343522,1838.629195,-74.020594,9030.512492
1885.343839,1072.533697,-148.041188,9104.533087
1885.344156,995.924147,-370.102971,9548.656652
1885.344474,689.485948,-592.164754,9474.636058
1885.344791,459.657299,-444.123565,9622.677246
1885.345108,612.876398,-370.102971,9992.780217
1885.345426,1149.143247,-444.123565,10140.821405
1885.345743,766.095498,-74.020594,9770.718434
1885.346060,1149.143247,-74.020594,9696.697840
1885.346378,1608.800546,-0.000000,9622.677246
1885.346695,1532.190996,-222.061783,9622.677246
1885.347012,1608.800546,-148.041188,9400.615463
1885.347330,1762.019645,296.082377,8882.471304
1885.347647,1685.410096,444.123565,8882.471304
1885.347964,1532.190996,666.185348,8956.491898
1885.348282,1532.190996,296.082377,8734.430116
1885.348599,1149.143247,148.041188,8882.471304
1885.348916,1149.143247,-74.020594,8956.491898
1885.349234,536.266849,-296.082377,9030.512492
1885.349551,-153.219100,-74.020594,9474.636058
1885.349868,-536.266849,-222.061783,9844.739029
1885.350185,-919.314598,-0.000000,9696.697840
1885.350503,-995.924147,-148.041188,10214.842000
