#time,accel_x,accel_y,accel_z
1420.763799,383.047749,222.061783,9252.574275
1420.764118,459.657299,444.123565,9104.533087
1420.764437,383.047749,370.102971,9252.574275
1420.764756,229.828649,370.102971,9326.594869
1420.765074,842.705048,296.082377,9400.615463
1420.765393,612.876398,518.144159,9252.574275
1420.765712,689.485948,444.123565,9326.594869
1420.766031,536.266849,592.164754,9178.553681
1420.766350,459.657299,296.082377,9252.574275
1420.766669,153.219100,592.164754,9326.594869
1420.766988,383.047749,444.123565,9326.594869
1420.767307,459.657299,222.061783,9178.553681
1420.767625,383.047749,296.082377,9252.574275
1420.767944,612.876398,370.102971,9326.594869
1420.768263,842.705048,444.123565,9474.636058
1420.768582,306.438199,296.082377,9252.574275
1420.768901,459.657299,518.144159,9326.594869
1420.769220,306.438199,370.102971,9030.512492
1420.769539,612.876398,444.123565,9400.615463
1420.769857,76.609550,148.041188,9474.636058
1420.770176,459.657299,296.082377,9326.594869
1420.770495,689.485948,518.144159,9326.594869
1420.770814,536.266849,444.123565,9326.594869
1420.771133,919.314598,296.082377,9326.594869
1420.771452,689.485948,888.247130,9474.636058
1420.771771,229.828649,296.082377,9326.594869
1420.772089,612.876398,296.082377,9104.533087
1420.772408,536.266849,444.123565,9252.574275
1420.772727,612.876398,-0.000000,9178.553681
1420.773046,612.876398,296.082377,9252.574275
1420.773365,153.219100,296.082377,9326.594869
1420.773684,229.828649,518.144159,9474.636058
1420.774003,383.047749,370.102971,9178.553681
1420.774322,383.047749,592.164754,9252.574275
1420.774640,536.266849,222.061783,9178.553681
1420.774959,459.657299,370.102971,9104.533087
1420.775278,306.438199,370.102971,9400.615463
1420.775597,459.657299,370.102971,9326.594869
1420.775916,689.485948,296.082377,9178.553681
1420.776235,612.876398,592.164754,9474.636058
1420.776554,306.438199,592.164754,9178.553681
1420.776872,536.266849,370.102971,9252.574275
1420.777191,612.876398,518.144159,9104.533087
1420.777510,153.219100,222.061783,9104.533087
1420.777829,459.657299,370.102971,9252.574275
1420.778148,306.438199,222.061783,9178.553681
1420.778467,536.266849,444.123565,9252.574275
1420.778786,459.657299,-0.000000,9622.677246
1420.779105,459.657299,222.061783,9400.615463
1420.779423,536.266849,444.123565,9326.594869
1420.779742,459.657299,592.164754,9400.615463
1420.780061,383.047749,296.082377,9178.553681
1420.780380,383.047749,370.102971,9252.574275
1420.780699,383.047749,370.102971,9326.594869
1420.781018,383.047749,-0.000000,9104.533087
1420.781337,536.266849,296.082377,9252.574275
1420.781655,689.485948,296.082377,9474.636058
1420.781974,306.438199,222.061783,9178.553681
1420.782293,459.657299,296.082377,9178.553681
1420.782612,612.876398,370.102971,9178.553681
1420.782931,766.095498,370.102971,9178.553681
1420.783250,612.876398,222.061783,9252.574275
1420.783569,153.219100,296.082377,9252.574275
1420.783887,383.047749,148.041188,9252.574275
1420.784206,383.047749,370.102971,9104.533087
1420.784525,306.438199,370.102971,9326.594869
1420.784844,229.828649,370.102971,9178.553681
1420.785163,383.047749,518.144159,9400.615463
1420.785482,153.219100,666.185348,9252.574275
1420.785801,153.219100,740.205942,9400.615463
1420.786120,306.438199,888.247130,9400.615463
1420.786438,153.219100,1036.288319,9326.594869
1420.786757,0.000000,962.267725,9178.553681
1420.787076,229.828649,1036.288319,9104.533087
1420.787395,0.000000,1110.308913,9104.533087
1420.787714,-229.828649,1184.329507,8956.491898
1420.788033,0.000000,1110.308913,9178.553681
1420.788352,-612.876398,666.185348,8882.471304
1420.788670,-995.924147,962.267725,9178.553681
1420.788989,-995.924147,1184.329507,9474.636058
1420.789308,-1302.362347,1554.432478,9326.594869
1420.789627,-1685.410096,1702.473667,9030.512492
1420.789946,-2068.457845,1628.453072,8956.491898
1420.790265,-2068.457845,2146.597232,9030.512492
1420.790584,-2145.067394,2516.700203,9400.615463
1420.790903,-2221.676944,2146.597232,8512.368333
1420.791221,-2757.943793,2590.720797,8882.471304
1420.791540,-3064.381992,2368.659014,8660.409521
1420.791859,-3294.210641,2442.679609,8882.471304
1420.792178,-3370.820191,2812.782580,9178.553681
1420.792497,-3677.258390,3108.864956,9104.533087
1420.792816,-3830.477490,3256.906145,8882.471304
1420.793135,-3600.648841,3182.885551,9104.533087
1420.793453,-3983.696590,3256.906145,9178.553681
1420.793772,-3830.477490,3108.864956,9622.677246
1420.794091,-3907.087040,3478.967927,9992.780217
1420.794410,-4136.915689,3034.844362,9474.636058
1420.794729,-4366.744339,2960.823768,9992.780217
1420.795048,-4366.744339,3034.844362,9918.759623
1420.795367,-4136.915689,2886.803174,9844.739029
1420.795685,-3983.696590,3404.947333,9622.677246
1420.796004,-3524.039291,3775.050304,9918.759623
1420.796323,-3370.820191,3923.091493,9548.656652
1420.796642,-2528.115143,3775.050304,9548.656652
1420.796961,-2757.943793,3849.070898,9548.656652
1420.797280,-1991.848295,4367.215058,9622.677246
1420.797599,-1302.362347,4589.276840,9252.574275
1420.797918,-1378.971896,4737.318029,8882.471304
1420.798236,-612.876398,5033.400406,8808.450710
1420.798555,-995.924147,5255.462188,8216.285956
1420.798874,-1225.752797,5477.523971,7994.224174
1420.799193,-1532.190996,5107.421000,8068.244768
1420.799512,-2068.457845,5033.400406,8142.265362
1420.799831,-2681.334243,4737.318029,8882.471304
1420.800150,-3294.210641,4367.215058,9178.553681
1420.800468,-4136.915689,3701.029710,9474.636058
1420.800787,-4213.525239,3552.988522,9770.718434
1420.801106,-4213.525239,3552.988522,9844.739029
1420.801425,-3983.696590,4071.132681,9178.553681
1420.801744,-2681.334243,4589.276840,8956.491898
1420.802063,-2298.286494,4663.297435,8364.327145
1420.802382,-1838.629195,4589.276840,7772.162391
1420.802700,-1532.190996,3775.050304,7846.182985
1420.803019,-1685.410096,3478.967927,7624.121203
1420.803338,-2374.896044,3330.926739,7772.162391
1420.803657,-2757.943793,3034.844362,7846.182985
1420.803976,-2528.115143,3404.947333,8142.265362
1420.804295,-1915.238745,2960.823768,8882.471304
1420.804614,-1608.800546,3256.906145,8512.368333
1420.804933,-1608.800546,2812.782580,8882.471304
1420.805251,-1608.800546,2072.576638,9104.533087
1420.805570,-1608.800546,1480.411884,9474.636058
1420.805889,-2068.457845,814.226536,10732.986159
1420.806208,-1991.848295,518.144159,11399.171507
1420.806527,-229.828649,1184.329507,10881.027347
1420.806846,383.047749,1628.453072,10140.821405
1420.807165,995.924147,1332.370696,9178.553681
1420.807483,1302.362347,1628.453072,8512.368333
1420.807802,1762.019645,1332.370696,8586.388927
1420.808121,1915.238745,740.205942,9326.594869
1420.808440,1532.190996,592.164754,9400.615463
1420.808759,1378.971896,1258.350101,8956.491898
1420.809078,612.876398,1332.370696,9474.636058
1420.809397,0.000000,-0.000000,10214.842000
1420.809716,-1378.971896,-740.205942,10807.006753
1420.810034,-1302.362347,-1110.308913,12065.356855
1420.810353,-2068.457845,-148.041188,11399.171507
1420.810672,-1915.238745,592.164754,10955.047942
1420.810991,-2145.067394,296.082377,10584.944971
1420.811310,-2145.067394,518.144159,10362.883188
1420.811629,-1532.190996,962.267725,9696.697840
1420.811948,-2451.505594,1406.391290,8956.491898
1420.812266,-2145.067394,1924.535449,8660.409521
1420.812585,-2298.286494,2516.700203,8512.368333
1420.812904,-2451.505594,1258.350101,9400.615463
1420.813223,-2757.943793,222.061783,9474.636058
1420.813542,-2604.724693,1554.432478,8660.409521
1420.813861,-2451.505594,2812.782580,7920.203579
1420.814180,-2145.067394,3627.009116,7179.997637
1420.814498,-2374.896044,2738.761985,7624.121203
1420.814817,-2221.676944,2442.679609,8142.265362
1420.815136,-2911.162892,2516.700203,7846.182985
1420.815455,-2834.553343,3404.947333,7624.121203
1420.815774,-2987.772442,3256.906145,7624.121203
1420.816093,-2451.505594,2812.782580,8882.471304
1420.816412,-2604.724693,2516.700203,8808.450710
1420.816731,-2528.115143,3182.885551,8438.347739
1420.817049,-1991.848295,3182.885551,8142.265362
1420.817368,-383.047749,3701.029710,8882.471304
1420.817687,0.000000,4071.132681,8734.430116
1420.818006,842.705048,4145.153275,8290.306550
1420.818325,306.438199,4441.235652,7179.997637
1420.818644,153.219100,4219.173869,7624.121203
1420.818963,306.438199,3775.050304,8290.306550
1420.819281,383.047749,4737.318029,8660.409521
1420.819600,-689.485948,3701.029710,8364.327145
1420.819919,-1991.848295,2886.803174,8882.471304
1420.820238,-2757.943793,2664.741391,9992.780217
1420.820557,-2528.115143,3182.885551,9474.636058
1420.820876,-2604.724693,3552.988522,9326.594869
1420.821195,-3294.210641,3182.885551,9844.739029
1420.821513,-3830.477490,2812.782580,11399.171507
1420.821832,-3753.867940,2738.761985,10732.986159
1420.822151,-2451.505594,2812.782580,11473.192101
1420.822470,-2298.286494,2886.803174,11695.253884
1420.822789,-1378.971896,3256.906145,11251.130318
1420.823108,-689.485948,3923.091493,10658.965565
1420.823427,383.047749,3997.112087,9992.780217
1420.823746,1685.410096,4071.132681,9770.718434
1420.824064,1991.848295,4737.318029,8882.471304
1420.824383,1838.629195,4737.318029,7328.038826
1420.824702,1685.410096,4071.132681,7550.100608
1420.825021,919.314598,2886.803174,8808.450710
1420.825340,306.438199,2664.741391,9696.697840
1420.825659,-995.924147,1480.411884,9104.533087
1420.825978,-2068.457845,1184.329507,10881.027347
1420.826296,-2451.505594,-0.000000,12879.583391
1420.826615,-2604.724693,-444.123565,12953.603985
1420.826934,-1991.848295,-814.226536,13693.809927
1420.827253,-1762.019645,-148.041188,13249.686362
1420.827572,0.000000,148.041188,13323.706956
1420.827891,1838.629195,222.061783,11473.192101
1420.828210,3753.867940,-0.000000,10807.006753
1420.828529,4979.620737,370.102971,9326.594869
1420.828848,5362.668486,222.061783,7624.121203
1420.829167,5592.497135,666.185348,6513.812290
1420.829486,5056.230287,-370.102971,6883.915261
1420.829805,3447.429741,-0.000000,7772.162391
1420.830124,1991.848295,148.041188,7994.224174
1420.830443,459.657299,-1184.329507,8882.471304
1420.830762,-1532.190996,-2664.741391,10362.883188
1420.831081,-2451.505594,-4293.194464,12879.583391
1420.831400,-2681.334243,-4737.318029,12657.521608
1420.831719,-2068.457845,-5033.400406,12435.459826
1420.832038,-1302.362347,-5329.482782,13619.789333
1420.832357,459.657299,-4145.153275,12065.356855
1420.832676,2068.457845,-3034.844362,9326.594869
1420.832995,3907.087040,-444.123565,7402.059420
1420.833314,4826.401637,1110.308913,5699.585753
1420.833633,5056.230287,2590.720797,3034.844362
1420.833952,4519.963438,2442.679609,1554.432478
1420.834271,2834.553343,1850.514855,3404.947333
1420.834590,842.705048,888.247130,4441.235652
1420.834908,-919.314598,148.041188,4959.379811
1420.835227,-2604.724693,-888.247130,6735.874072
1420.835546,-4060.306139,-2368.659014,9696.697840
1420.835865,-5439.278036,-3182.885551,11251.130318
1420.836184,-5592.497135,-1998.556043,11769.274478
1420.836503,-5286.058936,-1406.391290,11769.274478
1420.836822,-4136.915689,-222.061783,11991.336260
1420.837141,-1915.238745,1332.370696,10362.883188
1420.837460,0.000000,2220.617826,7846.182985
1420.837779,1762.019645,2368.659014,6365.771101
1420.838098,2911.162892,3552.988522,4885.359217
1420.838417,3753.867940,3478.967927,2664.741391
1420.838736,3907.087040,3701.029710,2590.720797
1420.839055,3600.648841,3256.906145,4367.215058
1420.839374,2451.505594,2516.700203,5699.585753
1420.839693,1838.629195,3034.844362,5995.668130
1420.840012,612.876398,1850.514855,8734.430116
1420.840331,-1378.971896,-0.000000,11103.089130
1420.840650,-2374.896044,-444.123565,12731.542202
1420.840969,-3753.867940,-888.247130,12953.603985
1420.841288,-3447.429741,-1036.288319,14508.036463
1420.841607,-2681.334243,-1110.308913,15100.201217
1420.841926,-1915.238745,222.061783,14063.912898
1420.842245,306.438199,888.247130,11843.295072
1420.842564,1149.143247,2146.597232,10436.903782
1420.842883,2834.553343,3182.885551,9178.553681
1420.843202,4213.525239,3997.112087,6883.915261
1420.843521,4519.963438,3997.112087,6513.812290
1420.843840,4673.182538,3256.906145,7994.224174
1420.844159,3753.867940,2738.761985,8438.347739
1420.844478,2834.553343,1924.535449,8586.388927
1420.844797,1838.629195,74.020594,10658.965565
1420.845116,-689.485948,-370.102971,12953.603985
1420.845435,-1685.410096,-1258.350101,13397.727550
1420.845754,-2987.772442,-814.226536,13175.665768
1420.846073,-2604.724693,-592.164754,14730.098246
1420.846392,-2681.334243,592.164754,13693.809927
1420.846711,-1378.971896,1258.350101,12361.439231
1420.847030,76.609550,2072.576638,11177.109724
1420.847349,1302.362347,1332.370696,10881.027347
1420.847668,1838.629195,740.205942,8660.409521
1420.847987,2911.162892,1036.288319,8290.306550
1420.848305,3447.429741,1332.370696,7624.121203
1420.848624,3217.601092,1924.535449,7402.059420
1420.848943,3447.429741,2516.700203,7031.956449
1420.849262,3294.210641,3034.844362,7031.956449
1420.849581,2068.457845,2294.638420,8142.265362
1420.849900,612.876398,1850.514855,9844.739029
1420.850219,-383.047749,666.185348,10510.924376
1420.850538,-1378.971896,-444.123565,10510.924376
1420.850857,-2068.457845,-1332.370696,11473.192101
1420.851176,-2068.457845,-2220.617826,11991.336260
1420.851495,-1532.190996,-1924.535449,9696.697840
1420.851814,-383.047749,-1036.288319,8364.327145
1420.852133,76.609550,-518.144159,7846.182985
1420.852452,689.485948,296.082377,6365.771101
1420.852771,1225.752797,370.102971,5403.503377
1420.853090,689.485948,814.226536,5995.668130
1420.853409,0.000000,148.041188,6883.915261
1420.853728,-383.047749,592.164754,6439.791695
1420.854047,-536.266849,-0.000000,7402.059420
1420.854366,-1991.848295,-1036.288319,9252.574275
1420.854685,-2451.505594,-1776.494261,10436.903782
1420.855004,-2681.334243,-2146.597232,9918.759623
1420.855323,-2528.115143,-1924.535449,11029.068536
1420.855642,-1838.629195,-2220.617826,11177.109724
1420.855961,-1149.143247,-1258.350101,9252.574275
1420.856280,153.219100,-962.267725,8734.430116
1420.856599,842.705048,-296.082377,7402.059420
1420.856918,1685.410096,-370.102971,7105.977043
1420.857237,2145.067394,-0.000000,5329.482782
1420.857556,1838.629195,-148.041188,5773.606348
1420.857875,1378.971896,-666.185348,6291.750507
1420.858194,1302.362347,-518.144159,7105.977043
1420.858513,612.876398,-518.144159,7105.977043
1420.858832,-229.828649,-1258.350101,9178.553681
1420.859151,-1072.533697,-1998.556043,11399.171507
1420.859470,-1378.971896,-1776.494261,11991.336260
1420.859789,-689.485948,-1480.411884,11917.315666
1420.860108,-383.047749,-1036.288319,12361.439231
1420.860427,1225.752797,-444.123565,12731.542202
1420.860746,2757.943793,-148.041188,10955.047942
1420.861065,4366.744339,518.144159,8956.491898
1420.861384,6128.763984,962.267725,7994.224174
1420.861703,6741.640382,1332.370696,6809.894666
1420.862021,7431.126331,1480.411884,5033.400406
1420.862340,6588.421283,1776.494261,4737.318029
1420.862659,6128.763984,1110.308913,5403.503377
1420.862978,3907.087040,1110.308913,6735.874072
1420.863297,2068.457845,592.164754,7846.182985
1420.863616,0.000000,-814.226536,9770.718434
1420.863935,-1915.238745,-2146.597232,12435.459826
1420.864254,-2757.943793,-2738.761985,13471.748144
1420.864573,-3677.258390,-2664.741391,13619.789333
1420.864892,-3677.258390,-2294.638420,14656.077652
1420.865211,-2068.457845,-1406.391290,14285.974681
1420.865530,-153.219100,-370.102971,12065.356855
1420.865849,1302.362347,592.164754,9992.780217
1420.866168,2987.772442,1850.514855,9178.553681
1420.866487,3907.087040,2072.576638,6661.853478
1420.866806,4673.182538,3034.844362,3997.112087
1420.867125,3830.477490,2516.700203,4737.318029
1420.867444,2987.772442,2294.638420,5107.421000
1420.867763,1991.848295,1850.514855,5033.400406
1420.868082,0.000000,-0.000000,7031.956449
1420.868401,-2374.896044,-1554.432478,9548.656652
1420.868720,-4596.572988,-2738.761985,11769.274478
1420.869039,-6358.592633,-3478.967927,13027.624579
1420.869358,-6971.469032,-3849.070898,15470.304188
1420.869677,-6741.640382,-3108.864956,15544.324782
1420.869996,-5286.058936,-1258.350101,14359.995275
1420.870315,-3064.381992,-0.000000,13175.665768
1420.870634,-1149.143247,1184.329507,10881.027347
1420.870953,1302.362347,2220.617826,9474.636058
1420.871272,3447.429741,2368.659014,7105.977043
1420.871591,4903.011187,2960.823768,5107.421000
1420.871910,5592.497135,3404.947333,4367.215058
1420.872229,6128.763984,3552.988522,4515.256246
1420.872548,6818.249932,3330.926739,4737.318029
1420.872867,5286.058936,2664.741391,4811.338623
1420.873186,3907.087040,1184.329507,7698.141797
1420.873505,1838.629195,222.061783,9252.574275
1420.873824,-306.438199,-888.247130,10807.006753
1420.874143,-1915.238745,-1406.391290,11991.336260
1420.874462,-2604.724693,-1850.514855,13989.892304
1420.874781,-2374.896044,-1184.329507,13397.727550
1420.875100,-1685.410096,-370.102971,11769.274478
1420.875419,-229.828649,-148.041188,11399.171507
1420.875737,689.485948,370.102971,10214.842000
1420.876056,2145.067394,1110.308913,7994.224174
1420.876375,3524.039291,1554.432478,6365.771101
1420.876694,4290.134789,1776.494261,6439.791695
1420.877013,4749.792088,1776.494261,6439.791695
1420.877332,4979.620737,1850.514855,5403.503377
1420.877651,4136.915689,1036.288319,6365.771101
1420.877970,2604.724693,-148.041188,8142.265362
1420.878289,612.876398,-1036.288319,9474.636058
1420.878608,-842.705048,-1776.494261,9474.636058
1420.878927,-2681.334243,-2516.700203,11473.192101
1420.879246,-3217.601092,-2368.659014,12583.501014
1420.879565,-3677.258390,-2368.659014,11621.233289
1420.879884,-3140.991542,-2294.638420,11547.212695
1420.880203,-2757.943793,-2072.576638,11029.068536
1420.880522,-1915.238745,-2220.617826,10436.903782
1420.880841,-1302.362347,-1850.514855,8808.450710
1420.881160,-153.219100,-1332.370696,7994.224174
1420.881479,459.657299,-592.164754,8364.327145
1420.881798,1532.190996,740.205942,7328.038826
1420.882117,2374.896044,1406.391290,6809.894666
1420.882436,2298.286494,888.247130,7476.080014
1420.882755,1455.581446,222.061783,8068.244768
1420.883074,919.314598,-444.123565,9178.553681
1420.883393,0.000000,-962.267725,9326.594869
1420.883712,-459.657299,-1258.350101,10510.924376
1420.884031,-919.314598,-1406.391290,11251.130318
1420.884350,-612.876398,-370.102971,10362.883188
1420.884669,536.266849,-444.123565,9770.718434
1420.884988,919.314598,-222.061783,9400.615463
1420.885307,1225.752797,-296.082377,9030.512492
1420.885626,1991.848295,222.061783,7550.100608
1420.885945,1915.238745,1258.350101,7105.977043
1420.886264,2298.286494,962.267725,7846.182985
1420.886583,2451.505594,1406.391290,7254.018232
1420.886902,2681.334243,1332.370696,6735.874072
1420.887221,2451.505594,1480.411884,8512.368333
1420.887540,1991.848295,1258.350101,9548.656652
1420.887859,1608.800546,592.164754,9696.697840
1420.888178,1455.581446,-148.041188,10436.903782
1420.888497,459.657299,-592.164754,11547.212695
1420.888816,919.314598,-666.185348,12287.418637
1420.889134,1072.533697,370.102971,10732.986159
1420.889453,2451.505594,1184.329507,9696.697840
1420.889772,2604.724693,1480.411884,9400.615463
1420.890091,2604.724693,1184.329507,8660.409521
1420.890410,2528.115143,1036.288319,7550.100608
1420.890729,2374.896044,1850.514855,7105.977043
1420.891048,1762.019645,1554.432478,7698.141797
1420.891367,1149.143247,1628.453072,7402.059420
1420.891686,0.000000,2220.617826,7920.203579
1420.892005,-1072.533697,1258.350101,9326.594869
1420.892324,-2374.896044,222.061783,10732.986159
1420.892643,-2987.772442,-592.164754,11547.212695
1420.892962,-3294.210641,-370.102971,12435.459826
1420.893281,-4136.915689,-1332.370696,13693.809927
1420.893600,-3753.867940,-666.185348,14063.912898
1420.893919,-2604.724693,962.267725,12065.356855
1420.894238,-1455.581446,1850.514855,10362.883188
1420.894557,-306.438199,2220.617826,9918.759623
1420.894876,689.485948,2738.761985,8142.265362
1420.895195,1302.362347,2516.700203,6069.688724
1420.895514,1532.190996,2812.782580,6069.688724
1420.895833,1225.752797,2664.741391,7105.977043
1420.896152,1072.533697,2146.597232,5921.647536
1420.896471,919.314598,1628.453072,6587.832884
1420.896790,-306.438199,370.102971,8734.430116
1420.897109,-1302.362347,-296.082377,10362.883188
1420.897428,-2451.505594,-370.102971,10436.903782
1420.897747,-2604.724693,-518.144159,11769.274478
1420.898066,-2451.505594,-518.144159,12879.583391
1420.898385,-1685.410096,-74.020594,12435.459826
1420.898704,-612.876398,148.041188,11177.109724
1420.899023,766.095498,518.144159,10584.944971
1420.899342,1991.848295,-0.000000,9918.759623
1420.899661,3140.991542,814.226536,8290.306550
1420.899980,4366.744339,962.267725,6587.832884
1420.900299,4979.620737,1036.288319,6809.894666
1420.900618,5132.839837,814.226536,6809.894666
1420.900937,5132.839837,1036.288319,5773.606348
1420.901256,5286.058936,962.267725,6291.750507
1420.901575,4136.915689,148.041188,7476.080014
1420.901894,2834.553343,-1110.308913,8734.430116
1420.902213,1225.752797,-2072.576638,8956.491898
1420.902532,0.000000,-2294.638420,10584.944971
1420.902850,-1455.581446,-2516.700203,12213.398043
1420.903169,-1225.752797,-1924.535449,11769.274478
1420.903488,-383.047749,-1332.370696,10732.986159
1420.903807,-306.438199,-888.247130,10658.965565
1420.904126,-153.219100,-740.205942,9770.718434
1420.904445,0.000000,-296.082377,8438.347739
1420.904764,536.266849,-0.000000,7550.100608
1420.905083,995.924147,370.102971,7550.100608
1420.905402,1072.533697,666.185348,7328.038826
1420.905721,1225.752797,2072.576638,6513.812290
1420.906040,842.705048,1628.453072,6809.894666
1420.906359,76.609550,1184.329507,7846.182985
1420.906678,-383.047749,-0.000000,8734.430116
1420.906997,-1608.800546,-0.000000,8808.450710
1420.907316,-2298.286494,-74.020594,10140.821405
1420.907635,-2528.115143,222.061783,10881.027347
1420.907954,-2221.676944,296.082377,10362.883188
1420.908273,-1838.629195,592.164754,9622.677246
1420.908592,-1455.581446,518.144159,9622.677246
1420.908911,-1991.848295,148.041188,9474.636058
1420.909230,-1378.971896,592.164754,8586.388927
1420.909549,-1072.533697,814.226536,8734.430116
1420.909868,-766.095498,1554.432478,9474.636058
1420.910187,0.000000,2146.597232,8808.450710
1420.910506,919.314598,2442.679609,8660.409521
1420.910825,1608.800546,2368.659014,9326.594869
1420.911144,1455.581446,1998.556043,9770.718434
1420.911463,1991.848295,1554.432478,10436.903782
1420.911782,2145.067394,1184.329507,10436.903782
1420.912101,2451.505594,518.144159,11547.212695
1420.912420,2757.943793,370.102971,11991.336260
1420.912739,2757.943793,1776.494261,9992.780217
1420.913058,3370.820191,2220.617826,8882.471304
1420.913377,2834.553343,2516.700203,8068.244768
1420.913696,3140.991542,2664.741391,8808.450710
1420.914015,2145.067394,1702.473667,8068.244768
1420.914334,1302.362347,1480.411884,8438.347739
1420.914653,0.000000,962.267725,9474.636058
1420.914972,-306.438199,1036.288319,9992.780217
1420.915291,-459.657299,962.267725,9918.759623
1420.915610,-995.924147,666.185348,11325.150913
1420.915929,-1685.410096,-0.000000,12213.398043
1420.916247,-1762.019645,518.144159,11473.192101
1420.916566,-1302.362347,740.205942,11177.109724
1420.916885,-1149.143247,1036.288319,11325.150913
1420.917204,-689.485948,1554.432478,10288.862594
1420.917523,153.219100,2294.638420,8808.450710
1420.917842,536.266849,2072.576638,8216.285956
1420.918161,306.438199,2220.617826,7550.100608
1420.918480,229.828649,2368.659014,6587.832884
1420.918799,-229.828649,1258.350101,6513.812290
1420.919118,-1225.752797,962.267725,7328.038826
1420.919437,-2374.896044,370.102971,8660.409521
1420.919756,-2681.334243,592.164754,8586.388927
1420.920075,-3370.820191,296.082377,9252.574275
1420.920394,-3753.867940,-444.123565,10584.944971
1420.920713,-4136.915689,-592.164754,11547.212695
1420.921032,-3447.429741,-1184.329507,11325.150913
1420.921351,-2911.162892,-1110.308913,11251.130318
1420.921670,-1532.190996,-740.205942,11917.315666
1420.921989,153.219100,-0.000000,10214.842000
1420.922308,1455.581446,1036.288319,8660.409521
1420.922627,2681.334243,1702.473667,7254.018232
1420.922946,3983.696590,1998.556043,6661.853478
1420.923265,4443.353888,2146.597232,5403.503377
1420.923584,4673.182538,1924.535449,5181.441594
1420.923903,3907.087040,1036.288319,6587.832884
1420.924222,3447.429741,370.102971,7179.997637
1420.924541,2298.286494,-370.102971,7920.203579
1420.924860,766.095498,-518.144159,8512.368333
1420.925179,-153.219100,-1332.370696,9992.780217
1420.925498,-1072.533697,-2072.576638,11251.130318
1420.925817,-1225.752797,-2294.638420,11621.233289
1420.926136,-1608.800546,-2368.659014,12361.439231
1420.926455,-919.314598,-1998.556043,13249.686362
1420.926773,76.609550,-740.205942,11769.274478
1420.927092,1302.362347,-296.082377,9992.780217
1420.927411,2681.334243,592.164754,9104.533087
1420.927730,3370.820191,962.267725,7846.182985
1420.928049,3447.429741,1628.453072,6143.709319
1420.928368,3907.087040,1702.473667,5921.647536
1420.928686,3524.039291,2072.576638,6513.812290
1420.929005,3064.381992,1628.453072,7254.018232
1420.929324,1762.019645,444.123565,7402.059420
1420.929643,0.000000,-0.000000,8734.430116
1420.929962,-1455.581446,-148.041188,10732.986159
1420.930281,-2604.724693,-666.185348,11473.192101
1420.930599,-2834.553343,-962.267725,11843.295072
1420.930918,-3753.867940,-962.267725,12879.583391
1420.931237,-2604.724693,-74.020594,13027.624579
1420.931556,-2068.457845,296.082377,12139.377449
1420.931875,-459.657299,518.144159,10510.924376
1420.932194,459.657299,1406.391290,9770.718434
1420.932512,1685.410096,2664.741391,7920.203579
1420.932831,2528.115143,3478.967927,5773.606348
1420.933150,2374.896044,2886.803174,5329.482782
1420.933469,2298.286494,2294.638420,7402.059420
1420.933788,1685.410096,1924.535449,7402.059420
1420.934107,1685.410096,2072.576638,7105.977043
1420.934425,153.219100,1258.350101,9252.574275
1420.934744,-459.657299,444.123565,10955.047942
1420.935063,-1455.581446,-740.205942,11325.150913
1420.935382,-2145.067394,-1332.370696,12509.480420
1420.935701,-2374.896044,-740.205942,13101.645173
1420.936020,-1532.190996,518.144159,12065.356855
1420.936338,-459.657299,1702.473667,10732.986159
1420.936657,153.219100,1110.308913,10066.800811
1420.936976,459.657299,296.082377,9178.553681
1420.937295,919.314598,444.123565,8142.265362
1420.937614,1838.629195,740.205942,6735.874072
1420.937933,1838.629195,1258.350101,7179.997637
1420.938251,1991.848295,1702.473667,7846.182985
1420.938570,1455.581446,1998.556043,7624.121203
1420.938889,919.314598,1036.288319,8068.244768
1420.939208,153.219100,222.061783,9474.636058
1420.939527,-689.485948,-74.020594,10807.006753
1420.939846,-766.095498,-296.082377,11029.068536
1420.940164,-1455.581446,-740.205942,11103.089130
1420.940483,-1149.143247,-518.144159,11843.295072
1420.940802,-383.047749,-740.205942,11769.274478
1420.941121,459.657299,-296.082377,9770.718434
1420.941440,1838.629195,592.164754,8290.306550
1420.941759,2068.457845,1184.329507,7179.997637
1420.942078,2604.724693,1406.391290,6365.771101
1420.942396,2221.676944,962.267725,5625.565159
1420.942715,1608.800546,148.041188,6587.832884
1420.943034,459.657299,-222.061783,8512.368333
1420.943353,76.609550,296.082377,8364.327145
1420.943672,-459.657299,148.041188,8882.471304
1420.943991,-1532.190996,-740.205942,10732.986159
1420.944309,-1532.190996,-1776.494261,12287.418637
1420.944628,-1455.581446,-2294.638420,11843.295072
1420.944947,-1532.190996,-1924.535449,11843.295072
1420.945266,-306.438199,-1258.350101,12435.459826
1420.945585,1072.533697,-0.000000,10362.883188
1420.945904,2681.334243,518.144159,8068.244768
1420.946222,3983.696590,222.061783,7402.059420
1420.946541,4060.306139,148.041188,6365.771101
1420.946860,4290.134789,-0.000000,5107.421000
1420.947179,3524.039291,-0.000000,4885.359217
1420.947498,2221.676944,-888.247130,6883.915261
1420.947817,612.876398,-592.164754,7328.038826
1420.948135,-1149.143247,-0.000000,7624.121203
1420.948454,-2221.676944,-518.144159,9252.574275
1420.948773,-3447.429741,-666.185348,11399.171507
1420.949092,-3983.696590,-1998.556043,12879.583391
1420.949411,-4290.134789,-2886.803174,13323.706956
1420.949730,-3907.087040,-2368.659014,13767.830521
1420.950048,-2834.553343,-1850.514855,13767.830521
1420.950367,-229.828649,-148.041188,11917.315666
1420.950686,1685.410096,1776.494261,9474.636058
1420.951005,3064.381992,2664.741391,7550.100608
1420.951324,4749.792088,3404.947333,6069.688724
1420.951643,5515.887586,3552.988522,4367.215058
1420.951961,5822.325785,3627.009116,3701.029710
1420.952280,4979.620737,3256.906145,4367.215058
1420.952599,3217.601092,1924.535449,5551.544565
1420.952918,1608.800546,518.144159,6809.894666
1420.953237,-306.438199,-0.000000,8734.430116
1420.953556,-2068.457845,-518.144159,11251.130318
1420.953874,-2681.334243,-518.144159,12139.377449
1420.954193,-2911.162892,-888.247130,12879.583391
1420.954512,-3217.601092,-1406.391290,14063.912898
1420.954831,-2298.286494,-1110.308913,13989.892304
1420.955150,-842.705048,370.102971,12361.439231
1420.955469,1378.971896,1332.370696,9918.759623
1420.955787,3064.381992,1924.535449,9030.512492
1420.956106,4443.353888,2072.576638,7476.080014
1420.956425,5745.716235,2516.700203,5847.626942
1420.956744,5975.544884,2368.659014,5255.462188
1420.957063,5515.887586,1850.514855,5773.606348
1420.957382,4979.620737,2368.659014,6069.688724
1420.957700,3907.087040,1776.494261,6661.853478
1420.958019,1915.238745,222.061783,8290.306550
1420.958338,-612.876398,-888.247130,10955.047942
1420.958657,-2221.676944,-2146.597232,12213.398043
1420.958976,-3294.210641,-2960.823768,12953.603985
1420.959295,-4213.525239,-3775.050304,14878.139434
1420.959613,-3447.429741,-3330.926739,14878.139434
1420.959932,-2451.505594,-2294.638420,13027.624579
1420.960251,-459.657299,-1036.288319,11251.130318
1420.960570,842.705048,-222.061783,9918.759623
1420.960889,2451.505594,370.102971,8808.450710
1420.961208,3447.429741,1184.329507,5847.626942
1420.961526,3907.087040,1924.535449,5181.441594
1420.961845,3830.477490,1924.535449,6069.688724
1420.962164,3140.991542,1628.453072,6069.688724
1420.962483,2604.724693,740.205942,6513.812290
1420.962802,536.266849,-148.041188,8512.368333
1420.963121,-1532.190996,-1036.288319,9992.780217
1420.963439,-2451.505594,-1036.288319,10584.944971
1420.963758,-3447.429741,-1184.329507,11325.150913
1420.964077,-3907.087040,-2590.720797,13027.624579
1420.964396,-4136.915689,-2812.782580,13397.727550
1420.964715,-3140.991542,-1850.514855,11251.130318
1420.965034,-1608.800546,-1110.308913,9770.718434
1420.965352,-766.095498,-666.185348,9474.636058
1420.965671,1072.533697,-0.000000,7698.141797
1420.965990,2681.334243,740.205942,6439.791695
1420.966309,3294.210641,2812.782580,5255.462188
1420.966628,3447.429741,3330.926739,5033.400406
1420.966947,3294.210641,2738.761985,4589.276840
1420.967265,2374.896044,2368.659014,5255.462188
1420.967584,1225.752797,-0.000000,7920.203579
1420.967903,306.438199,-0.000000,10288.862594
1420.968222,-306.438199,-148.041188,10510.924376
1420.968541,-1608.800546,-0.000000,9918.759623
1420.968860,-1302.362347,-1332.370696,12805.562797
1420.969178,-2221.676944,-1924.535449,12805.562797
1420.969497,0.000000,-1924.535449,11251.130318
1420.969816,0.000000,-370.102971,9474.636058
1420.970135,1149.143247,592.164754,9770.718434
1420.970454,2374.896044,1850.514855,7476.080014
1420.970773,3294.210641,2368.659014,5625.565159
1420.971091,3370.820191,666.185348,6957.935855
1420.971410,3983.696590,1406.391290,7476.080014
1420.971729,3830.477490,2294.638420,5625.565159
1420.972048,3217.601092,1702.473667,7031.956449
1420.972367,2221.676944,814.226536,9548.656652
1420.972686,459.657299,-0.000000,9918.759623
1420.973004,229.828649,-1184.329507,10955.047942
1420.973323,-766.095498,-888.247130,12583.501014
1420.973642,-1378.971896,-1110.308913,12953.603985
1420.973961,-1072.533697,-370.102971,12287.418637
1420.974280,-842.705048,222.061783,11769.274478
1420.974599,-612.876398,-888.247130,11029.068536
1420.974917,-459.657299,-148.041188,9918.759623
1420.975236,536.266849,962.267725,8290.306550
1420.975555,1225.752797,1258.350101,6883.915261
1420.975874,995.924147,1850.514855,7254.018232
1420.976193,1225.752797,1924.535449,7105.977043
1420.976512,766.095498,1258.350101,7328.038826
1420.976830,0.000000,592.164754,8512.368333
1420.977149,-919.314598,-0.000000,10288.862594
1420.977468,-1072.533697,-296.082377,10955.047942
1420.977787,-1762.019645,-222.061783,10584.944971
1420.978106,-1991.848295,-666.185348,12583.501014
1420.978425,-2374.896044,-518.144159,13249.686362
1420.978743,-1149.143247,370.102971,11621.233289
1420.979062,153.219100,814.226536,9918.759623
1420.979381,1225.752797,888.247130,9548.656652
1420.979700,2451.505594,1332.370696,8216.285956
1420.980019,3217.601092,1480.411884,6513.812290
1420.980338,3830.477490,1554.432478,5921.647536
1420.980656,3677.258390,1554.432478,6439.791695
1420.980975,3370.820191,2146.597232,6291.750507
1420.981294,2451.505594,1776.494261,6365.771101
1420.981613,1608.800546,1110.308913,7476.080014
1420.981932,153.219100,-0.000000,9400.615463
1420.982251,-153.219100,-518.144159,10436.903782
1420.982569,-919.314598,-1036.288319,11399.171507
1420.982888,-1149.143247,-1110.308913,12731.542202
1420.983207,-919.314598,-1554.432478,13249.686362
1420.983526,-459.657299,-740.205942,11917.315666
1420.983845,842.705048,-740.205942,11103.089130
1420.984164,1455.581446,444.123565,9770.718434
1420.984482,3064.381992,518.144159,8068.244768
1420.984801,3677.258390,518.144159,6365.771101
1420.985120,3677.258390,1036.288319,6661.853478
1420.985439,3983.696590,814.226536,6291.750507
1420.985758,3370.820191,888.247130,5921.647536
1420.986077,2451.505594,740.205942,6809.894666
1420.986396,842.705048,-370.102971,7994.224174
1420.986714,-995.924147,-1406.391290,9696.697840
1420.987033,-2374.896044,-2516.700203,10732.986159
1420.987352,-3370.820191,-2812.782580,11843.295072
1420.987671,-3370.820191,-2368.659014,13027.624579
1420.987990,-3370.820191,-2072.576638,13175.665768
1420.988309,-2987.772442,-740.205942,11843.295072
1420.988627,-1532.190996,-0.000000,10362.883188
1420.988946,-689.485948,666.185348,9992.780217
1420.989265,766.095498,1554.432478,8512.368333
1420.989584,1532.190996,2664.741391,6365.771101
1420.989903,1915.238745,2886.803174,6217.729913
1420.990222,2221.676944,3108.864956,6217.729913
1420.990540,2068.457845,2442.679609,6069.688724
1420.990859,1915.238745,1332.370696,6513.812290
1420.991178,919.314598,666.185348,8068.244768
1420.991497,-383.047749,296.082377,8734.430116
1420.991816,-1378.971896,-444.123565,9252.574275
1420.992135,-2145.067394,-1776.494261,10584.944971
1420.992453,-2451.505594,-1184.329507,11843.295072
1420.992772,-2068.457845,-0.000000,11399.171507
1420.993091,-1685.410096,1184.329507,10362.883188
1420.993410,-383.047749,1332.370696,9992.780217
1420.993729,0.000000,1480.411884,9548.656652
1420.994048,689.485948,1776.494261,8142.265362
1420.994366,1302.362347,1554.432478,7846.182985
1420.994685,2145.067394,1850.514855,7920.203579
1420.995004,2298.286494,2220.617826,7994.224174
1420.995323,2987.772442,2368.659014,6883.915261
1420.995642,2451.505594,2220.617826,7550.100608
1420.995961,2298.286494,1036.288319,9770.718434
1420.996279,1532.190996,444.123565,10214.842000
1420.996598,842.705048,148.041188,9474.636058
1420.996917,-229.828649,-0.000000,10732.986159
1420.997236,-919.314598,-0.000000,11917.315666
1420.997555,-536.266849,444.123565,10436.903782
1420.997874,-383.047749,-0.000000,9770.718434
1420.998192,-383.047749,-0.000000,10658.965565
1420.998511,-383.047749,-0.000000,10214.842000
1420.998830,-229.828649,666.185348,8216.285956
1420.999149,76.609550,1110.308913,8808.450710
1420.999468,76.609550,1110.308913,9400.615463
1420.999787,-153.219100,1776.494261,9030.512492
1421.000105,536.266849,2664.741391,9030.512492
1421.000424,459.657299,2516.700203,9252.574275
1421.000743,0.000000,1776.494261,10362.883188
1421.001062,-229.828649,1110.308913,10807.006753
1421.001381,-766.095498,-0.000000,10362.883188
1421.001700,-1302.362347,-0.000000,11547.212695
1421.002018,-842.705048,444.123565,11325.150913
1421.002337,0.000000,1036.288319,10140.821405
1421.002656,1072.533697,1480.411884,9178.553681
1421.002975,766.095498,1184.329507,9104.533087
1421.003294,842.705048,740.205942,8290.306550
1421.003613,1072.533697,666.185348,7254.018232
1421.003931,1302.362347,740.205942,7624.121203
1421.004250,919.314598,666.185348,8438.347739
1421.004569,842.705048,1184.329507,8068.244768
1421.004888,919.314598,1110.308913,8290.306550
1421.005207,0.000000,592.164754,9326.594869
1421.005526,-306.438199,-74.020594,10807.006753
1421.005844,-306.438199,-666.185348,10807.006753
1421.006163,-153.219100,-888.247130,11029.068536
1421.006482,-229.828649,-888.247130,12361.439231
1421.006801,612.876398,-222.061783,11843.295072
1421.007120,1762.019645,814.226536,9844.739029
1421.007439,2834.553343,1258.350101,9252.574275
1421.007757,3217.601092,888.247130,8808.450710
1421.008076,3217.601092,444.123565,7476.080014
1421.008395,3217.601092,370.102971,6957.935855
1421.008714,2757.943793,-148.041188,7179.997637
1421.009033,1915.238745,-370.102971,6957.935855
1421.009352,995.924147,-296.082377,7105.977043
1421.009670,0.000000,-518.144159,7550.100608
1421.009989,-766.095498,-1480.411884,9326.594869
1421.010308,-1991.848295,-1554.432478,9622.677246
1421.010627,-2298.286494,-1776.494261,10436.903782
1421.010946,-2451.505594,-1628.453072,11251.130318
1421.011265,-2528.115143,-1628.453072,11843.295072
1421.011583,-2221.676944,-666.185348,11325.150913
1421.011902,-995.924147,-0.000000,9474.636058
1421.012221,459.657299,1554.432478,8586.388927
1421.012540,1149.143247,1924.535449,7846.182985
1421.012859,1532.190996,1850.514855,6661.853478
1421.013178,1455.581446,2146.597232,6069.688724
1421.013496,1838.629195,2146.597232,5921.647536
1421.013815,1455.581446,1628.453072,6439.791695
1421.014134,1302.362347,1776.494261,6365.771101
1421.014453,306.438199,1036.288319,6735.874072
1421.014772,-383.047749,-148.041188,8290.306550
1421.015091,-1532.190996,-814.226536,9474.636058
1421.015409,-2451.505594,-1110.308913,9918.759623
1421.015728,-2528.115143,-1258.350101,10807.006753
1421.016047,-2451.505594,-222.061783,11621.233289
1421.016366,-1685.410096,148.041188,11251.130318
1421.016685,-766.095498,1184.329507,10288.862594
1421.017004,383.047749,1628.453072,9696.697840
1421.017322,1072.533697,1554.432478,9474.636058
1421.017641,1915.238745,1332.370696,8956.491898
1421.017960,2681.334243,1554.432478,8142.265362
1421.018279,2681.334243,1406.391290,8586.388927
1421.018598,2757.943793,1554.432478,8438.347739
1421.018917,2757.943793,1554.432478,8068.244768
1421.019235,2451.505594,1480.411884,8956.491898
1421.019554,1532.190996,518.144159,10066.800811
1421.019873,459.657299,-222.061783,10362.883188
1421.020192,-766.095498,-666.185348,10658.965565
1421.020511,-1378.971896,-1258.350101,11695.253884
1421.020830,-1225.752797,-1406.391290,12361.439231
1421.021148,-1149.143247,-814.226536,11547.212695
1421.021467,-383.047749,-370.102971,10732.986159
1421.021786,-76.609550,222.061783,10288.862594
1421.022105,459.657299,592.164754,9400.615463
1421.022424,995.924147,1406.391290,8364.327145
1421.022743,1072.533697,1628.453072,8290.306550
1421.023061,1072.533697,2072.576638,8956.491898
1421.023380,1225.752797,2812.782580,8364.327145
1421.023699,919.314598,2516.700203,8290.306550
1421.024018,612.876398,2146.597232,9474.636058
1421.024337,-383.047749,1850.514855,10214.842000
1421.024656,-383.047749,666.185348,10214.842000
1421.024974,-766.095498,148.041188,9992.780217
1421.025293,-1072.533697,-74.020594,10732.986159
1421.025612,-459.657299,-148.041188,10732.986159
1421.025931,153.219100,-0.000000,9474.636058
1421.026250,536.266849,-0.000000,8734.430116
1421.026569,612.876398,296.082377,8586.388927
1421.026887,995.924147,148.041188,7476.080014
1421.027206,919.314598,666.185348,6735.874072
1421.027525,1378.971896,1406.391290,6883.915261
1421.027844,919.314598,962.267725,7698.141797
1421.028163,306.438199,888.247130,7920.203579
1421.028481,76.609550,518.144159,8512.368333
1421.028800,-229.828649,-0.000000,10140.821405
1421.029119,-229.828649,-370.102971,11473.192101
1421.029438,-459.657299,-1036.288319,11399.171507
1421.029757,-536.266849,-888.247130,10881.027347
1421.030076,536.266849,-888.247130,11695.253884
1421.030394,1149.143247,-370.102971,10658.965565
1421.030713,2298.286494,-370.102971,9030.512492
1421.031032,2757.943793,-592.164754,8216.285956
1421.031351,2451.505594,-1258.350101,7550.100608
1421.031670,2528.115143,-1258.350101,6513.812290
1421.031988,2068.457845,-962.267725,5551.544565
1421.032307,1532.190996,-740.205942,6217.729913
1421.032626,612.876398,-740.205942,7105.977043
1421.032945,383.047749,-370.102971,7550.100608
1421.033264,-459.657299,-592.164754,8364.327145
1421.033582,-1072.533697,-1406.391290,10214.842000
1421.033901,-1455.581446,-1554.432478,11547.212695
1421.034220,-1762.019645,-1406.391290,11325.150913
1421.034539,-1838.629195,-814.226536,11695.253884
1421.034858,-919.314598,-74.020594,12287.418637
1421.035177,229.828649,296.082377,10584.944971
1421.035495,1838.629195,1776.494261,8512.368333
1421.035814,2374.896044,2146.597232,7624.121203
1421.036133,3140.991542,1702.473667,6513.812290
1421.036452,2757.943793,1332.370696,5477.523971
1421.036771,2145.067394,740.205942,5255.462188
1421.037089,1455.581446,148.041188,6513.812290
1421.037408,306.438199,296.082377,7254.018232
1421.037727,-229.828649,-148.041188,7698.141797
1421.038046,-995.924147,-0.000000,8734.430116
1421.038365,-1838.629195,-518.144159,10214.842000
1421.038683,-2221.676944,-1184.329507,11177.109724
1421.039002,-2451.505594,-1258.350101,11917.315666
1421.039321,-2374.896044,-740.205942,12213.398043
1421.039640,-1302.362347,296.082377,12953.603985
1421.039959,76.609550,1036.288319,11843.295072
1421.040278,1685.410096,1554.432478,10214.842000
1421.040596,2757.943793,2072.576638,9548.656652
1421.040915,3600.648841,1850.514855,8808.450710
1421.041234,3907.087040,1850.514855,6957.935855
1421.041553,3677.258390,2072.576638,6143.709319
1421.041872,3294.210641,1480.411884,7402.059420
1421.042190,2145.067394,888.247130,7698.141797
1421.042509,1455.581446,-0.000000,8142.265362
1421.042828,0.000000,-666.185348,9992.780217
1421.043147,-1455.581446,-1480.411884,11547.212695
1421.043466,-1915.238745,-1998.556043,12065.356855
1421.043784,-2757.943793,-2146.597232,12139.377449
1421.044103,-2221.676944,-2072.576638,12953.603985
1421.044422,-1608.800546,-1628.453072,12805.562797
1421.044741,76.609550,-74.020594,11621.233289
1421.045060,1455.581446,1480.411884,9844.739029
1421.045379,2451.505594,2146.597232,8882.471304
1421.045697,3140.991542,2294.638420,8142.265362
1421.046016,3294.210641,2294.638420,6957.935855
1421.046335,3294.210641,2146.597232,7031.956449
1421.046654,2757.943793,2072.576638,6735.874072
1421.046973,1532.190996,2072.576638,7476.080014
1421.047291,1149.143247,1998.556043,7402.059420
1421.047610,229.828649,962.267725,8586.388927
1421.047929,-1149.143247,-222.061783,9992.780217
1421.048248,-1762.019645,-222.061783,10214.842000
1421.048567,-2451.505594,-814.226536,10436.903782
1421.048885,-2298.286494,-814.226536,11695.253884
1421.049204,-1762.019645,-814.226536,12139.377449
1421.049523,-995.924147,-592.164754,10510.924376
1421.049842,459.657299,222.061783,9104.533087
1421.050161,1225.752797,296.082377,9030.512492
1421.050480,2298.286494,444.123565,7402.059420
1421.050798,2911.162892,1332.370696,6143.709319
1421.051117,3370.820191,2146.597232,6069.688724
1421.051436,3064.381992,2294.638420,6513.812290
1421.051755,2757.943793,2146.597232,6513.812290
1421.052074,1915.238745,1628.453072,7105.977043
1421.052392,919.314598,-0.000000,9178.553681
1421.052711,-766.095498,-888.247130,10362.883188
1421.053030,-1072.533697,-1480.411884,10658.965565
1421.053349,-1838.629195,-2072.576638,11843.295072
1421.053668,-1762.019645,-2220.617826,12583.501014
1421.053987,-1072.533697,-2220.617826,12065.356855
1421.054305,-383.047749,-1702.473667,10658.965565
1421.054624,1072.533697,-888.247130,9400.615463
1421.054943,2298.286494,-518.144159,8438.347739
1421.055262,2528.115143,-296.082377,7328.038826
1421.055581,3370.820191,222.061783,6513.812290
1421.055899,2757.943793,296.082377,6439.791695
1421.056218,2528.115143,962.267725,7105.977043
1421.056537,2298.286494,666.185348,7328.038826
1421.056856,1608.800546,370.102971,8068.244768
1421.057175,0.000000,-222.061783,9844.739029
1421.057493,-766.095498,-666.185348,11251.130318
1421.057812,-1915.238745,-1702.473667,11769.274478
1421.058131,-2451.505594,-2220.617826,12435.459826
1421.058450,-2068.457845,-1776.494261,13175.665768
1421.058769,-995.924147,-888.247130,12065.356855
1421.059088,0.000000,-740.205942,9992.780217
1421.059406,842.705048,-0.000000,9326.594869
1421.059725,1532.190996,518.144159,8068.244768
1421.060044,2528.115143,1258.350101,6365.771101
1421.060363,2374.896044,1480.411884,5329.482782
1421.060682,2145.067394,1702.473667,5921.647536
1421.061000,1685.410096,1776.494261,6217.729913
1421.061319,1455.581446,1406.391290,7624.121203
1421.061638,306.438199,518.144159,8216.285956
1421.061957,-1302.362347,-148.041188,10214.842000
1421.062276,-1838.629195,-222.061783,10807.006753
1421.062594,-2451.505594,-222.061783,11843.295072
1421.062913,-2145.067394,-296.082377,12805.562797
1421.063232,-1455.581446,-0.000000,13397.727550
1421.063551,-842.705048,888.247130,11769.274478
1421.063870,612.876398,1628.453072,9918.759623
1421.064189,1378.971896,2294.638420,9474.636058
1421.064507,2145.067394,1924.535449,8068.244768
1421.064826,2451.505594,1406.391290,6587.832884
1421.065145,2681.334243,2220.617826,6069.688724
1421.065464,2451.505594,1776.494261,6661.853478
1421.065783,2451.505594,1554.432478,7031.956449
1421.066101,2145.067394,1332.370696,6809.894666
1421.066420,919.314598,592.164754,8216.285956
1421.066739,-536.266849,296.082377,10436.903782
1421.067058,-1225.752797,-222.061783,11399.171507
1421.067377,-1072.533697,-148.041188,11399.171507
1421.067695,-1378.971896,148.041188,12953.603985
1421.068014,-995.924147,-74.020594,13471.748144
1421.068333,0.000000,1184.329507,11769.274478
1421.068652,995.924147,1850.514855,10066.800811
1421.068971,1991.848295,1998.556043,9474.636058
1421.069290,1991.848295,1924.535449,8216.285956
1421.069608,2298.286494,1850.514855,6587.832884
1421.069927,2298.286494,1998.556043,6291.750507
1421.070246,1532.190996,1406.391290,7254.018232
1421.070565,1072.533697,1406.391290,7328.038826
1421.070884,383.047749,1184.329507,7846.182985
1421.071202,-919.314598,370.102971,9104.533087
1421.071521,-1608.800546,-814.226536,11325.150913
1421.071840,-2757.943793,-1850.514855,11843.295072
1421.072159,-2374.896044,-1258.350101,12435.459826
1421.072478,-2298.286494,-370.102971,13027.624579
1421.072796,-1302.362347,148.041188,12731.542202
1421.073115,229.828649,518.144159,11103.089130
1421.073434,1455.581446,1258.350101,9474.636058
1421.073753,2681.334243,1332.370696,9104.533087
1421.074072,3294.210641,1184.329507,7920.203579
1421.074391,3677.258390,1554.432478,5847.626942
1421.074709,3753.867940,1480.411884,5995.668130
1421.075028,3064.381992,666.185348,7254.018232
1421.075347,1991.848295,814.226536,7179.997637
1421.075666,1149.143247,518.144159,7179.997637
1421.075985,153.219100,-148.041188,8956.491898
1421.076303,-1378.971896,-1628.453072,10807.006753
1421.076622,-1838.629195,-1850.514855,10955.047942
1421.076941,-2604.724693,-2072.576638,11473.192101
1421.077260,-1991.848295,-1850.514855,12287.418637
1421.077579,-1225.752797,-962.267725,11769.274478
1421.077898,459.657299,-370.102971,9844.739029
1421.078216,1762.019645,222.061783,8660.409521
1421.078535,2451.505594,592.164754,8438.347739
1421.078854,2987.772442,814.226536,7179.997637
1421.079173,3370.820191,814.226536,5625.565159
1421.079492,2757.943793,814.226536,6365.771101
1421.079810,2451.505594,1406.391290,6661.853478
1421.080129,2298.286494,1554.432478,6365.771101
1421.080448,1225.752797,1332.370696,6661.853478
1421.080767,76.609550,444.123565,8660.409521
1421.081086,-1455.581446,-1036.288319,9992.780217
1421.081404,-2681.334243,-1480.411884,10288.862594
1421.081723,-2681.334243,-1702.473667,10955.047942
1421.082042,-2604.724693,-1998.556043,12435.459826
1421.082361,-2374.896044,-1628.453072,11399.171507
1421.082680,-1149.143247,-518.144159,9844.739029
1421.082999,-229.828649,518.144159,9178.553681
1421.083317,536.266849,962.267725,8290.306550
1421.083636,1149.143247,1184.329507,7105.977043
1421.083955,1302.362347,1406.391290,6143.709319
1421.084274,1378.971896,1480.411884,6809.894666
1421.084593,689.485948,1702.473667,7402.059420
1421.084911,766.095498,2146.597232,7624.121203
1421.085230,76.609550,1850.514855,8364.327145
1421.085549,-842.705048,888.247130,9770.718434
1421.085868,-1608.800546,-0.000000,11103.089130
1421.086187,-2298.286494,-518.144159,11177.109724
1421.086505,-1991.848295,-370.102971,12361.439231
1421.086824,-1685.410096,-0.000000,12509.480420
1421.087143,-1302.362347,-0.000000,11399.171507
1421.087462,229.828649,222.061783,10436.903782
1421.087781,766.095498,444.123565,9992.780217
1421.088100,1455.581446,888.247130,8734.430116
1421.088418,2834.553343,1702.473667,6957.935855
1421.088737,2604.724693,2146.597232,6957.935855
1421.089056,2681.334243,2146.597232,7624.121203
1421.089375,2528.115143,1702.473667,8290.306550
1421.089694,2221.676944,1850.514855,8438.347739
1421.090012,1149.143247,1110.308913,9622.677246
1421.090331,76.609550,1110.308913,11325.150913
1421.090650,0.000000,740.205942,11991.336260
1421.090969,-383.047749,-0.000000,11843.295072
1421.091288,-689.485948,222.061783,12509.480420
1421.091606,0.000000,-0.000000,12953.603985
1421.091925,459.657299,666.185348,10955.047942
1421.092244,1532.190996,1480.411884,9400.615463
1421.092563,1915.238745,1332.370696,8956.491898
1421.092882,2145.067394,1406.391290,7550.100608
1421.093201,1532.190996,1258.350101,5921.647536
1421.093519,1762.019645,1480.411884,6439.791695
1421.093838,1149.143247,1184.329507,7624.121203
1421.094157,383.047749,1850.514855,6883.915261
1421.094476,0.000000,1776.494261,7624.121203
1421.094795,-1685.410096,370.102971,9474.636058
1421.095113,-2528.115143,-666.185348,11325.150913
1421.095432,-3294.210641,-888.247130,11843.295072
1421.095751,-3217.601092,-518.144159,12213.398043
1421.096070,-3064.381992,-222.061783,13249.686362
1421.096389,-1915.238745,518.144159,12435.459826
1421.096707,-459.657299,1406.391290,9992.780217
1421.097026,1072.533697,1628.453072,8734.430116
1421.097345,2911.162892,1480.411884,8438.347739
1421.097664,3677.258390,1258.350101,6217.729913
1421.097983,3600.648841,1406.391290,4589.276840
1421.098302,3830.477490,1480.411884,5403.503377
1421.098620,2987.772442,1554.432478,5551.544565
1421.098939,2451.505594,1554.432478,5699.585753
1421.099258,1608.800546,740.205942,6587.832884
1421.099577,0.000000,-222.061783,9104.533087
1421.099896,-1455.581446,-2146.597232,10436.903782
1421.100214,-2298.286494,-2590.720797,11547.212695
1421.100533,-2757.943793,-3330.926739,13397.727550
1421.100852,-2681.334243,-2812.782580,14211.954086
1421.101171,-2145.067394,-1924.535449,13323.706956
1421.101490,0.000000,-740.205942,11843.295072
1421.101808,2221.676944,222.061783,10955.047942
1421.102127,3140.991542,592.164754,8956.491898
1421.102446,4519.963438,1184.329507,7402.059420
1421.102765,5132.839837,1480.411884,5773.606348
1421.103084,4979.620737,1036.288319,5625.565159
1421.103403,4596.572988,1036.288319,5847.626942
1421.103721,3677.258390,444.123565,5847.626942
1421.104040,2681.334243,-370.102971,6439.791695
1421.104359,612.876398,-1628.453072,9030.512492
1421.104678,-1072.533697,-2590.720797,10436.903782
1421.104997,-2604.724693,-3256.906145,11695.253884
1421.105315,-3447.429741,-3182.885551,12657.521608
1421.105634,-3753.867940,-2368.659014,13693.809927
1421.105953,-2987.772442,-1406.391290,12805.562797
1421.106272,-1685.410096,-222.061783,10955.047942
1421.106591,-1302.362347,666.185348,10288.862594
1421.106910,0.000000,1110.308913,9400.615463
1421.107228,1225.752797,1628.453072,7476.080014
1421.107547,1685.410096,2146.597232,6217.729913
1421.107866,1915.238745,2294.638420,6365.771101
1421.108185,2145.067394,2294.638420,6513.812290
1421.108504,2298.286494,2220.617826,5995.668130
1421.108822,1302.362347,1776.494261,6883.915261
1421.109141,-229.828649,740.205942,9030.512492
1421.109460,-1302.362347,-148.041188,9696.697840
1421.109779,-2298.286494,-370.102971,10214.842000
1421.110098,-2911.162892,-740.205942,11177.109724
1421.110416,-3753.867940,-1110.308913,12361.439231
1421.110735,-2757.943793,-74.020594,10881.027347
1421.111054,-1685.410096,888.247130,9548.656652
1421.111373,-842.705048,1036.288319,9992.780217
1421.111692,76.609550,1332.370696,9326.594869
1421.112011,919.314598,1702.473667,7846.182985
1421.112329,1608.800546,2368.659014,7254.018232
1421.112648,2451.505594,2886.803174,7846.182985
1421.112967,2604.724693,2738.761985,8068.244768
1421.113286,3370.820191,3034.844362,7328.038826
1421.113605,3064.381992,2368.659014,8068.244768
1421.113923,1685.410096,1406.391290,9844.739029
1421.114242,1225.752797,666.185348,10584.944971
1421.114561,536.266849,-0.000000,10362.883188
1421.114880,153.219100,-0.000000,11695.253884
1421.115199,-306.438199,-444.123565,12213.398043
1421.115517,-229.828649,-370.102971,11029.068536
1421.115836,306.438199,222.061783,9918.759623
1421.116155,766.095498,-222.061783,9992.780217
1421.116474,842.705048,-0.000000,9474.636058
1421.116793,1149.143247,-0.000000,7846.182985
1421.117112,1225.752797,666.185348,7476.080014
1421.117430,1225.752797,1110.308913,8734.430116
1421.117749,1455.581446,1554.432478,8882.471304
1421.118068,919.314598,1480.411884,8364.327145
1421.118387,842.705048,1628.453072,9844.739029
1421.118706,-689.485948,444.123565,11177.109724
1421.119024,-689.485948,592.164754,10955.047942
1421.119343,-842.705048,-148.041188,10732.986159
1421.119662,-842.705048,-0.000000,11547.212695
1421.119981,-842.705048,-444.123565,11325.150913
1421.120300,0.000000,-0.000000,9844.739029
1421.120618,689.485948,-0.000000,9104.533087
1421.120937,1072.533697,296.082377,8882.471304
1421.121256,1532.190996,-0.000000,7920.203579
1421.121575,1455.581446,-0.000000,6587.832884
1421.121894,1532.190996,-0.000000,6883.915261
1421.122213,1455.581446,-0.000000,7846.182985
1421.122531,919.314598,-0.000000,7846.182985
1421.122850,919.314598,222.061783,7994.224174
1421.123169,0.000000,-296.082377,9252.574275
1421.123488,76.609550,-814.226536,10732.986159
1421.123807,0.000000,-962.267725,10510.924376
1421.124125,0.000000,-888.247130,10807.006753
1421.124444,229.828649,-1036.288319,11325.150913
1421.124763,306.438199,-370.102971,11177.109724
1421.125082,1608.800546,-0.000000,9548.656652
1421.125401,2068.457845,370.102971,8956.491898
1421.125719,2528.115143,-74.020594,8808.450710
1421.126038,2451.505594,-148.041188,7105.977043
1421.126357,2911.162892,-296.082377,6217.729913
1421.126676,2298.286494,-222.061783,6513.812290
1421.126995,1991.848295,-74.020594,7624.121203
1421.127313,1608.800546,-0.000000,6587.832884
1421.127632,229.828649,-74.020594,7550.100608
1421.127951,-459.657299,-888.247130,9252.574275
1421.128270,-1378.971896,-1184.329507,9548.656652
1421.128588,-1991.848295,-1628.453072,9770.718434
1421.128907,-2298.286494,-1628.453072,11029.068536
1421.129226,-2298.286494,-814.226536,11843.295072
1421.129545,-1762.019645,-0.000000,11621.233289
1421.129863,-689.485948,666.185348,10066.800811
1421.130182,76.609550,888.247130,9252.574275
1421.130501,1072.533697,1036.288319,8734.430116
1421.130820,1072.533697,1332.370696,7179.997637
1421.131138,1685.410096,1480.411884,6439.791695
1421.131457,1455.581446,1702.473667,6809.894666
1421.131776,1455.581446,1776.494261,7179.997637
1421.132094,1378.971896,1702.473667,6513.812290
1421.132413,919.314598,740.205942,6883.915261
1421.132732,-459.657299,-0.000000,9178.553681
1421.133051,-1378.971896,-518.144159,9696.697840
1421.133369,-1532.190996,-962.267725,10140.821405
1421.133688,-2068.457845,-444.123565,11399.171507
1421.134007,-1532.190996,-444.123565,12435.459826
1421.134326,-766.095498,-0.000000,11621.233289
1421.134644,0.000000,740.205942,10658.965565
1421.134963,536.266849,1184.329507,10288.862594
1421.135282,1302.362347,1628.453072,9696.697840
1421.135601,2451.505594,2220.617826,7994.224174
1421.135919,2374.896044,2146.597232,7476.080014
1421.136238,2528.115143,1998.556043,8438.347739
1421.136557,2604.724693,2294.638420,8364.327145
1421.136875,2451.505594,1776.494261,7624.121203
1421.137194,2298.286494,888.247130,8586.388927
1421.137513,1225.752797,-74.020594,10658.965565
1421.137832,229.828649,-1258.350101,10658.965565
1421.138150,0.000000,-1628.453072,10807.006753
1421.138469,-536.266849,-1406.391290,12657.521608
1421.138788,-153.219100,-444.123565,11991.336260
1421.139107,229.828649,444.123565,10436.903782
1421.139425,1149.143247,814.226536,9770.718434
1421.139744,2068.457845,1258.350101,9770.718434
1421.140063,1838.629195,666.185348,8882.471304
1421.140382,1455.581446,888.247130,7772.162391
1421.140700,1225.752797,1332.370696,8512.368333
1421.141019,1149.143247,2146.597232,8660.409521
1421.141338,1685.410096,1924.535449,8808.450710
1421.141656,995.924147,1702.473667,7994.224174
1421.141975,459.657299,1036.288319,9474.636058
1421.142294,0.000000,148.041188,10288.862594
1421.142613,-612.876398,-444.123565,10584.944971
1421.142931,-459.657299,-888.247130,10807.006753
1421.143250,-919.314598,-666.185348,11325.150913
1421.143569,-766.095498,-518.144159,10658.965565
1421.143888,76.609550,148.041188,9178.553681
1421.144206,612.876398,-0.000000,8438.347739
1421.144525,1072.533697,296.082377,8068.244768
1421.144844,1225.752797,74.020594,7105.977043
1421.145162,1302.362347,-0.000000,6809.894666
1421.145481,995.924147,-370.102971,8068.244768
1421.145800,383.047749,-370.102971,8956.491898
1421.146119,459.657299,666.185348,8512.368333
1421.146437,229.828649,814.226536,8956.491898
1421.146756,0.000000,444.123565,10214.842000
1421.147075,0.000000,-222.061783,10436.903782
1421.147394,0.000000,-222.061783,10436.903782
1421.147712,0.000000,-666.185348,10436.903782
1421.148031,153.219100,-962.267725,11029.068536
1421.148350,919.314598,-148.041188,9770.718434
1421.148669,1762.019645,-0.000000,8586.388927
1421.148987,2374.896044,-518.144159,7846.182985
1421.149306,2451.505594,-296.082377,7254.018232
1421.149625,2374.896044,-148.041188,6513.812290
1421.149943,2221.676944,-0.000000,5995.668130
1421.150262,1225.752797,-0.000000,6809.894666
1421.150581,842.705048,148.041188,7920.203579
1421.150900,306.438199,296.082377,8216.285956
1421.151218,-536.266849,74.020594,8956.491898
1421.151537,-1149.143247,-148.041188,10510.924376
1421.151856,-1302.362347,-1332.370696,11325.150913
1421.152175,-1991.848295,-1110.308913,11621.233289
1421.152493,-1532.190996,-740.205942,11991.336260
1421.152812,-766.095498,74.020594,12139.377449
1421.153131,536.266849,888.247130,10436.903782
1421.153450,1991.848295,1480.411884,9030.512492
1421.153768,2757.943793,1406.391290,7920.203579
1421.154087,3064.381992,1258.350101,7105.977043
1421.154406,2911.162892,962.267725,5551.544565
1421.154724,2834.553343,1110.308913,5551.544565
1421.155043,2374.896044,962.267725,5995.668130
1421.155362,1455.581446,814.226536,7105.977043
1421.155681,76.609550,518.144159,7550.100608
1421.155999,-919.314598,-0.000000,8586.388927
1421.156318,-1838.629195,-962.267725,10732.986159
1421.156637,-2374.896044,-1776.494261,12139.377449
1421.156956,-2911.162892,-1480.411884,12657.521608
1421.157274,-3064.381992,-1184.329507,13397.727550
1421.157593,-2298.286494,-592.164754,13693.809927
1421.157912,-612.876398,-0.000000,11917.315666
1421.158231,612.876398,1776.494261,9696.697840
1421.158549,1991.848295,2294.638420,9104.533087
1421.158868,2604.724693,1998.556043,7994.224174
1421.159187,2374.896044,2220.617826,7105.977043
1421.159505,2757.943793,1628.453072,6587.832884
1421.159824,2528.115143,1628.453072,7550.100608
1421.160143,1838.629195,1110.308913,7698.141797
1421.160462,842.705048,888.247130,7476.080014
1421.160780,229.828649,740.205942,9252.574275
1421.161099,-536.266849,-296.082377,10658.965565
1421.161418,-1378.971896,-1110.308913,11177.109724
1421.161737,-1838.629195,-1480.411884,11917.315666
1421.162055,-1838.629195,-962.267725,12879.583391
1421.162374,-1378.971896,-222.061783,12657.521608
1421.162693,0.000000,1184.329507,11029.068536
1421.163012,536.266849,2442.679609,9400.615463
1421.163330,1455.581446,2590.720797,8882.471304
1421.163649,2451.505594,2368.659014,7698.141797
1421.163968,2221.676944,2812.782580,6513.812290
1421.164286,2604.724693,2442.679609,6513.812290
1421.164605,1915.238745,2220.617826,7846.182985
1421.164924,1608.800546,1406.391290,7994.224174
1421.165243,689.485948,1036.288319,7920.203579
1421.165561,-306.438199,814.226536,9252.574275
1421.165880,-995.924147,-74.020594,10436.903782
1421.166199,-1378.971896,-296.082377,10584.944971
1421.166518,-1915.238745,-518.144159,10510.924376
1421.166836,-1532.190996,-888.247130,11769.274478
1421.167155,-995.924147,-370.102971,11325.150913
1421.167474,76.609550,148.041188,9252.574275
1421.167792,995.924147,740.205942,9178.553681
1421.168111,1455.581446,1258.350101,8438.347739
1421.168430,2451.505594,1036.288319,8068.244768
1421.168749,2374.896044,1184.329507,6809.894666
1421.169067,2145.067394,1554.432478,7920.203579
1421.169386,2451.505594,1554.432478,8290.306550
1421.169705,2221.676944,1554.432478,7772.162391
1421.170024,919.314598,1184.329507,8142.265362
1421.170342,306.438199,-0.000000,10140.821405
1421.170661,-1225.752797,-888.247130,11103.089130
1421.170980,-1685.410096,-1332.370696,10955.047942
1421.171299,-1302.362347,-1776.494261,11769.274478
1421.171617,-1225.752797,-1850.514855,11917.315666
1421.171936,-229.828649,-1628.453072,10955.047942
1421.172255,612.876398,-1110.308913,9548.656652
1421.172573,1532.190996,-962.267725,8734.430116
1421.172892,2221.676944,-222.061783,7698.141797
1421.173211,2528.115143,888.247130,6143.709319
1421.173530,3294.210641,1184.329507,5773.606348
1421.173848,2528.115143,1184.329507,6661.853478
1421.174167,2221.676944,666.185348,7550.100608
1421.174486,1608.800546,444.123565,7772.162391
1421.174805,536.266849,-0.000000,8512.368333
1421.175123,-306.438199,-444.123565,10214.842000
1421.175442,-1225.752797,-1332.370696,11103.089130
1421.175761,-2221.676944,-1184.329507,10955.047942
1421.176080,-1838.629195,-592.164754,11547.212695
1421.176398,-1149.143247,-518.144159,11917.315666
1421.176717,-229.828649,-370.102971,10584.944971
1421.177036,919.314598,-0.000000,8808.450710
1421.177354,1302.362347,222.061783,7920.203579
1421.177673,1455.581446,444.123565,7698.141797
1421.177992,2221.676944,444.123565,6143.709319
1421.178311,2068.457845,740.205942,5625.565159
1421.178629,1378.971896,1184.329507,6513.812290
1421.178948,1378.971896,1332.370696,7328.038826
1421.179267,459.657299,1110.308913,7105.977043
1421.179586,-153.219100,888.247130,8660.409521
1421.179904,-1608.800546,-74.020594,11177.109724
1421.180223,-2604.724693,-592.164754,11177.109724
1421.180542,-2757.943793,-296.082377,11547.212695
1421.180861,-2528.115143,-0.000000,13027.624579
1421.181179,-2221.676944,888.247130,12435.459826
1421.181498,-766.095498,888.247130,11251.130318
1421.181817,229.828649,1332.370696,9696.697840
1421.182135,1378.971896,1924.535449,8734.430116
1421.182454,2221.676944,1332.370696,7328.038826
1421.182773,2604.724693,1628.453072,6661.853478
1421.183092,1915.238745,1776.494261,6365.771101
1421.183410,1838.629195,2146.597232,6587.832884
1421.183729,1149.143247,2072.576638,7476.080014
1421.184048,306.438199,962.267725,7994.224174
1421.184367,-1072.533697,592.164754,9622.677246
1421.184685,-2374.896044,-296.082377,11177.109724
1421.185004,-2451.505594,-666.185348,11917.315666
1421.185323,-2834.553343,-962.267725,12657.521608
1421.185642,-2451.505594,-296.082377,13841.851115
1421.185960,-1838.629195,962.267725,12435.459826
1421.186279,0.000000,1406.391290,11177.109724
1421.186598,1685.410096,1702.473667,9992.780217
1421.186916,2681.334243,1924.535449,9474.636058
1421.187235,3370.820191,1850.514855,7846.182985
1421.187554,3447.429741,2516.700203,6291.750507
1421.187873,3447.429741,2442.679609,6365.771101
1421.188191,2911.162892,2220.617826,7031.956449
1421.188510,2145.067394,1924.535449,7328.038826
1421.188829,1378.971896,962.267725,7772.162391
1421.189148,-536.266849,888.247130,10214.842000
1421.189466,-1685.410096,-962.267725,11621.233289
1421.189785,-1991.848295,-888.247130,11695.253884
1421.190104,-2068.457845,-1554.432478,12065.356855
1421.190422,-2451.505594,-1554.432478,13397.727550
1421.190741,-995.924147,-592.164754,12509.480420
1421.191060,306.438199,592.164754,10881.027347
1421.191379,1608.800546,1480.411884,9400.615463
1421.191697,2604.724693,1850.514855,8364.327145
1421.192016,3217.601092,1702.473667,7105.977043
1421.192335,3907.087040,1850.514855,5477.523971
1421.192654,3294.210641,1406.391290,5551.544565
1421.192972,3140.991542,1850.514855,6513.812290
1421.193291,2298.286494,1332.370696,6513.812290
1421.193610,1302.362347,666.185348,7179.997637
1421.193929,-229.828649,-592.164754,9474.636058
1421.194247,-1378.971896,-2146.597232,11029.068536
1421.194566,-2145.067394,-2442.679609,11325.150913
1421.194885,-2528.115143,-2664.741391,11843.295072
1421.195203,-2451.505594,-2812.782580,12879.583391
1421.195522,-2604.724693,-2072.576638,12065.356855
1421.195841,-1762.019645,-1406.391290,10214.842000
1421.196160,76.609550,-444.123565,9400.615463
1421.196478,919.314598,148.041188,7920.203579
1421.196797,2221.676944,666.185348,6661.853478
1421.197116,2451.505594,814.226536,5403.503377
1421.197435,2528.115143,1036.288319,5699.585753
1421.197753,2451.505594,888.247130,6513.812290
1421.198072,1838.629195,1036.288319,5995.668130
1421.198391,1225.752797,-444.123565,7994.224174
1421.198710,383.047749,-296.082377,10066.800811
1421.199028,-1532.190996,-666.185348,10140.821405
1421.199347,-1072.533697,-814.226536,10214.842000
1421.199666,-1915.238745,-1110.308913,10881.027347
1421.199984,-2221.676944,-2368.659014,12065.356855
1421.200303,-1302.362347,-1702.473667,11621.233289
1421.200622,-689.485948,-962.267725,9474.636058
1421.200941,383.047749,-444.123565,9178.553681
1421.201259,2145.067394,-74.020594,9104.533087
1421.201578,2681.334243,1406.391290,7698.141797
1421.201897,2757.943793,2294.638420,5921.647536
1421.202216,1838.629195,3478.967927,5403.503377
1421.202534,2451.505594,2368.659014,7328.038826
1421.202853,995.924147,2886.803174,7105.977043
1421.203172,383.047749,1480.411884,8438.347739
1421.203491,-766.095498,-148.041188,11473.192101
1421.203809,-1532.190996,370.102971,11991.336260
1421.204128,-842.705048,518.144159,10732.986159
1421.204447,-842.705048,296.082377,11843.295072
1421.204765,-1302.362347,-296.082377,13027.624579
1421.205084,-229.828649,-444.123565,11399.171507
1421.205403,76.609550,740.205942,9326.594869
1421.205722,1762.019645,740.205942,9770.718434
1421.206040,1762.019645,2220.617826,7994.224174
1421.206359,1915.238745,2294.638420,6587.832884
1421.206678,2451.505594,740.205942,7105.977043
1421.206997,2068.457845,1702.473667,7772.162391
1421.207315,1762.019645,1850.514855,7179.997637
1421.207634,1608.800546,1554.432478,7846.182985
1421.207953,536.266849,1406.391290,10140.821405
1421.208271,-383.047749,296.082377,11177.109724
1421.208590,-1302.362347,-0.000000,10955.047942
1421.208909,-1149.143247,-370.102971,11991.336260
1421.209228,-1302.362347,-0.000000,12583.501014
1421.209546,-995.924147,740.205942,12509.480420
1421.209865,76.609550,592.164754,11103.089130
1421.210184,689.485948,370.102971,9918.759623
1421.210503,1072.533697,592.164754,9030.512492
1421.210821,1762.019645,148.041188,7846.182985
1421.211140,1991.848295,1332.370696,5921.647536
1421.211459,2604.724693,1850.514855,6291.750507
1421.211778,2451.505594,1554.432478,6661.853478
1421.212096,1149.143247,1480.411884,7031.956449
1421.212415,612.876398,740.205942,7698.141797
1421.212734,-536.266849,-148.041188,9992.780217
1421.213052,-1225.752797,-518.144159,11473.192101
1421.213371,-1762.019645,-444.123565,10732.986159
1421.213690,-2068.457845,-0.000000,10658.965565
1421.214009,-1762.019645,-74.020594,12213.398043
1421.214327,-842.705048,-0.000000,11991.336260
1421.214646,766.095498,-0.000000,9844.739029
1421.214965,1302.362347,666.185348,8290.306550
1421.215284,2374.896044,592.164754,8068.244768
1421.215602,3294.210641,-222.061783,7402.059420
1421.215921,3447.429741,-0.000000,5403.503377
1421.216240,3217.601092,592.164754,6365.771101
1421.216559,2757.943793,296.082377,7031.956449
1421.216877,1915.238745,666.185348,6513.812290
1421.217196,842.705048,-222.061783,7920.203579
1421.217515,-612.876398,-1406.391290,9548.656652
1421.217833,-1455.581446,-2294.638420,11251.130318
1421.218152,-2221.676944,-2738.761985,11769.274478
1421.218471,-2298.286494,-2812.782580,12139.377449
1421.218790,-1838.629195,-2146.597232,13249.686362
1421.219108,-766.095498,-1406.391290,13027.624579
1421.219427,536.266849,-814.226536,10807.006753
1421.219746,2604.724693,296.082377,9400.615463
1421.220065,3294.210641,1184.329507,8068.244768
1421.220383,4290.134789,1036.288319,6661.853478
1421.220702,4366.744339,1184.329507,5477.523971
1421.221021,4136.915689,1406.391290,6809.894666
1421.221340,3983.696590,1406.391290,6217.729913
1421.221658,2528.115143,1184.329507,6143.709319
1421.221977,1225.752797,740.205942,7179.997637
1421.222296,76.609550,222.061783,9030.512492
1421.222614,-1685.410096,-1036.288319,10214.842000
1421.222933,-2757.943793,-1554.432478,11029.068536
1421.223252,-3677.258390,-1554.432478,12287.418637
1421.223571,-3447.429741,-1184.329507,12731.542202
1421.223889,-2451.505594,-0.000000,11547.212695
1421.224208,-1532.190996,592.164754,10066.800811
1421.224527,-306.438199,1184.329507,9178.553681
1421.224846,536.266849,1258.350101,8290.306550
1421.225164,1608.800546,2072.576638,6439.791695
1421.225483,2298.286494,2368.659014,5921.647536
1421.225802,2145.067394,3330.926739,6217.729913
1421.226121,2374.896044,2960.823768,6883.915261
1421.226439,1608.800546,2516.700203,6069.688724
1421.226758,766.095498,1480.411884,7179.997637
1421.227077,-995.924147,-0.000000,9770.718434
1421.227395,-2528.115143,-1036.288319,10436.903782
1421.227714,-2528.115143,-1480.411884,11547.212695
1421.228033,-3370.820191,-1258.350101,12657.521608
1421.228352,-3294.210641,-1480.411884,13101.645173
1421.228670,-2145.067394,-370.102971,12139.377449
1421.228989,-536.266849,296.082377,10955.047942
1421.229307,383.047749,518.144159,10140.821405
1421.229626,995.924147,1702.473667,9104.533087
1421.229945,1991.848295,1850.514855,7920.203579
1421.230263,2834.553343,1332.370696,7624.121203
1421.230582,3217.601092,1776.494261,8512.368333
1421.230901,3294.210641,1628.453072,8438.347739
1421.231219,3217.601092,1554.432478,7624.121203
1421.231538,2987.772442,1184.329507,9104.533087
1421.231857,2298.286494,-370.102971,10362.883188
1421.232175,1455.581446,-666.185348,10807.006753
1421.232494,153.219100,-1628.453072,11621.233289
1421.232813,-153.219100,-962.267725,12657.521608
1421.233131,0.000000,-74.020594,12139.377449
1421.233450,459.657299,148.041188,10362.883188
1421.233769,612.876398,222.061783,10066.800811
1421.234088,1225.752797,370.102971,9622.677246
1421.234406,1302.362347,740.205942,8660.409521
1421.234725,1762.019645,962.267725,7105.977043
1421.235044,1915.238745,1184.329507,8142.265362
1421.235362,1915.238745,1036.288319,8142.265362
1421.235681,1762.019645,1110.308913,8216.285956
1421.236000,1608.800546,1480.411884,8142.265362
1421.236318,919.314598,1258.350101,9104.533087
1421.236637,536.266849,814.226536,9622.677246
1421.236956,0.000000,370.102971,9770.718434
1421.237274,153.219100,-0.000000,10214.842000
1421.237593,-383.047749,-370.102971,10510.924376
1421.237912,-842.705048,-518.144159,10436.903782
1421.238230,76.609550,-0.000000,9252.574275
1421.238549,0.000000,296.082377,8586.388927
1421.238868,536.266849,222.061783,8734.430116
1421.239186,459.657299,888.247130,7179.997637
1421.239505,919.314598,518.144159,5847.626942
1421.239824,842.705048,592.164754,7328.038826
1421.240143,1072.533697,1110.308913,8364.327145
1421.240461,459.657299,740.205942,7698.141797
1421.240780,383.047749,592.164754,8142.265362
1421.241099,-306.438199,-592.164754,10140.821405
1421.241417,-1302.362347,-888.247130,10362.883188
1421.241736,-1302.362347,-666.185348,10658.965565
1421.242055,-1149.143247,-666.185348,11029.068536
1421.242373,-612.876398,-0.000000,11177.109724
1421.242692,0.000000,222.061783,10140.821405
1421.243011,766.095498,-0.000000,9178.553681
1421.243329,1455.581446,-444.123565,9400.615463
1421.243648,1532.190996,-296.082377,8364.327145
1421.243967,2068.457845,-0.000000,6957.935855
1421.244285,2451.505594,296.082377,6587.832884
1421.244604,2145.067394,444.123565,7031.956449
1421.244923,1685.410096,-0.000000,7846.182985
1421.245241,1072.533697,-74.020594,7772.162391
1421.245560,0.000000,-0.000000,8216.285956
1421.245879,-536.266849,-222.061783,9844.739029
1421.246198,-1149.143247,-1110.308913,10510.924376
1421.246516,-1838.629195,-1554.432478,11399.171507
1421.246835,-1915.238745,-592.164754,11399.171507
1421.247154,-1991.848295,-0.000000,12213.398043
1421.247472,-612.876398,1184.329507,11103.089130
1421.247791,1225.752797,1850.514855,9770.718434
1421.248110,1685.410096,1702.473667,9178.553681
1421.248428,2298.286494,1628.453072,8438.347739
1421.248747,2604.724693,1406.391290,7328.038826
1421.249066,3140.991542,1776.494261,6365.771101
1421.249384,2681.334243,1850.514855,7550.100608
1421.249703,2221.676944,1998.556043,7105.977043
1421.250022,2374.896044,1850.514855,6883.915261
1421.250340,995.924147,888.247130,8142.265362
1421.250659,0.000000,-296.082377,10066.800811
1421.250978,-919.314598,-962.267725,10955.047942
1421.251296,-2145.067394,-666.185348,10584.944971
1421.251615,-2604.724693,-518.144159,12287.418637
1421.251934,-2221.676944,-74.020594,12509.480420
1421.252253,-995.924147,370.102971,11843.295072
1421.252571,-306.438199,666.185348,10436.903782
1421.252890,0.000000,1924.535449,10140.821405
1421.253209,919.314598,2146.597232,9178.553681
1421.253527,1455.581446,1406.391290,7772.162391
1421.253846,2221.676944,1850.514855,8216.285956
1421.254165,1608.800546,1406.391290,8660.409521
1421.254483,1455.581446,1850.514855,7994.224174
1421.254802,1225.752797,1480.411884,7254.018232
1421.255121,842.705048,666.185348,9178.553681
1421.255439,0.000000,-74.020594,9770.718434
1421.255758,-689.485948,-518.144159,9918.759623
1421.256077,-1455.581446,-592.164754,10140.821405
1421.256395,-1762.019645,-592.164754,11177.109724
1421.256714,-1378.971896,-370.102971,11177.109724
1421.257033,-536.266849,444.123565,10066.800811
1421.257351,-76.609550,444.123565,9770.718434
1421.257670,306.438199,444.123565,10214.842000
1421.257989,0.000000,1258.350101,9474.636058
1421.258308,842.705048,1628.453072,7846.182985
1421.258626,1302.362347,1850.514855,8586.388927
1421.258945,1149.143247,1998.556043,9178.553681
1421.259264,1455.581446,2368.659014,8512.368333
1421.259582,1225.752797,2072.576638,8364.327145
1421.259901,536.266849,1036.288319,9622.677246
1421.260220,306.438199,296.082377,10436.903782
1421.260538,0.000000,-74.020594,9918.759623
1421.260857,0.000000,-518.144159,10436.903782
1421.261176,0.000000,-518.144159,10362.883188
1421.261494,536.266849,-74.020594,10066.800811
1421.261813,1532.190996,-148.041188,8512.368333
1421.262132,1608.800546,-0.000000,7994.224174
1421.262450,1532.190996,-74.020594,7772.162391
1421.262769,842.705048,444.123565,7105.977043
1421.263088,1149.143247,296.082377,7105.977043
1421.263406,536.266849,592.164754,7402.059420
1421.263725,229.828649,1036.288319,7994.224174
1421.264044,76.609550,1036.288319,8364.327145
1421.264363,0.000000,592.164754,9252.574275
1421.264681,-459.657299,-74.020594,10214.842000
1421.265000,-995.924147,-740.205942,11103.089130
1421.265319,-689.485948,-444.123565,10881.027347
1421.265637,-459.657299,-814.226536,10807.006753
1421.265956,536.266849,-296.082377,10584.944971
1421.266275,1608.800546,296.082377,9548.656652
1421.266593,2528.115143,518.144159,7772.162391
1421.266912,2987.772442,518.144159,6735.874072
1421.267231,2451.505594,-0.000000,6809.894666
1421.267549,2757.943793,-0.000000,5995.668130
1421.267868,2145.067394,-518.144159,5847.626942
1421.268187,919.314598,-592.164754,7254.018232
1421.268505,76.609550,-740.205942,8364.327145
1421.268824,-459.657299,-740.205942,8660.409521
1421.269143,-995.924147,-740.205942,9844.739029
1421.269461,-2298.286494,-1110.308913,11769.274478
1421.269780,-2451.505594,-1702.473667,11917.315666
1421.270099,-2374.896044,-1036.288319,11695.253884
1421.270418,-1991.848295,-1110.308913,12435.459826
1421.270736,-842.705048,-666.185348,12435.459826
1421.271055,536.266849,444.123565,10436.903782
1421.271374,1762.019645,1110.308913,8438.347739
1421.271692,2528.115143,1184.329507,8068.244768
1421.272011,2528.115143,592.164754,7402.059420
1421.272330,2298.286494,1406.391290,5625.565159
1421.272648,2374.896044,1036.288319,6439.791695
1421.272967,1915.238745,962.267725,7328.038826
1421.273286,536.266849,962.267725,8438.347739
1421.273604,0.000000,444.123565,8364.327145
1421.273923,-1072.533697,296.082377,9622.677246
1421.274242,-2145.067394,-592.164754,11917.315666
1421.274560,-2757.943793,-740.205942,11843.295072
1421.274879,-2528.115143,-370.102971,12287.418637
1421.275198,-2068.457845,518.144159,12361.439231
1421.275516,-536.266849,1850.514855,11843.295072
1421.275835,536.266849,1924.535449,10288.862594
1421.276154,2145.067394,2516.700203,9104.533087
1421.276473,2221.676944,2294.638420,8142.265362
1421.276791,2681.334243,2812.782580,7105.977043
1421.277110,2834.553343,2738.761985,5995.668130
1421.277429,2451.505594,2738.761985,6957.935855
1421.277747,1762.019645,2368.659014,7846.182985
1421.278066,995.924147,1406.391290,8290.306550
1421.278385,383.047749,1258.350101,8882.471304
1421.278703,-766.095498,592.164754,9696.697840
1421.279022,-1915.238745,-592.164754,11029.068536
1421.279341,-2221.676944,-1258.350101,11695.253884
1421.279659,-2451.505594,-1110.308913,11991.336260
1421.279978,-2451.505594,-518.144159,12509.480420
1421.280297,-1149.143247,-0.000000,12361.439231
1421.280615,76.609550,666.185348,10288.862594
1421.280934,1378.971896,1406.391290,9252.574275
1421.281253,2221.676944,2146.597232,8734.430116
1421.281572,2374.896044,1924.535449,7624.121203
1421.281890,2757.943793,1776.494261,5995.668130
1421.282209,2757.943793,1628.453072,7179.997637
1421.282528,2221.676944,1554.432478,7920.203579
1421.282846,1762.019645,1184.329507,7772.162391
1421.283165,919.314598,222.061783,8512.368333
1421.283484,-536.266849,-888.247130,10214.842000
1421.283802,-1225.752797,-1628.453072,11103.089130
1421.284121,-1685.410096,-2146.597232,11103.089130
1421.284440,-1685.410096,-1554.432478,11695.253884
1421.284758,-1608.800546,-296.082377,11695.253884
1421.285077,-766.095498,-0.000000,10807.006753
1421.285396,306.438199,962.267725,9104.533087
1421.285714,2298.286494,962.267725,8364.327145
1421.286033,2451.505594,888.247130,7920.203579
1421.286352,2681.334243,1258.350101,6735.874072
1421.286670,3064.381992,1258.350101,6513.812290
1421.286989,2681.334243,814.226536,7105.977043
1421.287308,2145.067394,814.226536,7476.080014
1421.287627,1378.971896,814.226536,7624.121203
1421.287945,995.924147,370.102971,9030.512492
1421.288264,0.000000,-296.082377,10362.883188
1421.288583,0.000000,-888.247130,10658.965565
1421.288901,-842.705048,-1554.432478,10658.965565
1421.289220,-689.485948,-1998.556043,11769.274478
1421.289539,-229.828649,-1554.432478,11547.212695
1421.289857,689.485948,-888.247130,10510.924376
1421.290176,1991.848295,-444.123565,8438.347739
1421.290495,2528.115143,148.041188,7476.080014
1421.290813,3217.601092,-296.082377,7105.977043
1421.291132,3064.381992,296.082377,6291.750507
1421.291451,2911.162892,-296.082377,6217.729913
1421.291769,1838.629195,-0.000000,7179.997637
1421.292088,536.266849,148.041188,7920.203579
1421.292407,76.609550,-444.123565,8660.409521
1421.292725,-995.924147,-740.205942,10066.800811
1421.293044,-2374.896044,-1110.308913,11325.150913
1421.293363,-2528.115143,-1850.514855,11991.336260
1421.293682,-2834.553343,-1184.329507,11695.253884
1421.294000,-2374.896044,-814.226536,12583.501014
1421.294319,-1608.800546,-518.144159,11843.295072
1421.294638,0.000000,296.082377,10436.903782
1421.294956,842.705048,1036.288319,7846.182985
1421.295275,2298.286494,2146.597232,6957.935855
1421.295594,2757.943793,1776.494261,6069.688724
1421.295912,2834.553343,1406.391290,5107.421000
1421.296231,2221.676944,1332.370696,5699.585753
1421.296550,1149.143247,1258.350101,6809.894666
1421.296868,229.828649,1628.453072,7624.121203
1421.297187,-306.438199,740.205942,8512.368333
1421.297506,-2681.334243,666.185348,10436.903782
1421.297824,-3600.648841,222.061783,12287.418637
1421.298143,-4060.306139,296.082377,12879.583391
1421.298462,-3753.867940,296.082377,12731.542202
1421.298780,-2681.334243,-222.061783,13471.748144
1421.299099,-1991.848295,740.205942,12731.542202
1421.299418,-383.047749,962.267725,10436.903782
1421.299737,1302.362347,1110.308913,9178.553681
1421.300055,2681.334243,1776.494261,7994.224174
1421.300374,3907.087040,2294.638420,5773.606348
1421.300693,4596.572988,3182.885551,4515.256246
1421.301011,4443.353888,2516.700203,4811.338623
1421.301330,3907.087040,2294.638420,6513.812290
1421.301649,3140.991542,1480.411884,7328.038826
1421.301967,2068.457845,814.226536,8512.368333
1421.302286,0.000000,-592.164754,11103.089130
1421.302605,-1532.190996,-888.247130,12953.603985
1421.302923,-1991.848295,-1332.370696,13619.789333
1421.303242,-2374.896044,-1702.473667,13619.789333
1421.303561,-1532.190996,-962.267725,14359.995275
1421.303879,-229.828649,-0.000000,12953.603985
1421.304198,995.924147,814.226536,10881.027347
1421.304517,2757.943793,1258.350101,9252.574275
1421.304835,4366.744339,1850.514855,8290.306550
1421.305154,4213.525239,1628.453072,6513.812290
1421.305473,4443.353888,1776.494261,4663.297435
1421.305792,4060.306139,1554.432478,5329.482782
1421.306110,3140.991542,1332.370696,6291.750507
1421.306429,1915.238745,666.185348,7031.956449
1421.306748,383.047749,-0.000000,8142.265362
1421.307066,-1225.752797,-962.267725,9844.739029
1421.307385,-2757.943793,-1776.494261,11991.336260
1421.307704,-3524.039291,-1924.535449,12657.521608
1421.308022,-4136.915689,-1554.432478,13175.665768
1421.308341,-3830.477490,-1110.308913,14211.954086
1421.308660,-2757.943793,-0.000000,12731.542202
1421.308978,-612.876398,518.144159,10510.924376
1421.309297,306.438199,1036.288319,8956.491898
1421.309616,1608.800546,1184.329507,8068.244768
1421.309934,3064.381992,1184.329507,5551.544565
1421.310253,4213.525239,1554.432478,4441.235652
1421.310572,4596.572988,1480.411884,4885.359217
1421.310890,3830.477490,1258.350101,5403.503377
1421.311209,2834.553343,1036.288319,5329.482782
1421.311528,1915.238745,-0.000000,7179.997637
1421.311847,229.828649,-518.144159,9400.615463
1421.312165,-689.485948,-1628.453072,10658.965565
1421.312484,-2451.505594,-2072.576638,10955.047942
1421.312803,-2604.724693,-2146.597232,11991.336260
1421.313121,-2451.505594,-1924.535449,13027.624579
1421.313440,-1532.190996,-1406.391290,12139.377449
1421.313759,306.438199,-518.144159,10288.862594
1421.314077,1302.362347,370.102971,9770.718434
1421.314396,2681.334243,1036.288319,8364.327145
1421.314715,3524.039291,1036.288319,6587.832884
1421.315033,4290.134789,1776.494261,5921.647536
1421.315352,4673.182538,2146.597232,6661.853478
1421.315671,4366.744339,1480.411884,6587.832884
1421.315989,3524.039291,814.226536,6439.791695
1421.316308,1991.848295,-0.000000,8290.306550
1421.316627,306.438199,-1480.411884,10066.800811
1421.316945,-1072.533697,-2220.617826,10214.842000
1421.317264,-2145.067394,-1776.494261,11251.130318
1421.317583,-2528.115143,-1850.514855,12805.562797
1421.317902,-2911.162892,-1998.556043,12805.562797
1421.318220,-2528.115143,-888.247130,11695.253884
1421.318539,-1608.800546,-74.020594,10288.862594
1421.318858,-536.266849,888.247130,9252.574275
1421.319176,459.657299,1332.370696,8068.244768
1421.319495,919.314598,1406.391290,7254.018232
1421.319814,1378.971896,1850.514855,6957.935855
1421.320132,1225.752797,2072.576638,7402.059420
1421.320451,1378.971896,2516.700203,7624.121203
1421.320770,1378.971896,2738.761985,7698.141797
1421.321088,459.657299,1924.535449,8586.388927
1421.321407,-612.876398,518.144159,10658.965565
1421.321726,-1532.190996,296.082377,11029.068536
1421.322044,-2068.457845,-296.082377,11177.109724
1421.322363,-2145.067394,-222.061783,12361.439231
1421.322682,-1302.362347,-444.123565,12361.439231
1421.323000,-383.047749,296.082377,10214.842000
1421.323319,459.657299,740.205942,9030.512492
1421.323638,1685.410096,1776.494261,8438.347739
1421.323957,2145.067394,1554.432478,7624.121203
1421.324275,3217.601092,1850.514855,6143.709319
1421.324594,3294.210641,2146.597232,6439.791695
1421.324913,3064.381992,1554.432478,7772.162391
1421.325231,2604.724693,1998.556043,7772.162391
1421.325550,2145.067394,1776.494261,8216.285956
1421.325869,1378.971896,1258.350101,9622.677246
1421.326187,0.000000,1036.288319,10881.027347
1421.326506,-689.485948,296.082377,11621.233289
1421.326825,-1149.143247,-148.041188,11917.315666
1421.327143,-766.095498,-444.123565,13249.686362
1421.327462,-995.924147,-740.205942,12509.480420
1421.327781,0.000000,-148.041188,10362.883188
1421.328099,612.876398,-0.000000,9400.615463
1421.328418,1302.362347,592.164754,8290.306550
1421.328737,1685.410096,592.164754,6661.853478
1421.329056,1762.019645,888.247130,5403.503377
1421.329374,1838.629195,1406.391290,5921.647536
1421.329693,1225.752797,1480.411884,6587.832884
1421.330012,536.266849,1554.432478,6809.894666
1421.330330,-689.485948,1110.308913,7698.141797
1421.330649,-1838.629195,444.123565,9474.636058
1421.330968,-3064.381992,-444.123565,11103.089130
1421.331286,-3753.867940,-814.226536,11991.336260
1421.331605,-3983.696590,-370.102971,12287.418637
1421.331924,-3294.210641,-222.061783,13175.665768
1421.332242,-2451.505594,-0.000000,11991.336260
1421.332561,-842.705048,370.102971,10436.903782
1421.332880,306.438199,148.041188,9030.512492
1421.333198,1378.971896,222.061783,8216.285956
1421.333517,2298.286494,814.226536,6587.832884
1421.333836,3524.039291,1332.370696,5181.441594
1421.334154,3600.648841,1332.370696,5329.482782
1421.334473,3830.477490,518.144159,6143.709319
1421.334792,2834.553343,296.082377,6069.688724
1421.335110,2145.067394,-0.000000,6957.935855
1421.335429,766.095498,-222.061783,8956.491898
1421.335748,-383.047749,-1332.370696,11177.109724
1421.336066,-842.705048,-1850.514855,11917.315666
1421.336385,-995.924147,-2072.576638,12953.603985
1421.336704,-842.705048,-1332.370696,13323.706956
1421.337022,-153.219100,-296.082377,12139.377449
1421.337341,1455.581446,222.061783,10955.047942
1421.337660,2681.334243,814.226536,9548.656652
1421.337978,3677.258390,1258.350101,8290.306550
1421.338297,3983.696590,740.205942,6661.853478
1421.338616,4443.353888,666.185348,6069.688724
1421.338934,3983.696590,592.164754,6735.874072
1421.339253,3600.648841,296.082377,6883.915261
1421.339572,2987.772442,-592.164754,7328.038826
1421.339890,995.924147,-740.205942,8290.306550
1421.340209,-919.314598,-1480.411884,9992.780217
1421.340528,-2221.676944,-1924.535449,10584.944971
1421.340846,-2834.553343,-1924.535449,11473.192101
1421.341165,-3370.820191,-1036.288319,12435.459826
1421.341484,-3217.601092,-740.205942,12509.480420
1421.341802,-2604.724693,-518.144159,11769.274478
1421.342121,-1838.629195,296.082377,10288.862594
1421.342440,-766.095498,962.267725,9844.739029
1421.342758,0.000000,1184.329507,8586.388927
1421.343077,919.314598,1776.494261,7254.018232
1421.343396,1532.190996,2368.659014,6809.894666
1421.343714,1991.848295,2442.679609,7179.997637
1421.344033,2528.115143,2516.700203,7105.977043
1421.344352,2145.067394,1998.556043,7031.956449
1421.344670,1072.533697,1406.391290,7846.182985
1421.344989,229.828649,592.164754,9252.574275
1421.345308,-766.095498,-518.144159,9770.718434
1421.345626,-1838.629195,-814.226536,10584.944971
1421.345945,-1685.410096,-222.061783,11251.130318
1421.346264,-1838.629195,-0.000000,11473.192101
1421.346582,-1455.581446,444.123565,10732.986159
1421.346901,-689.485948,444.123565,9918.759623
1421.347220,76.609550,962.267725,9622.677246
1421.347538,689.485948,1332.370696,8882.471304
1421.347857,1608.800546,1628.453072,7846.182985
1421.348176,1915.238745,1850.514855,7698.141797
1421.348494,2145.067394,2072.576638,8808.450710
1421.348813,2145.067394,1924.535449,8142.265362
1421.349132,1991.848295,2220.617826,8586.388927
1421.349450,842.705048,1258.350101,9400.615463
1421.349769,306.438199,592.164754,10510.924376
1421.350088,306.438199,-444.123565,10584.944971
1421.350406,-536.266849,296.082377,10584.944971
1421.350725,-842.705048,-0.000000,11325.150913
1421.351044,-459.657299,-0.000000,10732.986159
1421.351362,306.438199,518.144159,9326.594869
1421.351681,995.924147,518.144159,9400.615463
1421.352000,383.047749,740.205942,8882.471304
1421.352318,919.314598,814.226536,7994.224174
1421.352637,919.314598,1258.350101,7105.977043
1421.352956,842.705048,1924.535449,8290.306550
1421.353274,995.924147,1998.556043,8882.471304
1421.353593,1072.533697,2294.638420,8364.327145
1421.353912,689.485948,1332.370696,9178.553681
1421.354230,153.219100,740.205942,10436.903782
1421.354549,-459.657299,222.061783,11103.089130
1421.354868,-383.047749,-74.020594,10732.986159
1421.355186,76.609550,444.123565,10436.903782
1421.355505,459.657299,-0.000000,11177.109724
1421.355824,919.314598,222.061783,9770.718434
1421.356142,1915.238745,296.082377,9178.553681
1421.356461,2451.505594,-0.000000,7772.162391
1421.356780,2221.676944,-0.000000,7920.203579
1421.357098,2451.505594,-518.144159,7328.038826
1421.357417,1838.629195,-74.020594,7179.997637
1421.357736,995.924147,222.061783,7698.141797
1421.358054,1072.533697,370.102971,8660.409521
1421.358373,383.047749,444.123565,8734.430116
1421.358692,76.609550,-74.020594,9474.636058
1421.359010,-919.314598,-814.226536,11325.150913
1421.359329,-1762.019645,-1850.514855,11769.274478
1421.359648,-1915.238745,-2294.638420,11251.130318
1421.359966,-1532.190996,-1850.514855,11769.274478
1421.360285,-995.924147,-1850.514855,11843.295072
1421.360604,-153.219100,-1036.288319,10140.821405
1421.360922,995.924147,-444.123565,8512.368333
1421.361241,2374.896044,-0.000000,8364.327145
1421.361560,2757.943793,222.061783,7179.997637
1421.361878,2298.286494,148.041188,6513.812290
1421.362197,2451.505594,222.061783,5995.668130
1421.362516,1838.629195,-0.000000,7031.956449
1421.362834,1532.190996,-444.123565,7920.203579
1421.363153,459.657299,-296.082377,7624.121203
1421.363472,-536.266849,-148.041188,9252.574275
1421.363790,-1455.581446,-888.247130,10140.821405
1421.364109,-2451.505594,-1258.350101,10807.006753
1421.364428,-2604.724693,-1110.308913,11325.150913
1421.364746,-2298.286494,-0.000000,11325.150913
1421.365065,-1378.971896,296.082377,10510.924376
1421.365384,76.609550,814.226536,9474.636058
1421.365702,842.705048,962.267725,8808.450710
1421.366021,1915.238745,962.267725,8586.388927
1421.366340,2834.553343,1332.370696,6809.894666
1421.366658,2834.553343,1480.411884,5551.544565
1421.366977,2987.772442,1628.453072,5921.647536
1421.367296,2757.943793,1998.556043,6809.894666
1421.367614,2451.505594,1776.494261,6513.812290
1421.367933,1915.238745,888.247130,7179.997637
1421.368252,229.828649,666.185348,8808.450710
1421.368570,-842.705048,-0.000000,10288.862594
1421.368889,-2298.286494,-370.102971,10362.883188
1421.369208,-2528.115143,-962.267725,11473.192101
1421.369526,-2681.334243,-814.226536,13101.645173
1421.369845,-2528.115143,-148.041188,12435.459826
1421.370164,-1302.362347,1184.329507,10732.986159
1421.370482,0.000000,1702.473667,10140.821405
1421.370801,1225.752797,2220.617826,10066.800811
1421.371120,2145.067394,2590.720797,8512.368333
1421.371438,2528.115143,2146.597232,7698.141797
1421.371757,2911.162892,2072.576638,8068.244768
1421.372076,2451.505594,1406.391290,8734.430116
1421.372394,2911.162892,1258.350101,8290.306550
1421.372713,2834.553343,1406.391290,8586.388927
1421.373032,1302.362347,370.102971,9474.636058
1421.373350,536.266849,-370.102971,10658.965565
1421.373669,76.609550,-222.061783,10658.965565
1421.373988,-459.657299,222.061783,10510.924376
1421.374306,-383.047749,-74.020594,11695.253884
1421.374625,-919.314598,-0.000000,11621.233289
1421.374944,-153.219100,-148.041188,10732.986159
1421.375262,0.000000,-74.020594,10362.883188
1421.375581,0.000000,370.102971,10658.965565
1421.375900,766.095498,888.247130,9474.636058
1421.376218,1072.533697,1776.494261,7920.203579
1421.376537,1378.971896,1258.350101,8808.450710
1421.376856,1378.971896,1184.329507,9178.553681
1421.377174,1149.143247,962.267725,8882.471304
1421.377493,1072.533697,1258.350101,9030.512492
1421.377812,229.828649,1036.288319,9474.636058
1421.378130,-383.047749,-74.020594,10288.862594
1421.378449,0.000000,-74.020594,10140.821405
1421.378768,-306.438199,-518.144159,10066.800811
1421.379086,0.000000,-296.082377,9770.718434
1421.379405,383.047749,-370.102971,9548.656652
1421.379724,766.095498,-0.000000,8068.244768
1421.380042,1149.143247,-74.020594,7476.080014
1421.380361,842.705048,-222.061783,7624.121203
1421.380680,1072.533697,-0.000000,7550.100608
1421.380998,536.266849,888.247130,6735.874072
1421.381317,0.000000,1036.288319,7994.224174
1421.381636,-612.876398,888.247130,9474.636058
1421.381954,-689.485948,888.247130,8882.471304
1421.382273,-766.095498,370.102971,9326.594869
1421.382592,-1072.533697,-222.061783,10658.965565
1421.382910,-536.266849,-888.247130,11251.130318
1421.383229,-459.657299,-1258.350101,10510.924376
1421.383548,76.609550,-888.247130,10732.986159
1421.383866,842.705048,-666.185348,10510.924376
1421.384185,2221.676944,-222.061783,8882.471304
1421.384504,3600.648841,-0.000000,7105.977043
1421.384822,4213.525239,814.226536,6809.894666
1421.385141,4213.525239,518.144159,5625.565159
1421.385460,3907.087040,74.020594,5403.503377
1421.385778,3064.381992,-0.000000,5773.606348
1421.386097,1685.410096,-592.164754,7105.977043
1421.386416,612.876398,-666.185348,8586.388927
1421.386734,-842.705048,-888.247130,8956.491898
1421.387053,-1302.362347,-962.267725,10140.821405
1421.387372,-2987.772442,-1628.453072,11621.233289
1421.387690,-2681.334243,-814.226536,12213.398043
1421.388009,-2451.505594,-444.123565,12065.356855
1421.388328,-1838.629195,-74.020594,12139.377449
1421.388646,-536.266849,592.164754,11399.171507
1421.388965,459.657299,666.185348,9918.759623
1421.389284,1455.581446,1036.288319,8438.347739
1421.389602,2145.067394,1036.288319,7772.162391
1421.389921,2604.724693,1332.370696,6217.729913
1421.390240,2757.943793,1702.473667,5847.626942
1421.390558,2604.724693,962.267725,6291.750507
1421.390877,2298.286494,1332.370696,7105.977043
1421.391196,1225.752797,1184.329507,7476.080014
1421.391514,0.000000,222.061783,8734.430116
1421.391833,-1762.019645,-148.041188,10658.965565
1421.392152,-2604.724693,-1258.350101,11843.295072
1421.392470,-3524.039291,-1406.391290,12065.356855
1421.392789,-3140.991542,-1258.350101,13101.645173
1421.393108,-2757.943793,-518.144159,13027.624579
1421.393426,-2145.067394,-0.000000,11621.233289
1421.393745,-383.047749,1184.329507,9992.780217
1421.394064,1072.533697,1480.411884,9400.615463
1421.394383,2068.457845,2146.597232,8364.327145
1421.394701,3064.381992,2516.700203,7105.977043
1421.395020,3677.258390,2442.679609,6365.771101
1421.395339,3140.991542,2738.761985,6809.894666
1421.395657,3140.991542,2146.597232,7772.162391
1421.395976,2374.896044,1184.329507,7698.141797
1421.396295,1149.143247,-0.000000,8808.450710
1421.396613,-306.438199,-148.041188,10510.924376
1421.396932,-1455.581446,-1184.329507,11177.109724
1421.397251,-1915.238745,-814.226536,11103.089130
1421.397569,-1915.238745,-518.144159,11843.295072
1421.397888,-1685.410096,-444.123565,12065.356855
1421.398207,-1149.143247,740.205942,10732.986159
1421.398525,0.000000,1332.370696,9696.697840
1421.398844,1225.752797,2220.617826,9104.533087
1421.399163,1915.238745,1702.473667,7994.224174
1421.399481,2374.896044,1776.494261,7105.977043
1421.399800,2221.676944,2590.720797,6661.853478
1421.400119,2757.943793,1924.535449,7105.977043
1421.400437,2221.676944,1628.453072,7994.224174
1421.400756,1685.410096,1554.432478,8290.306550
1421.401075,536.266849,222.061783,9474.636058
1421.401393,-459.657299,-0.000000,10658.965565
1421.401712,-995.924147,-370.102971,11621.233289
1421.402031,-1532.190996,-518.144159,10881.027347
1421.402349,-1532.190996,-74.020594,11621.233289
1421.402668,-689.485948,-740.205942,11769.274478
1421.402987,0.000000,-370.102971,10140.821405
1421.403305,1455.581446,-0.000000,8882.471304
1421.403624,1838.629195,-222.061783,9030.512492
1421.403943,1762.019645,-296.082377,7846.182985
1421.404261,2298.286494,-222.061783,7550.100608
1421.404580,2298.286494,740.205942,7105.977043
1421.404899,2145.067394,1184.329507,7920.203579
1421.405217,1838.629195,1184.329507,8216.285956
1421.405536,1149.143247,814.226536,8512.368333
1421.405855,536.266849,-148.041188,9400.615463
1421.406173,0.000000,-888.247130,10362.883188
1421.406492,-1225.752797,-1776.494261,10955.047942
1421.406811,-1302.362347,-2146.597232,11029.068536
1421.407129,-919.314598,-1924.535449,11621.233289
1421.407448,-383.047749,-1332.370696,11251.130318
1421.407767,536.266849,-444.123565,9548.656652
1421.408085,1455.581446,296.082377,8290.306550
1421.408404,2221.676944,814.226536,7846.182985
1421.408723,2604.724693,444.123565,7550.100608
1421.409041,2298.286494,666.185348,6439.791695
1421.409360,2145.067394,888.247130,6883.915261
1421.409679,1685.410096,592.164754,7254.018232
1421.409997,1149.143247,-0.000000,7624.121203
1421.410316,76.609550,-444.123565,8216.285956
1421.410635,-1149.143247,-740.205942,9548.656652
1421.410953,-1991.848295,-1036.288319,10658.965565
1421.411272,-2298.286494,-888.247130,10140.821405
1421.411591,-1762.019645,-592.164754,10584.944971
1421.411909,-1302.362347,-370.102971,11325.150913
1421.412228,-383.047749,222.061783,10658.965565
1421.412547,1072.533697,222.061783,9030.512492
1421.412865,1762.019645,518.144159,8660.409521
1421.413184,2451.505594,518.144159,7994.224174
1421.413503,3064.381992,518.144159,6883.915261
1421.413821,2757.943793,1258.350101,5921.647536
1421.414140,2528.115143,1554.432478,6513.812290
1421.414459,1685.410096,1776.494261,7105.977043
1421.414777,1072.533697,1406.391290,7920.203579
1421.415096,0.000000,1258.350101,8882.471304
1421.415415,-1302.362347,518.144159,10510.924376
1421.415733,-2681.334243,-0.000000,11399.171507
1421.416052,-3600.648841,-296.082377,11843.295072
1421.416371,-2757.943793,-444.123565,12509.480420
1421.416689,-2451.505594,-296.082377,13027.624579
1421.417008,-1302.362347,-370.102971,12287.418637
1421.417327,0.000000,222.061783,9548.656652
1421.417645,612.876398,1110.308913,9252.574275
1421.417964,2145.067394,1480.411884,8216.285956
1421.418283,2374.896044,2368.659014,6513.812290
1421.418601,2298.286494,2442.679609,5625.565159
1421.418920,1991.848295,2442.679609,7031.956449
1421.419239,842.705048,1924.535449,8068.244768
1421.419557,459.657299,1702.473667,7179.997637
1421.419876,-383.047749,888.247130,9178.553681
1421.420195,-1838.629195,-74.020594,11843.295072
1421.420513,-2911.162892,-814.226536,12509.480420
1421.420832,-3677.258390,-740.205942,12435.459826
1421.421151,-2987.772442,-296.082377,12953.603985
1421.421469,-1991.848295,814.226536,13471.748144
1421.421788,-842.705048,1554.432478,11621.233289
1421.422107,1072.533697,2294.638420,9696.697840
1421.422425,2374.896044,1850.514855,9104.533087
1421.422744,3217.601092,1554.432478,7846.182985
1421.423063,3677.258390,1406.391290,6365.771101
1421.423381,3753.867940,1480.411884,5773.606348
1421.423700,3140.991542,1702.473667,6883.915261
1421.424019,2681.334243,1258.350101,7476.080014
1421.424337,2145.067394,888.247130,8068.244768
1421.424656,919.314598,962.267725,8956.491898
1421.424975,229.828649,296.082377,10732.986159
1421.425293,-689.485948,-0.000000,11325.150913
1421.425612,-1149.143247,-888.247130,11621.233289
1421.425931,-1149.143247,-1332.370696,12583.501014
1421.426249,-842.705048,-962.267725,12509.480420
1421.426568,0.000000,-740.205942,11695.253884
1421.426887,1532.190996,-0.000000,9844.739029
1421.427205,2298.286494,962.267725,8290.306550
1421.427524,3370.820191,1258.350101,7105.977043
1421.427843,3524.039291,666.185348,5033.400406
1421.428161,3217.601092,814.226536,5625.565159
1421.428480,2757.943793,666.185348,6513.812290
1421.428799,1991.848295,1332.370696,6513.812290
1421.429117,1072.533697,148.041188,7179.997637
1421.429436,0.000000,-962.267725,9474.636058
1421.429755,-1991.848295,-1702.473667,11103.089130
1421.430073,-2221.676944,-2442.679609,11621.233289
1421.430392,-2451.505594,-2146.597232,11695.253884
1421.430711,-1762.019645,-1332.370696,12065.356855
1421.431030,-995.924147,-1480.411884,11769.274478
1421.431348,229.828649,-370.102971,10066.800811
1421.431667,1991.848295,296.082377,9178.553681
1421.431986,2987.772442,962.267725,7624.121203
1421.432305,3600.648841,1036.288319,6217.729913
1421.432624,3830.477490,666.185348,5773.606348
1421.432942,3294.210641,1184.329507,5625.565159
1421.433261,2681.334243,1036.288319,6439.791695
1421.433580,1302.362347,-0.000000,6661.853478
1421.433899,459.657299,-740.205942,8290.306550
1421.434217,-1455.581446,-1480.411884,10066.800811
1421.434536,-2757.943793,-1702.473667,11103.089130
1421.434855,-3447.429741,-2368.659014,11917.315666
1421.435174,-3677.258390,-2072.576638,12065.356855
1421.435493,-2911.162892,-1924.535449,12731.542202
1421.435811,-2451.505594,-666.185348,11325.150913
1421.436130,-383.047749,592.164754,9770.718434
1421.436449,689.485948,1702.473667,7698.141797
1421.436768,1762.019645,962.267725,8068.244768
1421.437086,2911.162892,-592.164754,8142.265362
1421.437405,2068.457845,2368.659014,5625.565159
1421.437724,2911.162892,3404.947333,6439.791695
1421.438043,1685.410096,4293.194464,5773.606348
1421.438361,536.266849,3404.947333,6957.935855
1421.438680,766.095498,-0.000000,9918.759623
1421.438999,-1455.581446,1184.329507,9844.739029
1421.439318,-2757.943793,-0.000000,11177.109724
1421.439637,-2451.505594,-888.247130,12509.480420
1421.439955,-3140.991542,740.205942,12139.377449
1421.440274,-2068.457845,-444.123565,12879.583391
1421.440593,-2068.457845,296.082377,11473.192101
1421.440912,-459.657299,1184.329507,9696.697840
1421.441230,1608.800546,2220.617826,8290.306550
1421.441549,2911.162892,4367.215058,7328.038826
1421.441868,3983.696590,2812.782580,7105.977043
1421.442187,3753.867940,3330.926739,6069.688724
1421.442505,2987.772442,2220.617826,6809.894666
1421.442824,2987.772442,148.041188,8512.368333
1421.443143,1915.238745,1924.535449,8290.306550
1421.443462,1302.362347,1480.411884,10066.800811
1421.443781,0.000000,1258.350101,11325.150913
1421.444099,-1378.971896,-0.000000,12287.418637
1421.444418,-2451.505594,-1850.514855,13101.645173
1421.444737,-2604.724693,-1036.288319,13027.624579
1421.445056,-1455.581446,-666.185348,13545.768739
1421.445374,-689.485948,370.102971,11325.150913
1421.445693,842.705048,1406.391290,9918.759623
1421.446012,2374.896044,-74.020594,9844.739029
1421.446331,2451.505594,-296.082377,8438.347739
1421.446650,3217.601092,-222.061783,7624.121203
1421.446968,3907.087040,1406.391290,5921.647536
1421.447287,3677.258390,2590.720797,5551.544565
1421.447606,3294.210641,1036.288319,7328.038826
1421.447925,1302.362347,518.144159,7846.182985
1421.448243,-383.047749,-296.082377,9696.697840
1421.448562,-2068.457845,-592.164754,10510.924376
1421.448881,-2604.724693,-814.226536,10955.047942
1421.449200,-3140.991542,-740.205942,11399.171507
1421.449518,-3447.429741,-1184.329507,12139.377449
1421.449837,-3217.601092,-1184.329507,12509.480420
1421.450156,-1838.629195,-518.144159,10881.027347
1421.450475,229.828649,518.144159,9474.636058
1421.450794,2145.067394,888.247130,8438.347739
1421.451112,2757.943793,666.185348,6735.874072
1421.451431,3524.039291,592.164754,5551.544565
1421.451750,3983.696590,1036.288319,4811.338623
1421.452069,3753.867940,1776.494261,4737.318029
1421.452387,3524.039291,1406.391290,4811.338623
1421.452706,2298.286494,962.267725,5995.668130
1421.453025,612.876398,-296.082377,7476.080014
1421.453344,-689.485948,-1406.391290,10066.800811
1421.453662,-2298.286494,-1998.556043,11029.068536
1421.453981,-2604.724693,-1480.411884,11547.212695
1421.454300,-2757.943793,-1332.370696,11843.295072
1421.454619,-2604.724693,-1480.411884,13397.727550
1421.454938,-766.095498,-1554.432478,12065.356855
1421.455256,-153.219100,-370.102971,9474.636058
1421.455575,1378.971896,-0.000000,8734.430116
1421.455894,2911.162892,666.185348,7550.100608
1421.456213,3217.601092,1110.308913,5625.565159
1421.456531,3524.039291,222.061783,5403.503377
1421.456850,3140.991542,518.144159,6661.853478
1421.457169,2834.553343,370.102971,7254.018232
1421.457488,2374.896044,-0.000000,7179.997637
1421.457807,536.266849,-222.061783,8808.450710
1421.458125,-919.314598,-1036.288319,10658.965565
1421.458444,-2145.067394,-1406.391290,10658.965565
1421.458763,-2681.334243,-1480.411884,11917.315666
1421.459082,-2757.943793,-962.267725,13175.665768
1421.459400,-2145.067394,-0.000000,12879.583391
1421.459719,-1378.971896,592.164754,10658.965565
1421.460038,-306.438199,962.267725,10732.986159
1421.460357,842.705048,1184.329507,9252.574275
1421.460675,1532.190996,1332.370696,7624.121203
1421.460994,2451.505594,1924.535449,6809.894666
1421.461313,2757.943793,2516.700203,6957.935855
1421.461632,3370.820191,2664.741391,7328.038826
1421.461951,2834.553343,2220.617826,7476.080014
1421.462269,2145.067394,1184.329507,7846.182985
1421.462588,383.047749,666.185348,9252.574275
1421.462907,-842.705048,370.102971,10510.924376
1421.463226,-2145.067394,-0.000000,10658.965565
1421.463544,-2757.943793,-222.061783,11621.233289
1421.463863,-2987.772442,-666.185348,13175.665768
1421.464182,-2374.896044,-296.082377,12731.542202
1421.464501,-1225.752797,222.061783,10732.986159
1421.464819,-459.657299,148.041188,10807.006753
1421.465138,383.047749,740.205942,10066.800811
1421.465457,1532.190996,1332.370696,8290.306550
1421.465776,2374.896044,2220.617826,7105.977043
1421.466095,3217.601092,2738.761985,7550.100608
1421.466413,3830.477490,2516.700203,7994.224174
1421.466732,3830.477490,2516.700203,7179.997637
1421.467051,3294.210641,1998.556043,7994.224174
1421.467370,1762.019645,-0.000000,9548.656652
1421.467688,842.705048,-1036.288319,10436.903782
1421.468007,-459.657299,-1702.473667,10955.047942
1421.468326,-995.924147,-1702.473667,11991.336260
1421.468645,-842.705048,-1332.370696,12213.398043
1421.468964,0.000000,-222.061783,11029.068536
1421.469282,383.047749,518.144159,9474.636058
1421.469601,1455.581446,740.205942,9030.512492
1421.469920,2528.115143,1480.411884,8808.450710
1421.470239,2528.115143,1036.288319,7179.997637
1421.470557,2834.553343,962.267725,7105.977043
1421.470876,3140.991542,1554.432478,7846.182985
1421.471195,3217.601092,1480.411884,8142.265362
1421.471514,2834.553343,1554.432478,7105.977043
1421.471832,2221.676944,1554.432478,7772.162391
1421.472151,1838.629195,1332.370696,9030.512492
1421.472470,766.095498,888.247130,8364.327145
1421.472789,229.828649,-0.000000,9030.512492
1421.473108,-536.266849,-962.267725,10658.965565
1421.473426,-1072.533697,-1036.288319,10658.965565
1421.473745,-1378.971896,-1406.391290,9326.594869
1421.474064,-1608.800546,-1036.288319,8808.450710
1421.474383,-1685.410096,-1036.288319,9104.533087
1421.474701,-1762.019645,-740.205942,8364.327145
1421.475020,-1685.410096,-222.061783,7624.121203
1421.475339,-1915.238745,370.102971,7846.182985
1421.475658,-1378.971896,1036.288319,8734.430116
1421.475976,-1302.362347,962.267725,8808.450710
1421.476295,-842.705048,740.205942,9252.574275
1421.476614,-2068.457845,148.041188,9252.574275
1421.476933,-1915.238745,-370.102971,10955.047942
1421.477252,-2068.457845,-666.185348,11177.109724
1421.477570,-1762.019645,-666.185348,10881.027347
1421.477889,-1685.410096,-444.123565,11251.130318
1421.478208,-1915.238745,-148.041188,10584.944971
1421.478527,0.000000,-74.020594,9696.697840
1421.478845,842.705048,-592.164754,9326.594869
1421.479164,1072.533697,-888.247130,9844.739029
1421.479483,1072.533697,-888.247130,8364.327145
1421.479802,1149.143247,-74.020594,7550.100608
1421.480121,2451.505594,148.041188,8586.388927
1421.480439,2834.553343,740.205942,8364.327145
1421.480758,2374.896044,370.102971,7994.224174
1421.481077,2528.115143,1110.308913,7920.203579
1421.481396,2221.676944,1036.288319,9400.615463
1421.481714,2221.676944,444.123565,9918.759623
1421.482033,1685.410096,222.061783,9992.780217
1421.482352,1225.752797,296.082377,10881.027347
1421.482671,1838.629195,740.205942,11325.150913
1421.482989,1915.238745,444.123565,10732.986159
1421.483308,3140.991542,666.185348,9622.677246
1421.483627,3524.039291,1332.370696,8882.471304
1421.483946,3140.991542,1406.391290,8142.265362
1421.484265,3217.601092,740.205942,7624.121203
1421.484583,2911.162892,814.226536,7105.977043
1421.484902,2834.553343,814.226536,7328.038826
1421.485221,1608.800546,1332.370696,7402.059420
1421.485540,1302.362347,888.247130,7254.018232
1421.485858,766.095498,296.082377,8216.285956
1421.486177,-612.876398,148.041188,9400.615463
1421.486496,-1532.190996,-1184.329507,10584.944971
1421.486815,-2757.943793,-888.247130,9844.739029
1421.487134,-2681.334243,-814.226536,10881.027347
1421.487452,-2528.115143,-0.000000,11473.192101
1421.487771,-2145.067394,962.267725,10140.821405
1421.488090,-1685.410096,814.226536,9326.594869
1421.488409,-1532.190996,1036.288319,10732.986159
1421.488727,-1378.971896,740.205942,9770.718434
1421.489046,-766.095498,888.247130,8512.368333
1421.489365,-919.314598,1554.432478,8512.368333
1421.489684,-536.266849,1554.432478,8808.450710
1421.490002,0.000000,962.267725,8882.471304
1421.490321,0.000000,444.123565,9178.553681
1421.490640,0.000000,370.102971,9474.636058
1421.490959,-459.657299,518.144159,9474.636058
1421.491278,-229.828649,-370.102971,10288.862594
1421.491596,-153.219100,-1184.329507,10658.965565
1421.491915,-229.828649,-518.144159,10362.883188
1421.492234,153.219100,-148.041188,10732.986159
1421.492553,995.924147,444.123565,10288.862594
1421.492871,1762.019645,370.102971,9622.677246
1421.493190,1838.629195,814.226536,8956.491898
1421.493509,2298.286494,814.226536,8956.491898
1421.493828,2145.067394,1184.329507,7179.997637
1421.494146,2374.896044,1554.432478,7254.018232
1421.494465,2221.676944,1776.494261,8438.347739
1421.494784,1915.238745,2368.659014,8734.430116
1421.495103,1532.190996,1628.453072,8512.368333
1421.495422,536.266849,888.247130,9844.739029
1421.495740,0.000000,-74.020594,11103.089130
1421.496059,0.000000,-222.061783,10510.924376
1421.496378,-229.828649,-222.061783,9918.759623
1421.496697,-153.219100,-222.061783,10066.800811
1421.497015,612.876398,296.082377,10807.006753
1421.497334,1149.143247,370.102971,8660.409521
1421.497653,1915.238745,592.164754,8068.244768
1421.497972,1685.410096,148.041188,8364.327145
1421.498291,1455.581446,592.164754,7698.141797
1421.498609,1532.190996,592.164754,7254.018232
1421.498928,689.485948,1184.329507,6883.915261
1421.499247,689.485948,1258.350101,8438.347739
1421.499566,76.609550,1110.308913,8660.409521
1421.499884,0.000000,1184.329507,9178.553681
1421.500203,-689.485948,-74.020594,10436.903782
1421.500522,-1225.752797,-814.226536,11325.150913
1421.500841,-1455.581446,-1332.370696,11029.068536
1421.501159,-1378.971896,-1258.350101,10584.944971
1421.501478,-1149.143247,-888.247130,10955.047942
1421.501797,0.000000,-1258.350101,11103.089130
1421.502116,1072.533697,-370.102971,9548.656652
1421.502435,1838.629195,148.041188,8734.430116
1421.502753,2068.457845,-74.020594,7846.182985
1421.503072,2451.505594,-0.000000,7402.059420
1421.503391,1532.190996,148.041188,6513.812290
1421.503710,1072.533697,740.205942,6365.771101
1421.504028,459.657299,370.102971,8364.327145
1421.504347,306.438199,-0.000000,8808.450710
1421.504666,-153.219100,-518.144159,9474.636058
1421.504985,-1149.143247,-814.226536,11473.192101
1421.505303,-1608.800546,-1406.391290,12361.439231
1421.505622,-1685.410096,-962.267725,11547.212695
1421.505941,-1149.143247,-74.020594,11029.068536
1421.506260,0.000000,740.205942,11399.171507
1421.506579,1608.800546,1406.391290,9622.677246
1421.506897,2681.334243,2072.576638,8142.265362
1421.507216,3370.820191,2072.576638,7105.977043
1421.507535,3217.601092,1702.473667,7254.018232
1421.507854,3217.601092,1036.288319,6143.709319
1421.508172,2374.896044,888.247130,5847.626942
1421.508491,1302.362347,592.164754,7254.018232
1421.508810,76.609550,888.247130,7994.224174
1421.509129,0.000000,666.185348,8660.409521
1421.509448,-1072.533697,148.041188,9622.677246
1421.509766,-1915.238745,-370.102971,11621.233289
1421.510085,-3064.381992,-814.226536,12065.356855
1421.510404,-3217.601092,-1036.288319,12361.439231
1421.510723,-2987.772442,-0.000000,12361.439231
1421.511041,-1762.019645,518.144159,12213.398043
1421.511360,-153.219100,1776.494261,9474.636058
1421.511679,995.924147,2368.659014,7920.203579
1421.511998,1991.848295,2220.617826,7328.038826
1421.512316,2451.505594,1924.535449,7031.956449
1421.512635,2528.115143,814.226536,6365.771101
1421.512954,2145.067394,148.041188,6661.853478
1421.513273,1225.752797,-0.000000,8364.327145
1421.513592,459.657299,222.061783,8956.491898
1421.513910,-766.095498,-0.000000,9252.574275
1421.514229,-1532.190996,-0.000000,10140.821405
1421.514548,-2298.286494,-222.061783,11103.089130
1421.514867,-2757.943793,-222.061783,11473.192101
1421.515185,-2451.505594,-592.164754,11695.253884
1421.515504,-2681.334243,-222.061783,11695.253884
1421.515823,-1149.143247,888.247130,11843.295072
1421.516142,153.219100,1332.370696,9770.718434
1421.516460,1685.410096,1850.514855,8660.409521
1421.516779,2757.943793,2072.576638,8512.368333
1421.517098,3217.601092,2442.679609,6957.935855
1421.517417,3524.039291,2738.761985,5699.585753
1421.517736,3907.087040,2368.659014,6883.915261
1421.518054,3447.429741,1480.411884,7772.162391
1421.518373,2145.067394,962.267725,7698.141797
1421.518692,536.266849,-0.000000,8882.471304
1421.519011,-536.266849,592.164754,9696.697840
1421.519329,-383.047749,-0.000000,10955.047942
1421.519648,-995.924147,-0.000000,10510.924376
1421.519967,-1378.971896,-666.185348,11547.212695
1421.520286,-1608.800546,-962.267725,11769.274478
1421.520605,76.609550,-518.144159,11177.109724
1421.520923,1608.800546,-592.164754,9770.718434
1421.521242,2451.505594,222.061783,8882.471304
1421.521561,2834.553343,592.164754,8586.388927
1421.521880,3217.601092,1184.329507,7031.956449
1421.522198,3294.210641,814.226536,6587.832884
1421.522517,2681.334243,1332.370696,7402.059420
1421.522836,1838.629195,1258.350101,8142.265362
1421.523155,1149.143247,740.205942,8142.265362
1421.523473,0.000000,-0.000000,8290.306550
1421.523792,-1072.533697,-1554.432478,11177.109724
1421.524111,-2451.505594,-2442.679609,12583.501014
1421.524430,-2911.162892,-2738.761985,11991.336260
1421.524749,-3370.820191,-2664.741391,11769.274478
1421.525067,-2528.115143,-1702.473667,12731.542202
1421.525386,-1378.971896,-1406.391290,11843.295072
1421.525705,-229.828649,-666.185348,9992.780217
1421.526024,1685.410096,-0.000000,8882.471304
1421.526342,2374.896044,518.144159,7624.121203
1421.526661,3064.381992,888.247130,6957.935855
1421.526980,3600.648841,1554.432478,6143.709319
1421.527299,3064.381992,2146.597232,6069.688724
1421.527617,2068.457845,1406.391290,6587.832884
1421.527936,1455.581446,1628.453072,6809.894666
1421.528255,689.485948,1406.391290,7402.059420
1421.528574,-612.876398,740.205942,9252.574275
1421.528893,-1455.581446,-444.123565,11029.068536
1421.529211,-2374.896044,-1184.329507,10955.047942
1421.529530,-2834.553343,-888.247130,11473.192101
1421.529849,-2451.505594,-1110.308913,12657.521608
1421.530168,-1532.190996,-740.205942,11695.253884
1421.530486,0.000000,592.164754,9104.533087
1421.530805,1302.362347,1480.411884,8512.368333
1421.531124,2221.676944,1554.432478,7550.100608
1421.531443,2911.162892,1776.494261,5773.606348
1421.531762,3830.477490,1850.514855,5033.400406
1421.532080,3830.477490,2590.720797,5699.585753
1421.532399,3600.648841,2368.659014,6587.832884
1421.532718,2068.457845,2072.576638,6661.853478
1421.533036,1685.410096,962.267725,8142.265362
1421.533355,229.828649,370.102971,10362.883188
1421.533674,-1378.971896,-74.020594,11843.295072
1421.533993,-2145.067394,-1184.329507,12139.377449
1421.534311,-2451.505594,-592.164754,12361.439231
1421.534630,-1991.848295,-666.185348,13397.727550
1421.534949,-1378.971896,-1406.391290,12361.439231
1421.535268,-766.095498,-592.164754,10288.862594
1421.535586,229.828649,222.061783,9474.636058
1421.535905,842.705048,1702.473667,7920.203579
1421.536224,1455.581446,814.226536,6217.729913
1421.536543,1685.410096,888.247130,6069.688724
1421.536861,919.314598,1258.350101,7105.977043
1421.537180,306.438199,592.164754,7698.141797
1421.537499,-459.657299,740.205942,8512.368333
1421.537818,-1225.752797,592.164754,10140.821405
1421.538136,-1915.238745,222.061783,11325.150913
1421.538455,-3370.820191,-148.041188,12065.356855
1421.538774,-3370.820191,-222.061783,12509.480420
1421.539092,-2757.943793,222.061783,12953.603985
1421.539411,-1378.971896,666.185348,12953.603985
1421.539730,-536.266849,1184.329507,11547.212695
1421.540049,536.266849,1258.350101,9918.759623
1421.540367,1762.019645,1110.308913,9326.594869
1421.540686,2528.115143,962.267725,7772.162391
1421.541005,3983.696590,1332.370696,6069.688724
1421.541324,4443.353888,2072.576638,5033.400406
1421.541642,4136.915689,1924.535449,6291.750507
1421.541961,3907.087040,1480.411884,7254.018232
1421.542280,3600.648841,1258.350101,7254.018232
1421.542599,2834.553343,740.205942,8882.471304
1421.542917,1378.971896,-0.000000,10584.944971
1421.543236,76.609550,-518.144159,11251.130318
1421.543555,459.657299,-1036.288319,11473.192101
1421.543874,-536.266849,-888.247130,11843.295072
1421.544192,0.000000,-1036.288319,12139.377449
1421.544511,689.485948,-0.000000,10288.862594
1421.544830,2681.334243,814.226536,8882.471304
1421.545148,2911.162892,814.226536,8512.368333
1421.545467,2528.115143,1184.329507,7031.956449
1421.545786,2451.505594,1110.308913,5773.606348
1421.546105,2145.067394,814.226536,6291.750507
1421.546423,1378.971896,296.082377,7402.059420
1421.546742,536.266849,-0.000000,7772.162391
1421.547061,-306.438199,-222.061783,7920.203579
1421.547380,-1455.581446,-1258.350101,9918.759623
1421.547698,-2145.067394,-2220.617826,11843.295072
1421.548017,-3140.991542,-1998.556043,11399.171507
1421.548336,-2757.943793,-1628.453072,11769.274478
1421.548655,-2834.553343,-1036.288319,11695.253884
1421.548973,-1915.238745,-592.164754,11769.274478
1421.549292,-612.876398,296.082377,9474.636058
1421.549611,766.095498,1184.329507,7920.203579
1421.549930,1072.533697,370.102971,7402.059420
1421.550248,1685.410096,666.185348,6809.894666
1421.550567,2068.457845,888.247130,5921.647536
1421.550886,2374.896044,1258.350101,5921.647536
1421.551204,1532.190996,1258.350101,7254.018232
1421.551523,689.485948,666.185348,7476.080014
1421.551842,0.000000,-0.000000,8512.368333
1421.552161,-842.705048,-74.020594,9696.697840
1421.552479,-1608.800546,-592.164754,11103.089130
1421.552798,-2451.505594,-962.267725,11399.171507
1421.553117,-2298.286494,-1332.370696,11843.295072
1421.553436,-1302.362347,-1184.329507,12435.459826
1421.553754,-306.438199,-666.185348,11325.150913
1421.554073,1762.019645,444.123565,9844.739029
1421.554392,2451.505594,1332.370696,8438.347739
1421.554711,3907.087040,2368.659014,7105.977043
1421.555029,4673.182538,2294.638420,5921.647536
1421.555348,5286.058936,2368.659014,5329.482782
1421.555667,5209.449386,1924.535449,6365.771101
1421.555986,4443.353888,1480.411884,7476.080014
1421.556304,3064.381992,962.267725,7846.182985
1421.556623,1378.971896,592.164754,8734.430116
1421.556942,-383.047749,-370.102971,10807.006753
1421.557260,-1455.581446,-1406.391290,11251.130318
1421.557579,-2068.457845,-1480.411884,11769.274478
1421.557898,-2145.067394,-1258.350101,12361.439231
1421.558217,-1762.019645,-962.267725,13101.645173
1421.558535,-1455.581446,-370.102971,11695.253884
1421.558854,0.000000,-0.000000,10362.883188
1421.559173,536.266849,518.144159,9474.636058
