#time,accel_x,accel_y,accel_z
1417.775160,2451.505594,-1776.494261,5255.462188
1417.775477,2068.457845,-1924.535449,5625.565159
1417.775794,1608.800546,-1776.494261,6439.791695
1417.776111,1762.019645,-1480.411884,6439.791695
1417.776429,2068.457845,-518.144159,6069.688724
1417.776746,2068.457845,-74.020594,5773.606348
1417.777063,2068.457845,-0.000000,5181.441594
1417.777380,2221.676944,296.082377,5329.482782
1417.777697,1608.800546,-0.000000,5107.421000
1417.778015,1225.752797,-814.226536,6587.832884
1417.778332,459.657299,-1406.391290,8512.368333
1417.778649,-919.314598,-1628.453072,10362.883188
1417.778966,-1532.190996,-1776.494261,10658.965565
1417.779283,-1915.238745,-1406.391290,10807.006753
1417.779601,-1608.800546,-0.000000,10214.842000
1417.779918,-1225.752797,1110.308913,9696.697840
1417.780235,-612.876398,1850.514855,8808.450710
1417.780552,-689.485948,1332.370696,8734.430116
1417.780869,-536.266849,592.164754,9622.677246
1417.781186,-1149.143247,-444.123565,10510.924376
1417.781504,-1225.752797,-740.205942,11547.212695
1417.781821,-1608.800546,-666.185348,12435.459826
1417.782138,-1991.848295,-666.185348,12583.501014
1417.782455,-1608.800546,-296.082377,12435.459826
1417.782772,-1072.533697,592.164754,12287.418637
1417.783090,-919.314598,1184.329507,11251.130318
1417.783407,-536.266849,1628.453072,10658.965565
1417.783724,153.219100,1184.329507,11029.068536
1417.784041,0.000000,370.102971,11399.171507
1417.784358,0.000000,148.041188,12287.418637
1417.784676,0.000000,666.185348,12139.377449
1417.784993,76.609550,1850.514855,12213.398043
1417.785310,153.219100,2960.823768,11695.253884
1417.785627,383.047749,3627.009116,10362.883188
1417.785944,612.876398,3997.112087,9474.636058
1417.786262,1378.971896,3849.070898,9326.594869
1417.786579,1838.629195,3330.926739,8882.471304
1417.786896,1608.800546,2590.720797,8956.491898
1417.787213,1455.581446,1702.473667,9770.718434
1417.787530,766.095498,814.226536,9844.739029
1417.787847,459.657299,1036.288319,10362.883188
1417.788165,0.000000,1480.411884,9992.780217
1417.788482,-153.219100,1924.535449,9918.759623
1417.788799,-153.219100,2146.597232,9770.718434
1417.789116,-383.047749,2368.659014,9696.697840
1417.789433,0.000000,1850.514855,9696.697840
1417.789751,0.000000,1110.308913,10066.800811
1417.790068,842.705048,740.205942,10436.903782
1417.790385,842.705048,-0.000000,10066.800811
1417.790702,1302.362347,-222.061783,9992.780217
1417.791019,1608.800546,-74.020594,10214.842000
1417.791337,2068.457845,-0.000000,10140.821405
1417.791654,2451.505594,-0.000000,9548.656652
1417.791971,1915.238745,-0.000000,9326.594869
1417.792288,1685.410096,-0.000000,9400.615463
1417.792605,1455.581446,-592.164754,9326.594869
1417.792922,1149.143247,-1258.350101,9474.636058
1417.793240,1072.533697,-1702.473667,10140.821405
1417.793557,995.924147,-2220.617826,10288.862594
1417.793874,459.657299,-2368.659014,10362.883188
1417.794191,689.485948,-2146.597232,10288.862594
1417.794508,995.924147,-1850.514855,10362.883188
1417.794826,842.705048,-1776.494261,9622.677246
1417.795143,766.095498,-1554.432478,9474.636058
1417.795460,689.485948,-1036.288319,9474.636058
1417.795777,689.485948,-1184.329507,8956.491898
1417.796094,689.485948,-1628.453072,8734.430116
1417.796412,612.876398,-1184.329507,8290.306550
1417.796729,766.095498,-1332.370696,7994.224174
1417.797046,766.095498,-1554.432478,7328.038826
1417.797363,76.609550,-1924.535449,7105.977043
1417.797680,229.828649,-2516.700203,7402.059420
1417.797998,-536.266849,-2516.700203,7920.203579
1417.798315,-1225.752797,-2738.761985,7698.141797
1417.798632,-1685.410096,-3182.885551,8216.285956
1417.798949,-1915.238745,-3256.906145,8734.430116
1417.799266,-2068.457845,-2886.803174,8660.409521
1417.799583,-1915.238745,-2738.761985,8290.306550
1417.799901,-1762.019645,-2368.659014,7994.224174
1417.800218,-1685.410096,-1924.535449,8216.285956
1417.800535,-1915.238745,-1702.473667,7846.182985
1417.800852,-766.095498,-2220.617826,7772.162391
1417.801169,-689.485948,-1628.453072,7994.224174
1417.801487,-153.219100,-1554.432478,8438.347739
1417.801804,0.000000,-1332.370696,8512.368333
1417.802121,153.219100,-1480.411884,8586.388927
1417.802438,76.609550,-1184.329507,8882.471304
1417.802755,536.266849,-1110.308913,9252.574275
1417.803073,766.095498,-740.205942,9030.512492
1417.803390,995.924147,-518.144159,9030.512492
1417.803707,1225.752797,-518.144159,9326.594869
1417.804024,1608.800546,-592.164754,9326.594869
1417.804341,1838.629195,-370.102971,9622.677246
1417.804659,2068.457845,-370.102971,9770.718434
1417.804976,2374.896044,-148.041188,9918.759623
1417.805293,3294.210641,-0.000000,9844.739029
1417.805610,2834.553343,444.123565,9622.677246
1417.805927,3294.210641,814.226536,9474.636058
1417.806244,3447.429741,1110.308913,9326.594869
1417.806562,3447.429741,1406.391290,9030.512492
1417.806879,3600.648841,1480.411884,9326.594869
1417.807196,3447.429741,1406.391290,9400.615463
1417.807513,2911.162892,1554.432478,9178.553681
1417.807830,2528.115143,1554.432478,9326.594869
1417.808148,1991.848295,1628.453072,9474.636058
1417.808465,1149.143247,1702.473667,9548.656652
1417.808782,612.876398,1702.473667,9844.739029
1417.809099,76.609550,1776.494261,10066.800811
1417.809416,-459.657299,1702.473667,10066.800811
1417.809733,-919.314598,1332.370696,10362.883188
1417.810050,-1225.752797,1184.329507,10214.842000
1417.810367,-1455.581446,1480.411884,10584.944971
1417.810684,-1685.410096,1480.411884,10510.924376
1417.811001,-1378.971896,1776.494261,10510.924376
1417.811318,-2145.067394,1702.473667,10807.006753
1417.811635,-1685.410096,1850.514855,10807.006753
1417.811952,-1762.019645,1776.494261,10732.986159
1417.812270,-1608.800546,1776.494261,10584.944971
1417.812587,-1378.971896,1480.411884,10584.944971
1417.812904,-1685.410096,1258.350101,10510.924376
1417.813221,-1072.533697,1332.370696,10066.800811
1417.813538,-1225.752797,1184.329507,10140.821405
1417.813855,-1072.533697,666.185348,10140.821405
1417.814172,-1072.533697,444.123565,10510.924376
1417.814489,-1149.143247,74.020594,10584.944971
1417.814806,-995.924147,-0.000000,10436.903782
1417.815123,-459.657299,-74.020594,10510.924376
1417.815440,-459.657299,-148.041188,10584.944971
1417.815757,153.219100,-370.102971,10732.986159
1417.816074,459.657299,-0.000000,10584.944971
1417.816391,689.485948,-148.041188,9918.759623
1417.816708,1302.362347,-148.041188,9844.739029
1417.817025,2145.067394,-0.000000,9474.636058
1417.817343,2681.334243,-222.061783,9252.574275
1417.817660,2681.334243,-148.041188,9178.553681
1417.817977,2911.162892,-74.020594,9104.533087
1417.818294,3140.991542,-148.041188,8882.471304
1417.818611,3217.601092,-370.102971,8734.430116
1417.818928,3370.820191,-518.144159,8882.471304
1417.819245,3294.210641,-518.144159,8586.388927
1417.819562,3524.039291,-444.123565,8142.265362
1417.819879,3217.601092,-666.185348,8364.327145
1417.820196,3217.601092,-814.226536,8438.347739
1417.820513,2528.115143,-1036.288319,8364.327145
1417.820830,2451.505594,-1036.288319,8586.388927
1417.821147,2374.896044,-1184.329507,8364.327145
1417.821464,1991.848295,-1406.391290,8734.430116
1417.821781,1608.800546,-1406.391290,9030.512492
1417.822098,1685.410096,-1332.370696,8660.409521
1417.822415,1302.362347,-1110.308913,8956.491898
1417.822733,1072.533697,-1332.370696,8808.450710
1417.823050,995.924147,-1184.329507,8808.450710
1417.823367,612.876398,-1332.370696,8734.430116
1417.823684,459.657299,-1184.329507,8660.409521
1417.824001,306.438199,-1406.391290,8956.491898
1417.824318,0.000000,-1406.391290,9252.574275
1417.824635,-306.438199,-1258.350101,8882.471304
1417.824952,-689.485948,-1406.391290,9104.533087
1417.825269,-995.924147,-1110.308913,9178.553681
1417.825586,-1149.143247,-1036.288319,9030.512492
1417.825903,-1302.362347,-592.164754,9326.594869
1417.826220,-1302.362347,-740.205942,9030.512492
1417.826537,-1685.410096,-518.144159,9252.574275
1417.826854,-1225.752797,-148.041188,9474.636058
1417.827171,-536.266849,-0.000000,9104.533087
1417.827488,-689.485948,222.061783,9178.553681
1417.827806,-153.219100,740.205942,9178.553681
1417.828123,-306.438199,888.247130,8882.471304
1417.828440,0.000000,1332.370696,8956.491898
1417.828757,0.000000,1480.411884,8660.409521
1417.829074,0.000000,1702.473667,8734.430116
1417.829391,229.828649,1702.473667,8882.471304
1417.829708,995.924147,2146.597232,8956.491898
1417.830025,383.047749,1776.494261,9400.615463
1417.830342,612.876398,1850.514855,9474.636058
1417.830659,766.095498,2072.576638,9696.697840
1417.830976,919.314598,1998.556043,9844.739029
1417.831293,995.924147,2146.597232,9622.677246
1417.831610,1225.752797,1998.556043,9622.677246
1417.831927,1149.143247,2368.659014,10066.800811
1417.832244,1302.362347,2368.659014,9992.780217
1417.832561,1532.190996,2664.741391,10584.944971
1417.832879,1532.190996,2294.638420,10140.821405
1417.833196,1532.190996,1998.556043,10140.821405
1417.833513,1915.238745,1924.535449,10214.842000
1417.833830,2145.067394,1776.494261,10436.903782
1417.834147,1915.238745,1998.556043,10362.883188
1417.834464,1608.800546,2072.576638,10140.821405
1417.834781,1991.848295,1924.535449,10288.862594
1417.835098,1762.019645,1850.514855,10140.821405
1417.835415,1915.238745,1702.473667,10214.842000
1417.835732,1608.800546,1628.453072,10140.821405
1417.836049,1149.143247,814.226536,10436.903782
1417.836366,919.314598,1110.308913,10362.883188
1417.836683,842.705048,814.226536,10288.862594
1417.837000,919.314598,740.205942,10140.821405
1417.837317,536.266849,1110.308913,10140.821405
1417.837634,459.657299,814.226536,9918.759623
1417.837951,459.657299,962.267725,9844.739029
1417.838269,612.876398,740.205942,9548.656652
1417.838586,842.705048,1110.308913,9474.636058
1417.838903,995.924147,1184.329507,9474.636058
1417.839220,536.266849,814.226536,9252.574275
1417.839537,536.266849,814.226536,9326.594869
1417.839854,842.705048,814.226536,9178.553681
1417.840171,1072.533697,666.185348,9030.512492
1417.840488,766.095498,444.123565,8882.471304
1417.840805,766.095498,222.061783,8734.430116
1417.841122,919.314598,-0.000000,8808.450710
1417.841439,1302.362347,-0.000000,8956.491898
1417.841756,1072.533697,-222.061783,8808.450710
1417.842073,612.876398,-444.123565,8882.471304
1417.842390,919.314598,-444.123565,9030.512492
1417.842707,842.705048,-592.164754,9178.553681
1417.843024,1225.752797,-1258.350101,9326.594869
1417.843342,919.314598,-888.247130,9178.553681
1417.843659,919.314598,-888.247130,9400.615463
1417.843976,766.095498,-888.247130,9400.615463
1417.844293,919.314598,-962.267725,9178.553681
1417.844610,1149.143247,-962.267725,9474.636058
1417.844927,995.924147,-888.247130,9326.594869
1417.845244,1302.362347,-666.185348,9178.553681
1417.845561,1072.533697,-592.164754,9104.533087
1417.845878,919.314598,-444.123565,9104.533087
1417.846195,919.314598,-666.185348,9326.594869
1417.846512,842.705048,-666.185348,9178.553681
1417.846829,919.314598,-222.061783,9104.533087
1417.847146,842.705048,-222.061783,9400.615463
1417.847463,689.485948,-222.061783,9252.574275
1417.847780,995.924147,-0.000000,8882.471304
1417.848097,995.924147,-0.000000,9104.533087
1417.848415,1225.752797,296.082377,8956.491898
1417.848732,1915.238745,666.185348,8956.491898
1417.849049,1455.581446,666.185348,8512.368333
1417.849366,1302.362347,1184.329507,8808.450710
1417.849683,1378.971896,1110.308913,8808.450710
1417.850000,1762.019645,962.267725,8512.368333
1417.850317,1608.800546,1332.370696,8808.450710
1417.850634,1532.190996,1554.432478,8734.430116
1417.850951,1532.190996,1332.370696,8808.450710
1417.851268,1455.581446,1480.411884,8808.450710
1417.851585,1225.752797,1776.494261,9326.594869
1417.851902,1149.143247,1480.411884,8808.450710
1417.852219,1149.143247,1628.453072,9400.615463
1417.852536,1072.533697,1332.370696,9252.574275
1417.852853,689.485948,1406.391290,9400.615463
1417.853170,919.314598,1406.391290,9622.677246
1417.853487,689.485948,1258.350101,9992.780217
1417.853805,612.876398,1332.370696,9844.739029
1417.854122,459.657299,1480.411884,10288.862594
1417.854439,536.266849,1258.350101,10066.800811
1417.854756,383.047749,1258.350101,10436.903782
1417.855073,459.657299,666.185348,10658.965565
1417.855390,306.438199,1036.288319,10510.924376
1417.855707,306.438199,962.267725,10732.986159
1417.856024,536.266849,888.247130,10584.944971
1417.856341,76.609550,740.205942,10807.006753
1417.856658,153.219100,740.205942,10584.944971
1417.856975,76.609550,370.102971,10881.027347
1417.857292,-229.828649,444.123565,10658.965565
1417.857609,-153.219100,296.082377,10510.924376
1417.857926,-306.438199,370.102971,10288.862594
1417.858243,-306.438199,222.061783,10362.883188
1417.858560,-766.095498,222.061783,10436.903782
1417.858878,-383.047749,222.061783,10214.842000
1417.859195,-306.438199,-0.000000,9992.780217
1417.859512,-229.828649,-296.082377,9622.677246
1417.859829,-153.219100,-0.000000,9696.697840
1417.860146,0.000000,-0.000000,9474.636058
1417.860463,0.000000,-0.000000,9326.594869
1417.860780,229.828649,-0.000000,9030.512492
1417.861097,383.047749,-148.041188,8882.471304
1417.861414,766.095498,-0.000000,8882.471304
1417.861731,689.485948,-0.000000,8660.409521
1417.862048,1149.143247,148.041188,8512.368333
1417.862365,1378.971896,-0.000000,8586.388927
1417.862682,1532.190996,-148.041188,8216.285956
1417.862999,1608.800546,-0.000000,8438.347739
1417.863316,1685.410096,-74.020594,8512.368333
1417.863633,1915.238745,-222.061783,8364.327145
1417.863951,2145.067394,-296.082377,8734.430116
1417.864268,2451.505594,-370.102971,8438.347739
1417.864585,1685.410096,-370.102971,8438.347739
1417.864902,1915.238745,-518.144159,8364.327145
1417.865219,2145.067394,-592.164754,8512.368333
1417.865536,1225.752797,-666.185348,8512.368333
1417.865853,2068.457845,-666.185348,8808.450710
1417.866170,1608.800546,-592.164754,8956.491898
1417.866487,1838.629195,-740.205942,8882.471304
1417.866804,1455.581446,-740.205942,8956.491898
1417.867121,1455.581446,-888.247130,9030.512492
1417.867438,1302.362347,-814.226536,9252.574275
1417.867755,919.314598,-888.247130,9326.594869
1417.868072,919.314598,-1036.288319,9178.553681
1417.868389,689.485948,-962.267725,9252.574275
1417.868706,0.000000,-962.267725,9696.697840
1417.869023,612.876398,-962.267725,9474.636058
1417.869341,153.219100,-888.247130,9326.594869
1417.869658,153.219100,-592.164754,9326.594869
1417.869975,0.000000,-592.164754,9400.615463
1417.870292,306.438199,-518.144159,9400.615463
1417.870609,-76.609550,-222.061783,9548.656652
1417.870926,0.000000,-148.041188,9474.636058
1417.871243,-153.219100,-222.061783,9252.574275
1417.871560,-229.828649,148.041188,9474.636058
1417.871877,0.000000,370.102971,9474.636058
1417.872194,-153.219100,370.102971,9474.636058
1417.872511,0.000000,518.144159,9400.615463
1417.872828,153.219100,666.185348,9474.636058
1417.873145,76.609550,740.205942,9548.656652
1417.873462,76.609550,592.164754,9548.656652
1417.873779,153.219100,888.247130,9548.656652
1417.874096,306.438199,666.185348,9474.636058
1417.874414,383.047749,666.185348,9770.718434
1417.874731,689.485948,518.144159,9622.677246
1417.875048,612.876398,666.185348,9844.739029
1417.875365,919.314598,962.267725,9992.780217
1417.875682,919.314598,814.226536,10066.800811
1417.875999,1302.362347,888.247130,9992.780217
1417.876316,1608.800546,888.247130,10066.800811
1417.876633,1685.410096,888.247130,10066.800811
1417.876950,1455.581446,962.267725,10140.821405
1417.877267,1838.629195,888.247130,10214.842000
1417.877584,1685.410096,592.164754,10066.800811
1417.877901,1915.238745,666.185348,10140.821405
1417.878218,1455.581446,592.164754,10066.800811
1417.878535,1608.800546,444.123565,10140.821405
1417.878852,1532.190996,518.144159,10214.842000
1417.879169,1302.362347,148.041188,10140.821405
1417.879487,1149.143247,222.061783,10362.883188
1417.879804,1149.143247,-0.000000,9918.759623
1417.880121,1072.533697,296.082377,9918.759623
1417.880438,1378.971896,296.082377,9918.759623
1417.880755,459.657299,296.082377,9992.780217
1417.881072,76.609550,222.061783,9770.718434
1417.881389,0.000000,222.061783,9992.780217
1417.881706,0.000000,-0.000000,9770.718434
1417.882023,76.609550,-148.041188,9622.677246
1417.882340,-306.438199,-148.041188,9548.656652
1417.882657,-995.924147,-444.123565,9474.636058
1417.882974,-689.485948,-222.061783,9474.636058
1417.883291,-459.657299,-740.205942,9178.553681
1417.883608,-1072.533697,-148.041188,9252.574275
1417.883925,-536.266849,-148.041188,8808.450710
1417.884242,-689.485948,-222.061783,8882.471304
1417.884560,-766.095498,-592.164754,8734.430116
1417.884877,-689.485948,-740.205942,8734.430116
1417.885194,-536.266849,-666.185348,8734.430116
1417.885511,-536.266849,-814.226536,8586.388927
1417.885828,-306.438199,-666.185348,8808.450710
1417.886145,-536.266849,-1110.308913,8808.450710
1417.886462,0.000000,-1110.308913,8808.450710
1417.886779,-153.219100,-1036.288319,8882.471304
1417.887096,306.438199,-962.267725,8512.368333
1417.887413,459.657299,-1184.329507,8586.388927
1417.887730,536.266849,-1184.329507,8734.430116
1417.888047,689.485948,-962.267725,8734.430116
1417.888364,919.314598,-1110.308913,8586.388927
1417.888681,1149.143247,-888.247130,8808.450710
1417.888998,1302.362347,-888.247130,8808.450710
1417.889315,1532.190996,-814.226536,8808.450710
1417.889632,1762.019645,-740.205942,8956.491898
1417.889950,1762.019645,-888.247130,8808.450710
1417.890267,2298.286494,-518.144159,8734.430116
1417.890584,2068.457845,-740.205942,8808.450710
1417.890901,2068.457845,-370.102971,8956.491898
1417.891218,2221.676944,-370.102971,8882.471304
1417.891535,1838.629195,-222.061783,8956.491898
1417.891852,1915.238745,-148.041188,8808.450710
1417.892169,1838.629195,-296.082377,8808.450710
1417.892486,2068.457845,-74.020594,8808.450710
1417.892803,2068.457845,-0.000000,8956.491898
1417.893120,1685.410096,222.061783,9104.533087
1417.893437,1378.971896,518.144159,9400.615463
1417.893754,1378.971896,148.041188,9252.574275
1417.894071,1378.971896,592.164754,9326.594869
1417.894388,919.314598,-0.000000,9474.636058
1417.894705,995.924147,592.164754,9474.636058
1417.895023,766.095498,518.144159,9474.636058
1417.895340,689.485948,666.185348,9622.677246
1417.895657,459.657299,592.164754,9548.656652
1417.895974,536.266849,666.185348,9696.697840
1417.896291,459.657299,888.247130,9844.739029
1417.896608,0.000000,666.185348,9992.780217
1417.896925,0.000000,666.185348,9992.780217
1417.897242,0.000000,962.267725,10288.862594
1417.897559,-459.657299,740.205942,10140.821405
1417.897876,-153.219100,814.226536,10288.862594
1417.898193,0.000000,1110.308913,10510.924376
1417.898510,0.000000,1036.288319,10362.883188
1417.898827,0.000000,888.247130,10362.883188
1417.899144,229.828649,962.267725,10362.883188
1417.899461,0.000000,962.267725,10288.862594
1417.899778,153.219100,1184.329507,10362.883188
1417.900096,383.047749,1258.350101,10436.903782
1417.900413,689.485948,1258.350101,10362.883188
1417.900730,766.095498,1184.329507,10436.903782
1417.901047,842.705048,1184.329507,10362.883188
1417.901364,766.095498,1184.329507,10362.883188
1417.901681,919.314598,1110.308913,10214.842000
1417.901998,995.924147,1036.288319,10362.883188
1417.902315,1072.533697,1036.288319,9918.759623
1417.902632,1225.752797,814.226536,9992.780217
1417.902949,995.924147,962.267725,9992.780217
1417.903266,1302.362347,814.226536,9918.759623
1417.903583,1685.410096,962.267725,9548.656652
1417.903900,1149.143247,814.226536,9548.656652
1417.904217,1072.533697,814.226536,9474.636058
1417.904534,1072.533697,740.205942,9474.636058
1417.904851,1455.581446,740.205942,9474.636058
1417.905168,1302.362347,370.102971,9326.594869
1417.905486,1072.533697,592.164754,9400.615463
1417.905803,1072.533697,222.061783,9104.533087
1417.906120,919.314598,222.061783,9104.533087
1417.906437,919.314598,370.102971,8956.491898
1417.906754,919.314598,444.123565,8808.450710
1417.907071,1072.533697,148.041188,8882.471304
1417.907388,689.485948,-0.000000,8808.450710
1417.907705,536.266849,-0.000000,8808.450710
1417.908022,536.266849,-296.082377,8734.430116
1417.908339,383.047749,-296.082377,8882.471304
1417.908656,612.876398,-296.082377,8734.430116
1417.908973,612.876398,-74.020594,8586.388927
1417.909290,459.657299,-222.061783,8734.430116
1417.909607,306.438199,-444.123565,9030.512492
1417.909924,229.828649,-370.102971,8734.430116
1417.910242,306.438199,-444.123565,8586.388927
1417.910559,383.047749,-518.144159,8586.388927
1417.910876,306.438199,-518.144159,8586.388927
1417.911193,766.095498,-592.164754,8660.409521
1417.911510,306.438199,-592.164754,9030.512492
1417.911827,536.266849,-518.144159,8882.471304
1417.912145,153.219100,-666.185348,8734.430116
1417.912462,153.219100,-592.164754,9030.512492
1417.912779,459.657299,-370.102971,8882.471304
1417.913096,459.657299,-370.102971,8882.471304
1417.913413,536.266849,-222.061783,9104.533087
1417.913730,536.266849,-296.082377,9030.512492
1417.914047,1072.533697,-296.082377,9104.533087
1417.914365,612.876398,-370.102971,9252.574275
1417.914682,919.314598,-74.020594,9326.594869
1417.914999,689.485948,-74.020594,9326.594869
1417.915316,995.924147,-0.000000,9400.615463
1417.915633,1455.581446,222.061783,9474.636058
1417.915950,995.924147,296.082377,9252.574275
1417.916268,1072.533697,444.123565,9474.636058
1417.916585,1072.533697,666.185348,9400.615463
1417.916902,1072.533697,592.164754,9474.636058
1417.917219,1072.533697,814.226536,9622.677246
1417.917536,1378.971896,888.247130,9548.656652
1417.917853,1378.971896,740.205942,9696.697840
1417.918171,1378.971896,1036.288319,9770.718434
1417.918488,1302.362347,962.267725,9622.677246
1417.918805,1302.362347,962.267725,9696.697840
1417.919122,1455.581446,1110.308913,9696.697840
1417.919439,1532.190996,1184.329507,9622.677246
1417.919756,1532.190996,1258.350101,9918.759623
1417.920073,1149.143247,1258.350101,9918.759623
1417.920391,1072.533697,1258.350101,9844.739029
1417.920708,1149.143247,1184.329507,9770.718434
1417.921025,1072.533697,1258.350101,9918.759623
1417.921342,995.924147,1406.391290,9918.759623
1417.921659,1455.581446,1406.391290,9992.780217
1417.921976,995.924147,1406.391290,9844.739029
1417.922294,919.314598,1554.432478,9918.759623
1417.922611,1072.533697,1258.350101,9770.718434
1417.922928,919.314598,1332.370696,9992.780217
1417.923245,766.095498,1258.350101,9992.780217
1417.923562,766.095498,1184.329507,9696.697840
1417.923879,612.876398,1258.350101,9696.697840
1417.924197,766.095498,1332.370696,9696.697840
1417.924514,689.485948,962.267725,9696.697840
1417.924831,536.266849,888.247130,9696.697840
1417.925148,459.657299,888.247130,9548.656652
1417.925465,612.876398,888.247130,9918.759623
1417.925782,766.095498,814.226536,9622.677246
1417.926099,612.876398,666.185348,9696.697840
1417.926417,689.485948,814.226536,9622.677246
1417.926734,766.095498,444.123565,9474.636058
1417.927051,612.876398,740.205942,9548.656652
1417.927368,689.485948,666.185348,9474.636058
1417.927685,383.047749,518.144159,9548.656652
1417.928002,1072.533697,444.123565,9548.656652
1417.928320,612.876398,148.041188,9474.636058
1417.928637,612.876398,148.041188,9474.636058
1417.928954,995.924147,-0.000000,9400.615463
1417.929271,1532.190996,-74.020594,9622.677246
1417.929588,1072.533697,-0.000000,9400.615463
1417.929905,689.485948,222.061783,9400.615463
1417.930223,1072.533697,-148.041188,9326.594869
1417.930540,919.314598,-74.020594,9178.553681
1417.930857,1072.533697,-518.144159,8956.491898
1417.931174,1072.533697,-296.082377,8882.471304
1417.931491,1149.143247,-148.041188,9178.553681
1417.931808,1302.362347,-74.020594,9104.533087
1417.932125,1149.143247,-0.000000,9178.553681
1417.932443,1455.581446,-222.061783,9030.512492
1417.932760,1378.971896,-0.000000,8882.471304
1417.933077,1302.362347,-0.000000,8882.471304
1417.933394,1378.971896,-74.020594,8808.450710
1417.933711,1072.533697,-74.020594,8808.450710
1417.934028,1378.971896,-148.041188,8734.430116
1417.934346,1225.752797,-148.041188,8956.491898
1417.934663,1225.752797,-0.000000,8808.450710
1417.934980,1302.362347,-0.000000,8512.368333
1417.935297,766.095498,-74.020594,8734.430116
1417.935614,995.924147,-0.000000,8956.491898
1417.935931,842.705048,-222.061783,8956.491898
1417.936249,689.485948,-148.041188,9252.574275
1417.936566,612.876398,-0.000000,9178.553681
1417.936883,459.657299,-74.020594,9104.533087
1417.937200,612.876398,-0.000000,9252.574275
1417.937517,459.657299,-0.000000,9400.615463
1417.937834,306.438199,-0.000000,9252.574275
1417.938151,459.657299,-0.000000,9178.553681
1417.938469,0.000000,-444.123565,9474.636058
1417.938786,306.438199,-296.082377,9474.636058
1417.939103,76.609550,-222.061783,9474.636058
1417.939420,76.609550,-222.061783,9770.718434
1417.939737,689.485948,-296.082377,9622.677246
1417.940054,76.609550,-296.082377,9622.677246
1417.940372,229.828649,-222.061783,9696.697840
1417.940689,153.219100,-74.020594,9918.759623
1417.941006,153.219100,-0.000000,9696.697840
1417.941323,0.000000,-0.000000,9770.718434
1417.941640,0.000000,-0.000000,9696.697840
1417.941957,0.000000,-0.000000,9918.759623
1417.942275,76.609550,-0.000000,9918.759623
1417.942592,0.000000,-0.000000,9992.780217
1417.942909,0.000000,-0.000000,10066.800811
1417.943226,306.438199,148.041188,10140.821405
1417.943543,153.219100,-0.000000,9548.656652
1417.943860,383.047749,222.061783,9770.718434
1417.944178,383.047749,296.082377,9696.697840
1417.944495,459.657299,-74.020594,9252.574275
1417.944812,536.266849,222.061783,9548.656652
1417.945129,383.047749,296.082377,9770.718434
1417.945446,995.924147,518.144159,9548.656652
1417.945763,766.095498,444.123565,9474.636058
1417.946080,995.924147,222.061783,9326.594869
1417.946398,1225.752797,666.185348,9474.636058
1417.946715,1225.752797,370.102971,9104.533087
1417.947032,1608.800546,444.123565,9104.533087
1417.947349,1532.190996,518.144159,9104.533087
1417.947666,1455.581446,444.123565,9252.574275
1417.947983,1532.190996,518.144159,9104.533087
1417.948301,1532.190996,518.144159,9030.512492
1417.948618,1532.190996,444.123565,9104.533087
1417.948935,1378.971896,444.123565,9252.574275
1417.949252,1532.190996,814.226536,9400.615463
1417.949569,1685.410096,740.205942,9030.512492
1417.949886,1532.190996,592.164754,8956.491898
1417.950204,1532.190996,518.144159,9030.512492
1417.950521,1302.362347,592.164754,9104.533087
1417.950838,1225.752797,518.144159,8956.491898
1417.951155,1225.752797,222.061783,9326.594869
1417.951472,1072.533697,-0.000000,9474.636058
1417.951789,1149.143247,222.061783,9326.594869
1417.952106,689.485948,148.041188,9474.636058
1417.952424,689.485948,-0.000000,9474.636058
1417.952741,689.485948,-0.000000,9474.636058
1417.953058,766.095498,-222.061783,9548.656652
1417.953375,383.047749,-74.020594,9474.636058
1417.953692,153.219100,-148.041188,9252.574275
1417.954009,229.828649,-0.000000,9548.656652
1417.954327,229.828649,-222.061783,9474.636058
1417.954644,153.219100,-148.041188,9474.636058
1417.954961,76.609550,-222.061783,9474.636058
1417.955278,0.000000,-74.020594,9622.677246
1417.955595,229.828649,-0.000000,9770.718434
1417.955912,76.609550,148.041188,9770.718434
1417.956230,0.000000,-0.000000,9548.656652
1417.956547,612.876398,-148.041188,9400.615463
1417.956864,153.219100,-0.000000,9548.656652
1417.957181,612.876398,-0.000000,9400.615463
1417.957498,536.266849,-74.020594,9474.636058
1417.957815,459.657299,-0.000000,9474.636058
1417.958132,459.657299,-74.020594,9474.636058
1417.958450,612.876398,-0.000000,9622.677246
1417.958767,536.266849,-0.000000,9622.677246
1417.959084,689.485948,-0.000000,9474.636058
1417.959401,842.705048,-0.000000,9474.636058
1417.959718,1149.143247,-0.000000,9622.677246
1417.960035,919.314598,-0.000000,9548.656652
1417.960353,1455.581446,-74.020594,9326.594869
1417.960670,1225.752797,-0.000000,9400.615463
1417.960987,1455.581446,-0.000000,9474.636058
1417.961304,1302.362347,-0.000000,9474.636058
1417.961621,1378.971896,148.041188,9474.636058
1417.961938,1225.752797,-0.000000,9474.636058
1417.962256,1225.752797,-0.000000,9474.636058
1417.962573,842.705048,-0.000000,9548.656652
1417.962890,995.924147,-148.041188,9474.636058
1417.963207,1149.143247,-222.061783,9178.553681
1417.963524,1225.752797,-74.020594,9474.636058
1417.963841,919.314598,-222.061783,9474.636058
1417.964158,383.047749,-370.102971,9770.718434
1417.964476,612.876398,-222.061783,9474.636058
1417.964793,459.657299,-222.061783,9474.636058
1417.965110,536.266849,-296.082377,9622.677246
1417.965427,383.047749,-74.020594,9474.636058
1417.965744,536.266849,-74.020594,9474.636058
1417.966061,153.219100,-222.061783,9548.656652
1417.966379,306.438199,-0.000000,9474.636058
1417.966696,0.000000,-222.061783,9474.636058
1417.967013,0.000000,-148.041188,9474.636058
1417.967330,0.000000,-666.185348,9400.615463
1417.967647,0.000000,-74.020594,9474.636058
1417.967964,-229.828649,-222.061783,9326.594869
1417.968282,-306.438199,-296.082377,9252.574275
1417.968599,0.000000,-222.061783,9400.615463
1417.968916,0.000000,-0.000000,9474.636058
1417.969233,-153.219100,-0.000000,9400.615463
1417.969550,-306.438199,-222.061783,9178.553681
1417.969867,0.000000,-148.041188,9474.636058
1417.970184,0.000000,-148.041188,9474.636058
1417.970502,0.000000,-74.020594,9178.553681
1417.970819,76.609550,-74.020594,9252.574275
1417.971136,153.219100,-0.000000,9400.615463
1417.971453,306.438199,-74.020594,9252.574275
1417.971770,612.876398,-0.000000,9104.533087
1417.972087,766.095498,-0.000000,9252.574275
1417.972405,842.705048,222.061783,9252.574275
1417.972722,842.705048,-0.000000,9474.636058
1417.973039,1072.533697,-0.000000,9326.594869
1417.973356,1455.581446,296.082377,9252.574275
1417.973673,1225.752797,222.061783,9252.574275
1417.973990,1072.533697,296.082377,9178.553681
1417.974308,1532.190996,370.102971,9326.594869
1417.974625,1378.971896,222.061783,9178.553681
1417.974942,1532.190996,-74.020594,9178.553681
1417.975259,1378.971896,370.102971,9178.553681
1417.975576,1455.581446,518.144159,9326.594869
1417.975893,1532.190996,666.185348,9326.594869
1417.976211,1532.190996,592.164754,9252.574275
1417.976528,1532.190996,666.185348,9104.533087
1417.976845,1608.800546,814.226536,9326.594869
1417.977162,1762.019645,666.185348,9252.574275
1417.977479,1378.971896,740.205942,9178.553681
1417.977796,1915.238745,518.144159,9474.636058
1417.978113,1532.190996,814.226536,9474.636058
1417.978431,1072.533697,888.247130,9474.636058
1417.978748,766.095498,740.205942,9474.636058
1417.979065,689.485948,740.205942,9474.636058
1417.979382,306.438199,444.123565,9474.636058
1417.979699,383.047749,740.205942,9548.656652
1417.980016,229.828649,666.185348,9548.656652
1417.980334,229.828649,888.247130,9474.636058
1417.980651,383.047749,814.226536,9844.739029
1417.980968,0.000000,592.164754,9844.739029
1417.981285,0.000000,666.185348,9696.697840
1417.981602,306.438199,962.267725,9622.677246
1417.981919,229.828649,962.267725,9770.718434
1417.982237,383.047749,814.226536,9696.697840
1417.982554,383.047749,666.185348,9918.759623
1417.982871,306.438199,888.247130,9696.697840
1417.983188,306.438199,592.164754,9622.677246
1417.983505,536.266849,518.144159,9696.697840
1417.983822,689.485948,370.102971,9622.677246
1417.984139,229.828649,222.061783,9548.656652
1417.984457,383.047749,370.102971,9770.718434
1417.984774,383.047749,296.082377,9918.759623
1417.985091,536.266849,518.144159,9696.697840
1417.985408,842.705048,518.144159,9918.759623
1417.985725,612.876398,370.102971,9844.739029
1417.986042,766.095498,296.082377,9622.677246
1417.986360,766.095498,296.082377,9548.656652
1417.986677,842.705048,222.061783,9622.677246
1417.986994,995.924147,-0.000000,9326.594869
1417.987311,1149.143247,666.185348,9474.636058
1417.987628,1225.752797,444.123565,9474.636058
1417.987945,1225.752797,518.144159,9474.636058
1417.988263,1838.629195,74.020594,9400.615463
1417.988580,1685.410096,444.123565,9326.594869
1417.988897,1608.800546,-0.000000,9252.574275
1417.989214,1685.410096,222.061783,9178.553681
1417.989531,1608.800546,148.041188,9104.533087
1417.989848,1762.019645,222.061783,9178.553681
1417.990165,1302.362347,444.123565,8956.491898
1417.990483,1608.800546,444.123565,9178.553681
1417.990800,1378.971896,148.041188,9104.533087
1417.991117,1532.190996,-0.000000,9030.512492
1417.991434,1685.410096,-0.000000,9030.512492
1417.991751,1225.752797,-0.000000,9104.533087
1417.992068,1225.752797,296.082377,8734.430116
1417.992386,1072.533697,444.123565,8734.430116
1417.992703,995.924147,444.123565,8808.450710
1417.993020,766.095498,-0.000000,8956.491898
1417.993337,536.266849,148.041188,9030.512492
1417.993654,459.657299,-0.000000,9104.533087
1417.993971,383.047749,-0.000000,9178.553681
1417.994289,229.828649,-148.041188,9030.512492
1417.994606,76.609550,-370.102971,9400.615463
1417.994923,0.000000,-0.000000,8956.491898
1417.995240,0.000000,222.061783,9030.512492
1417.995557,0.000000,-0.000000,9178.553681
1417.995874,383.047749,-148.041188,9326.594869
1417.996191,-153.219100,-0.000000,9474.636058
1417.996509,0.000000,-148.041188,9474.636058
1417.996826,-229.828649,-74.020594,9400.615463
1417.997143,-153.219100,-0.000000,9474.636058
1417.997460,153.219100,-74.020594,9548.656652
1417.997777,0.000000,-0.000000,9548.656652
1417.998094,459.657299,-0.000000,9326.594869
1417.998412,0.000000,-148.041188,9474.636058
1417.998729,383.047749,-0.000000,9474.636058
1417.999046,766.095498,-0.000000,9474.636058
1417.999363,229.828649,222.061783,9548.656652
1417.999680,459.657299,-0.000000,9474.636058
1417.999997,459.657299,-0.000000,9548.656652
1418.000315,536.266849,370.102971,9770.718434
1418.000632,229.828649,370.102971,9622.677246
1418.000949,689.485948,74.020594,9548.656652
1418.001266,842.705048,518.144159,9770.718434
1418.001583,766.095498,444.123565,9696.697840
1418.001900,995.924147,592.164754,9548.656652
1418.002217,1302.362347,814.226536,9770.718434
1418.002535,1378.971896,592.164754,9844.739029
1418.002852,1302.362347,814.226536,9844.739029
1418.003169,1302.362347,888.247130,9548.656652
1418.003486,1685.410096,518.144159,9696.697840
1418.003803,1838.629195,592.164754,9696.697840
1418.004120,1608.800546,666.185348,9400.615463
1418.004438,1608.800546,888.247130,9474.636058
1418.004755,1838.629195,1110.308913,9474.636058
1418.005072,1991.848295,1110.308913,9548.656652
1418.005389,1762.019645,814.226536,9548.656652
1418.005706,1762.019645,962.267725,9474.636058
1418.006023,1685.410096,962.267725,9474.636058
1418.006341,1685.410096,740.205942,9326.594869
1418.006658,1685.410096,518.144159,9474.636058
1418.006975,1072.533697,740.205942,9548.656652
1418.007292,1302.362347,592.164754,9474.636058
1418.007609,919.314598,888.247130,9548.656652
1418.007926,1378.971896,592.164754,9474.636058
1418.008243,842.705048,518.144159,9400.615463
1418.008561,842.705048,962.267725,9400.615463
1418.008878,536.266849,740.205942,9474.636058
1418.009195,459.657299,592.164754,9548.656652
1418.009512,459.657299,518.144159,9474.636058
1418.009829,612.876398,296.082377,9622.677246
1418.010147,459.657299,444.123565,9474.636058
1418.010464,0.000000,666.185348,9696.697840
1418.010781,306.438199,518.144159,9474.636058
1418.011098,153.219100,370.102971,9548.656652
1418.011415,76.609550,444.123565,9696.697840
1418.011733,383.047749,370.102971,9178.553681
1418.012050,76.609550,296.082377,9400.615463
1418.012367,76.609550,222.061783,9326.594869
1418.012684,229.828649,-0.000000,9548.656652
1418.013001,0.000000,-74.020594,9474.636058
1418.013319,229.828649,148.041188,9474.636058
1418.013636,383.047749,-0.000000,9400.615463
1418.013953,383.047749,-0.000000,9326.594869
1418.014270,229.828649,-148.041188,9252.574275
1418.014587,229.828649,-0.000000,9474.636058
1418.014905,612.876398,148.041188,9400.615463
1418.015222,842.705048,-0.000000,9400.615463
1418.015539,766.095498,-0.000000,9104.533087
1418.015856,919.314598,-0.000000,9474.636058
1418.016173,612.876398,-0.000000,9326.594869
1418.016491,995.924147,222.061783,9178.553681
1418.016808,689.485948,-0.000000,9252.574275
1418.017125,919.314598,-0.000000,9474.636058
1418.017442,689.485948,-222.061783,9326.594869
1418.017759,995.924147,-0.000000,9326.594869
1418.018076,1149.143247,-0.000000,9178.553681
1418.018394,995.924147,-0.000000,9252.574275
1418.018711,1991.848295,-0.000000,9178.553681
1418.019028,1762.019645,-0.000000,9104.533087
1418.019345,1302.362347,222.061783,9326.594869
1418.019662,995.924147,-0.000000,9104.533087
1418.019980,1302.362347,-0.000000,9178.553681
1418.020297,1072.533697,-0.000000,8882.471304
1418.020614,842.705048,-0.000000,9252.574275
1418.020931,842.705048,-0.000000,9326.594869
1418.021248,842.705048,-0.000000,9400.615463
1418.021566,919.314598,-0.000000,9474.636058
1418.021883,766.095498,-0.000000,9548.656652
1418.022200,612.876398,-0.000000,9474.636058
1418.022517,383.047749,-296.082377,9326.594869
1418.022834,306.438199,-0.000000,9474.636058
1418.023152,306.438199,-148.041188,9548.656652
1418.023469,153.219100,-0.000000,9474.636058
1418.023786,76.609550,-148.041188,9474.636058
1418.024103,229.828649,-74.020594,9696.697840
1418.024420,0.000000,-148.041188,9474.636058
1418.024738,0.000000,-222.061783,9918.759623
1418.025055,0.000000,-222.061783,9548.656652
1418.025372,76.609550,-222.061783,9474.636058
1418.025689,0.000000,-222.061783,9474.636058
1418.026006,0.000000,-74.020594,9548.656652
1418.026323,76.609550,-370.102971,9474.636058
1418.026641,229.828649,-0.000000,9548.656652
1418.026958,383.047749,-0.000000,9918.759623
1418.027275,383.047749,-222.061783,9474.636058
1418.027592,306.438199,-0.000000,9696.697840
1418.027909,383.047749,-370.102971,9548.656652
1418.028227,536.266849,-74.020594,9474.636058
1418.028544,459.657299,-222.061783,9474.636058
1418.028861,383.047749,-0.000000,9474.636058
1418.029178,689.485948,-74.020594,9474.636058
1418.029495,766.095498,-370.102971,9622.677246
1418.029813,766.095498,-148.041188,9474.636058
1418.030130,766.095498,-0.000000,9548.656652
1418.030447,842.705048,-0.000000,9474.636058
1418.030764,1072.533697,148.041188,9474.636058
1418.031081,1455.581446,444.123565,9326.594869
1418.031399,1378.971896,-0.000000,9326.594869
1418.031716,1149.143247,222.061783,9400.615463
1418.032033,1378.971896,296.082377,9178.553681
1418.032350,1302.362347,370.102971,9178.553681
1418.032667,1455.581446,222.061783,9252.574275
1418.032985,1532.190996,370.102971,9030.512492
1418.033302,1608.800546,222.061783,9178.553681
1418.033619,1532.190996,444.123565,9104.533087
1418.033936,1378.971896,222.061783,9252.574275
1418.034253,1608.800546,-0.000000,9326.594869
1418.034571,1455.581446,592.164754,9178.553681
1418.034888,1149.143247,518.144159,9104.533087
1418.035205,1302.362347,444.123565,9104.533087
1418.035522,1072.533697,222.061783,9326.594869
1418.035839,842.705048,444.123565,9770.718434
1418.036156,919.314598,518.144159,9326.594869
1418.036474,1149.143247,518.144159,9474.636058
1418.036791,842.705048,518.144159,9400.615463
1418.037108,612.876398,296.082377,9474.636058
1418.037425,689.485948,592.164754,9252.574275
1418.037742,229.828649,370.102971,9474.636058
1418.038060,459.657299,296.082377,9548.656652
1418.038377,459.657299,296.082377,9548.656652
1418.038694,459.657299,-222.061783,9548.656652
1418.039011,0.000000,666.185348,9770.718434
1418.039328,459.657299,-0.000000,9474.636058
1418.039646,0.000000,296.082377,9622.677246
1418.039963,383.047749,148.041188,9474.636058
1418.040280,76.609550,148.041188,9474.636058
1418.040597,766.095498,-0.000000,10066.800811
1418.040914,153.219100,222.061783,9622.677246
1418.041232,0.000000,222.061783,9622.677246
1418.041549,383.047749,296.082377,9696.697840
1418.041866,383.047749,-0.000000,9622.677246
1418.042183,306.438199,-0.000000,9696.697840
1418.042500,459.657299,-0.000000,9622.677246
1418.042818,383.047749,148.041188,9622.677246
1418.043135,383.047749,148.041188,9696.697840
1418.043452,536.266849,-148.041188,9474.636058
1418.043769,766.095498,222.061783,9474.636058
1418.044086,689.485948,222.061783,9474.636058
1418.044403,766.095498,74.020594,9474.636058
1418.044721,1378.971896,-0.000000,9474.636058
1418.045038,995.924147,-74.020594,9400.615463
1418.045355,995.924147,222.061783,9400.615463
1418.045672,919.314598,296.082377,9400.615463
1418.045989,842.705048,296.082377,9474.636058
1418.046307,995.924147,296.082377,9326.594869
1418.046624,1378.971896,296.082377,9474.636058
1418.046941,1072.533697,-0.000000,9104.533087
1418.047258,1225.752797,-0.000000,9326.594869
1418.047575,1225.752797,148.041188,9178.553681
1418.047893,1225.752797,-0.000000,9474.636058
1418.048210,995.924147,-74.020594,9326.594869
1418.048527,842.705048,-74.020594,9400.615463
1418.048844,842.705048,-0.000000,9252.574275
1418.049161,842.705048,-0.000000,9252.574275
1418.049479,1225.752797,-74.020594,9178.553681
1418.049796,766.095498,-0.000000,9400.615463
1418.050113,612.876398,-148.041188,9252.574275
1418.050430,536.266849,-0.000000,9474.636058
1418.050747,612.876398,-0.000000,9474.636058
1418.051065,459.657299,-0.000000,9474.636058
1418.051382,306.438199,-0.000000,9400.615463
1418.051699,0.000000,-148.041188,9326.594869
1418.052016,229.828649,-0.000000,9104.533087
1418.052333,153.219100,-222.061783,9178.553681
1418.052651,306.438199,-222.061783,9030.512492
1418.052968,0.000000,-444.123565,9474.636058
1418.053285,0.000000,-444.123565,9400.615463
1418.053602,76.609550,-0.000000,9622.677246
1418.053919,0.000000,-74.020594,9474.636058
1418.054236,0.000000,74.020594,9400.615463
1418.054554,0.000000,-222.061783,9104.533087
1418.054871,0.000000,-0.000000,9474.636058
1418.055188,0.000000,-74.020594,9474.636058
1418.055505,0.000000,-74.020594,9326.594869
1418.055822,229.828649,-222.061783,9400.615463
1418.056140,306.438199,-74.020594,9474.636058
1418.056457,536.266849,-74.020594,9474.636058
1418.056774,689.485948,-0.000000,9400.615463
1418.057091,229.828649,-0.000000,9622.677246
1418.057408,766.095498,-0.000000,9326.594869
1418.057726,919.314598,-0.000000,9326.594869
1418.058043,995.924147,370.102971,9178.553681
1418.058360,1072.533697,296.082377,9178.553681
1418.058677,1149.143247,444.123565,9474.636058
1418.058994,1302.362347,518.144159,9474.636058
1418.059312,1455.581446,370.102971,9400.615463
1418.059629,1532.190996,444.123565,9178.553681
1418.059946,1685.410096,592.164754,9474.636058
1418.060263,1685.410096,592.164754,9104.533087
1418.060580,1608.800546,814.226536,9178.553681
1418.060898,1455.581446,592.164754,9326.594869
1418.061215,1838.629195,1036.288319,9252.574275
1418.061532,1991.848295,888.247130,9326.594869
1418.061849,2221.676944,1036.288319,9474.636058
1418.062166,1838.629195,1036.288319,9326.594869
1418.062483,1685.410096,1184.329507,9400.615463
1418.062801,1608.800546,1184.329507,9474.636058
1418.063118,1302.362347,888.247130,9474.636058
1418.063435,1532.190996,888.247130,9474.636058
1418.063752,1225.752797,1036.288319,9474.636058
1418.064069,842.705048,1036.288319,9474.636058
1418.064387,1072.533697,962.267725,9696.697840
1418.064704,766.095498,740.205942,9770.718434
1418.065021,766.095498,814.226536,9696.697840
1418.065338,536.266849,1110.308913,9474.636058
1418.065655,536.266849,888.247130,9622.677246
1418.065973,306.438199,814.226536,9548.656652
1418.066290,459.657299,592.164754,9622.677246
1418.066607,0.000000,888.247130,9696.697840
1418.066924,536.266849,814.226536,9696.697840
1418.067241,306.438199,518.144159,9770.718434
1418.067559,76.609550,296.082377,9622.677246
1418.067876,229.828649,592.164754,9548.656652
1418.068193,153.219100,592.164754,9770.718434
1418.068510,153.219100,592.164754,9770.718434
1418.068827,0.000000,370.102971,9696.697840
1418.069145,229.828649,296.082377,9770.718434
1418.069462,153.219100,296.082377,9622.677246
1418.069779,306.438199,518.144159,9696.697840
1418.070096,459.657299,518.144159,9622.677246
1418.070413,383.047749,296.082377,9474.636058
1418.070731,612.876398,-74.020594,9696.697840
1418.071048,689.485948,-0.000000,9622.677246
1418.071365,612.876398,222.061783,9474.636058
1418.071682,612.876398,148.041188,9474.636058
1418.071999,842.705048,222.061783,9548.656652
1418.072316,612.876398,444.123565,9622.677246
1418.072634,995.924147,148.041188,9400.615463
1418.072951,995.924147,518.144159,9474.636058
1418.073268,1149.143247,222.061783,9400.615463
1418.073585,1149.143247,-74.020594,9400.615463
1418.073902,995.924147,222.061783,9474.636058
1418.074220,1302.362347,-0.000000,9252.574275
1418.074537,1225.752797,222.061783,9104.533087
1418.074854,1455.581446,-0.000000,9252.574275
1418.075171,1302.362347,74.020594,9178.553681
1418.075488,1225.752797,-0.000000,9178.553681
1418.075806,1072.533697,-0.000000,9030.512492
1418.076123,1225.752797,-0.000000,9030.512492
1418.076440,1072.533697,-148.041188,8882.471304
1418.076757,1302.362347,-0.000000,9030.512492
1418.077074,1149.143247,-0.000000,9104.533087
1418.077392,1149.143247,296.082377,8956.491898
1418.077709,689.485948,-0.000000,9104.533087
1418.078026,919.314598,-0.000000,9178.553681
1418.078343,612.876398,-0.000000,9104.533087
1418.078660,536.266849,-0.000000,9252.574275
1418.078978,383.047749,-0.000000,9252.574275
1418.079295,612.876398,-0.000000,9178.553681
1418.079612,612.876398,-0.000000,9030.512492
1418.079929,0.000000,370.102971,9474.636058
1418.080246,306.438199,-74.020594,9400.615463
1418.080563,76.609550,148.041188,9400.615463
1418.080881,306.438199,-0.000000,9326.594869
1418.081198,459.657299,-0.000000,9326.594869
1418.081515,306.438199,296.082377,9770.718434
1418.081832,383.047749,-0.000000,9474.636058
1418.082149,153.219100,222.061783,9400.615463
1418.082467,229.828649,222.061783,9474.636058
1418.082784,229.828649,-0.000000,9548.656652
1418.083101,536.266849,-74.020594,9548.656652
1418.083418,153.219100,-0.000000,9548.656652
1418.083735,536.266849,148.041188,9548.656652
1418.084053,689.485948,-0.000000,9474.636058
1418.084370,536.266849,222.061783,9548.656652
1418.084687,383.047749,-0.000000,9474.636058
1418.085004,306.438199,296.082377,9548.656652
1418.085321,689.485948,296.082377,9474.636058
1418.085639,612.876398,296.082377,9474.636058
1418.085956,612.876398,148.041188,9622.677246
1418.086273,766.095498,518.144159,9918.759623
1418.086590,459.657299,296.082377,9548.656652
1418.086907,919.314598,666.185348,9474.636058
1418.087225,1072.533697,518.144159,9622.677246
1418.087542,1149.143247,592.164754,9622.677246
1418.087859,1149.143247,592.164754,9474.636058
1418.088176,1302.362347,592.164754,9474.636058
1418.088493,1532.190996,592.164754,9400.615463
1418.088811,1302.362347,592.164754,9548.656652
1418.089128,1608.800546,666.185348,9104.533087
1418.089445,1991.848295,814.226536,9770.718434
1418.089762,1378.971896,592.164754,9474.636058
1418.090079,1685.410096,814.226536,9474.636058
1418.090396,1838.629195,740.205942,9252.574275
1418.090714,1302.362347,814.226536,9474.636058
1418.091031,1455.581446,666.185348,9326.594869
1418.091348,1455.581446,592.164754,9400.615463
1418.091665,1302.362347,592.164754,9474.636058
1418.091982,1378.971896,518.144159,9326.594869
1418.092300,1302.362347,666.185348,9474.636058
1418.092617,919.314598,222.061783,9326.594869
1418.092934,1149.143247,518.144159,9548.656652
1418.093251,1149.143247,518.144159,9474.636058
1418.093568,766.095498,370.102971,9400.615463
1418.093886,995.924147,222.061783,9622.677246
1418.094203,536.266849,518.144159,9474.636058
1418.094520,612.876398,148.041188,9474.636058
1418.094837,689.485948,-0.000000,9326.594869
1418.095154,689.485948,-0.000000,9548.656652
1418.095472,689.485948,-0.000000,9918.759623
1418.095789,76.609550,148.041188,9548.656652
1418.096106,459.657299,-0.000000,9474.636058
1418.096423,229.828649,148.041188,9400.615463
1418.096740,229.828649,-0.000000,9548.656652
1418.097058,306.438199,222.061783,9474.636058
1418.097375,383.047749,-222.061783,9400.615463
1418.097692,383.047749,-0.000000,9548.656652
1418.098009,536.266849,-222.061783,9474.636058
1418.098326,383.047749,-0.000000,9548.656652
1418.098643,229.828649,-0.000000,9548.656652
1418.098961,536.266849,-0.000000,9474.636058
1418.099278,459.657299,-0.000000,9696.697840
1418.099595,536.266849,-74.020594,9252.574275
1418.099912,459.657299,-0.000000,9178.553681
1418.100229,842.705048,-0.000000,9326.594869
1418.100547,766.095498,-0.000000,9400.615463
1418.100864,919.314598,-74.020594,9474.636058
1418.101181,1302.362347,-74.020594,9326.594869
1418.101498,842.705048,-370.102971,9252.574275
1418.101815,1378.971896,-0.000000,9252.574275
1418.102133,1149.143247,-0.000000,9474.636058
1418.102450,1072.533697,-0.000000,9326.594869
1418.102767,1532.190996,-148.041188,9326.594869
1418.103084,1225.752797,-0.000000,9252.574275
1418.103401,1072.533697,-0.000000,9252.574275
1418.103719,1149.143247,-0.000000,8956.491898
1418.104036,842.705048,-0.000000,9252.574275
1418.104353,842.705048,148.041188,9474.636058
1418.104670,995.924147,-0.000000,9030.512492
1418.104987,842.705048,-74.020594,9326.594869
1418.105305,1072.533697,-0.000000,9326.594869
1418.105622,842.705048,-0.000000,9104.533087
1418.105939,766.095498,-296.082377,9400.615463
1418.106256,842.705048,-0.000000,9326.594869
1418.106573,612.876398,-0.000000,9474.636058
1418.106891,459.657299,148.041188,9400.615463
1418.107208,383.047749,148.041188,9326.594869
1418.107525,459.657299,-0.000000,9474.636058
1418.107842,306.438199,-148.041188,9474.636058
1418.108159,229.828649,-0.000000,9474.636058
1418.108476,306.438199,-0.000000,9548.656652
1418.108794,306.438199,-222.061783,9548.656652
1418.109111,153.219100,-74.020594,9548.656652
1418.109428,0.000000,-222.061783,9548.656652
1418.109745,0.000000,-0.000000,9474.636058
1418.110063,-229.828649,-222.061783,9474.636058
1418.110380,76.609550,-222.061783,9400.615463
1418.110697,0.000000,-0.000000,9548.656652
1418.111014,76.609550,-296.082377,9548.656652
1418.111332,76.609550,-0.000000,9474.636058
1418.111649,229.828649,-222.061783,9696.697840
1418.111966,766.095498,-0.000000,9992.780217
1418.112284,229.828649,-0.000000,9474.636058
1418.112601,229.828649,-0.000000,9622.677246
1418.112918,612.876398,222.061783,9400.615463
1418.113235,536.266849,-0.000000,9548.656652
1418.113553,306.438199,-370.102971,9400.615463
1418.113870,459.657299,-0.000000,9548.656652
1418.114187,689.485948,-0.000000,9474.636058
1418.114505,766.095498,222.061783,9474.636058
1418.114822,995.924147,148.041188,9474.636058
1418.115139,689.485948,-74.020594,9326.594869
1418.115457,766.095498,222.061783,9400.615463
1418.115774,995.924147,222.061783,9548.656652
1418.116091,1149.143247,370.102971,9474.636058
1418.116408,1302.362347,370.102971,9252.574275
1418.116726,1378.971896,518.144159,9474.636058
1418.117043,1608.800546,592.164754,9178.553681
1418.117360,1762.019645,444.123565,9400.615463
1418.117678,1608.800546,592.164754,9178.553681
1418.117995,1915.238745,518.144159,9252.574275
1418.118312,1608.800546,592.164754,9474.636058
1418.118629,1838.629195,444.123565,9252.574275
1418.118947,1455.581446,518.144159,9178.553681
1418.119264,1608.800546,518.144159,9326.594869
1418.119581,1455.581446,518.144159,9326.594869
1418.119899,1455.581446,592.164754,9326.594869
1418.120216,1225.752797,518.144159,9326.594869
1418.120533,1302.362347,518.144159,9326.594869
1418.120851,1072.533697,518.144159,9474.636058
1418.121168,1378.971896,444.123565,9252.574275
1418.121485,1149.143247,296.082377,9178.553681
1418.121802,459.657299,444.123565,9400.615463
1418.122120,536.266849,592.164754,9178.553681
1418.122437,689.485948,444.123565,9326.594869
1418.122754,766.095498,518.144159,9326.594869
1418.123072,229.828649,370.102971,9400.615463
1418.123389,766.095498,370.102971,9474.636058
1418.123706,383.047749,296.082377,9548.656652
1418.124023,229.828649,370.102971,9474.636058
1418.124341,229.828649,296.082377,9474.636058
1418.124658,229.828649,-0.000000,9622.677246
1418.124975,0.000000,222.061783,9474.636058
1418.125293,0.000000,370.102971,9474.636058
1418.125610,459.657299,-0.000000,9548.656652
1418.125927,153.219100,296.082377,9474.636058
1418.126244,229.828649,-0.000000,9622.677246
1418.126562,306.438199,-0.000000,9622.677246
1418.126879,536.266849,-0.000000,9622.677246
1418.127196,383.047749,-0.000000,9548.656652
1418.127514,229.828649,-0.000000,9548.656652
1418.127831,612.876398,-0.000000,10066.800811
1418.128148,536.266849,-0.000000,9696.697840
1418.128466,383.047749,-0.000000,9548.656652
1418.128783,459.657299,-0.000000,9696.697840
1418.129100,766.095498,-222.061783,9548.656652
1418.129417,459.657299,-0.000000,9474.636058
1418.129735,919.314598,-0.000000,9474.636058
1418.130052,536.266849,148.041188,9252.574275
1418.130369,842.705048,-0.000000,9474.636058
1418.130687,612.876398,-0.000000,9474.636058
1418.131004,995.924147,-74.020594,9400.615463
1418.131321,766.095498,-0.000000,9474.636058
1418.131638,842.705048,-0.000000,9326.594869
1418.131956,995.924147,-0.000000,9474.636058
1418.132273,766.095498,-296.082377,9548.656652
1418.132590,1072.533697,-0.000000,9252.574275
1418.132908,919.314598,-0.000000,9252.574275
1418.133225,995.924147,-0.000000,9178.553681
1418.133542,919.314598,296.082377,9178.553681
1418.133860,842.705048,-0.000000,9326.594869
1418.134177,919.314598,148.041188,9326.594869
1418.134494,1378.971896,-0.000000,9030.512492
1418.134811,842.705048,-0.000000,9178.553681
1418.135129,995.924147,-0.000000,9252.574275
1418.135446,919.314598,148.041188,9326.594869
1418.135763,842.705048,-0.000000,9326.594869
1418.136081,919.314598,-0.000000,9252.574275
1418.136398,612.876398,148.041188,9326.594869
1418.136715,383.047749,-148.041188,9252.574275
1418.137032,842.705048,-222.061783,9548.656652
1418.137350,153.219100,-74.020594,9400.615463
1418.137667,689.485948,-0.000000,9252.574275
1418.137984,459.657299,-0.000000,9400.615463
1418.138302,306.438199,-0.000000,9474.636058
1418.138619,536.266849,148.041188,9400.615463
1418.138936,459.657299,-0.000000,9326.594869
1418.139254,459.657299,-0.000000,9252.574275
1418.139571,153.219100,148.041188,9326.594869
1418.139888,383.047749,-74.020594,9400.615463
1418.140205,306.438199,444.123565,9400.615463
1418.140523,0.000000,74.020594,9326.594869
1418.140840,229.828649,148.041188,9548.656652
1418.141157,229.828649,148.041188,9474.636058
1418.141475,995.924147,148.041188,9326.594869
1418.141792,536.266849,148.041188,9474.636058
1418.142109,459.657299,370.102971,9474.636058
1418.142426,612.876398,592.164754,9400.615463
1418.142744,842.705048,370.102971,9400.615463
1418.143061,995.924147,592.164754,9548.656652
1418.143378,612.876398,296.082377,9474.636058
1418.143696,1149.143247,518.144159,9474.636058
1418.144013,919.314598,666.185348,9474.636058
1418.144330,1149.143247,666.185348,9474.636058
1418.144647,1378.971896,518.144159,9326.594869
1418.144965,1455.581446,740.205942,9474.636058
1418.145282,1608.800546,814.226536,9400.615463
1418.145599,1685.410096,814.226536,9474.636058
1418.145917,1685.410096,740.205942,9474.636058
1418.146234,1685.410096,666.185348,9474.636058
1418.146551,1762.019645,962.267725,9400.615463
1418.146869,1608.800546,666.185348,9474.636058
1418.147186,1532.190996,814.226536,9474.636058
1418.147503,1685.410096,888.247130,9622.677246
1418.147820,1455.581446,888.247130,9548.656652
1418.148138,1455.581446,962.267725,9622.677246
1418.148455,1302.362347,740.205942,9474.636058
1418.148772,1149.143247,592.164754,9622.677246
1418.149090,1302.362347,740.205942,9474.636058
1418.149407,1072.533697,518.144159,9548.656652
1418.149724,995.924147,666.185348,9696.697840
1418.150041,842.705048,592.164754,9474.636058
1418.150359,842.705048,518.144159,9548.656652
1418.150676,842.705048,296.082377,9622.677246
1418.150993,766.095498,444.123565,9474.636058
1418.151311,766.095498,592.164754,9622.677246
1418.151628,536.266849,296.082377,9622.677246
1418.151945,689.485948,296.082377,9474.636058
1418.152263,76.609550,370.102971,9548.656652
1418.152580,383.047749,370.102971,9696.697840
1418.152897,229.828649,444.123565,9474.636058
1418.153214,153.219100,-0.000000,9548.656652
1418.153532,229.828649,-0.000000,9696.697840
1418.153849,153.219100,222.061783,9548.656652
1418.154166,383.047749,-0.000000,9400.615463
1418.154484,306.438199,-0.000000,9474.636058
1418.154801,383.047749,-0.000000,9474.636058
1418.155118,459.657299,148.041188,9474.636058
1418.155435,459.657299,-0.000000,9474.636058
1418.155753,766.095498,148.041188,9400.615463
1418.156070,612.876398,-0.000000,9252.574275
1418.156387,995.924147,-74.020594,9548.656652
1418.156705,612.876398,-0.000000,9326.594869
1418.157022,536.266849,-0.000000,9326.594869
1418.157339,842.705048,222.061783,9326.594869
1418.157657,842.705048,-0.000000,8956.491898
1418.157974,1072.533697,-0.000000,9326.594869
1418.158291,766.095498,-0.000000,9326.594869
1418.158608,995.924147,-0.000000,9178.553681
1418.158926,919.314598,296.082377,9178.553681
1418.159243,919.314598,-0.000000,9178.553681
1418.159560,1072.533697,-148.041188,8956.491898
1418.159878,1302.362347,148.041188,9104.533087
1418.160195,1225.752797,222.061783,9104.533087
1418.160512,1072.533697,-0.000000,9178.553681
1418.160829,919.314598,148.041188,9326.594869
1418.161147,995.924147,-0.000000,9178.553681
1418.161464,919.314598,-0.000000,9252.574275
1418.161781,919.314598,148.041188,9104.533087
1418.162099,1072.533697,148.041188,9252.574275
1418.162416,995.924147,296.082377,9326.594869
1418.162733,919.314598,148.041188,9474.636058
1418.163051,919.314598,296.082377,9178.553681
1418.163368,995.924147,-0.000000,9252.574275
1418.163685,766.095498,222.061783,9252.574275
1418.164002,536.266849,-74.020594,9474.636058
1418.164320,536.266849,-0.000000,9178.553681
1418.164637,536.266849,148.041188,9326.594869
1418.164954,612.876398,-0.000000,9474.636058
1418.165272,383.047749,-0.000000,9474.636058
1418.165589,306.438199,-0.000000,9400.615463
1418.165906,383.047749,-0.000000,9400.615463
1418.166223,306.438199,-74.020594,9696.697840
1418.166541,306.438199,-0.000000,9400.615463
1418.166858,229.828649,-0.000000,9622.677246
1418.167175,76.609550,-0.000000,9622.677246
1418.167493,306.438199,148.041188,9548.656652
1418.167810,0.000000,222.061783,9548.656652
1418.168127,306.438199,222.061783,9548.656652
1418.168444,306.438199,-0.000000,9548.656652
1418.168762,306.438199,-222.061783,9696.697840
1418.169079,229.828649,-148.041188,9474.636058
1418.169396,229.828649,-0.000000,9474.636058
1418.169714,153.219100,-0.000000,9548.656652
1418.170031,229.828649,-74.020594,9622.677246
1418.170348,612.876398,-74.020594,9844.739029
1418.170666,536.266849,-0.000000,9696.697840
1418.170983,459.657299,-0.000000,9770.718434
1418.171300,689.485948,370.102971,9696.697840
1418.171617,995.924147,444.123565,9548.656652
1418.171935,995.924147,518.144159,9622.677246
1418.172252,1455.581446,222.061783,9474.636058
1418.172569,919.314598,222.061783,9400.615463
1418.172887,1149.143247,370.102971,9474.636058
1418.173204,1302.362347,444.123565,9474.636058
1418.173521,1302.362347,222.061783,9622.677246
1418.173838,1302.362347,518.144159,9400.615463
1418.174156,1685.410096,444.123565,9252.574275
1418.174473,1762.019645,592.164754,9178.553681
1418.174790,1762.019645,296.082377,9326.594869
1418.175108,1991.848295,148.041188,9252.574275
1418.175425,1378.971896,222.061783,9252.574275
1418.175742,1762.019645,370.102971,9178.553681
1418.176060,1685.410096,592.164754,9400.615463
1418.176377,1532.190996,666.185348,9326.594869
1418.176694,1608.800546,518.144159,9326.594869
1418.177011,1225.752797,518.144159,9400.615463
1418.177329,1149.143247,518.144159,9326.594869
1418.177646,1225.752797,592.164754,9178.553681
1418.177963,919.314598,518.144159,9252.574275
1418.178281,919.314598,518.144159,9400.615463
1418.178598,1149.143247,518.144159,9474.636058
1418.178915,919.314598,444.123565,9326.594869
1418.179232,766.095498,296.082377,9326.594869
1418.179550,536.266849,-0.000000,9474.636058
1418.179867,459.657299,370.102971,9400.615463
1418.180184,536.266849,296.082377,9400.615463
1418.180502,383.047749,370.102971,9622.677246
1418.180819,306.438199,444.123565,9474.636058
1418.181136,0.000000,-0.000000,9474.636058
1418.181454,306.438199,-0.000000,9622.677246
1418.181771,459.657299,-0.000000,9474.636058
1418.182088,229.828649,-0.000000,9548.656652
1418.182405,229.828649,-0.000000,9474.636058
1418.182723,76.609550,-222.061783,9622.677246
1418.183040,306.438199,-0.000000,9474.636058
1418.183357,229.828649,-0.000000,9548.656652
1418.183675,306.438199,-0.000000,9474.636058
1418.183992,306.438199,-74.020594,9696.697840
1418.184309,306.438199,-222.061783,9770.718434
1418.184626,229.828649,-0.000000,9474.636058
1418.184944,612.876398,-0.000000,9400.615463
1418.185261,612.876398,296.082377,9474.636058
1418.185578,536.266849,-148.041188,9474.636058
1418.185896,689.485948,-0.000000,9400.615463
1418.186213,536.266849,148.041188,9400.615463
1418.186530,536.266849,222.061783,9474.636058
1418.186847,689.485948,148.041188,9548.656652
1418.187165,689.485948,-0.000000,9548.656652
1418.187482,306.438199,-0.000000,9252.574275
1418.187799,766.095498,148.041188,9548.656652
1418.188117,612.876398,-0.000000,9474.636058
1418.188434,919.314598,-0.000000,9474.636058
1418.188751,612.876398,-0.000000,9474.636058
1418.189069,842.705048,-0.000000,9474.636058
1418.189386,689.485948,148.041188,9326.594869
1418.189703,1072.533697,148.041188,9474.636058
1418.190020,1302.362347,-222.061783,9326.594869
1418.190338,1072.533697,-0.000000,9474.636058
1418.190655,689.485948,-0.000000,9548.656652
1418.190972,995.924147,-0.000000,9252.574275
1418.191290,689.485948,-0.000000,9474.636058
1418.191607,919.314598,-0.000000,9474.636058
1418.191924,842.705048,-0.000000,9178.553681
1418.192241,536.266849,148.041188,9326.594869
1418.192559,842.705048,-0.000000,9326.594869
1418.192876,459.657299,-0.000000,9474.636058
1418.193193,536.266849,-74.020594,9104.533087
1418.193511,536.266849,-0.000000,9326.594869
1418.193828,459.657299,-0.000000,9400.615463
1418.194145,383.047749,-0.000000,9326.594869
1418.194463,229.828649,-74.020594,9474.636058
1418.194780,383.047749,-74.020594,9474.636058
1418.195097,536.266849,-148.041188,9400.615463
1418.195414,612.876398,-74.020594,9474.636058
1418.195732,383.047749,-74.020594,9474.636058
1418.196049,612.876398,-370.102971,9474.636058
1418.196366,306.438199,-74.020594,9400.615463
1418.196684,459.657299,-74.020594,9252.574275
1418.197001,536.266849,-0.000000,9474.636058
1418.197318,383.047749,-0.000000,9474.636058
1418.197635,842.705048,-0.000000,9326.594869
1418.197953,612.876398,-74.020594,9178.553681
1418.198270,306.438199,-0.000000,9474.636058
1418.198587,842.705048,-0.000000,9400.615463
1418.198905,1072.533697,-0.000000,9400.615463
1418.199222,689.485948,-0.000000,9548.656652
1418.199539,689.485948,148.041188,9474.636058
1418.199857,842.705048,222.061783,9474.636058
1418.200174,919.314598,222.061783,9400.615463
1418.200491,995.924147,148.041188,9326.594869
1418.200808,1532.190996,370.102971,9548.656652
1418.201126,1149.143247,222.061783,9474.636058
1418.201443,1302.362347,296.082377,9326.594869
1418.201760,1378.971896,222.061783,9178.553681
1418.202078,1608.800546,666.185348,9326.594869
1418.202395,1378.971896,444.123565,9178.553681
1418.202712,1302.362347,666.185348,9252.574275
1418.203029,1378.971896,666.185348,9178.553681
1418.203347,1302.362347,666.185348,9326.594869
1418.203664,1838.629195,518.144159,9400.615463
1418.203981,1225.752797,814.226536,9326.594869
1418.204299,1225.752797,740.205942,9252.574275
1418.204616,1072.533697,740.205942,9252.574275
1418.204933,1149.143247,592.164754,9400.615463
1418.205251,842.705048,222.061783,9548.656652
1418.205568,842.705048,666.185348,9474.636058
1418.205885,766.095498,666.185348,9474.636058
1418.206202,459.657299,666.185348,9474.636058
1418.206520,536.266849,740.205942,9474.636058
1418.206837,995.924147,518.144159,9474.636058
1418.207154,459.657299,814.226536,9474.636058
1418.207472,306.438199,814.226536,9548.656652
1418.207789,0.000000,370.102971,9474.636058
1418.208106,0.000000,370.102971,9548.656652
1418.208423,306.438199,222.061783,9992.780217
1418.208741,76.609550,296.082377,9696.697840
1418.209058,229.828649,370.102971,9770.718434
1418.209375,76.609550,296.082377,9770.718434
1418.209693,536.266849,444.123565,9548.656652
1418.210010,766.095498,296.082377,9474.636058
1418.210327,229.828649,444.123565,9548.656652
1418.210644,229.828649,444.123565,9622.677246
1418.210962,153.219100,222.061783,9548.656652
1418.211279,76.609550,296.082377,9696.697840
1418.211596,153.219100,296.082377,9770.718434
1418.211913,383.047749,148.041188,9474.636058
1418.212231,306.438199,296.082377,9696.697840
1418.212548,383.047749,296.082377,9696.697840
1418.212865,842.705048,592.164754,9622.677246
1418.213182,689.485948,-0.000000,9400.615463
1418.213500,459.657299,-0.000000,9474.636058
1418.213817,689.485948,444.123565,9474.636058
1418.214134,1225.752797,518.144159,9474.636058
1418.214451,1072.533697,444.123565,9548.656652
1418.214768,1225.752797,-0.000000,9326.594869
1418.215086,1149.143247,370.102971,9474.636058
1418.215403,1455.581446,444.123565,9252.574275
1418.215720,1378.971896,-0.000000,9326.594869
1418.216037,1532.190996,296.082377,9252.574275
1418.216354,1302.362347,148.041188,9326.594869
1418.216672,1302.362347,74.020594,8882.471304
1418.216989,1225.752797,148.041188,9252.574275
1418.217306,1302.362347,74.020594,9178.553681
1418.217623,1225.752797,222.061783,9326.594869
1418.217940,1149.143247,296.082377,9474.636058
1418.218258,1149.143247,222.061783,9252.574275
1418.218575,1225.752797,-0.000000,9252.574275
1418.218892,1072.533697,148.041188,9252.574275
1418.219209,766.095498,-0.000000,9326.594869
1418.219526,766.095498,-0.000000,9474.636058
1418.219844,612.876398,222.061783,9104.533087
1418.220161,842.705048,370.102971,9474.636058
1418.220478,536.266849,222.061783,9178.553681
1418.220795,536.266849,-74.020594,8956.491898
1418.221112,536.266849,-148.041188,9030.512492
1418.221430,306.438199,-0.000000,9178.553681
1418.221747,76.609550,-74.020594,9474.636058
1418.222064,306.438199,-148.041188,9400.615463
1418.222381,306.438199,-370.102971,9622.677246
1418.222698,229.828649,-0.000000,9548.656652
1418.223016,306.438199,-0.000000,9474.636058
1418.223333,0.000000,-0.000000,9474.636058
1418.223650,0.000000,-0.000000,9326.594869
1418.223967,153.219100,-0.000000,9178.553681
1418.224284,0.000000,-0.000000,9474.636058
1418.224602,-153.219100,-0.000000,9474.636058
1418.224919,0.000000,-0.000000,9474.636058
1418.225236,229.828649,222.061783,9622.677246
1418.225553,459.657299,-0.000000,9622.677246
1418.225871,153.219100,-0.000000,9770.718434
1418.226188,536.266849,148.041188,9622.677246
1418.226505,383.047749,222.061783,9474.636058
1418.226822,459.657299,-0.000000,9548.656652
1418.227139,689.485948,-0.000000,9400.615463
1418.227457,536.266849,296.082377,9474.636058
1418.227774,842.705048,222.061783,9474.636058
1418.228091,919.314598,-0.000000,9622.677246
1418.228408,1225.752797,296.082377,9326.594869
1418.228725,1378.971896,444.123565,9474.636058
1418.229043,1302.362347,296.082377,9474.636058
1418.229360,1532.190996,592.164754,9474.636058
1418.229677,1608.800546,592.164754,9400.615463
1418.229994,1762.019645,444.123565,9252.574275
1418.230311,1838.629195,814.226536,9400.615463
1418.230629,1838.629195,592.164754,9252.574275
1418.230946,1685.410096,592.164754,9474.636058
1418.231263,1762.019645,740.205942,9400.615463
1418.231580,1838.629195,592.164754,9326.594869
1418.231897,1762.019645,666.185348,9474.636058
1418.232215,1762.019645,814.226536,9474.636058
1418.232532,1532.190996,740.205942,9400.615463
1418.232849,1838.629195,814.226536,9400.615463
1418.233166,1532.190996,814.226536,9474.636058
1418.233483,1378.971896,888.247130,9474.636058
1418.233801,1149.143247,740.205942,9474.636058
1418.234118,1149.143247,592.164754,9326.594869
1418.234435,995.924147,518.144159,9696.697840
1418.234752,766.095498,814.226536,9474.636058
1418.235069,919.314598,740.205942,9400.615463
1418.235387,612.876398,444.123565,9400.615463
1418.235704,306.438199,592.164754,9400.615463
1418.236021,536.266849,518.144159,9474.636058
1418.236338,306.438199,296.082377,9622.677246
1418.236655,76.609550,370.102971,9474.636058
1418.236973,383.047749,296.082377,9474.636058
1418.237290,0.000000,518.144159,9622.677246
1418.237607,0.000000,370.102971,9548.656652
1418.237924,153.219100,296.082377,9548.656652
1418.238242,0.000000,222.061783,9548.656652
1418.238559,76.609550,518.144159,9622.677246
1418.238876,306.438199,222.061783,9548.656652
1418.239193,229.828649,222.061783,9474.636058
1418.239510,229.828649,-0.000000,9474.636058
1418.239828,536.266849,74.020594,9474.636058
1418.240145,536.266849,-0.000000,9326.594869
1418.240462,383.047749,-0.000000,9474.636058
1418.240779,383.047749,-0.000000,9474.636058
1418.241096,536.266849,148.041188,9474.636058
1418.241414,612.876398,-0.000000,9474.636058
1418.241731,383.047749,-0.000000,9548.656652
1418.242048,766.095498,-0.000000,9474.636058
1418.242365,842.705048,-0.000000,9252.574275
1418.242682,842.705048,-0.000000,9474.636058
1418.243000,842.705048,-222.061783,9474.636058
1418.243317,919.314598,-0.000000,9474.636058
1418.243634,842.705048,-0.000000,9474.636058
1418.243951,919.314598,-0.000000,9400.615463
1418.244268,995.924147,-148.041188,9104.533087
1418.244586,1072.533697,-0.000000,9104.533087
1418.244903,1149.143247,-0.000000,9326.594869
1418.245220,1149.143247,-0.000000,9104.533087
1418.245537,919.314598,-0.000000,9400.615463
1418.245854,1302.362347,-0.000000,9326.594869
1418.246172,1302.362347,-0.000000,9326.594869
1418.246489,995.924147,-0.000000,9252.574275
1418.246806,766.095498,-0.000000,9178.553681
1418.247123,842.705048,148.041188,9252.574275
1418.247440,995.924147,148.041188,9252.574275
1418.247758,919.314598,-0.000000,9326.594869
1418.248075,689.485948,-0.000000,9400.615463
1418.248392,842.705048,-74.020594,9400.615463
1418.248709,842.705048,-0.000000,9474.636058
1418.249026,766.095498,-0.000000,9474.636058
1418.249344,766.095498,-0.000000,9252.574275
1418.249661,995.924147,-74.020594,9400.615463
1418.249978,689.485948,-0.000000,9400.615463
1418.250295,229.828649,-0.000000,9474.636058
1418.250613,536.266849,148.041188,9326.594869
1418.250930,612.876398,-74.020594,9326.594869
1418.251247,306.438199,-74.020594,9474.636058
1418.251564,459.657299,-0.000000,9326.594869
1418.251881,306.438199,-0.000000,9474.636058
1418.252199,459.657299,-0.000000,9474.636058
1418.252516,383.047749,-0.000000,9326.594869
1418.252833,689.485948,-74.020594,9474.636058
1418.253150,459.657299,-0.000000,9326.594869
1418.253467,612.876398,-0.000000,9474.636058
1418.253785,612.876398,370.102971,9474.636058
1418.254102,306.438199,296.082377,9326.594869
1418.254419,766.095498,-0.000000,9474.636058
1418.254736,306.438199,74.020594,9474.636058
1418.255053,536.266849,296.082377,9474.636058
1418.255371,612.876398,296.082377,9474.636058
1418.255688,1225.752797,296.082377,9400.615463
1418.256005,842.705048,370.102971,9474.636058
1418.256322,1072.533697,296.082377,9548.656652
1418.256639,919.314598,222.061783,9474.636058
1418.256957,1302.362347,518.144159,9326.594869
1418.257274,842.705048,592.164754,9474.636058
1418.257591,1302.362347,592.164754,9474.636058
1418.257908,1225.752797,444.123565,9474.636058
1418.258225,995.924147,666.185348,9474.636058
1418.258543,1685.410096,666.185348,9474.636058
1418.258860,1685.410096,592.164754,9474.636058
1418.259177,1762.019645,444.123565,9252.574275
1418.259494,1532.190996,592.164754,9400.615463
1418.259811,1225.752797,666.185348,9474.636058
1418.260129,1225.752797,592.164754,9474.636058
1418.260446,1302.362347,666.185348,9474.636058
1418.260763,1149.143247,592.164754,9326.594869
1418.261080,1225.752797,370.102971,9400.615463
1418.261397,1149.143247,296.082377,9474.636058
1418.261715,919.314598,518.144159,9548.656652
1418.262032,919.314598,296.082377,9474.636058
1418.262349,919.314598,296.082377,9474.636058
1418.262666,689.485948,444.123565,9696.697840
1418.262984,842.705048,222.061783,9474.636058
1418.263301,842.705048,-0.000000,9252.574275
1418.263618,459.657299,148.041188,9474.636058
1418.263935,459.657299,-0.000000,9474.636058
1418.264252,153.219100,148.041188,9770.718434
1418.264570,383.047749,370.102971,9622.677246
1418.264887,689.485948,-0.000000,9548.656652
1418.265204,76.609550,-0.000000,9548.656652
1418.265521,0.000000,-0.000000,9696.697840
1418.265838,229.828649,-148.041188,9400.615463
1418.266156,76.609550,-0.000000,9474.636058
1418.266473,0.000000,-0.000000,9474.636058
1418.266790,76.609550,-0.000000,9474.636058
1418.267107,229.828649,-0.000000,9400.615463
1418.267424,229.828649,-0.000000,9548.656652
1418.267742,306.438199,-74.020594,9474.636058
1418.268059,459.657299,-0.000000,9474.636058
1418.268376,306.438199,-0.000000,9548.656652
1418.268693,612.876398,-74.020594,9326.594869
1418.269010,306.438199,-296.082377,9252.574275
1418.269328,383.047749,-444.123565,9326.594869
1418.269645,536.266849,-74.020594,9548.656652
1418.269962,766.095498,-0.000000,9252.574275
1418.270279,995.924147,-0.000000,9326.594869
1418.270596,689.485948,-0.000000,9326.594869
1418.270914,1608.800546,296.082377,9178.553681
1418.271231,842.705048,-0.000000,9474.636058
1418.271548,919.314598,-0.000000,9326.594869
1418.271865,1149.143247,-0.000000,9252.574275
1418.272182,1149.143247,148.041188,9104.533087
1418.272500,1302.362347,-0.000000,9178.553681
1418.272817,1378.971896,296.082377,9252.574275
1418.273134,1149.143247,-0.000000,9252.574275
1418.273451,1378.971896,-0.000000,9104.533087
1418.273768,1225.752797,-0.000000,9474.636058
1418.274086,1149.143247,-0.000000,9252.574275
1418.274403,995.924147,222.061783,9400.615463
1418.274720,766.095498,222.061783,9178.553681
1418.275037,842.705048,222.061783,9326.594869
1418.275355,689.485948,-0.000000,9400.615463
1418.275672,995.924147,148.041188,9400.615463
1418.275989,842.705048,-0.000000,9474.636058
1418.276306,612.876398,296.082377,9474.636058
1418.276623,536.266849,370.102971,9548.656652
1418.276941,612.876398,-222.061783,9474.636058
1418.277258,612.876398,222.061783,9474.636058
1418.277575,612.876398,-0.000000,9474.636058
1418.277892,459.657299,296.082377,9326.594869
1418.278209,995.924147,296.082377,9474.636058
1418.278527,383.047749,-0.000000,9326.594869
1418.278844,229.828649,222.061783,9474.636058
1418.279161,306.438199,-74.020594,9400.615463
1418.279478,306.438199,-74.020594,9474.636058
1418.279795,306.438199,296.082377,9622.677246
1418.280113,383.047749,-0.000000,9918.759623
1418.280430,459.657299,148.041188,9548.656652
1418.280747,229.828649,148.041188,9696.697840
1418.281064,0.000000,-0.000000,9548.656652
1418.281381,229.828649,-0.000000,9696.697840
1418.281699,76.609550,-0.000000,9622.677246
1418.282016,383.047749,-0.000000,9474.636058
1418.282333,306.438199,-0.000000,9696.697840
1418.282650,383.047749,-0.000000,9548.656652
1418.282967,766.095498,-0.000000,9474.636058
1418.283285,306.438199,-74.020594,9622.677246
1418.283602,766.095498,296.082377,9622.677246
1418.283919,689.485948,148.041188,9474.636058
1418.284236,842.705048,-0.000000,9474.636058
1418.284553,612.876398,148.041188,9622.677246
1418.284871,842.705048,370.102971,9474.636058
1418.285188,1072.533697,148.041188,9622.677246
1418.285505,1302.362347,222.061783,9474.636058
1418.285822,1149.143247,222.061783,9474.636058
1418.286139,1225.752797,222.061783,9474.636058
1418.286457,1378.971896,444.123565,9178.553681
1418.286774,1455.581446,740.205942,9548.656652
1418.287091,1532.190996,296.082377,9326.594869
1418.287408,1608.800546,666.185348,9400.615463
1418.287726,1991.848295,518.144159,9326.594869
1418.288043,1762.019645,444.123565,9400.615463
1418.288360,1685.410096,592.164754,9104.533087
1418.288677,1532.190996,666.185348,9030.512492
1418.288994,919.314598,740.205942,9030.512492
1418.289312,1608.800546,592.164754,9178.553681
1418.289629,1302.362347,518.144159,9400.615463
1418.289946,1455.581446,592.164754,8956.491898
1418.290263,995.924147,592.164754,9178.553681
1418.290580,1149.143247,518.144159,9252.574275
1418.290898,1072.533697,740.205942,9252.574275
1418.291215,612.876398,370.102971,9474.636058
1418.291532,459.657299,296.082377,9326.594869
1418.291849,689.485948,518.144159,9326.594869
1418.292166,919.314598,592.164754,9474.636058
1418.292484,459.657299,148.041188,9104.533087
1418.292801,459.657299,518.144159,9400.615463
1418.293118,306.438199,296.082377,9400.615463
1418.293435,536.266849,370.102971,9400.615463
1418.293752,-229.828649,370.102971,9918.759623
1418.294070,153.219100,296.082377,9474.636058
1418.294387,153.219100,296.082377,9474.636058
1418.294704,0.000000,222.061783,9474.636058
1418.295021,229.828649,296.082377,9548.656652
1418.295338,229.828649,370.102971,9474.636058
1418.295656,383.047749,222.061783,9474.636058
1418.295973,76.609550,222.061783,9474.636058
1418.296290,229.828649,222.061783,9548.656652
1418.296607,229.828649,-0.000000,9474.636058
1418.296924,536.266849,222.061783,9770.718434
1418.297242,229.828649,-0.000000,9474.636058
1418.297559,383.047749,222.061783,9548.656652
1418.297876,612.876398,148.041188,9622.677246
1418.298193,766.095498,370.102971,9992.780217
1418.298510,766.095498,-0.000000,9474.636058
1418.298828,383.047749,-0.000000,9474.636058
1418.299145,995.924147,296.082377,9474.636058
1418.299462,536.266849,74.020594,9400.615463
1418.299779,919.314598,-0.000000,9474.636058
1418.300097,1072.533697,148.041188,9474.636058
1418.300414,1149.143247,-0.000000,9400.615463
1418.300731,1072.533697,-0.000000,9474.636058
1418.301048,995.924147,222.061783,9548.656652
1418.301365,1378.971896,-74.020594,9252.574275
1418.301683,1302.362347,222.061783,9178.553681
1418.302000,1149.143247,148.041188,9474.636058
1418.302317,1225.752797,148.041188,9400.615463
1418.302634,842.705048,148.041188,9326.594869
1418.302951,1532.190996,148.041188,9400.615463
1418.303269,842.705048,-0.000000,9178.553681
1418.303586,919.314598,-0.000000,9326.594869
1418.303903,919.314598,-0.000000,9178.553681
1418.304220,612.876398,148.041188,9252.574275
1418.304537,842.705048,-0.000000,9326.594869
1418.304855,766.095498,-0.000000,9252.574275
1418.305172,612.876398,-0.000000,9474.636058
1418.305489,842.705048,-0.000000,9178.553681
1418.305806,842.705048,-0.000000,9252.574275
1418.306123,459.657299,-0.000000,9104.533087
1418.306441,459.657299,-222.061783,9104.533087
1418.306758,383.047749,148.041188,9252.574275
1418.307075,536.266849,-0.000000,9326.594869
1418.307392,842.705048,-0.000000,9400.615463
1418.307709,306.438199,-0.000000,9400.615463
1418.308027,459.657299,-0.000000,9400.615463
1418.308344,459.657299,-0.000000,9474.636058
1418.308661,766.095498,-0.000000,9252.574275
1418.308978,689.485948,-0.000000,9326.594869
1418.309295,459.657299,-0.000000,9474.636058
1418.309613,536.266849,148.041188,9252.574275
1418.309930,536.266849,222.061783,9400.615463
1418.310247,612.876398,-0.000000,9474.636058
1418.310564,459.657299,-0.000000,9252.574275
1418.310882,459.657299,222.061783,9474.636058
1418.311199,612.876398,296.082377,9474.636058
1418.311516,612.876398,296.082377,9474.636058
1418.311833,689.485948,-148.041188,9622.677246
1418.312150,383.047749,-74.020594,9326.594869
1418.312468,689.485948,222.061783,9548.656652
1418.312785,766.095498,296.082377,9400.615463
1418.313102,842.705048,444.123565,9474.636058
1418.313419,919.314598,370.102971,9696.697840
1418.313737,919.314598,518.144159,9400.615463
1418.314054,1149.143247,370.102971,9252.574275
1418.314371,1149.143247,518.144159,9400.615463
1418.314688,1072.533697,444.123565,9400.615463
1418.315005,1685.410096,370.102971,9178.553681
1418.315323,1225.752797,666.185348,9474.636058
1418.315640,1762.019645,814.226536,9326.594869
1418.315957,1532.190996,740.205942,9474.636058
1418.316274,1532.190996,814.226536,9474.636058
1418.316592,1762.019645,666.185348,9474.636058
1418.316909,1378.971896,666.185348,9474.636058
1418.317226,1302.362347,666.185348,9474.636058
1418.317543,1455.581446,740.205942,9400.615463
1418.317861,1149.143247,962.267725,9696.697840
1418.318178,1149.143247,740.205942,9770.718434
1418.318495,1072.533697,592.164754,9474.636058
1418.318812,1072.533697,592.164754,9474.636058
1418.319129,1072.533697,370.102971,9474.636058
1418.319447,995.924147,518.144159,9548.656652
1418.319764,766.095498,814.226536,9918.759623
1418.320081,766.095498,518.144159,9474.636058
1418.320398,689.485948,444.123565,9474.636058
1418.320716,536.266849,370.102971,9474.636058
1418.321033,612.876398,370.102971,9548.656652
1418.321350,459.657299,370.102971,9696.697840
1418.321667,153.219100,222.061783,9548.656652
1418.321984,153.219100,370.102971,9844.739029
1418.322302,229.828649,-0.000000,9548.656652
1418.322619,229.828649,74.020594,9548.656652
1418.322936,229.828649,222.061783,9474.636058
1418.323253,306.438199,296.082377,9696.697840
1418.323571,153.219100,222.061783,9474.636058
1418.323888,306.438199,-0.000000,9548.656652
1418.324205,229.828649,-222.061783,9548.656652
1418.324522,229.828649,296.082377,9844.739029
1418.324839,383.047749,148.041188,9770.718434
1418.325157,383.047749,-0.000000,9474.636058
1418.325474,229.828649,148.041188,9474.636058
1418.325791,459.657299,-0.000000,9400.615463
1418.326108,536.266849,148.041188,9474.636058
1418.326426,459.657299,-0.000000,9474.636058
1418.326743,612.876398,-74.020594,9474.636058
1418.327060,689.485948,-0.000000,9400.615463
1418.327377,689.485948,-0.000000,9548.656652
1418.327694,1072.533697,-0.000000,9474.636058
1418.328012,1072.533697,-0.000000,9326.594869
1418.328329,919.314598,-0.000000,9474.636058
1418.328646,919.314598,148.041188,9252.574275
1418.328963,919.314598,222.061783,9474.636058
1418.329281,1378.971896,-0.000000,9326.594869
1418.329598,1225.752797,-0.000000,9178.553681
1418.329915,1225.752797,-0.000000,9252.574275
1418.330232,1225.752797,148.041188,9326.594869
1418.330549,1378.971896,222.061783,8956.491898
1418.330867,995.924147,-0.000000,9252.574275
1418.331184,1149.143247,222.061783,9178.553681
1418.331501,1072.533697,-0.000000,9178.553681
1418.331818,1072.533697,-74.020594,9104.533087
1418.332136,1302.362347,-0.000000,9104.533087
1418.332453,1149.143247,-0.000000,9178.553681
1418.332770,689.485948,-0.000000,9326.594869
1418.333087,919.314598,370.102971,9104.533087
1418.333405,536.266849,-74.020594,9252.574275
1418.333722,995.924147,-0.000000,9400.615463
1418.334039,612.876398,-0.000000,9474.636058
1418.334356,459.657299,-0.000000,9252.574275
1418.334673,153.219100,-74.020594,9474.636058
1418.334991,229.828649,-74.020594,9474.636058
1418.335308,76.609550,-0.000000,9548.656652
1418.335625,0.000000,-0.000000,9474.636058
1418.335942,229.828649,-0.000000,9474.636058
1418.336260,153.219100,-74.020594,9400.615463
1418.336577,0.000000,-0.000000,9400.615463
1418.336894,0.000000,-148.041188,9474.636058
1418.337211,0.000000,-296.082377,9770.718434
1418.337528,153.219100,-148.041188,9548.656652
1418.337846,153.219100,-222.061783,9696.697840
1418.338163,0.000000,-148.041188,9548.656652
1418.338480,153.219100,-0.000000,9622.677246
1418.338797,459.657299,-0.000000,9548.656652
1418.339115,383.047749,148.041188,9548.656652
1418.339432,459.657299,148.041188,9474.636058
1418.339749,383.047749,-0.000000,9474.636058
1418.340066,536.266849,518.144159,9696.697840
1418.340383,612.876398,-0.000000,9696.697840
1418.340701,766.095498,370.102971,9622.677246
1418.341018,612.876398,148.041188,9696.697840
1418.341335,1072.533697,-0.000000,9548.656652
1418.341652,919.314598,444.123565,9548.656652
1418.341970,1072.533697,222.061783,9474.636058
1418.342287,1455.581446,592.164754,9474.636058
1418.342604,1302.362347,444.123565,9326.594869
1418.342921,1838.629195,666.185348,9474.636058
1418.343238,1532.190996,740.205942,9400.615463
1418.343556,1915.238745,592.164754,9400.615463
1418.343873,1455.581446,814.226536,9474.636058
1418.344190,1608.800546,740.205942,9400.615463
1418.344507,1608.800546,296.082377,9474.636058
1418.344825,1838.629195,740.205942,9178.553681
1418.345142,1455.581446,814.226536,9400.615463
1418.345459,1455.581446,666.185348,9326.594869
1418.345776,1455.581446,592.164754,9252.574275
1418.346093,1455.581446,666.185348,9326.594869
1418.346411,1225.752797,370.102971,9400.615463
1418.346728,842.705048,740.205942,9474.636058
1418.347045,919.314598,592.164754,9474.636058
1418.347362,306.438199,296.082377,9252.574275
1418.347680,612.876398,370.102971,9400.615463
1418.347997,612.876398,518.144159,9326.594869
1418.348314,689.485948,444.123565,9474.636058
1418.348631,536.266849,444.123565,9474.636058
1418.348948,383.047749,296.082377,9548.656652
1418.349266,612.876398,592.164754,9474.636058
1418.349583,459.657299,444.123565,9178.553681
1418.349900,229.828649,518.144159,9622.677246
1418.350217,306.438199,518.144159,9548.656652
1418.350535,306.438199,296.082377,9696.697840
1418.350852,0.000000,370.102971,9696.697840
1418.351169,229.828649,148.041188,9474.636058
1418.351486,76.609550,296.082377,9474.636058
1418.351804,153.219100,-0.000000,9622.677246
1418.352121,459.657299,592.164754,9770.718434
1418.352438,383.047749,444.123565,9474.636058
1418.352755,76.609550,148.041188,9622.677246
1418.353072,459.657299,74.020594,9474.636058
1418.353390,612.876398,-0.000000,9844.739029
1418.353707,383.047749,-0.000000,9548.656652
1418.354024,612.876398,-0.000000,9548.656652
1418.354341,459.657299,-0.000000,9474.636058
1418.354659,612.876398,-0.000000,9326.594869
1418.354976,919.314598,-74.020594,9400.615463
1418.355293,995.924147,-0.000000,9474.636058
1418.355610,842.705048,-0.000000,9400.615463
1418.355927,1149.143247,-0.000000,9474.636058
1418.356245,1149.143247,-74.020594,9548.656652
1418.356562,1072.533697,-0.000000,9474.636058
1418.356879,1149.143247,-0.000000,9474.636058
1418.357196,1072.533697,-0.000000,9326.594869
1418.357514,1072.533697,-0.000000,9326.594869
1418.357831,995.924147,-0.000000,9548.656652
1418.358148,1302.362347,-0.000000,9178.553681
1418.358465,1225.752797,-0.000000,9178.553681
1418.358782,1072.533697,148.041188,9326.594869
1418.359100,1149.143247,296.082377,9252.574275
1418.359417,1149.143247,-148.041188,9252.574275
1418.359734,1072.533697,-74.020594,9178.553681
1418.360051,1072.533697,-0.000000,9400.615463
1418.360369,1149.143247,-0.000000,9326.594869
1418.360686,842.705048,222.061783,9178.553681
1418.361003,689.485948,222.061783,9474.636058
1418.361320,766.095498,-0.000000,9178.553681
1418.361637,919.314598,-0.000000,9252.574275
1418.361955,689.485948,-0.000000,9326.594869
1418.362272,689.485948,-0.000000,9400.615463
1418.362589,0.000000,-0.000000,9400.615463
1418.362906,919.314598,-0.000000,9252.574275
1418.363224,383.047749,-0.000000,9400.615463
1418.363541,229.828649,-0.000000,9326.594869
1418.363858,229.828649,-0.000000,9400.615463
1418.364175,0.000000,-0.000000,9326.594869
1418.364492,383.047749,-0.000000,9326.594869
1418.364810,0.000000,148.041188,9474.636058
1418.365127,306.438199,148.041188,9326.594869
1418.365444,229.828649,-222.061783,9400.615463
1418.365761,0.000000,222.061783,9030.512492
1418.366079,229.828649,148.041188,9474.636058
1418.366396,229.828649,-0.000000,9474.636058
1418.366713,306.438199,370.102971,9474.636058
1418.367030,76.609550,222.061783,9474.636058
1418.367348,0.000000,148.041188,9622.677246
1418.367665,306.438199,370.102971,9622.677246
1418.367982,459.657299,370.102971,9474.636058
1418.368299,612.876398,370.102971,9474.636058
1418.368616,766.095498,592.164754,9474.636058
1418.368934,459.657299,296.082377,9696.697840
1418.369251,766.095498,296.082377,9474.636058
1418.369568,766.095498,518.144159,9474.636058
1418.369885,1149.143247,592.164754,9548.656652
1418.370203,995.924147,370.102971,9474.636058
1418.370520,995.924147,518.144159,9918.759623
1418.370837,1072.533697,592.164754,9622.677246
1418.371154,1378.971896,592.164754,9400.615463
1418.371471,1685.410096,740.205942,9252.574275
1418.371789,1455.581446,740.205942,9400.615463
1418.372106,1685.410096,222.061783,9252.574275
1418.372423,1455.581446,814.226536,9622.677246
1418.372740,1532.190996,888.247130,9548.656652
1418.373058,1608.800546,666.185348,9400.615463
1418.373375,1455.581446,740.205942,9474.636058
1418.373692,1608.800546,740.205942,9326.594869
1418.374009,1378.971896,592.164754,9474.636058
1418.374326,1302.362347,740.205942,9474.636058
1418.374644,1149.143247,666.185348,9474.636058
1418.374961,1302.362347,518.144159,9400.615463
1418.375278,919.314598,444.123565,9844.739029
1418.375595,995.924147,518.144159,9622.677246
1418.375913,919.314598,518.144159,9622.677246
1418.376230,766.095498,444.123565,9622.677246
1418.376547,612.876398,518.144159,9622.677246
1418.376864,459.657299,296.082377,9622.677246
1418.377181,612.876398,370.102971,9548.656652
1418.377499,306.438199,518.144159,9548.656652
1418.377816,229.828649,-0.000000,9400.615463
1418.378133,306.438199,-0.000000,9474.636058
1418.378450,76.609550,-0.000000,9548.656652
1418.378768,76.609550,296.082377,9622.677246
1418.379085,306.438199,148.041188,9474.636058
1418.379402,306.438199,222.061783,9474.636058
1418.379719,153.219100,-0.000000,9474.636058
1418.380036,153.219100,-0.000000,9474.636058
1418.380354,0.000000,-0.000000,9548.656652
1418.380671,306.438199,148.041188,9400.615463
1418.380988,459.657299,-0.000000,9400.615463
1418.381305,612.876398,-74.020594,9474.636058
1418.381623,306.438199,-0.000000,9474.636058
1418.381940,306.438199,-0.000000,9474.636058
1418.382257,536.266849,-74.020594,9326.594869
1418.382574,612.876398,148.041188,9474.636058
1418.382892,766.095498,-0.000000,9178.553681
1418.383209,766.095498,-0.000000,9252.574275
1418.383526,842.705048,-0.000000,9104.533087
1418.383843,766.095498,-0.000000,9400.615463
1418.384160,995.924147,-0.000000,9252.574275
1418.384478,1072.533697,148.041188,9326.594869
1418.384795,919.314598,-0.000000,8808.450710
1418.385112,842.705048,-0.000000,8956.491898
1418.385429,1225.752797,222.061783,9030.512492
1418.385747,1225.752797,-0.000000,9104.533087
1418.386064,1225.752797,-222.061783,9178.553681
1418.386381,1072.533697,-0.000000,9104.533087
1418.386698,1072.533697,148.041188,9104.533087
1418.387015,1225.752797,148.041188,9326.594869
1418.387333,919.314598,148.041188,9326.594869
1418.387650,1149.143247,148.041188,9548.656652
1418.387967,995.924147,148.041188,9474.636058
1418.388284,1225.752797,370.102971,9326.594869
1418.388602,995.924147,-0.000000,9252.574275
1418.388919,842.705048,-0.000000,9252.574275
1418.389236,1149.143247,-74.020594,9252.574275
1418.389553,919.314598,222.061783,9104.533087
1418.389870,842.705048,148.041188,9326.594869
1418.390188,536.266849,-0.000000,9474.636058
1418.390505,612.876398,-0.000000,9400.615463
1418.390822,459.657299,-74.020594,9548.656652
1418.391139,612.876398,-0.000000,9474.636058
1418.391457,229.828649,-148.041188,9548.656652
1418.391774,306.438199,-0.000000,9696.697840
1418.392091,229.828649,-0.000000,9474.636058
1418.392408,383.047749,-0.000000,10066.800811
1418.392725,0.000000,-0.000000,9622.677246
1418.393043,153.219100,-0.000000,9696.697840
1418.393360,229.828649,-0.000000,9548.656652
1418.393677,459.657299,296.082377,9770.718434
1418.393994,536.266849,-0.000000,9696.697840
1418.394312,306.438199,-0.000000,9696.697840
1418.394629,153.219100,-0.000000,9770.718434
1418.394946,689.485948,-0.000000,9622.677246
1418.395263,383.047749,-0.000000,9622.677246
1418.395580,459.657299,-0.000000,9474.636058
1418.395898,383.047749,-0.000000,9474.636058
1418.396215,306.438199,148.041188,9548.656652
1418.396532,612.876398,148.041188,9548.656652
1418.396849,689.485948,-148.041188,9548.656652
1418.397167,842.705048,296.082377,9696.697840
1418.397484,536.266849,-0.000000,9474.636058
1418.397801,1072.533697,-0.000000,9622.677246
1418.398118,919.314598,-0.000000,9474.636058
1418.398435,1532.190996,222.061783,9474.636058
1418.398753,1378.971896,370.102971,9400.615463
1418.399070,1302.362347,444.123565,9400.615463
1418.399387,1608.800546,518.144159,9252.574275
1418.399704,1455.581446,592.164754,9178.553681
1418.400022,1532.190996,518.144159,9326.594869
1418.400339,1378.971896,148.041188,9104.533087
1418.400656,1532.190996,740.205942,9178.553681
1418.400973,1685.410096,518.144159,9178.553681
1418.401291,1532.190996,666.185348,9252.574275
1418.401608,1608.800546,296.082377,9326.594869
1418.401925,1608.800546,592.164754,9030.512492
1418.402242,1378.971896,592.164754,9252.574275
1418.402559,1225.752797,592.164754,9030.512492
1418.402877,1685.410096,518.144159,9252.574275
1418.403194,1072.533697,296.082377,9326.594869
1418.403511,1149.143247,740.205942,9400.615463
1418.403828,766.095498,518.144159,9326.594869
1418.404146,1072.533697,518.144159,9326.594869
1418.404463,919.314598,222.061783,9400.615463
1418.404780,842.705048,518.144159,9400.615463
1418.405097,536.266849,518.144159,9400.615463
1418.405414,306.438199,518.144159,9326.594869
1418.405732,306.438199,444.123565,9400.615463
1418.406049,306.438199,444.123565,9474.636058
1418.406366,76.609550,370.102971,9474.636058
1418.406683,153.219100,370.102971,9696.697840
1418.407001,229.828649,148.041188,9474.636058
1418.407318,229.828649,222.061783,9548.656652
1418.407635,0.000000,518.144159,9770.718434
1418.407952,76.609550,222.061783,9770.718434
1418.408269,306.438199,370.102971,9696.697840
1418.408587,229.828649,296.082377,9548.656652
1418.408904,153.219100,-0.000000,9696.697840
1418.409221,76.609550,148.041188,9548.656652
1418.409538,306.438199,222.061783,9770.718434
1418.409856,306.438199,296.082377,9622.677246
1418.410173,459.657299,148.041188,9696.697840
1418.410490,459.657299,-74.020594,9474.636058
1418.410807,612.876398,74.020594,9622.677246
1418.411124,612.876398,370.102971,9696.697840
1418.411442,612.876398,148.041188,9548.656652
1418.411759,919.314598,-0.000000,9474.636058
1418.412076,919.314598,370.102971,9474.636058
1418.412393,1072.533697,444.123565,9474.636058
1418.412711,1149.143247,444.123565,9474.636058
1418.413028,995.924147,-0.000000,9474.636058
1418.413345,995.924147,-74.020594,9918.759623
1418.413663,1072.533697,-0.000000,9400.615463
1418.413980,1072.533697,222.061783,9400.615463
1418.414297,995.924147,148.041188,9622.677246
1418.414614,1225.752797,370.102971,9326.594869
1418.414932,1225.752797,-0.000000,9548.656652
1418.415249,1149.143247,-0.000000,9400.615463
1418.415566,1302.362347,-0.000000,9178.553681
1418.415883,1072.533697,-0.000000,9326.594869
1418.416201,1225.752797,222.061783,9400.615463
1418.416518,1225.752797,-74.020594,9104.533087
1418.416835,919.314598,148.041188,9326.594869
1418.417152,919.314598,148.041188,9326.594869
1418.417470,919.314598,-0.000000,9178.553681
1418.417787,766.095498,74.020594,9326.594869
1418.418104,689.485948,-0.000000,9326.594869
1418.418421,1149.143247,-74.020594,9252.574275
1418.418739,612.876398,-0.000000,9326.594869
1418.419056,306.438199,-0.000000,9326.594869
1418.419373,459.657299,-0.000000,9326.594869
1418.419690,76.609550,-148.041188,9400.615463
1418.420008,153.219100,-296.082377,9400.615463
1418.420325,229.828649,-74.020594,9252.574275
1418.420642,229.828649,-0.000000,9474.636058
1418.420959,306.438199,-0.000000,9326.594869
1418.421277,229.828649,-74.020594,9252.574275
1418.421594,153.219100,-0.000000,9326.594869
1418.421911,306.438199,222.061783,9178.553681
1418.422228,306.438199,148.041188,9474.636058
1418.422546,612.876398,-0.000000,9400.615463
1418.422863,919.314598,296.082377,9548.656652
1418.423180,306.438199,148.041188,9326.594869
1418.423497,459.657299,-0.000000,9178.553681
1418.423815,459.657299,-0.000000,9326.594869
1418.424132,383.047749,-0.000000,9326.594869
1418.424449,689.485948,-74.020594,9400.615463
1418.424766,536.266849,148.041188,9326.594869
1418.425084,689.485948,-0.000000,9326.594869
1418.425401,766.095498,370.102971,9474.636058
1418.425718,842.705048,370.102971,9474.636058
1418.426036,689.485948,148.041188,9326.594869
1418.426353,995.924147,370.102971,9400.615463
1418.426670,995.924147,444.123565,9474.636058
1418.426987,1302.362347,518.144159,9474.636058
1418.427305,1608.800546,370.102971,9474.636058
1418.427622,1149.143247,666.185348,9474.636058
1418.427939,1455.581446,518.144159,9326.594869
1418.428256,1225.752797,740.205942,9326.594869
1418.428574,1378.971896,592.164754,9474.636058
1418.428891,1455.581446,740.205942,9326.594869
1418.429208,1302.362347,592.164754,9474.636058
1418.429525,1608.800546,740.205942,9474.636058
1418.429843,1378.971896,814.226536,9474.636058
1418.430160,1302.362347,814.226536,9474.636058
1418.430477,1149.143247,666.185348,9622.677246
1418.430794,1149.143247,740.205942,9474.636058
1418.431112,1225.752797,740.205942,9622.677246
1418.431429,1072.533697,592.164754,9474.636058
1418.431746,995.924147,592.164754,9474.636058
1418.432063,1225.752797,814.226536,9844.739029
1418.432381,1072.533697,666.185348,9696.697840
1418.432698,612.876398,592.164754,9474.636058
1418.433015,842.705048,444.123565,9474.636058
1418.433332,689.485948,592.164754,9474.636058
1418.433650,612.876398,370.102971,9548.656652
1418.433967,306.438199,444.123565,9622.677246
1418.434284,612.876398,370.102971,9548.656652
1418.434601,306.438199,444.123565,9770.718434
1418.434919,383.047749,222.061783,9622.677246
1418.435236,536.266849,666.185348,10066.800811
1418.435553,153.219100,222.061783,9474.636058
1418.435870,76.609550,-0.000000,9622.677246
1418.436188,306.438199,296.082377,9474.636058
1418.436505,383.047749,222.061783,9548.656652
1418.436822,306.438199,370.102971,9622.677246
1418.437139,229.828649,222.061783,9474.636058
1418.437457,383.047749,148.041188,9474.636058
1418.437774,459.657299,222.061783,9548.656652
1418.438091,306.438199,-0.000000,9770.718434
1418.438409,229.828649,148.041188,9696.697840
1418.438726,153.219100,-0.000000,9400.615463
1418.439043,689.485948,-0.000000,9474.636058
1418.439360,689.485948,-0.000000,9474.636058
1418.439678,842.705048,-148.041188,9400.615463
1418.439995,766.095498,-0.000000,9400.615463
1418.440312,842.705048,-0.000000,9326.594869
1418.440629,1072.533697,-0.000000,9326.594869
1418.440947,1149.143247,-0.000000,9326.594869
1418.441264,1225.752797,-0.000000,9252.574275
1418.441581,1149.143247,74.020594,9178.553681
1418.441898,919.314598,-148.041188,9252.574275
1418.442216,1225.752797,-0.000000,9104.533087
1418.442533,1225.752797,148.041188,9252.574275
1418.442850,1072.533697,-0.000000,9178.553681
1418.443167,1532.190996,-0.000000,9104.533087
1418.443485,1302.362347,-0.000000,9030.512492
1418.443802,1302.362347,222.061783,9326.594869
1418.444119,1378.971896,-0.000000,9474.636058
1418.444436,1378.971896,222.061783,8734.430116
1418.444754,1225.752797,296.082377,8882.471304
1418.445071,1072.533697,-0.000000,9104.533087
1418.445388,919.314598,-74.020594,9178.553681
1418.445705,612.876398,-0.000000,9400.615463
1418.446023,689.485948,-0.000000,9474.636058
1418.446340,689.485948,-74.020594,9474.636058
1418.446657,536.266849,-222.061783,9252.574275
1418.446974,536.266849,-74.020594,9326.594869
1418.447292,229.828649,-0.000000,9400.615463
1418.447609,153.219100,-74.020594,9104.533087
1418.447926,153.219100,-148.041188,9178.553681
1418.448243,153.219100,148.041188,9474.636058
1418.448561,0.000000,-148.041188,9474.636058
1418.448878,383.047749,-148.041188,9622.677246
1418.449195,0.000000,-148.041188,9548.656652
1418.449512,153.219100,-74.020594,9770.718434
1418.449830,153.219100,-0.000000,9474.636058
1418.450147,383.047749,-0.000000,9548.656652
1418.450464,306.438199,-0.000000,9474.636058
1418.450782,383.047749,-74.020594,9548.656652
1418.451099,536.266849,222.061783,9474.636058
1418.451416,459.657299,-0.000000,9474.636058
1418.451733,153.219100,-148.041188,9622.677246
1418.452051,306.438199,-74.020594,9474.636058
1418.452368,306.438199,-74.020594,9474.636058
1418.452685,612.876398,-0.000000,9548.656652
1418.453002,536.266849,148.041188,9548.656652
1418.453320,689.485948,296.082377,9696.697840
1418.453637,919.314598,370.102971,9474.636058
1418.453954,842.705048,296.082377,9474.636058
1418.454271,919.314598,296.082377,9548.656652
1418.454589,1455.581446,222.061783,9696.697840
1418.454906,1072.533697,370.102971,9474.636058
1418.455223,919.314598,518.144159,9548.656652
1418.455540,1149.143247,370.102971,9548.656652
1418.455858,1378.971896,592.164754,9474.636058
1418.456175,1302.362347,518.144159,9400.615463
1418.456492,1455.581446,888.247130,9252.574275
1418.456809,1302.362347,666.185348,9252.574275
1418.457127,1455.581446,740.205942,9252.574275
1418.457444,1455.581446,962.267725,9474.636058
1418.457761,1685.410096,666.185348,9252.574275
1418.458078,1378.971896,962.267725,9400.615463
1418.458396,1532.190996,888.247130,9400.615463
1418.458713,1532.190996,518.144159,9326.594869
1418.459030,1302.362347,814.226536,9400.615463
1418.459347,1225.752797,740.205942,9104.533087
1418.459665,1225.752797,1036.288319,9178.553681
1418.459982,1072.533697,666.185348,9252.574275
1418.460299,1149.143247,888.247130,9400.615463
1418.460616,1302.362347,740.205942,9474.636058
1418.460934,536.266849,518.144159,9104.533087
1418.461251,995.924147,740.205942,9474.636058
1418.461568,689.485948,666.185348,9474.636058
1418.461885,459.657299,592.164754,9548.656652
1418.462203,0.000000,518.144159,9622.677246
1418.462520,459.657299,518.144159,9400.615463
1418.462837,536.266849,518.144159,9474.636058
1418.463155,153.219100,592.164754,9400.615463
1418.463472,229.828649,370.102971,9400.615463
1418.463789,1149.143247,222.061783,9474.636058
1418.464106,306.438199,370.102971,9844.739029
1418.464424,306.438199,-0.000000,9474.636058
1418.464741,76.609550,-0.000000,9548.656652
1418.465058,153.219100,148.041188,9548.656652
1418.465375,0.000000,-74.020594,9474.636058
1418.465693,536.266849,-0.000000,9474.636058
1418.466010,229.828649,296.082377,9548.656652
1418.466327,229.828649,148.041188,9548.656652
1418.466644,0.000000,370.102971,9548.656652
1418.466962,229.828649,-0.000000,9622.677246
1418.467279,459.657299,74.020594,9696.697840
1418.467596,536.266849,-0.000000,9474.636058
1418.467913,612.876398,148.041188,9548.656652
1418.468231,612.876398,-0.000000,9400.615463
1418.468548,842.705048,-0.000000,9474.636058
1418.468865,766.095498,222.061783,9326.594869
1418.469182,1072.533697,148.041188,9326.594869
1418.469500,995.924147,222.061783,9548.656652
1418.469817,919.314598,-0.000000,9474.636058
1418.470134,1149.143247,-74.020594,9548.656652
1418.470451,919.314598,-0.000000,9474.636058
1418.470769,919.314598,-0.000000,9474.636058
1418.471086,1378.971896,-0.000000,9252.574275
1418.471403,1225.752797,-0.000000,9474.636058
1418.471720,1072.533697,-0.000000,9252.574275
1418.472038,1225.752797,148.041188,9326.594869
1418.472355,1225.752797,-74.020594,9400.615463
1418.472672,1302.362347,-0.000000,9326.594869
1418.472989,919.314598,-74.020594,9326.594869
1418.473307,1072.533697,-0.000000,9252.574275
1418.473624,919.314598,-74.020594,9400.615463
1418.473941,766.095498,-0.000000,9252.574275
1418.474258,919.314598,-0.000000,9104.533087
1418.474576,1149.143247,-444.123565,9474.636058
1418.474893,536.266849,-0.000000,9030.512492
1418.475210,689.485948,-0.000000,9252.574275
1418.475528,689.485948,-0.000000,9178.553681
1418.475845,306.438199,148.041188,9178.553681
1418.476162,383.047749,-222.061783,9326.594869
1418.476479,459.657299,-222.061783,9622.677246
1418.476797,383.047749,-0.000000,9326.594869
1418.477114,383.047749,-74.020594,9474.636058
1418.477431,995.924147,-0.000000,9474.636058
1418.477748,536.266849,-0.000000,9326.594869
1418.478066,612.876398,-0.000000,9400.615463
1418.478383,459.657299,-0.000000,9474.636058
1418.478700,306.438199,-74.020594,9474.636058
1418.479017,536.266849,-148.041188,9252.574275
1418.479335,612.876398,-0.000000,9474.636058
1418.479652,459.657299,-222.061783,9474.636058
1418.479969,459.657299,-0.000000,9474.636058
1418.480286,612.876398,-0.000000,9400.615463
1418.480604,689.485948,-74.020594,9326.594869
1418.480921,536.266849,296.082377,9474.636058
1418.481238,612.876398,222.061783,9400.615463
1418.481555,766.095498,-0.000000,9548.656652
1418.481873,689.485948,148.041188,9474.636058
1418.482190,689.485948,-0.000000,9474.636058
1418.482507,766.095498,148.041188,9474.636058
1418.482824,1302.362347,296.082377,9474.636058
1418.483142,1072.533697,444.123565,9474.636058
1418.483459,1225.752797,370.102971,9326.594869
1418.483776,1302.362347,370.102971,9326.594869
1418.484093,1149.143247,444.123565,9400.615463
1418.484411,1149.143247,592.164754,9326.594869
1418.484728,1149.143247,592.164754,9178.553681
1418.485045,1378.971896,444.123565,9400.615463
1418.485362,1302.362347,518.144159,9400.615463
1418.485680,1455.581446,592.164754,9326.594869
1418.485997,1838.629195,592.164754,9178.553681
1418.486314,1532.190996,666.185348,9326.594869
1418.486631,1149.143247,592.164754,9326.594869
1418.486949,1149.143247,592.164754,9400.615463
1418.487266,1072.533697,518.144159,9326.594869
1418.487583,995.924147,518.144159,9400.615463
1418.487901,766.095498,592.164754,9474.636058
1418.488218,842.705048,518.144159,9474.636058
1418.488535,766.095498,740.205942,9474.636058
1418.488852,612.876398,666.185348,9548.656652
1418.489170,689.485948,592.164754,9474.636058
1418.489487,306.438199,296.082377,9474.636058
1418.489804,229.828649,666.185348,9548.656652
1418.490121,459.657299,666.185348,9474.636058
1418.490439,229.828649,370.102971,9474.636058
1418.490756,229.828649,296.082377,9696.697840
1418.491073,153.219100,222.061783,9696.697840
1418.491390,76.609550,296.082377,9622.677246
1418.491708,0.000000,370.102971,9622.677246
1418.492025,153.219100,-0.000000,9622.677246
1418.492342,153.219100,444.123565,9548.656652
1418.492659,229.828649,-0.000000,9548.656652
1418.492977,76.609550,74.020594,9474.636058
1418.493294,306.438199,222.061783,9548.656652
1418.493611,229.828649,-0.000000,9474.636058
1418.493928,306.438199,148.041188,9548.656652
1418.494246,536.266849,-0.000000,9548.656652
1418.494563,383.047749,-0.000000,9696.697840
1418.494880,536.266849,-0.000000,9474.636058
1418.495197,536.266849,-0.000000,9548.656652
1418.495515,1149.143247,-0.000000,9474.636058
1418.495832,842.705048,-0.000000,9474.636058
1418.496149,842.705048,296.082377,9548.656652
1418.496466,1072.533697,148.041188,9474.636058
1418.496784,1072.533697,296.082377,9400.615463
1418.497101,1225.752797,-0.000000,9400.615463
1418.497418,1072.533697,148.041188,9252.574275
1418.497735,1378.971896,-0.000000,9252.574275
1418.498053,1072.533697,-0.000000,9252.574275
1418.498370,1302.362347,-0.000000,9178.553681
1418.498687,1378.971896,-148.041188,9030.512492
1418.499004,1685.410096,-0.000000,9178.553681
1418.499322,1532.190996,-0.000000,9104.533087
1418.499639,1149.143247,148.041188,9326.594869
1418.499956,1225.752797,-0.000000,9178.553681
1418.500273,766.095498,-0.000000,9474.636058
1418.500591,1149.143247,222.061783,9326.594869
1418.500908,995.924147,-0.000000,9104.533087
1418.501225,842.705048,222.061783,9104.533087
1418.501543,1072.533697,222.061783,9030.512492
1418.501860,1225.752797,-0.000000,9178.553681
1418.502177,919.314598,222.061783,9252.574275
1418.502494,459.657299,-148.041188,9104.533087
1418.502812,536.266849,-148.041188,9252.574275
1418.503129,306.438199,-222.061783,9474.636058
1418.503446,76.609550,-74.020594,9696.697840
1418.503763,229.828649,-0.000000,9400.615463
1418.504081,0.000000,-0.000000,9326.594869
1418.504398,306.438199,-0.000000,9252.574275
1418.504715,306.438199,-0.000000,9326.594869
1418.505032,0.000000,-222.061783,9178.553681
1418.505350,-153.219100,-74.020594,9548.656652
1418.505667,153.219100,-0.000000,9622.677246
1418.505984,0.000000,-0.000000,9622.677246
1418.506301,153.219100,-0.000000,9770.718434
1418.506619,153.219100,-0.000000,9622.677246
1418.506936,229.828649,-0.000000,9400.615463
1418.507253,306.438199,-0.000000,9474.636058
1418.507570,383.047749,-0.000000,9400.615463
1418.507888,229.828649,-0.000000,9474.636058
1418.508205,383.047749,-0.000000,9178.553681
1418.508522,383.047749,-0.000000,9474.636058
1418.508839,612.876398,-0.000000,9770.718434
1418.509157,689.485948,-0.000000,9474.636058
1418.509474,766.095498,-0.000000,9918.759623
1418.509791,766.095498,-0.000000,9548.656652
1418.510108,766.095498,222.061783,9696.697840
1418.510426,1072.533697,222.061783,9474.636058
1418.510743,919.314598,296.082377,9548.656652
1418.511060,1378.971896,-0.000000,9548.656652
1418.511377,1149.143247,370.102971,9548.656652
1418.511695,1072.533697,518.144159,9326.594869
1418.512012,1455.581446,222.061783,9474.636058
1418.512329,1532.190996,518.144159,9474.636058
1418.512646,1532.190996,518.144159,9474.636058
1418.512967,1378.971896,666.185348,9326.594869
1418.513284,1455.581446,740.205942,9400.615463
1418.513601,1532.190996,740.205942,9104.533087
1418.513918,2068.457845,518.144159,9178.553681
1418.514235,2221.676944,518.144159,9326.594869
1418.514553,1378.971896,592.164754,9326.594869
1418.514870,1378.971896,740.205942,9400.615463
1418.515187,1149.143247,814.226536,9474.636058
1418.515504,1225.752797,666.185348,9474.636058
1418.515822,1072.533697,666.185348,9178.553681
1418.516139,1149.143247,740.205942,9326.594869
1418.516456,1149.143247,592.164754,9252.574275
1418.516773,1149.143247,666.185348,9326.594869
1418.517090,842.705048,444.123565,9474.636058
1418.517408,919.314598,592.164754,9252.574275
1418.517725,1072.533697,518.144159,9474.636058
1418.518042,766.095498,666.185348,9474.636058
1418.518359,536.266849,518.144159,9400.615463
1418.518677,306.438199,444.123565,9474.636058
1418.518994,459.657299,444.123565,9474.636058
1418.519311,383.047749,370.102971,9474.636058
1418.519628,306.438199,222.061783,9548.656652
1418.519945,229.828649,296.082377,9474.636058
1418.520263,689.485948,444.123565,9696.697840
1418.520580,0.000000,444.123565,9622.677246
1418.520897,229.828649,370.102971,9548.656652
1418.521214,0.000000,222.061783,9474.636058
1418.521532,306.438199,370.102971,9548.656652
1418.521849,153.219100,-0.000000,9548.656652
1418.522166,383.047749,148.041188,9622.677246
1418.522483,459.657299,-0.000000,9548.656652
1418.522800,459.657299,222.061783,9548.656652
1418.523118,229.828649,-148.041188,9696.697840
1418.523435,536.266849,296.082377,9400.615463
1418.523752,689.485948,-148.041188,9622.677246
1418.524069,383.047749,222.061783,9548.656652
1418.524387,612.876398,222.061783,9548.656652
1418.524704,766.095498,-0.000000,9548.656652
1418.525021,689.485948,-0.000000,9474.636058
1418.525338,919.314598,148.041188,9548.656652
1418.525655,1149.143247,148.041188,9474.636058
1418.525973,995.924147,-148.041188,9400.615463
1418.526290,995.924147,-0.000000,9400.615463
1418.526607,1302.362347,148.041188,9474.636058
1418.526924,1532.190996,-74.020594,9030.512492
1418.527242,842.705048,-0.000000,9474.636058
1418.527559,1149.143247,148.041188,9400.615463
1418.527876,1149.143247,-74.020594,9400.615463
1418.528193,919.314598,148.041188,9326.594869
1418.528510,1149.143247,222.061783,9400.615463
1418.528828,1225.752797,-0.000000,9252.574275
1418.529145,1302.362347,296.082377,9400.615463
1418.529462,919.314598,-0.000000,9326.594869
1418.529779,995.924147,-0.000000,9178.553681
1418.530097,919.314598,-0.000000,9178.553681
1418.530414,766.095498,370.102971,9770.718434
1418.530731,612.876398,-222.061783,9548.656652
1418.531048,689.485948,-0.000000,9474.636058
1418.531365,612.876398,-0.000000,9326.594869
1418.531683,459.657299,-74.020594,9326.594869
1418.532000,536.266849,-74.020594,9252.574275
1418.532317,536.266849,-74.020594,9252.574275
1418.532634,306.438199,-0.000000,9178.553681
1418.532952,306.438199,-0.000000,9326.594869
1418.533269,459.657299,-148.041188,9178.553681
1418.533586,229.828649,370.102971,9474.636058
1418.533903,536.266849,148.041188,9548.656652
1418.534220,229.828649,-0.000000,9252.574275
1418.534538,459.657299,-148.041188,9548.656652
1418.534855,306.438199,-0.000000,9400.615463
1418.535172,229.828649,-0.000000,9252.574275
1418.535489,306.438199,-222.061783,9474.636058
1418.535807,76.609550,-0.000000,9400.615463
1418.536124,383.047749,-0.000000,9400.615463
1418.536441,306.438199,148.041188,9400.615463
1418.536758,-153.219100,-0.000000,9474.636058
1418.537075,0.000000,-74.020594,9326.594869
1418.537393,153.219100,296.082377,9474.636058
1418.537710,229.828649,222.061783,9474.636058
1418.538027,689.485948,-0.000000,9474.636058
1418.538344,612.876398,222.061783,9474.636058
1418.538662,612.876398,148.041188,9474.636058
1418.538979,1072.533697,444.123565,9474.636058
1418.539296,1072.533697,518.144159,9474.636058
1418.539613,1149.143247,222.061783,9400.615463
1418.539930,1149.143247,814.226536,9474.636058
1418.540248,1149.143247,888.247130,9918.759623
1418.540565,1378.971896,222.061783,9400.615463
1418.540882,1378.971896,592.164754,9326.594869
1418.541199,1378.971896,518.144159,9400.615463
1418.541517,1302.362347,666.185348,9474.636058
1418.541834,1532.190996,296.082377,9474.636058
1418.542151,1378.971896,814.226536,9400.615463
1418.542468,1455.581446,740.205942,9474.636058
1418.542785,1455.581446,592.164754,9400.615463
1418.543103,1455.581446,444.123565,9474.636058
1418.543420,1378.971896,740.205942,9918.759623
1418.543737,1455.581446,666.185348,9326.594869
1418.544054,919.314598,444.123565,9548.656652
1418.544372,842.705048,592.164754,9326.594869
1418.544689,995.924147,740.205942,9474.636058
1418.545006,1072.533697,-0.000000,9400.615463
1418.545323,919.314598,740.205942,9474.636058
1418.545640,919.314598,666.185348,9474.636058
1418.545958,689.485948,518.144159,9400.615463
1418.546275,919.314598,444.123565,9400.615463
1418.546592,689.485948,370.102971,9252.574275
1418.546909,459.657299,518.144159,9474.636058
1418.547227,383.047749,370.102971,9696.697840
1418.547544,459.657299,296.082377,9696.697840
1418.547861,383.047749,370.102971,9844.739029
1418.548178,383.047749,-0.000000,9696.697840
1418.548495,76.609550,370.102971,9622.677246
1418.548813,229.828649,222.061783,9474.636058
1418.549130,536.266849,518.144159,9474.636058
1418.549447,229.828649,370.102971,9622.677246
1418.549764,306.438199,-0.000000,9696.697840
1418.550082,0.000000,-74.020594,9474.636058
1418.550399,153.219100,222.061783,9622.677246
1418.550716,306.438199,-0.000000,9474.636058
1418.551033,383.047749,222.061783,9622.677246
1418.551350,689.485948,-0.000000,9474.636058
1418.551668,306.438199,-0.000000,9548.656652
1418.551985,306.438199,-0.000000,9474.636058
1418.552302,306.438199,-0.000000,9400.615463
1418.552619,306.438199,-0.000000,9548.656652
1418.552937,842.705048,148.041188,9474.636058
1418.553254,766.095498,-0.000000,9252.574275
1418.553571,842.705048,-0.000000,9400.615463
1418.553888,842.705048,-0.000000,9400.615463
1418.554205,1532.190996,-296.082377,9474.636058
1418.554523,1149.143247,-0.000000,9252.574275
1418.554840,1149.143247,-0.000000,9474.636058
1418.555157,1225.752797,-0.000000,9252.574275
1418.555474,1302.362347,-0.000000,9400.615463
1418.555792,1455.581446,148.041188,9400.615463
1418.556109,1149.143247,148.041188,9104.533087
1418.556426,1608.800546,296.082377,8734.430116
1418.556743,1378.971896,-0.000000,8956.491898
1418.557060,1532.190996,222.061783,8956.491898
1418.557378,1608.800546,296.082377,9400.615463
1418.557695,1149.143247,-0.000000,9178.553681
1418.558012,995.924147,-0.000000,9252.574275
1418.558329,919.314598,-148.041188,9474.636058
1418.558647,766.095498,-74.020594,9474.636058
1418.558964,1225.752797,-0.000000,9474.636058
1418.559281,612.876398,-0.000000,9400.615463
1418.559598,842.705048,296.082377,9178.553681
1418.559915,383.047749,222.061783,9252.574275
1418.560233,459.657299,148.041188,9252.574275
1418.560550,0.000000,-0.000000,9474.636058
1418.560867,306.438199,-0.000000,9326.594869
1418.561184,306.438199,-0.000000,9400.615463
1418.561502,229.828649,-74.020594,9548.656652
1418.561819,536.266849,-222.061783,9474.636058
1418.562136,153.219100,-222.061783,9474.636058
1418.562453,459.657299,-74.020594,9252.574275
1418.562770,0.000000,-0.000000,9548.656652
1418.563088,229.828649,-0.000000,9400.615463
1418.563405,306.438199,222.061783,9474.636058
1418.563722,383.047749,-74.020594,9844.739029
1418.564039,153.219100,-74.020594,9622.677246
1418.564357,76.609550,-0.000000,9696.697840
1418.564674,76.609550,-0.000000,9548.656652
1418.564991,842.705048,-0.000000,9770.718434
1418.565308,536.266849,-518.144159,9696.697840
1418.565625,306.438199,148.041188,9474.636058
1418.565943,766.095498,148.041188,9474.636058
1418.566260,612.876398,148.041188,9474.636058
1418.566577,842.705048,-0.000000,9622.677246
1418.566894,766.095498,148.041188,9474.636058
1418.567212,536.266849,370.102971,9696.697840
1418.567529,536.266849,222.061783,9474.636058
1418.567846,689.485948,296.082377,9474.636058
1418.568163,842.705048,-0.000000,9474.636058
1418.568480,1302.362347,666.185348,9622.677246
1418.568798,1302.362347,444.123565,9178.553681
1418.569115,1378.971896,444.123565,9474.636058
1418.569432,1302.362347,370.102971,9104.533087
1418.569749,1838.629195,296.082377,9326.594869
1418.570067,1302.362347,444.123565,9400.615463
1418.570384,1378.971896,370.102971,9326.594869
1418.570701,1378.971896,740.205942,9252.574275
1418.571018,1302.362347,518.144159,9326.594869
1418.571335,1225.752797,518.144159,9400.615463
1418.571653,1225.752797,518.144159,9326.594869
1418.571970,1455.581446,740.205942,9104.533087
1418.572287,1378.971896,666.185348,9326.594869
1418.572604,1225.752797,592.164754,9252.574275
1418.572922,1149.143247,666.185348,9326.594869
1418.573239,1149.143247,666.185348,9474.636058
1418.573556,919.314598,814.226536,9474.636058
1418.573873,919.314598,518.144159,9400.615463
1418.574190,1072.533697,370.102971,9548.656652
1418.574508,842.705048,592.164754,9696.697840
1418.574825,689.485948,518.144159,9326.594869
1418.575142,766.095498,444.123565,9326.594869
1418.575459,536.266849,592.164754,9474.636058
1418.575777,766.095498,296.082377,9474.636058
1418.576094,536.266849,444.123565,9474.636058
1418.576411,383.047749,518.144159,9548.656652
1418.576728,459.657299,296.082377,9474.636058
1418.577045,459.657299,296.082377,9474.636058
1418.577363,229.828649,222.061783,9400.615463
1418.577680,306.438199,-0.000000,9770.718434
1418.577997,612.876398,370.102971,9622.677246
1418.578314,536.266849,148.041188,9474.636058
1418.578632,306.438199,296.082377,9474.636058
1418.578949,459.657299,296.082377,9844.739029
1418.579266,459.657299,148.041188,9474.636058
1418.579583,612.876398,222.061783,9474.636058
1418.579900,459.657299,148.041188,9474.636058
1418.580218,689.485948,222.061783,9548.656652
1418.580535,459.657299,-0.000000,9400.615463
1418.580852,842.705048,222.061783,9622.677246
1418.581169,1072.533697,-0.000000,9474.636058
1418.581487,766.095498,-0.000000,9474.636058
1418.581804,995.924147,-74.020594,9474.636058
1418.582121,689.485948,-0.000000,9548.656652
1418.582438,1149.143247,-0.000000,9474.636058
1418.582755,919.314598,-0.000000,9474.636058
1418.583073,1149.143247,-0.000000,9400.615463
1418.583390,1302.362347,-0.000000,9474.636058
1418.583707,689.485948,74.020594,9474.636058
1418.584024,1149.143247,222.061783,9474.636058
1418.584342,1072.533697,-0.000000,9326.594869
1418.584659,766.095498,-148.041188,9326.594869
1418.584976,1149.143247,-0.000000,9400.615463
1418.585293,919.314598,-0.000000,9326.594869
1418.585610,1149.143247,-0.000000,9400.615463
1418.585928,995.924147,-0.000000,9474.636058
1418.586245,689.485948,-0.000000,9178.553681
1418.586562,766.095498,-0.000000,9474.636058
1418.586879,919.314598,-0.000000,9326.594869
1418.587197,689.485948,-0.000000,9326.594869
1418.587514,612.876398,-0.000000,9252.574275
1418.587831,612.876398,-0.000000,9474.636058
1418.588148,536.266849,148.041188,9400.615463
1418.588465,536.266849,-0.000000,9030.512492
1418.588783,383.047749,-0.000000,9326.594869
1418.589100,76.609550,-74.020594,9474.636058
1418.589417,306.438199,-148.041188,9326.594869
1418.589734,459.657299,-0.000000,9252.574275
1418.590052,0.000000,-0.000000,9326.594869
1418.590369,306.438199,148.041188,9252.574275
1418.590686,0.000000,148.041188,9474.636058
1418.591003,153.219100,-0.000000,9400.615463
1418.591320,76.609550,-74.020594,9474.636058
1418.591638,306.438199,148.041188,9474.636058
1418.591955,153.219100,-0.000000,9252.574275
1418.592272,229.828649,-148.041188,9474.636058
1418.592589,76.609550,-0.000000,9474.636058
1418.592907,153.219100,-74.020594,9400.615463
1418.593224,229.828649,-0.000000,9474.636058
1418.593541,459.657299,-0.000000,9474.636058
1418.593858,536.266849,-0.000000,9326.594869
1418.594175,766.095498,-0.000000,9548.656652
1418.594493,536.266849,148.041188,9474.636058
1418.594810,842.705048,444.123565,9326.594869
1418.595127,766.095498,296.082377,9474.636058
1418.595444,766.095498,222.061783,9474.636058
1418.595762,766.095498,370.102971,9548.656652
1418.596079,1072.533697,148.041188,9326.594869
1418.596396,1149.143247,370.102971,9474.636058
1418.596713,1378.971896,592.164754,9400.615463
1418.597030,1225.752797,666.185348,9474.636058
1418.597348,1762.019645,296.082377,9622.677246
1418.597665,1532.190996,666.185348,9326.594869
1418.597982,1378.971896,740.205942,9400.615463
