#time,accel_x,accel_y,accel_z
1519.661081,306.438199,222.061783,9400.615463
1519.661400,383.047749,444.123565,9252.574275
1519.661719,383.047749,518.144159,9178.553681
1519.662038,383.047749,518.144159,9178.553681
1519.662356,689.485948,370.102971,9252.574275
1519.662675,306.438199,518.144159,9178.553681
1519.662994,459.657299,444.123565,9474.636058
1519.663313,306.438199,444.123565,9178.553681
1519.663632,153.219100,222.061783,9252.574275
1519.663951,383.047749,296.082377,9400.615463
1519.664269,306.438199,-0.000000,9252.574275
1519.664588,229.828649,296.082377,9474.636058
1519.664907,306.438199,222.061783,9326.594869
1519.665226,459.657299,592.164754,9474.636058
1519.665545,0.000000,148.041188,9030.512492
1519.665863,612.876398,444.123565,8882.471304
1519.666182,536.266849,444.123565,9252.574275
1519.666501,766.095498,444.123565,9178.553681
1519.666820,689.485948,666.185348,9104.533087
1519.667139,612.876398,888.247130,9252.574275
1519.667458,842.705048,592.164754,9030.512492
1519.667776,536.266849,518.144159,9252.574275
1519.668095,459.657299,296.082377,9178.553681
1519.668414,229.828649,444.123565,9400.615463
1519.668733,766.095498,-0.000000,9400.615463
1519.669052,153.219100,296.082377,9474.636058
1519.669371,0.000000,222.061783,9326.594869
1519.669689,0.000000,148.041188,9400.615463
1519.670008,306.438199,-0.000000,9400.615463
1519.670327,229.828649,370.102971,9326.594869
1519.670646,306.438199,444.123565,9474.636058
1519.670965,306.438199,296.082377,9326.594869
1519.671284,383.047749,370.102971,9178.553681
1519.671602,229.828649,370.102971,9474.636058
1519.671921,306.438199,444.123565,9326.594869
1519.672240,689.485948,592.164754,9104.533087
1519.672559,612.876398,444.123565,8956.491898
1519.672878,766.095498,222.061783,8956.491898
1519.673197,536.266849,370.102971,9178.553681
1519.673515,612.876398,296.082377,9104.533087
1519.673834,383.047749,222.061783,9326.594869
1519.674153,306.438199,296.082377,9400.615463
1519.674472,612.876398,-0.000000,9178.553681
1519.674791,536.266849,370.102971,9326.594869
1519.675109,383.047749,370.102971,9326.594869
1519.675428,536.266849,444.123565,9326.594869
1519.675747,612.876398,370.102971,9104.533087
1519.676066,919.314598,444.123565,8956.491898
1519.676385,306.438199,370.102971,9178.553681
1519.676704,612.876398,444.123565,9178.553681
1519.677022,536.266849,444.123565,9178.553681
1519.677341,612.876398,444.123565,9252.574275
1519.677660,459.657299,222.061783,9400.615463
1519.677979,459.657299,296.082377,9030.512492
1519.678298,536.266849,592.164754,9252.574275
1519.678617,229.828649,296.082377,9474.636058
1519.678935,153.219100,148.041188,9400.615463
1519.679254,153.219100,-0.000000,9252.574275
1519.679573,76.609550,148.041188,9548.656652
1519.679892,76.609550,444.123565,9400.615463
1519.680211,153.219100,444.123565,9400.615463
1519.680530,229.828649,444.123565,9474.636058
1519.680848,612.876398,518.144159,9326.594869
1519.681167,536.266849,444.123565,9178.553681
1519.681486,612.876398,370.102971,9252.574275
1519.681805,536.266849,518.144159,9178.553681
1519.682124,459.657299,370.102971,9104.533087
1519.682442,1072.533697,592.164754,9178.553681
1519.682761,1072.533697,444.123565,9178.553681
1519.683080,612.876398,444.123565,9104.533087
1519.683399,459.657299,296.082377,9252.574275
1519.683718,459.657299,444.123565,9622.677246
1519.684037,536.266849,370.102971,9252.574275
1519.684355,459.657299,370.102971,9400.615463
1519.684674,383.047749,444.123565,9252.574275
1519.684993,689.485948,592.164754,9622.677246
1519.685312,306.438199,-0.000000,9548.656652
1519.685631,306.438199,222.061783,9326.594869
1519.685950,306.438199,222.061783,9474.636058
1519.686268,153.219100,296.082377,9326.594869
1519.686587,153.219100,592.164754,9252.574275
1519.686906,459.657299,740.205942,9252.574275
1519.687225,536.266849,666.185348,9474.636058
1519.687544,383.047749,518.144159,9400.615463
1519.687863,459.657299,444.123565,9252.574275
1519.688181,536.266849,370.102971,9252.574275
1519.688500,306.438199,296.082377,9326.594869
1519.688819,153.219100,-0.000000,9178.553681
1519.689138,383.047749,222.061783,9326.594869
1519.689457,459.657299,296.082377,9252.574275
1519.689775,383.047749,222.061783,9178.553681
1519.690094,612.876398,518.144159,9474.636058
1519.690413,383.047749,518.144159,9474.636058
1519.690732,383.047749,518.144159,9252.574275
1519.691051,383.047749,444.123565,9326.594869
1519.691370,383.047749,-0.000000,9178.553681
1519.691688,612.876398,518.144159,9400.615463
1519.692007,536.266849,444.123565,9400.615463
1519.692326,689.485948,370.102971,9030.512492
1519.692645,689.485948,370.102971,8956.491898
1519.692964,536.266849,296.082377,9178.553681
1519.693283,306.438199,370.102971,9326.594869
1519.693601,459.657299,222.061783,9326.594869
1519.693920,383.047749,-0.000000,9178.553681
1519.694239,0.000000,296.082377,9474.636058
1519.694558,306.438199,148.041188,9548.656652
1519.694877,459.657299,222.061783,9252.574275
1519.695196,383.047749,370.102971,9400.615463
1519.695514,306.438199,370.102971,9326.594869
1519.695833,689.485948,296.082377,9474.636058
1519.696152,459.657299,222.061783,9104.533087
1519.696471,459.657299,444.123565,9326.594869
1519.696790,689.485948,444.123565,9030.512492
1519.697108,612.876398,-0.000000,9178.553681
1519.697427,612.876398,444.123565,9326.594869
1519.697746,766.095498,592.164754,8882.471304
1519.698065,612.876398,370.102971,9030.512492
1519.698384,383.047749,370.102971,9104.533087
1519.698703,612.876398,222.061783,9252.574275
1519.699021,229.828649,370.102971,9178.553681
1519.699340,0.000000,370.102971,9252.574275
1519.699659,153.219100,592.164754,9400.615463
1519.699978,0.000000,666.185348,9474.636058
1519.700297,0.000000,962.267725,9696.697840
1519.700616,76.609550,1036.288319,9400.615463
1519.700934,-612.876398,1258.350101,9104.533087
1519.701253,0.000000,1332.370696,9252.574275
1519.701572,0.000000,1406.391290,9474.636058
1519.701891,-306.438199,1110.308913,9400.615463
1519.702210,-459.657299,1036.288319,9252.574275
1519.702529,-612.876398,1258.350101,9474.636058
1519.702847,-1149.143247,1036.288319,9474.636058
1519.703166,-1685.410096,1110.308913,9400.615463
1519.703485,-1762.019645,1258.350101,9326.594869
1519.703804,-1991.848295,1702.473667,9030.512492
1519.704123,-2374.896044,1850.514855,8956.491898
1519.704441,-2604.724693,1924.535449,9252.574275
1519.704760,-2451.505594,1628.453072,9104.533087
1519.705079,-3064.381992,1998.556043,8586.388927
1519.705398,-3064.381992,2294.638420,8364.327145
1519.705717,-3447.429741,2368.659014,8290.306550
1519.706036,-3830.477490,2886.803174,8808.450710
1519.706354,-3677.258390,3034.844362,8734.430116
1519.706673,-3677.258390,3552.988522,8512.368333
1519.706992,-3677.258390,3552.988522,8808.450710
1519.707311,-3524.039291,3775.050304,8882.471304
1519.707630,-3370.820191,3627.009116,9326.594869
1519.707949,-3677.258390,3775.050304,9326.594869
1519.708267,-3907.087040,3552.988522,9548.656652
1519.708586,-4060.306139,3256.906145,9474.636058
1519.708905,-4136.915689,3552.988522,9474.636058
1519.709224,-4443.353888,3701.029710,9622.677246
1519.709543,-4060.306139,4515.256246,9326.594869
1519.709862,-3677.258390,5107.421000,9104.533087
1519.710180,-3294.210641,5107.421000,8808.450710
1519.710499,-3064.381992,5255.462188,8882.471304
1519.710818,-2911.162892,4663.297435,9104.533087
1519.711137,-2528.115143,4441.235652,9474.636058
1519.711456,-1838.629195,4737.318029,9326.594869
1519.711774,-2145.067394,4515.256246,9178.553681
1519.712093,-1378.971896,4663.297435,9104.533087
1519.712412,-1302.362347,5107.421000,8586.388927
1519.712731,-1072.533697,5329.482782,8216.285956
1519.713050,-1378.971896,5403.503377,7920.203579
1519.713369,-1685.410096,5403.503377,7920.203579
1519.713687,-2221.676944,4959.379811,8956.491898
1519.714006,-2987.772442,4145.153275,9400.615463
1519.714325,-3830.477490,3182.885551,10066.800811
1519.714644,-4673.182538,2442.679609,10510.924376
1519.714963,-4979.620737,2664.741391,10584.944971
1519.715282,-3907.087040,2960.823768,10510.924376
1519.715600,-3217.601092,3330.926739,10436.903782
1519.715919,-2451.505594,3701.029710,9844.739029
1519.716238,-1838.629195,4367.215058,9326.594869
1519.716557,-766.095498,3923.091493,9474.636058
1519.716876,-766.095498,3256.906145,8586.388927
1519.717195,-1302.362347,2516.700203,8364.327145
1519.717513,-1838.629195,2220.617826,8882.471304
1519.717832,-1532.190996,2368.659014,9030.512492
1519.718151,-995.924147,2442.679609,8956.491898
1519.718470,-153.219100,3034.844362,8956.491898
1519.718789,306.438199,2812.782580,8882.471304
1519.719108,153.219100,2590.720797,8808.450710
1519.719426,-459.657299,1924.535449,9622.677246
1519.719745,-612.876398,518.144159,10288.862594
1519.720064,-842.705048,-74.020594,10881.027347
1519.720383,-536.266849,296.082377,11325.150913
1519.720702,689.485948,962.267725,10362.883188
1519.721020,919.314598,1554.432478,9622.677246
1519.721339,1378.971896,2146.597232,9030.512492
1519.721658,1302.362347,1554.432478,8216.285956
1519.721977,766.095498,1628.453072,8364.327145
1519.722296,459.657299,1480.411884,8586.388927
1519.722615,0.000000,1702.473667,8438.347739
1519.722933,-536.266849,1702.473667,8068.244768
1519.723252,-1608.800546,1406.391290,9030.512492
1519.723571,-1991.848295,444.123565,9696.697840
1519.723890,-2757.943793,-740.205942,10807.006753
1519.724209,-2834.553343,-962.267725,11177.109724
1519.724528,-3140.991542,-370.102971,10732.986159
1519.724846,-3294.210641,-148.041188,10140.821405
1519.725165,-3064.381992,222.061783,9622.677246
1519.725484,-2911.162892,592.164754,9104.533087
1519.725803,-2528.115143,1480.411884,7550.100608
1519.726122,-1991.848295,2960.823768,7031.956449
1519.726441,-1838.629195,3256.906145,6587.832884
1519.726759,-2298.286494,2294.638420,7402.059420
1519.727078,-2528.115143,1332.370696,8216.285956
1519.727397,-3447.429741,666.185348,8660.409521
1519.727716,-3753.867940,1332.370696,8364.327145
1519.728035,-3294.210641,2738.761985,7846.182985
1519.728353,-2451.505594,3256.906145,8512.368333
1519.728672,-2757.943793,3256.906145,8808.450710
1519.728991,-2451.505594,3404.947333,8808.450710
1519.729310,-2374.896044,3849.070898,8216.285956
1519.729629,-1685.410096,4367.215058,8290.306550
1519.729948,-766.095498,3701.029710,8956.491898
1519.730266,-995.924147,2960.823768,9770.718434
1519.730585,-1149.143247,2886.803174,9104.533087
1519.730904,-612.876398,3478.967927,8734.430116
1519.731223,229.828649,4145.153275,8364.327145
1519.731542,1915.238745,4589.276840,8808.450710
1519.731861,2221.676944,5033.400406,7476.080014
1519.732179,1915.238745,4811.338623,7105.977043
1519.732498,1532.190996,3701.029710,8142.265362
1519.732817,766.095498,2590.720797,9252.574275
1519.733136,-536.266849,3034.844362,9622.677246
1519.733455,-1608.800546,2812.782580,9696.697840
1519.733774,-2145.067394,2886.803174,9918.759623
1519.734092,-2528.115143,2590.720797,10584.944971
1519.734411,-2681.334243,3701.029710,10584.944971
1519.734730,-3294.210641,4441.235652,10214.842000
1519.735049,-3294.210641,4441.235652,10066.800811
1519.735367,-3677.258390,4145.153275,10288.862594
1519.735686,-3217.601092,3701.029710,11103.089130
1519.736005,-3753.867940,3108.864956,10881.027347
1519.736324,-3447.429741,2738.761985,11473.192101
1519.736642,-3064.381992,2664.741391,11769.274478
1519.736961,-2298.286494,3775.050304,11251.130318
1519.737280,-1455.581446,3701.029710,9992.780217
1519.737599,-1685.410096,4515.256246,9622.677246
1519.737917,-1072.533697,4589.276840,9548.656652
1519.738236,-1608.800546,4589.276840,8142.265362
1519.738555,-1915.238745,4293.194464,7550.100608
1519.738874,-3064.381992,4219.173869,7624.121203
1519.739192,-3600.648841,3701.029710,9326.594869
1519.739511,-3677.258390,3330.926739,9104.533087
1519.739830,-4749.792088,2664.741391,9992.780217
1519.740148,-5132.839837,2368.659014,11103.089130
1519.740467,-5286.058936,2146.597232,11695.253884
1519.740786,-4903.011187,1776.494261,12213.398043
1519.741105,-4060.306139,2294.638420,12139.377449
1519.741423,-2987.772442,2590.720797,12287.418637
1519.741742,-1378.971896,3256.906145,10955.047942
1519.742061,459.657299,4219.173869,9252.574275
1519.742380,1685.410096,3627.009116,8882.471304
1519.742698,2145.067394,3627.009116,7328.038826
1519.743017,2298.286494,2590.720797,6143.709319
1519.743336,1302.362347,2738.761985,5995.668130
1519.743655,153.219100,3552.988522,5995.668130
1519.743973,-1302.362347,3182.885551,6365.771101
1519.744292,-2987.772442,2738.761985,7179.997637
1519.744611,-4519.963438,1702.473667,9474.636058
1519.744930,-5209.449386,888.247130,11029.068536
1519.745248,-5362.668486,-0.000000,12361.439231
1519.745567,-4673.182538,-740.205942,14063.912898
1519.745886,-3064.381992,-592.164754,14211.954086
1519.746205,-1149.143247,-148.041188,12731.542202
1519.746523,766.095498,444.123565,11029.068536
1519.746842,3140.991542,2368.659014,8882.471304
1519.747161,5132.839837,4441.235652,5847.626942
1519.747480,5132.839837,6217.729913,2146.597232
1519.747798,4903.011187,6217.729913,1184.329507
1519.748117,2834.553343,5329.482782,1628.453072
1519.748436,-1302.362347,3701.029710,3627.009116
1519.748754,-4519.963438,1554.432478,5847.626942
1519.749073,-7431.126331,370.102971,9030.512492
1519.749392,-7660.954980,-1036.288319,13471.748144
1519.749711,-8197.221829,-2664.741391,14137.933492
1519.750029,-6665.030833,-2294.638420,14656.077652
1519.750348,-5975.544884,-1036.288319,17246.798449
1519.750667,-2757.943793,962.267725,15618.345376
1519.750986,842.705048,3627.009116,11399.171507
1519.751304,3677.258390,5921.647536,8364.327145
1519.751623,4290.134789,4071.132681,5255.462188
1519.751942,5286.058936,6143.709319,2294.638420
1519.752261,4749.792088,5773.606348,0.000000
1519.752579,3140.991542,5107.421000,-888.247130
1519.752898,-153.219100,4589.276840,1924.535449
1519.753217,-4290.134789,2220.617826,5181.441594
1519.753536,-7354.516781,962.267725,8364.327145
1519.753854,-9806.022374,-370.102971,13545.768739
1519.754173,-9499.584175,-2442.679609,17098.757260
1519.754492,-10035.851024,-1998.556043,15544.324782
1519.754811,-7967.393179,-2072.576638,20207.622217
1519.755129,-6052.154434,-1036.288319,20577.725188
1519.755448,-2528.115143,2072.576638,15322.262999
1519.755767,1225.752797,3404.947333,12361.439231
1519.756085,4290.134789,4737.318029,8882.471304
1519.756404,5286.058936,5995.668130,1924.535449
1519.756723,6971.469032,8364.327145,-1998.556043
1519.757042,6281.983084,7476.080014,-1332.370696
1519.757360,3600.648841,7031.956449,-1036.288319
1519.757679,0.000000,5625.565159,962.267725
1519.757998,-3370.820191,2516.700203,6365.771101
1519.758317,-6511.811733,370.102971,10732.986159
1519.758635,-7507.735880,-1332.370696,15692.365970
1519.758954,-8810.098227,-3997.112087,19985.560434
1519.759273,-7354.516781,-3034.844362,22132.157666
1519.759592,-6128.763984,-1850.514855,20429.683999
1519.759910,-2528.115143,222.061783,18505.148550
1519.760229,459.657299,1850.514855,16062.468941
1519.760548,4366.744339,5255.462188,9844.739029
1519.760867,7967.393179,7698.141797,3627.009116
1519.761185,10035.851024,8586.388927,-444.123565
1519.761504,10418.898773,7550.100608,-2738.761985
1519.761823,8427.050478,6069.688724,-1776.494261
1519.762142,6281.983084,3701.029710,1850.514855
1519.762460,3830.477490,1480.411884,5847.626942
1519.762779,612.876398,-0.000000,9474.636058
1519.763098,-1915.238745,-2294.638420,13619.789333
1519.763416,-3830.477490,-4663.297435,19023.292709
1519.763735,-4443.353888,-4219.173869,21169.889941
1519.764054,-3447.429741,-3182.885551,21465.972318
1519.764373,-1302.362347,-3552.988522,18727.210333
1519.764691,536.266849,-1110.308913,15470.304188
1519.765010,3600.648841,444.123565,10140.821405
1519.765329,5669.106685,1184.329507,5699.585753
1519.765648,5592.497135,2220.617826,0.000000
1519.765966,4979.620737,3256.906145,-1184.329507
1519.766285,4903.011187,2072.576638,1332.370696
1519.766604,2604.724693,1406.391290,2220.617826
1519.766923,919.314598,-1036.288319,4885.359217
1519.767241,-1762.019645,-2812.782580,9770.718434
1519.767560,-3217.601092,-4737.318029,13397.727550
1519.767879,-3140.991542,-4885.359217,16358.551318
1519.768198,-3370.820191,-7624.121203,18209.066173
1519.768516,-2298.286494,-5551.544565,19393.395680
1519.768835,-689.485948,-4071.132681,15766.386565
1519.769154,842.705048,-1776.494261,11843.295072
1519.769473,3447.429741,-148.041188,6809.894666
1519.769791,4443.353888,3108.864956,1924.535449
1519.770110,3983.696590,4959.379811,-4367.215058
1519.770429,2604.724693,3923.091493,-4071.132681
1519.770748,0.000000,1998.556043,-3108.864956
1519.771066,-2834.553343,-1628.453072,1776.494261
1519.771385,-4366.744339,-5921.647536,8068.244768
1519.771704,-7354.516781,-7179.997637,12361.439231
1519.772022,-6435.202183,-6957.935855,16358.551318
1519.772341,-4290.134789,-5551.544565,18653.189738
1519.772660,-2221.676944,-4885.359217,19837.519246
1519.772979,1532.190996,-1850.514855,17912.983796
1519.773297,3370.820191,1480.411884,12805.562797
1519.773616,6588.421283,3034.844362,8364.327145
1519.773935,7967.393179,5699.585753,2886.803174
1519.774254,8427.050478,6365.771101,-1850.514855
1519.774572,6818.249932,4219.173869,-3923.091493
1519.774891,4136.915689,2960.823768,-3627.009116
1519.775210,459.657299,1628.453072,-2368.659014
1519.775529,-2221.676944,-962.267725,3330.926739
1519.775847,-4366.744339,-2812.782580,9548.656652
1519.776166,-5898.935335,-4293.194464,15692.365970
1519.776485,-5745.716235,-5551.544565,18801.230927
1519.776804,-4519.963438,-3701.029710,21095.869347
1519.777122,-2221.676944,-5107.421000,22946.384202
1519.777441,919.314598,-1480.411884,20207.622217
1519.777760,4290.134789,1406.391290,15248.242405
1519.778079,6894.859482,3478.967927,10140.821405
1519.778397,8120.612279,6883.915261,3256.906145
1519.778716,8580.269578,9400.615463,-3108.864956
1519.779035,7431.126331,10436.903782,-4959.379811
1519.779353,3830.477490,9844.739029,-4367.215058
1519.779672,-536.266849,5107.421000,-1554.432478
1519.779991,-4979.620737,2812.782580,3182.885551
1519.780310,-7354.516781,-1998.556043,12731.542202
1519.780628,-9806.022374,-5107.421000,17616.901420
1519.780947,-9806.022374,-7624.121203,20429.683999
1519.781266,-9422.974625,-8808.450710,27535.661042
1519.781585,-6052.154434,-5847.626942,26943.496289
1519.781903,-2834.553343,-1332.370696,22354.219448
1519.782222,3064.381992,3182.885551,17542.880825
1519.782541,7124.688131,6143.709319,11029.068536
1519.782860,9193.145976,9622.677246,1628.453072
1519.783178,11797.870669,12139.377449,-4811.338623
1519.783497,9193.145976,10881.027347,-6661.853478
1519.783816,6128.763984,8216.285956,-5477.523971
1519.784135,2528.115143,5773.606348,-2368.659014
1519.784453,-2068.457845,1184.329507,4515.256246
1519.784772,-5439.278036,-4515.256246,11917.315666
1519.785091,-7354.516781,-6143.709319,19171.333898
1519.785410,-8580.269578,-8660.409521,24500.816680
1519.785728,-6511.811733,-8290.306550,24796.899057
1519.786047,-4903.011187,-6439.791695,26869.475695
1519.786366,-766.095498,-3552.988522,24352.775492
1519.786685,4826.401637,1110.308913,17394.839637
1519.787003,8427.050478,2664.741391,9918.759623
1519.787322,12180.918418,4737.318029,1184.329507
1519.787641,11951.089769,9622.677246,-8068.244768
1519.787959,12640.575717,9252.574275,-10066.800811
1519.788278,7890.783629,4293.194464,-5773.606348
1519.788597,1149.143247,2960.823768,-3701.029710
1519.788916,-4060.306139,-2812.782580,4219.173869
1519.789234,-8273.831378,-7698.141797,12509.480420
1519.789553,-8733.488677,-9474.636058,17542.880825
1519.789872,-9576.193725,-11177.109724,17764.942608
1519.790191,-8580.269578,-11843.295072,27461.640448
1519.790509,-7048.078582,-8216.285956,28942.052332
1519.790828,-76.609550,-4071.132681,21762.054695
1519.791147,4366.744339,6217.729913,13915.871710
1519.791466,8350.440928,1850.514855,9178.553681
1519.791784,10035.851024,4293.194464,-1332.370696
1519.792103,11338.213370,9696.697840,-10362.883188
1519.792422,10878.556072,8660.409521,-9770.718434
1519.792741,5975.544884,8438.347739,-13101.645173
1519.793059,2298.286494,1924.535449,-4663.297435
1519.793378,-6894.859482,-3849.070898,4219.173869
1519.793697,-9729.412825,-9474.636058,14508.036463
1519.794016,-10725.336972,-10584.944971,15840.407159
1519.794334,-10418.898773,-11029.068536,14804.118840
1519.794653,-8350.440928,-14508.036463,28275.866984
1519.794972,-5515.887586,-8808.450710,31236.690752
1519.795290,76.609550,2738.761985,15914.427753
1519.795609,7890.783629,3997.112087,15914.427753
1519.795928,10801.946522,5921.647536,9252.574275
1519.796247,13559.890315,5625.565159,-3034.844362
1519.796565,14402.595362,11547.212695,-13323.706956
1519.796884,14172.766713,10288.862594,-12879.583391
1519.797203,9269.755526,5181.441594,-12657.521608
1519.797522,4903.011187,4515.256246,-7550.100608
1519.797840,-4136.915689,-5625.565159,3182.885551
1519.798159,-7814.174080,-9548.656652,14285.974681
1519.798478,-9116.536426,-10362.883188,19837.519246
1519.798797,-9959.241474,-15100.201217,21169.889941
1519.799115,-9882.631924,-14359.995275,28794.011144
1519.799434,-5975.544884,-10066.800811,35307.823433
1519.799753,-3064.381992,-1628.453072,20577.725188
1519.800072,6281.983084,5107.421000,19319.375086
1519.800390,11414.822920,8734.430116,11177.109724
1519.800709,12027.699319,9844.739029,-2072.576638
1519.801028,13100.233016,13175.665768,-15396.283594
1519.801347,13100.233016,15988.448347,-10362.883188
1519.801665,7660.954980,7328.038826,-12435.459826
1519.801984,459.657299,3182.885551,-7179.997637
1519.802303,-4903.011187,-3849.070898,3923.091493
1519.802621,-11721.261119,-9030.512492,18949.272115
1519.802940,-12870.404366,-12213.398043,18875.251521
1519.803259,-15551.738609,-13693.809927,20355.663405
1519.803578,-12717.185267,-14137.933492,35603.905810
1519.803896,-11491.432470,-9548.656652,37898.544230
1519.804215,-4673.182538,6957.935855,19171.333898
1519.804534,3370.820191,7179.997637,21021.848753
1519.804853,9039.926876,11177.109724,15174.221811
1519.805171,13559.890315,12879.583391,-1480.411884
1519.805490,16164.615008,16506.592507,-13027.624579
1519.805809,13559.890315,15322.262999,-12435.459826
1519.806128,10495.508323,8290.306550,-13249.686362
1519.806446,2221.676944,6291.750507,-12065.356855
1519.806765,-1378.971896,-0.000000,1258.350101
1519.807084,-10955.165621,-5477.523971,11843.295072
1519.807403,-10801.946522,-9030.512492,21095.869347
1519.807721,-11721.261119,-11547.212695,21317.931130
1519.808040,-11644.651570,-12139.377449,23612.569550
1519.808359,-10112.460574,-13841.851115,35974.008781
1519.808678,-6818.249932,-2812.782580,30200.402434
1519.808996,1225.752797,3404.947333,20577.725188
1519.809315,10495.508323,9696.697840,16802.674883
1519.809634,15168.690860,9178.553681,1036.288319
1519.809953,17313.758255,15692.365970,-13249.686362
1519.810271,18386.291952,13471.748144,-12509.480420
1519.810590,11721.261119,9474.636058,-15248.242405
1519.810909,4673.182538,4071.132681,-14285.974681
1519.811227,-2604.724693,-1110.308913,296.082377
1519.811546,-9346.365076,-6365.771101,11843.295072
1519.811865,-11414.822920,-10881.027347,20207.622217
1519.812184,-12180.918418,-10436.903782,17690.922014
1519.812502,-13253.452115,-18727.210333,25092.981434
1519.812821,-13176.842566,-17542.880825,37010.297100
1519.813140,-8427.050478,-9474.636058,32421.020260
1519.813459,1378.971896,5773.606348,23020.404796
1519.813777,11338.213370,7772.162391,20281.642811
1519.814096,13713.109414,8438.347739,4219.173869
1519.814415,19228.997000,14285.974681,-12065.356855
1519.814734,19765.263848,16062.468941,-9326.594869
1519.815052,14938.862211,11029.068536,-19837.519246
1519.815371,6511.811733,9548.656652,-20207.622217
1519.815690,383.047749,1628.453072,-2220.617826
1519.816009,-7124.688131,-9844.739029,11843.295072
1519.816327,-12104.308868,-10066.800811,16284.530724
1519.816646,-12334.137518,-13101.645173,16210.510130
1519.816965,-15398.519510,-20207.622217,20651.745782
1519.817284,-15321.909960,-22650.301825,35307.823433
1519.817602,-10495.508323,-13397.727550,35529.885216
1519.817921,-3983.696590,2738.761985,22946.384202
1519.818240,7584.345430,8290.306550,22502.260637
1519.818558,15781.567259,11399.171507,11621.233289
1519.818877,17466.977354,17987.004391,-5181.441594
1519.819196,18922.558801,18283.086767,-12065.356855
1519.819515,14938.862211,13693.809927,-18949.272115
1519.819833,6894.859482,6883.915261,-16210.510130
1519.820152,766.095498,1184.329507,-2812.782580
1519.820471,-9269.755526,-5995.668130,5255.462188
1519.820790,-11874.480219,-11251.130318,14285.974681
1519.821108,-12180.918418,-11399.171507,16728.654289
1519.821427,-14402.595362,-16802.674883,19097.313304
1519.821746,-18309.682402,-23538.548956,25611.125593
1519.822065,-13406.671215,-18949.272115,43894.212361
1519.822383,-4596.572988,4515.256246,25167.002028
1519.822702,3907.087040,7994.224174,15618.345376
1519.823021,13713.109414,13471.748144,16506.592507
1519.823340,17237.148705,13841.851115,4071.132681
1519.823658,19305.606550,19541.436869,-15692.365970
1519.823977,20837.797546,16950.716072,-15766.386565
1519.824296,11721.261119,13323.706956,-17246.798449
1519.824615,4519.963438,5921.647536,-13323.706956
1519.824933,-7584.345430,-518.144159,1258.350101
1519.825252,-10495.508323,-14434.015869,20133.601622
1519.825571,-10725.336972,-7624.121203,24278.754898
1519.825890,-12334.137518,-10288.862594,14730.098246
1519.826208,-15245.300410,-17838.963202,20873.807564
1519.826527,-13559.890315,-14952.160028,40045.141462
1519.826846,-8733.488677,-1258.350101,28571.949361
1519.827164,-612.876398,6217.729913,20947.828159
1519.827483,12563.966167,13841.851115,21836.075289
1519.827802,17696.806004,14730.098246,6957.935855
1519.828121,19765.263848,20651.745782,-12213.398043
1519.828439,24744.884585,19689.478057,-10658.965565
1519.828758,20301.530697,16876.695478,-24278.754898
1519.829077,9193.145976,9844.739029,-16358.551318
1519.829396,-2145.067394,-2590.720797,1628.453072
1519.829714,-7354.516781,-5773.606348,15100.201217
1519.830033,-9652.803275,-7698.141797,9844.739029
1519.830352,-13866.328514,-6587.832884,16284.530724
1519.830671,-14019.547613,-24870.919651,29090.093521
1519.830989,-21527.283494,-25167.002028,26721.434506
1519.831308,-17696.806004,-15100.201217,34493.596897
1519.831627,-8580.269578,-0.000000,34567.617491
1519.831946,2987.772442,8438.347739,23908.651927
1519.832264,13713.109414,15174.221811,11029.068536
1519.832583,18386.291952,21910.095883,2146.597232
1519.832902,17160.539155,19541.436869,-9326.594869
1519.833221,21833.721693,19319.375086,-11843.295072
1519.833539,14096.157163,14730.098246,-20355.663405
1519.833858,4060.306139,1480.411884,-8808.450710
1519.834177,-5592.497135,-3997.112087,11251.130318
1519.834495,-9806.022374,-12213.398043,14656.077652
1519.834814,-11951.089769,-12065.356855,15396.283594
1519.835133,-11491.432470,-13027.624579,18357.107362
1519.835452,-18003.244203,-26869.475695,25018.960840
1519.835770,-20607.968896,-27757.722825,32124.937883
1519.836089,-15168.690860,-6513.812290,31162.670158
1519.836408,-6281.983084,2442.679609,28571.949361
1519.836727,7814.174080,11547.212695,18135.045579
1519.837046,16930.710506,22354.219448,-222.061783
1519.837364,17620.196454,20799.786970,2072.576638
1519.837683,21374.064394,20799.786970,-15100.201217
1519.838002,21144.235745,22354.219448,-29312.155303
1519.838321,14402.595362,11029.068536,-8512.368333
1519.838640,995.924147,2442.679609,-7031.956449
1519.838958,-8120.612279,-18061.024985,2886.803174
1519.839277,-9959.241474,-9326.594869,13175.665768
1519.839596,-13713.109414,-12583.501014,22724.322419
1519.839915,-12717.185267,-19171.333898,17246.798449
1519.840234,-18156.463303,-29978.340651,27535.661042
1519.840553,-15475.129060,-25018.960840,36418.132346
1519.840871,-10572.117872,1628.453072,28275.866984
1519.841190,995.924147,8512.368333,21021.848753
1519.841509,12104.308868,22428.240043,16358.551318
1519.841828,18462.901502,22502.260637,5107.421000
1519.842147,22676.426741,24130.713709,-14656.077652
1519.842466,23978.789087,28127.825796,-23538.548956
1519.842784,23519.131789,19689.478057,-29756.278868
1519.843103,4136.915689,-2146.597232,-4071.132681
1519.843422,-2757.943793,-15914.427753,1406.391290
1519.843741,-8120.612279,-14804.118840,9326.594869
1519.844060,-10418.898773,-11103.089130,18505.148550
1519.844378,-13713.109414,-16210.510130,21243.910535
1519.844697,-15245.300410,-32717.102636,25315.043216
1519.845016,-16394.443657,-24722.878463,32124.937883
1519.845335,-12717.185267,-10658.965565,31384.731941
1519.845654,-689.485948,8068.244768,27239.578666
1519.845973,7737.564530,18135.045579,11325.150913
1519.846291,13713.109414,26351.331535,7698.141797
1519.846610,20454.749797,16284.530724,5699.585753
1519.846929,22446.598091,29904.320057,-21317.931130
1519.847248,21910.331243,29756.278868,-29090.093521
1519.847567,13636.499864,13989.892304,-10732.986159
1519.847885,229.828649,-4293.194464,-1998.556043
1519.848204,-8273.831378,-14434.015869,5625.565159
1519.848523,-12257.527968,-13545.768739,21762.054695
1519.848842,-16854.100956,-16284.530724,22650.301825
1519.849161,-16394.443657,-22206.178260,15988.448347
1519.849480,-23136.084040,-35455.864622,29756.278868
1519.849798,-20301.530697,-31014.628970,38638.750172
1519.850117,-13942.938064,888.247130,25092.981434
1519.850436,-383.047749,11917.315666,24574.837274
1519.850755,10648.727422,27165.558071,15544.324782
1519.851074,15092.081311,21836.075289,1184.329507
1519.851392,20914.407095,29608.237680,-9992.780217
1519.851711,25281.151434,29608.237680,-16210.510130
1519.852030,19995.092498,26943.496289,-28127.825796
1519.852349,9652.803275,8364.327145,-7772.162391
1519.852668,-5209.449386,-1480.411884,3552.988522
1519.852987,-11031.775171,-17838.963202,12287.418637
1519.853305,-14938.862211,-15988.448347,23316.487173
1519.853624,-15092.081311,-15618.345376,23464.528361
1519.853943,-17237.148705,-31088.649564,24352.775492
1519.854262,-18845.949251,-28497.928767,28349.887579
1519.854581,-17850.025103,-12065.356855,31458.752535
1519.854899,-4443.353888,2960.823768,29090.093521
1519.855218,1915.238745,12509.480420,16728.654289
1519.855537,14019.547613,26647.413912,6957.935855
1519.855856,20914.407095,21910.095883,592.164754
1519.856175,22369.988542,33087.205607,-17542.880825
1519.856494,22906.255390,27461.640448,-24648.857869
1519.856812,19535.435199,16728.654289,-20651.745782
1519.857131,4366.744339,-3849.070898,9400.615463
1519.857450,-5669.106685,-10436.903782,5403.503377
1519.857769,-11414.822920,-17912.983796,8438.347739
1519.858088,-10572.117872,-16580.613101,25241.022622
1519.858407,-12870.404366,-21688.034101,25092.981434
1519.858725,-21450.673944,-34641.638086,26721.434506
1519.859044,-16394.443657,-26351.331535,33605.349767
1519.859363,-13330.061665,-4071.132681,25463.084405
1519.859682,536.266849,13545.768739,23612.569550
1519.860001,8350.440928,21465.972318,12213.398043
1519.860319,18692.730151,22872.363608,7624.121203
1519.860638,22140.159892,20947.828159,-4811.338623
1519.860957,24744.884585,30200.402434,-18949.272115
1519.861276,22293.378992,22058.137072,-27535.661042
1519.861595,14172.766713,6661.853478,-13471.748144
1519.861914,153.219100,-9252.574275,7698.141797
1519.862232,-6052.154434,-15470.304188,10066.800811
1519.862551,-9116.536426,-15914.427753,21614.013506
1519.862870,-10265.679673,-12805.562797,22946.384202
1519.863189,-16930.710506,-27831.743419,15988.448347
1519.863508,-16011.395908,-33309.267390,32346.999665
1519.863826,-14019.547613,-19097.313304,27461.640448
1519.864145,-8197.221829,3478.967927,26943.496289
1519.864464,76.609550,10214.842000,18357.107362
1519.864783,10495.508323,24278.754898,5699.585753
1519.865102,16777.491406,18653.189738,-518.144159
1519.865421,20224.921147,26129.269753,-12287.418637
1519.865739,19612.044749,24574.837274,-25685.146187
1519.866058,14785.643111,11769.274478,-9844.739029
1519.866377,5515.887586,-6291.750507,-2146.597232
1519.866696,-10189.070123,-18653.189738,-1258.350101
1519.867015,-8963.317327,-18283.086767,19837.519246
1519.867333,-13942.938064,-17468.860231,21614.013506
1519.867652,-9882.631924,-26795.455100,25611.125593
1519.867971,-18386.291952,-28497.928767,22280.198854
1519.868290,-13176.842566,-21984.116477,34345.555709
1519.868609,-10342.289223,-1332.370696,23538.548956
1519.868928,689.485948,8808.450710,20725.766376
1519.869246,5362.668486,20651.745782,15914.427753
1519.869565,14019.547613,16358.551318,5773.606348
1519.869884,21144.235745,20059.581028,-11251.130318
1519.870203,20454.749797,30570.505405,-18579.169144
1519.870522,20684.578446,17912.983796,-17764.942608
1519.870841,8733.488677,-4959.379811,-10066.800811
1519.871159,-2987.772442,-12361.439231,1258.350101
1519.871478,-7737.564530,-16580.613101,20133.601622
1519.871797,-13789.718964,-10288.862594,18949.272115
1519.872116,-10342.289223,-17764.942608,20651.745782
1519.872435,-14709.033562,-21984.116477,23538.548956
1519.872753,-13406.671215,-20207.622217,32495.040854
1519.873072,-10801.946522,-4367.215058,24352.775492
1519.873391,-2298.286494,10732.986159,27461.640448
1519.873710,6818.249932,16284.530724,17394.839637
1519.874029,15858.176809,30052.361245,2368.659014
1519.874348,17313.758255,19023.292709,3108.864956
1519.874666,21067.626195,21910.095883,-11177.109724
1519.874985,19841.873398,24352.775492,-26425.352129
1519.875304,18003.244203,12879.583391,-7254.018232
1519.875623,2681.334243,-740.205942,-2220.617826
1519.875942,-9039.926876,-10881.027347,0.000000
1519.876260,-10572.117872,-14063.912898,19985.560434
1519.876579,-13942.938064,-12657.521608,26795.455100
1519.876898,-12180.918418,-21539.992912,22058.137072
1519.877217,-16930.710506,-25907.207970,23686.590144
1519.877536,-16317.834107,-22058.137072,26721.434506
1519.877855,-10035.851024,-1480.411884,24204.734303
1519.878173,-1915.238745,6661.853478,29164.114115
1519.878492,8197.221829,19985.560434,15322.262999
1519.878811,15781.567259,23982.672521,814.226536
1519.879130,19841.873398,23094.425390,-8290.306550
1519.879449,21067.626195,25389.063811,-14582.057057
1519.879767,17696.806004,23982.672521,-20503.704593
1519.880086,5669.106685,-3108.864956,-6069.688724
1519.880405,-4749.792088,-8512.368333,6143.709319
1519.880724,-9193.145976,-15544.324782,18283.086767
1519.881043,-14096.157163,-12139.377449,17838.963202
1519.881362,-13636.499864,-12287.418637,18505.148550
1519.881680,-14096.157163,-24870.919651,22724.322419
1519.881999,-18386.291952,-21021.848753,28423.908173
1519.882318,-17390.367805,-14804.118840,23464.528361
1519.882637,-6358.592633,4959.379811,29016.072926
1519.882956,3447.429741,15914.427753,20059.581028
1519.883274,10189.070123,23538.548956,2368.659014
1519.883593,17160.539155,14211.954086,4145.153275
1519.883912,20224.921147,19541.436869,-8808.450710
1519.884231,19612.044749,21539.992912,-25981.228564
1519.884550,19152.387450,18505.148550,-23464.528361
1519.884869,3983.696590,2664.741391,6439.791695
1519.885187,-4979.620737,-11769.274478,2368.659014
1519.885506,-7354.516781,-16284.530724,9326.594869
1519.885825,-9269.755526,-14063.912898,26869.475695
1519.886144,-11491.432470,-16950.716072,17468.860231
1519.886463,-15321.909960,-26277.310941,17024.736666
1519.886782,-15475.129060,-26203.290347,31680.814318
1519.887100,-9269.755526,-7328.038826,31976.896694
1519.887419,-2451.505594,1628.453072,22798.343014
1519.887738,8427.050478,16950.716072,15396.283594
1519.888057,17237.148705,22206.178260,3552.988522
1519.888376,22599.817191,16728.654289,-3997.112087
1519.888694,21603.893044,22872.363608,-15174.221811
1519.889013,23748.960438,19985.560434,-24870.919651
1519.889332,12947.013916,10807.006753,-20355.663405
1519.889651,2911.162892,-4145.153275,7846.182985
1519.889970,-5975.544884,-14804.118840,6957.935855
1519.890289,-7507.735880,-9548.656652,13619.789333
1519.890607,-6588.421283,-13841.851115,24426.796086
1519.890926,-14172.766713,-22058.137072,21391.951724
1519.891245,-13406.671215,-31606.793723,30052.361245
1519.891564,-13483.280765,-18061.024985,23686.590144
1519.891883,-9193.145976,592.164754,34715.658680
1519.892201,2681.334243,6143.709319,23020.404796
1519.892520,12027.699319,22872.363608,-296.082377
1519.892839,15398.519510,16136.489536,7254.018232
1519.893158,18922.558801,19763.498651,-10807.006753
1519.893477,19612.044749,25463.084405,-22946.384202
1519.893796,17696.806004,14656.077652,-14063.912898
1519.894114,2298.286494,-370.102971,-5255.462188
1519.894433,-7354.516781,-15396.283594,0.000000
1519.894752,-11108.384721,-17172.777854,24648.857869
1519.895071,-18845.949251,-16136.489536,17468.860231
1519.895390,-14172.766713,-18949.272115,21021.848753
1519.895708,-18309.682402,-23908.651927,20577.725188
1519.896027,-17543.586904,-24648.857869,34937.720462
1519.896346,-13330.061665,-9548.656652,26573.393318
1519.896665,-4136.915689,5255.462188,26129.269753
1519.896984,7048.078582,19097.313304,16210.510130
1519.897303,11644.651570,24870.919651,-2738.761985
1519.897621,19305.606550,14730.098246,-1036.288319
1519.897940,19612.044749,27609.681637,-15100.201217
1519.898259,18386.291952,23982.672521,-24352.775492
1519.898578,11721.261119,12213.398043,-11399.171507
1519.898897,1378.971896,-6513.812290,4515.256246
1519.899216,-11338.213370,-10362.883188,2220.617826
1519.899534,-9576.193725,-14952.160028,19097.313304
1519.899853,-12870.404366,-11991.336260,24944.940245
1519.900172,-12027.699319,-24130.713709,21095.869347
1519.900491,-18003.244203,-23760.610738,25685.146187
1519.900810,-14249.376263,-19097.313304,29534.217086
1519.901128,-9576.193725,4071.132681,27165.558071
1519.901447,842.705048,7179.997637,26795.455100
1519.901766,9729.412825,27313.599260,13471.748144
1519.902085,19075.777900,21465.972318,1258.350101
1519.902404,20761.187996,27239.578666,-9844.739029
1519.902723,25357.760984,22650.301825,-14359.995275
1519.903041,23059.474490,22946.384202,-25389.063811
1519.903360,8733.488677,-3330.926739,222.061783
1519.903679,-2451.505594,-10584.944971,8438.347739
1519.903998,-7814.174080,-17468.860231,5551.544565
1519.904317,-9269.755526,-7772.162391,18505.148550
1519.904635,-10265.679673,-12731.542202,25389.063811
1519.904954,-12870.404366,-27387.619854,26795.455100
1519.905273,-15475.129060,-23982.672521,29830.299463
1519.905592,-12947.013916,-8364.327145,24426.796086
1519.905911,-5439.278036,370.102971,31754.834912
1519.906230,3294.210641,16580.613101,14285.974681
1519.906548,13406.671215,21910.095883,148.041188
1519.906867,18003.244203,21169.889941,5329.482782
1519.907186,20454.749797,23168.445985,-13989.892304
1519.907505,19458.825649,22946.384202,-26351.331535
1519.907824,19228.997000,15174.221811,-16580.613101
1519.908142,2604.724693,3478.967927,-592.164754
1519.908461,-4366.744339,-16284.530724,-444.123565
1519.908780,-8580.269578,-15026.180623,17690.922014
1519.909099,-14019.547613,-13767.830521,23760.610738
1519.909418,-13483.280765,-22798.343014,19689.478057
1519.909737,-19535.435199,-28868.031738,22428.240043
1519.910055,-15551.738609,-22428.240043,29238.134709
1519.910374,-11797.870669,-1850.514855,23908.651927
1519.910693,-3983.696590,4663.297435,25018.960840
1519.911012,7201.297681,18505.148550,11843.295072
1519.911331,12257.527968,22354.219448,-2590.720797
1519.911649,16394.443657,20503.704593,-5255.462188
1519.911968,20148.311597,21317.931130,-12213.398043
1519.912287,16317.834107,21910.095883,-26277.310941
1519.912606,10342.289223,-6883.915261,2072.576638
1519.912925,-3600.648841,-8808.450710,2368.659014
1519.913244,-9652.803275,-16654.633695,7994.224174
1519.913562,-11414.822920,-11695.253884,20207.622217
1519.913881,-13636.499864,-17246.798449,23686.590144
1519.914200,-12717.185267,-24352.775492,21169.889941
1519.914519,-16011.395908,-27683.702231,27313.599260
1519.914838,-16700.881856,-15174.221811,24352.775492
1519.915157,-5132.839837,4145.153275,26203.290347
1519.915475,383.047749,12361.439231,15396.283594
1519.915794,12334.137518,23464.528361,5477.523971
1519.916113,15704.957709,18727.210333,3404.947333
1519.916432,21757.112143,24722.878463,-10732.986159
1519.916751,18616.120601,22354.219448,-22058.137072
1519.917069,18079.853753,14878.139434,-13471.748144
1519.917388,3140.991542,-222.061783,-2738.761985
1519.917707,-3677.258390,-10732.986159,4441.235652
1519.918026,-9193.145976,-14434.015869,18727.210333
1519.918345,-12180.918418,-9992.780217,22354.219448
1519.918664,-10572.117872,-16654.633695,20577.725188
1519.918982,-14402.595362,-18949.272115,23168.445985
1519.919301,-13559.890315,-17987.004391,28645.969955
1519.919620,-10572.117872,2072.576638,28349.887579
1519.919939,76.609550,4145.153275,23834.631332
1519.920258,9882.631924,23834.631332,14211.954086
1519.920576,18922.558801,27091.537477,5921.647536
1519.920895,19688.654299,17690.922014,-3256.906145
1519.921214,24744.884585,22650.301825,-12953.603985
1519.921533,23442.522239,25981.228564,-21910.095883
1519.921852,13100.233016,6735.874072,-13101.645173
1519.922171,0.000000,-4737.318029,6883.915261
1519.922489,-5822.325785,-10066.800811,5107.421000
1519.922808,-8197.221829,-11399.171507,14211.954086
1519.923127,-12717.185267,-18505.148550,28053.805202
1519.923446,-15015.471761,-27091.537477,25092.981434
1519.923765,-19458.825649,-23242.466579,20725.766376
1519.924083,-18769.339701,-19689.478057,26055.249158
1519.924402,-11491.432470,-0.000000,32346.999665
1519.924721,76.609550,7698.141797,25241.022622
1519.925040,10189.070123,30126.381839,8068.244768
1519.925359,18309.682402,23464.528361,4441.235652
1519.925678,19535.435199,25907.207970,-10510.924376
1519.925996,22140.159892,24130.713709,-16580.613101
1519.926315,16164.615008,18135.045579,-19763.498651
1519.926634,6511.811733,-1480.411884,3627.009116
1519.926953,-7354.516781,-7550.100608,444.123565
1519.927272,-9499.584175,-16136.489536,8068.244768
1519.927591,-13713.109414,-14730.098246,21984.116477
1519.927909,-13713.109414,-16136.489536,21910.095883
1519.928228,-19305.606550,-22280.198854,20281.642811
1519.928547,-20607.968896,-26869.475695,31384.731941
1519.928866,-17313.758255,-12287.418637,30126.381839
1519.929185,-6818.249932,3997.112087,29608.237680
1519.929503,2911.162892,18727.210333,18431.127956
1519.929822,12257.527968,25611.125593,5181.441594
1519.930141,20224.921147,19097.313304,1702.473667
1519.930460,21757.112143,28423.908173,-14359.995275
1519.930779,19612.044749,26129.269753,-22428.240043
1519.931098,15934.786358,12583.501014,-20651.745782
1519.931416,4213.525239,-8216.285956,11917.315666
1519.931735,-7354.516781,-5403.503377,2368.659014
1519.932054,-8733.488677,-19023.292709,11769.274478
1519.932373,-13330.061665,-13545.768739,23168.445985
1519.932692,-13406.671215,-23242.466579,23316.487173
1519.933010,-18692.730151,-28053.805202,19689.478057
1519.933329,-17160.539155,-25092.981434,25463.084405
1519.933648,-11644.651570,-2516.700203,24426.796086
1519.933967,1149.143247,9252.574275,26055.249158
1519.934286,10342.289223,22724.322419,9770.718434
1519.934605,18462.901502,25833.187376,2590.720797
1519.934923,22982.864940,21836.075289,-5329.482782
1519.935242,25204.541884,24352.775492,-19985.560434
1519.935561,24438.446386,20207.622217,-25833.187376
1519.935880,9882.631924,3330.926739,-2368.659014
1519.936199,0.000000,-10807.006753,-444.123565
1519.936517,-7584.345430,-15470.304188,1776.494261
1519.936836,-5898.935335,-6069.688724,24796.899057
1519.937155,-10495.508323,-15988.448347,25389.063811
1519.937474,-16164.615008,-29460.196492,17172.777854
1519.937793,-17083.929605,-32643.082042,33679.370361
1519.938112,-12870.404366,-14063.912898,26795.455100
1519.938430,-6971.469032,6217.729913,29312.155303
1519.938749,3370.820191,12065.356855,18135.045579
1519.939068,13789.718964,25241.022622,4219.173869
1519.939387,16164.615008,19245.354492,4737.318029
1519.939706,20684.578446,23612.569550,-10510.924376
1519.940025,21067.626195,24204.734303,-25018.960840
1519.940344,16471.053207,11695.253884,-5033.400406
1519.940663,5056.230287,-3330.926739,-6291.750507
1519.940982,-9576.193725,-19689.478057,74.020594
1519.941300,-10342.289223,-21317.931130,22946.384202
1519.941619,-18462.901502,-14063.912898,19393.395680
1519.941938,-13559.890315,-22872.363608,26647.413912
1519.942257,-20454.749797,-22872.363608,22724.322419
1519.942576,-15015.471761,-19171.333898,32865.143825
1519.942895,-11644.651570,148.041188,30496.484810
1519.943214,-2604.724693,12953.603985,22872.363608
1519.943533,7354.516781,20429.683999,10214.842000
1519.943852,13713.109414,21910.095883,3108.864956
1519.944171,14862.252661,20133.601622,-6217.729913
1519.944489,19228.997000,23464.528361,-18135.045579
1519.944808,15628.348159,16136.489536,-14211.954086
1519.945127,8656.879127,-296.082377,-6217.729913
1519.945446,-4366.744339,-4441.235652,-5477.523971
1519.945765,-9346.365076,-12065.356855,14434.015869
1519.946084,-15475.129060,-13767.830521,20651.745782
1519.946403,-11184.994271,-16210.510130,23908.651927
1519.946722,-17850.025103,-22132.157666,22946.384202
1519.947041,-17083.929605,-23538.548956,29090.093521
1519.947360,-15704.957709,-9400.615463,21021.848753
1519.947678,-1302.362347,3108.864956,29238.134709
1519.947997,6665.030833,16950.716072,18357.107362
1519.948316,15398.519510,24426.796086,3330.926739
1519.948635,22140.159892,13545.768739,6735.874072
1519.948954,25051.322785,27905.764013,-11917.315666
1519.949273,24361.836836,21910.095883,-24426.796086
1519.949592,17237.148705,12213.398043,-19171.333898
1519.949911,6511.811733,-5181.441594,5995.668130
1519.950230,-4903.011187,-7698.141797,3552.988522
1519.950548,-7660.954980,-15174.221811,11325.150913
1519.950867,-8810.098227,-12139.377449,27017.516883
1519.951186,-10189.070123,-12731.542202,20207.622217
1519.951505,-17926.634653,-29090.093521,20355.663405
1519.951824,-15628.348159,-22354.219448,29238.134709
1519.952143,-8656.879127,-3923.091493,39230.914926
1519.952462,229.828649,11399.171507,22872.363608
1519.952781,12104.308868,23168.445985,8068.244768
1519.953100,20224.921147,18949.272115,10584.944971
1519.953419,19918.482948,18875.251521,-4663.297435
1519.953737,20224.921147,22872.363608,-18135.045579
1519.954056,24361.836836,18875.251521,-21169.889941
1519.954375,7967.393179,3108.864956,-5699.585753
1519.954694,-1455.581446,-962.267725,-9178.553681
1519.955013,-10572.117872,-15840.407159,4959.379811
1519.955332,-11644.651570,-8290.306550,23686.590144
1519.955651,-13789.718964,-14804.118840,20503.704593
1519.955970,-20301.530697,-28127.825796,18283.086767
1519.956289,-19995.092498,-33013.185013,35677.926404
1519.956608,-20378.140247,-23464.528361,33013.185013
1519.956926,-10418.898773,296.082377,29978.340651
1519.957245,1838.629195,8438.347739,24352.775492
1519.957564,12027.699319,25167.002028,5921.647536
1519.957883,17850.025103,19911.539840,2072.576638
1519.958202,20837.797546,27017.516883,-9104.533087
1519.958521,19612.044749,23686.590144,-21984.116477
1519.958840,17926.634653,14656.077652,-19541.436869
1519.959159,6588.421283,-1480.411884,-2072.576638
1519.959478,-8427.050478,-7105.977043,-3701.029710
1519.959797,-9806.022374,-19245.354492,13249.686362
1519.960115,-14862.252661,-16876.695478,22058.137072
1519.960434,-13483.280765,-24648.857869,27757.722825
1519.960753,-19458.825649,-30052.361245,25685.146187
1519.961072,-17083.929605,-23982.672521,24352.775492
1519.961391,-11951.089769,-8142.265362,24648.857869
1519.961710,-1072.533697,10510.924376,26129.269753
1519.962029,6358.592633,14730.098246,15248.242405
1519.962348,17926.634653,25759.166782,8438.347739
1519.962667,20607.968896,19689.478057,-4737.318029
1519.962985,23136.084040,30274.423028,-21095.869347
1519.963304,23672.350888,25685.146187,-30792.567187
1519.963623,13330.061665,9622.677246,-6883.915261
1519.963942,-766.095498,-3849.070898,-9252.574275
1519.964261,-9959.241474,-14878.139434,2368.659014
1519.964580,-10418.898773,-13101.645173,23686.590144
1519.964899,-13866.328514,-19689.478057,25907.207970
1519.965218,-15934.786358,-28497.928767,21836.075289
1519.965537,-16547.662757,-27387.619854,30940.608376
1519.965856,-12104.308868,-17616.901420,32643.082042
1519.966174,-4443.353888,4811.338623,26425.352129
1519.966493,6281.983084,12065.356855,20947.828159
1519.966812,14325.985813,26055.249158,9178.553681
1519.967131,20224.921147,23686.590144,4737.318029
1519.967450,23748.960438,29460.196492,-16432.571912
1519.967769,24821.494135,23538.548956,-21539.992912
1519.968088,18845.949251,14878.139434,-17987.004391
1519.968407,7354.516781,-1998.556043,-1110.308913
1519.968726,-9729.412825,-10881.027347,-1850.514855
1519.969045,-12027.699319,-15988.448347,16358.551318
1519.969363,-9576.193725,-16802.674883,28423.908173
1519.969682,-11338.213370,-22502.260637,24130.713709
1519.970001,-19688.654299,-31680.814318,25907.207970
1519.970320,-15934.786358,-24130.713709,28868.031738
1519.970639,-11414.822920,1258.350101,28423.908173
1519.970958,306.438199,6957.935855,25167.002028
1519.971277,6818.249932,18505.148550,15248.242405
1519.971596,15168.690860,18357.107362,2812.782580
1519.971915,18233.072852,25611.125593,-13027.624579
1519.972233,22906.255390,29386.175897,-17468.860231
1519.972552,18999.168350,21243.910535,-24426.796086
1519.972871,10648.727422,6143.709319,-2442.679609
1519.973190,-2757.943793,-5995.668130,-4293.194464
1519.973509,-9499.584175,-20355.663405,17172.777854
1519.973828,-13866.328514,-11325.150913,22798.343014
1519.974147,-16088.005458,-20207.622217,21391.951724
1519.974466,-13789.718964,-29090.093521,27387.619854
1519.974785,-18769.339701,-26055.249158,31828.855506
1519.975104,-15321.909960,-11695.253884,21614.013506
1519.975422,-6052.154434,7179.997637,29386.175897
1519.975741,2681.334243,13101.645173,18357.107362
1519.976060,9959.241474,23834.631332,4145.153275
1519.976379,15704.957709,20355.663405,6957.935855
1519.976698,16547.662757,25907.207970,-12509.480420
1519.977017,17007.320056,24056.693115,-23464.528361
1519.977336,15398.519510,11695.253884,-7402.059420
1519.977655,3600.648841,-5847.626942,-3182.885551
1519.977974,-8656.879127,-11029.068536,-1480.411884
1519.978293,-10801.946522,-20207.622217,20947.828159
1519.978611,-13789.718964,-19023.292709,23390.507767
1519.978930,-9959.241474,-22132.157666,23390.507767
1519.979249,-15628.348159,-24426.796086,26055.249158
1519.979568,-12870.404366,-16876.695478,25611.125593
1519.979887,-5745.716235,-444.123565,28571.949361
1519.980206,2757.943793,11621.233289,21614.013506
1519.980525,9806.022374,22280.198854,5551.544565
1519.980844,17007.320056,19541.436869,6957.935855
1519.981163,20991.016645,22354.219448,-10881.027347
1519.981482,23748.960438,24796.899057,-23094.425390
1519.981800,20301.530697,18727.210333,-30792.567187
1519.982119,7354.516781,3330.926739,-518.144159
1519.982438,-766.095498,-7105.977043,-2072.576638
1519.982757,-7354.516781,-15100.201217,6735.874072
1519.983076,-10648.727422,-13249.686362,29164.114115
1519.983395,-12104.308868,-20281.642811,31902.876100
1519.983714,-15628.348159,-32124.937883,22354.219448
1519.984033,-14479.204912,-23464.528361,25685.146187
1519.984352,-12257.527968,-7846.182985,30792.567187
1519.984670,-919.314598,888.247130,23686.590144
1519.984989,7354.516781,17394.839637,6513.812290
1519.985308,15245.300410,24944.940245,4145.153275
1519.985627,18233.072852,19023.292709,-2146.597232
1519.985946,21603.893044,28127.825796,-17172.777854
1519.986265,17466.977354,21095.869347,-23760.610738
1519.986584,13176.842566,4811.338623,-4515.256246
1519.986903,-612.876398,-4071.132681,-7328.038826
1519.987222,-8427.050478,-18209.066173,9992.780217
1519.987541,-16930.710506,-16062.468941,19837.519246
1519.987859,-12257.527968,-23168.445985,28349.887579
1519.988178,-15858.176809,-24352.775492,21243.910535
1519.988497,-17926.634653,-21836.075289,26721.434506
1519.988816,-15168.690860,-18061.024985,31014.628970
1519.989135,-4903.011187,1850.514855,28053.805202
1519.989454,1378.971896,11547.212695,20577.725188
1519.989773,12180.918418,22206.178260,7624.121203
1519.990092,14785.643111,17764.942608,3701.029710
1519.990411,17390.367805,28201.846390,-9696.697840
1519.990730,15475.129060,23316.487173,-17764.942608
1519.991048,17083.929605,21317.931130,-11473.192101
1519.991367,3524.039291,2516.700203,-9030.512492
1519.991686,-10878.556072,-7846.182985,0.000000
1519.992005,-11184.994271,-19837.519246,22206.178260
1519.992324,-12334.137518,-18357.107362,23686.590144
1519.992643,-12487.356617,-22724.322419,20355.663405
1519.992962,-17850.025103,-28942.052332,25537.104999
1519.993281,-13253.452115,-16284.530724,28275.866984
1519.993600,-8656.879127,-3997.112087,24204.734303
1519.993919,1225.752797,9178.553681,26425.352129
1519.994237,11491.432470,22058.137072,13175.665768
1519.994556,16930.710506,21317.931130,-1702.473667
1519.994875,19612.044749,27165.558071,-8808.450710
1519.995194,20914.407095,22354.219448,-12361.439231
1519.995513,19535.435199,17468.860231,-19467.416275
1519.995832,10112.460574,1258.350101,-6587.832884
1519.996151,-2298.286494,-3849.070898,-2590.720797
1519.996470,-8656.879127,-17098.757260,16284.530724
1519.996789,-11414.822920,-14359.995275,24500.816680
1519.997107,-10725.336972,-15988.448347,27979.784608
1519.997426,-11951.089769,-25167.002028,22724.322419
1519.997745,-13100.233016,-19467.416275,24352.775492
1519.998064,-9499.584175,-5699.585753,28349.887579
1519.998383,-766.095498,3627.009116,23094.425390
1519.998702,7660.954980,15396.283594,11991.336260
1519.999021,16088.005458,24500.816680,5625.565159
1519.999340,17313.758255,19615.457463,-3034.844362
1519.999659,19918.482948,24648.857869,-15470.304188
1519.999978,20531.359346,22502.260637,-23316.487173
1520.000296,15168.690860,10732.986159,-8586.388927
1520.000615,1302.362347,3775.050304,-7920.203579
1520.000934,-6358.592633,-16580.613101,9030.512492
1520.001253,-11644.651570,-15470.304188,22576.281231
1520.001572,-14785.643111,-19171.333898,24722.878463
1520.001891,-16777.491406,-26721.434506,23982.672521
1520.002210,-15015.471761,-28942.052332,29164.114115
1520.002529,-15858.176809,-18061.024985,22724.322419
1520.002848,-7354.516781,740.205942,27609.681637
1520.003167,689.485948,8216.285956,18949.272115
1520.003485,9729.412825,21614.013506,-518.144159
1520.003804,11951.089769,21095.869347,-7402.059420
1520.004123,15245.300410,21836.075289,-6661.853478
1520.004442,13023.623466,15840.407159,-15692.365970
1520.004761,16930.710506,10140.821405,-14730.098246
1520.005080,4749.792088,1776.494261,-4219.173869
1520.005399,-7277.907231,-9178.553681,1258.350101
1520.005718,-10495.508323,-21243.910535,20651.745782
1520.006037,-10801.946522,-16580.613101,27535.661042
1520.006355,-10648.727422,-18949.272115,28423.908173
1520.006674,-14555.814462,-25167.002028,22576.281231
1520.006993,-11568.042020,-16432.571912,27239.578666
1520.007312,-4519.963438,370.102971,24426.796086
1520.007631,-995.924147,8216.285956,19541.436869
1520.007950,7660.954980,16136.489536,11917.315666
1520.008269,15398.519510,17024.736666,-222.061783
1520.008588,16317.834107,23094.425390,-12731.542202
1520.008907,15092.081311,21095.869347,-16358.551318
1520.009226,16547.662757,11177.109724,-13175.665768
1520.009544,9806.022374,5699.585753,-6809.894666
1520.009863,-3370.820191,-4959.379811,-2738.761985
1520.010182,-6205.373534,-18875.251521,17838.963202
1520.010501,-12410.747068,-18949.272115,23982.672521
1520.010820,-10035.851024,-20133.601622,28571.949361
1520.011139,-12793.794817,-19393.395680,24426.796086
1520.011458,-11031.775171,-19393.395680,28423.908173
1520.011777,-6435.202183,-2812.782580,26351.331535
1520.012096,2834.553343,14063.912898,21169.889941
1520.012415,8427.050478,16136.489536,10214.842000
1520.012733,15245.300410,21762.054695,1480.411884
1520.013052,12947.013916,22428.240043,-7550.100608
1520.013371,18003.244203,21836.075289,-7994.224174
1520.013690,14785.643111,15766.386565,-19023.292709
1520.014009,12487.356617,13323.706956,-15248.242405
1520.014328,-1991.848295,740.205942,-3478.967927
1520.014647,-7507.735880,-10658.965565,11325.150913
1520.014966,-11644.651570,-15248.242405,19763.498651
1520.015285,-11414.822920,-12435.459826,29460.196492
1520.015604,-14325.985813,-23168.445985,30052.361245
1520.015922,-12410.747068,-20577.725188,27017.516883
1520.016241,-12180.918418,-5107.421000,23982.672521
1520.016560,-2834.553343,3997.112087,26943.496289
1520.016879,2681.334243,10881.027347,17024.736666
1520.017198,11874.480219,19911.539840,7772.162391
1520.017517,11797.870669,14285.974681,-9252.574275
1520.017836,14172.766713,22798.343014,-8290.306550
1520.018155,16164.615008,18061.024985,-8882.471304
1520.018474,10265.679673,9474.636058,-16654.633695
1520.018792,1991.848295,-2886.803174,-4219.173869
1520.019111,-8503.660028,-9178.553681,15396.283594
1520.019430,-12717.185267,-17098.757260,20873.807564
1520.019749,-13176.842566,-16432.571912,22058.137072
1520.020068,-12334.137518,-17912.983796,28868.031738
1520.020387,-13406.671215,-21836.075289,26425.352129
1520.020706,-11414.822920,-12657.521608,27757.722825
1520.021025,-6588.421283,-1332.370696,24796.899057
1520.021344,1915.238745,7402.059420,22650.301825
1520.021663,11184.994271,16802.674883,9104.533087
1520.021981,11108.384721,16062.468941,-3034.844362
1520.022300,16624.272307,18061.024985,-7402.059420
1520.022619,15475.129060,18505.148550,-13989.892304
1520.022938,13483.280765,10881.027347,-22206.178260
1520.023257,4596.572988,5033.400406,-7550.100608
1520.023576,-4903.011187,-7105.977043,9696.697840
1520.023895,-8427.050478,-15766.386565,13915.871710
1520.024214,-7354.516781,-12953.603985,24278.754898
1520.024533,-10342.289223,-11843.295072,24648.857869
1520.024852,-10189.070123,-17024.736666,23538.548956
1520.025170,-11338.213370,-15248.242405,26647.413912
1520.025489,-2834.553343,-3923.091493,26425.352129
1520.025808,3677.258390,5033.400406,18653.189738
1520.026127,8963.317327,14582.057057,9178.553681
1520.026446,16317.834107,9252.574275,222.061783
1520.026765,16624.272307,16802.674883,-10807.006753
1520.027084,17313.758255,14434.015869,-11843.295072
1520.027403,12410.747068,8808.450710,-20355.663405
1520.027722,6971.469032,6513.812290,-13841.851115
1520.028041,-2757.943793,-3034.844362,3108.864956
1520.028359,-9039.926876,-12657.521608,13841.851115
1520.028678,-8656.879127,-13249.686362,23538.548956
1520.028997,-10189.070123,-13989.892304,25981.228564
1520.029316,-12410.747068,-19837.519246,28423.908173
1520.029635,-11721.261119,-17542.880825,27091.537477
1520.029954,-6052.154434,-7402.059420,25981.228564
1520.030273,1838.629195,2516.700203,21465.972318
1520.030592,8120.612279,7105.977043,15174.221811
1520.030911,12717.185267,11917.315666,-3182.885551
1520.031229,15934.786358,17542.880825,-10288.862594
1520.031548,15398.519510,18209.066173,-8586.388927
1520.031867,11491.432470,9326.594869,-21465.972318
1520.032186,4443.353888,5329.482782,-18949.272115
1520.032505,-4903.011187,-4145.153275,2368.659014
1520.032824,-11338.213370,-13915.871710,17098.757260
1520.033143,-13023.623466,-16210.510130,19171.333898
1520.033462,-14709.033562,-12509.480420,25611.125593
1520.033781,-12717.185267,-17690.922014,33457.308578
1520.034100,-10648.727422,-10881.027347,29386.175897
1520.034418,-7048.078582,-3478.967927,23538.548956
1520.034737,2987.772442,5107.421000,25315.043216
1520.035056,6971.469032,15470.304188,16654.633695
1520.035375,12487.356617,15840.407159,1776.494261
1520.035694,13176.842566,12879.583391,-8734.430116
1520.036013,15015.471761,17024.736666,-9178.553681
1520.036332,14019.547613,11843.295072,-16580.613101
1520.036651,5975.544884,6513.812290,-21317.931130
1520.036970,-766.095498,-1480.411884,-2368.659014
1520.037289,-7277.907231,-5847.626942,13027.624579
1520.037607,-11951.089769,-6143.709319,18579.169144
1520.037926,-11108.384721,-10732.986159,29534.217086
1520.038245,-8963.317327,-12065.356855,33087.205607
1520.038563,-10112.460574,-9030.512492,25389.063811
1520.038882,-6128.763984,-9992.780217,27239.578666
1520.039201,-2911.162892,1036.288319,26129.269753
1520.039520,5975.544884,3923.091493,18949.272115
1520.039838,9576.193725,9178.553681,4885.359217
1520.040157,13866.328514,15692.365970,-3627.009116
1520.040476,14172.766713,17838.963202,-15618.345376
1520.040794,11874.480219,14730.098246,-18949.272115
1520.041113,6511.811733,7550.100608,-15766.386565
1520.041432,536.266849,518.144159,0.000000
1520.041751,-8350.440928,-2368.659014,10658.965565
1520.042069,-11108.384721,-8142.265362,18653.189738
1520.042388,-12947.013916,-11991.336260,27609.681637
1520.042707,-9652.803275,-16432.571912,35825.967593
1520.043025,-9269.755526,-16728.654289,31754.834912
1520.043344,-7277.907231,-11029.068536,26055.249158
1520.043663,-383.047749,-2442.679609,24722.878463
1520.043982,8350.440928,10288.862594,16802.674883
1520.044300,13023.623466,12583.501014,6661.853478
1520.044619,17083.929605,14582.057057,-2960.823768
1520.044938,15245.300410,17098.757260,-15914.427753
1520.045257,15934.786358,14434.015869,-17764.942608
1520.045575,10878.556072,8290.306550,-15692.365970
1520.045894,3830.477490,4367.215058,-7772.162391
1520.046213,-2604.724693,-2516.700203,5921.647536
1520.046531,-6741.640382,-8216.285956,17320.819043
1520.046850,-9882.631924,-13249.686362,24648.857869
1520.047169,-11951.089769,-16728.654289,29016.072926
1520.047488,-10189.070123,-18431.127956,31976.896694
1520.047806,-9499.584175,-12213.398043,24500.816680
1520.048125,-4903.011187,-4589.276840,25759.166782
1520.048444,2451.505594,6513.812290,22576.281231
1520.048762,8810.098227,6439.791695,9770.718434
1520.049081,11951.089769,17987.004391,-1702.473667
1520.049400,11874.480219,14434.015869,-14730.098246
1520.049719,11874.480219,9178.553681,-16950.716072
1520.050037,7890.783629,6513.812290,-14730.098246
1520.050356,2374.896044,3182.885551,-10584.944971
1520.050675,-3907.087040,-4885.359217,1036.288319
1520.050993,-7737.564530,-10140.821405,16062.468941
1520.051312,-12257.527968,-12657.521608,22872.363608
1520.051631,-13100.233016,-16802.674883,29090.093521
1520.051950,-12410.747068,-17616.901420,31014.628970
1520.052268,-10189.070123,-11991.336260,25833.187376
1520.052587,-7354.516781,-5699.585753,21688.034101
1520.052906,-1532.190996,4663.297435,18209.066173
1520.053224,8963.317327,8364.327145,11325.150913
1520.053543,12640.575717,17542.880825,1480.411884
1520.053862,13023.623466,13471.748144,-10510.924376
1520.054181,12027.699319,11177.109724,-12287.418637
1520.054499,12563.966167,7698.141797,-12213.398043
1520.054818,4826.401637,3404.947333,-11991.336260
1520.055137,612.876398,-444.123565,-3034.844362
1520.055456,-5669.106685,-7624.121203,11695.253884
1520.055774,-7967.393179,-11473.192101,22502.260637
1520.056093,-10112.460574,-10288.862594,26203.290347
1520.056412,-9422.974625,-12953.603985,30422.464216
1520.056730,-9039.926876,-9622.677246,25907.207970
1520.057049,-3064.381992,-2886.803174,26277.310941
1520.057368,-536.266849,4219.173869,20873.807564
1520.057687,5286.058936,5033.400406,16580.613101
1520.058005,12947.013916,10362.883188,6439.791695
1520.058324,14632.424012,14804.118840,-7994.224174
1520.058643,15551.738609,11251.130318,-11991.336260
1520.058961,14325.985813,10510.924376,-13841.851115
1520.059280,7890.783629,5403.503377,-11843.295072
1520.059599,3064.381992,2886.803174,-2368.659014
1520.059918,-3140.991542,-3108.864956,8734.430116
1520.060236,-7660.954980,-6513.812290,18727.210333
1520.060555,-10035.851024,-7328.038826,23982.672521
1520.060874,-11184.994271,-13175.665768,29534.217086
1520.061192,-8963.317327,-15766.386565,26573.393318
1520.061511,-8350.440928,-9474.636058,23982.672521
1520.061830,-3907.087040,-2886.803174,25092.981434
1520.062149,2068.457845,4737.318029,15988.448347
1520.062467,11491.432470,11325.150913,7624.121203
1520.062786,13636.499864,14508.036463,-1850.514855
1520.063105,14402.595362,11843.295072,-8142.265362
1520.063424,13176.842566,11621.233289,-14211.954086
1520.063742,9346.365076,9178.553681,-15026.180623
1520.064061,3294.210641,2516.700203,-5921.647536
1520.064380,-2374.896044,-1628.453072,6809.894666
1520.064698,-6971.469032,-7920.203579,15544.324782
1520.065017,-12640.575717,-11917.315666,22058.137072
1520.065336,-13942.938064,-16062.468941,27313.599260
1520.065655,-11644.651570,-16580.613101,27239.578666
1520.065973,-11721.261119,-8512.368333,26573.393318
1520.066292,-6588.421283,-7402.059420,30718.546593
1520.066611,229.828649,8882.471304,18431.127956
1520.066929,8503.660028,13915.871710,11325.150913
1520.067248,13406.671215,14730.098246,74.020594
1520.067567,14709.033562,14063.912898,-8142.265362
1520.067886,14096.157163,11029.068536,-12953.603985
1520.068204,12104.308868,8660.409521,-13767.830521
1520.068523,3524.039291,4737.318029,-12805.562797
1520.068842,-995.924147,296.082377,666.185348
1520.069160,-7507.735880,-5033.400406,12065.356855
1520.069479,-9882.631924,-9844.739029,22132.157666
1520.069798,-13942.938064,-16284.530724,24796.899057
1520.070117,-15475.129060,-17838.963202,23390.507767
1520.070435,-14555.814462,-15174.221811,27979.784608
1520.070754,-12334.137518,-7031.956449,32346.999665
1520.071073,-5056.230287,4293.194464,21169.889941
1520.071391,8273.831378,14508.036463,16284.530724
1520.071710,12717.185267,15174.221811,6365.771101
1520.072029,15015.471761,17542.880825,-8438.347739
1520.072348,14555.814462,17616.901420,-14063.912898
1520.072666,15704.957709,10807.006753,-8512.368333
1520.072985,8580.269578,8660.409521,-13767.830521
1520.073304,995.924147,1628.453072,-7698.141797
1520.073623,-6281.983084,-8068.244768,9474.636058
1520.073941,-8120.612279,-12065.356855,20651.745782
1520.074260,-9576.193725,-12731.542202,22798.343014
1520.074579,-10342.289223,-14434.015869,23538.548956
1520.074897,-8810.098227,-14656.077652,23686.590144
1520.075216,-7737.564530,-9622.677246,32495.040854
1520.075535,-2068.457845,2146.597232,21539.992912
1520.075854,6818.249932,9622.677246,16432.571912
1520.076172,16471.053207,12583.501014,12361.439231
1520.076491,18769.339701,10881.027347,-2294.638420
1520.076810,21067.626195,17838.963202,-14359.995275
1520.077128,19612.044749,14730.098246,-21169.889941
1520.077447,12717.185267,8216.285956,-17246.798449
1520.077766,5286.058936,1998.556043,-6513.812290
1520.078085,-4596.572988,-1924.535449,5329.482782
1520.078403,-9729.412825,-11991.336260,17468.860231
1520.078722,-12717.185267,-15544.324782,26203.290347
1520.079041,-16471.053207,-14582.057057,18949.272115
1520.079359,-16777.491406,-21243.910535,31606.793723
1520.079678,-16471.053207,-19393.395680,35011.741057
1520.079997,-9269.755526,-2812.782580,31458.752535
1520.080316,3447.429741,13249.686362,22058.137072
1520.080634,9959.241474,15396.283594,14285.974681
1520.080953,14096.157163,16950.716072,1184.329507
1520.081272,14862.252661,21095.869347,-15470.304188
1520.081591,16854.100956,14508.036463,-10510.924376
1520.081909,9499.584175,8808.450710,-19911.539840
1520.082228,5209.449386,7179.997637,-15988.448347
1520.082547,-5822.325785,-1998.556043,-814.226536
1520.082865,-10265.679673,-10510.924376,12657.521608
1520.083184,-13176.842566,-20725.766376,24722.878463
1520.083503,-12257.527968,-14804.118840,21317.931130
1520.083822,-16547.662757,-21243.910535,24426.796086
1520.084140,-15704.957709,-24944.940245,35011.741057
1520.084459,-11568.042020,-6957.935855,29460.196492
1520.084778,-842.705048,8808.450710,19467.416275
1520.085096,10572.117872,13989.892304,18283.086767
1520.085415,14555.814462,16728.654289,5477.523971
1520.085734,20224.921147,17912.983796,-11917.315666
1520.086053,19765.263848,23020.404796,-14137.933492
1520.086371,18079.853753,14137.933492,-21465.972318
1520.086690,8197.221829,9696.697840,-20133.601622
1520.087009,-1991.848295,148.041188,-2368.659014
1520.087327,-8656.879127,-11177.109724,18061.024985
1520.087646,-10112.460574,-16284.530724,23168.445985
1520.087965,-13789.718964,-11843.295072,19615.457463
1520.088284,-14096.157163,-16580.613101,27387.619854
1520.088602,-13559.890315,-17764.942608,34123.493926
1520.088921,-14709.033562,-9474.636058,32643.082042
1520.089240,-3064.381992,4885.359217,26203.290347
1520.089558,9346.365076,10214.842000,24278.754898
1520.089877,13406.671215,16580.613101,5847.626942
1520.090196,16930.710506,20207.622217,-9696.697840
1520.090515,22523.207641,25018.960840,-12879.583391
1520.090833,19305.606550,18431.127956,-22280.198854
1520.091152,14096.157163,11103.089130,-21539.992912
1520.091471,2068.457845,3997.112087,-5995.668130
1520.091790,-7507.735880,-9696.697840,7105.977043
1520.092108,-8503.660028,-16506.592507,18727.210333
1520.092427,-13253.452115,-14878.139434,23686.590144
1520.092746,-15321.909960,-19837.519246,25907.207970
1520.093064,-17773.415554,-23242.466579,29460.196492
1520.093383,-14555.814462,-15100.201217,33383.287984
1520.093702,-5209.449386,2368.659014,26499.372724
1520.094021,5822.325785,6291.750507,22650.301825
1520.094339,10418.898773,15766.386565,9104.533087
1520.094658,17543.586904,19985.560434,-4589.276840
1520.094977,19075.777900,22798.343014,-11695.253884
1520.095295,18769.339701,15766.386565,-14952.160028
1520.095614,12793.794817,8734.430116,-20651.745782
1520.095933,3600.648841,5255.462188,-11991.336260
1520.096252,-6818.249932,-9104.533087,7920.203579
1520.096570,-9729.412825,-11177.109724,15914.427753
1520.096889,-11031.775171,-18431.127956,24648.857869
1520.097208,-14325.985813,-17468.860231,23242.466579
1520.097526,-16930.710506,-21984.116477,25389.063811
1520.097845,-16011.395908,-17690.922014,34863.699868
1520.098164,-12104.308868,-5255.462188,28275.866984
1520.098483,-76.609550,7698.141797,25833.187376
1520.098801,9499.584175,14508.036463,15618.345376
1520.099120,12563.966167,14285.974681,-1702.473667
1520.099439,17696.806004,23316.487173,-13397.727550
1520.099758,16777.491406,17987.004391,-11325.150913
1520.100076,12640.575717,7254.018232,-21391.951724
1520.100395,5745.716235,4737.318029,-17987.004391
1520.100714,-4443.353888,74.020594,3923.091493
1520.101032,-9346.365076,-11843.295072,11695.253884
1520.101351,-11031.775171,-15618.345376,20503.704593
1520.101670,-10878.556072,-15100.201217,26351.331535
1520.101989,-12410.747068,-19467.416275,23686.590144
1520.102307,-15628.348159,-22872.363608,33087.205607
1520.102626,-9269.755526,-7179.997637,30644.525999
1520.102945,842.705048,7328.038826,22502.260637
1520.103263,11031.775171,16876.695478,16432.571912
1520.103582,17160.539155,11991.336260,2738.761985
1520.103901,20301.530697,23760.610738,-9474.636058
1520.104220,21680.502593,24204.734303,-14656.077652
1520.104538,18539.511052,13915.871710,-25167.002028
1520.104857,11491.432470,7624.121203,-19541.436869
1520.105176,3677.258390,2590.720797,370.102971
1520.105494,-5286.058936,-6809.894666,9622.677246
1520.105813,-8350.440928,-16506.592507,16876.695478
1520.106132,-8963.317327,-16580.613101,27091.537477
1520.106451,-10495.508323,-17987.004391,27091.537477
1520.106769,-15168.690860,-21836.075289,30866.587781
1520.107088,-12180.918418,-14063.912898,31976.896694
1520.107407,-2528.115143,2146.597232,26943.496289
1520.107725,7967.393179,12583.501014,15988.448347
1520.108044,14938.862211,16876.695478,4219.173869
1520.108363,14709.033562,24574.837274,-7550.100608
1520.108682,15858.176809,22280.198854,-14211.954086
1520.109000,16700.881856,9992.780217,-14211.954086
1520.109319,10495.508323,7179.997637,-14359.995275
1520.109638,3370.820191,5033.400406,-4663.297435
1520.109957,-10801.946522,-6735.874072,2220.617826
1520.110275,-8120.612279,-15026.180623,20873.807564
1520.110594,-13253.452115,-20577.725188,28794.011144
1520.110913,-16624.272307,-23390.507767,26573.393318
1520.111231,-18616.120601,-21762.054695,27017.516883
1520.111550,-14709.033562,-7550.100608,26499.372724
1520.111869,-6741.640382,6957.935855,28497.928767
1520.112188,2911.162892,8068.244768,24500.816680
1520.112506,7890.783629,15840.407159,11547.212695
1520.112825,11108.384721,21762.054695,-5033.400406
1520.113144,13176.842566,21243.910535,-17912.983796
1520.113462,14096.157163,13323.706956,-11843.295072
1520.113781,11797.870669,7031.956449,-8734.430116
1520.114100,1608.800546,7698.141797,-11695.253884
1520.114419,-6358.592633,1480.411884,-740.205942
1520.114737,-12104.308868,-13397.727550,17320.819043
1520.115056,-9576.193725,-21614.013506,29386.175897
1520.115375,-13176.842566,-16728.654289,22946.384202
1520.115693,-16624.272307,-16802.674883,23612.569550
1520.116012,-18309.682402,-17394.839637,28423.908173
1520.116331,-9193.145976,-1628.453072,30126.381839
1520.116650,-1455.581446,10807.006753,20651.745782
1520.116968,8886.707777,13101.645173,14285.974681
1520.117287,10572.117872,19023.292709,-3108.864956
1520.117606,14019.547613,26351.331535,-18061.024985
1520.117925,20991.016645,16062.468941,-7254.018232
1520.118243,18156.463303,8586.388927,-14804.118840
1520.118562,10342.289223,7328.038826,-16580.613101
1520.118881,-153.219100,888.247130,-2368.659014
1520.119199,-7890.783629,-5847.626942,7698.141797
1520.119518,-6052.154434,-23020.404796,24056.693115
1520.119837,-7048.078582,-18505.148550,31458.752535
1520.120156,-11338.213370,-15766.386565,19837.519246
1520.120474,-14785.643111,-12953.603985,16284.530724
1520.120793,-6894.859482,-7846.182985,26795.455100
1520.121112,842.705048,6217.729913,26351.331535
1520.121430,9039.926876,3997.112087,20429.683999
1520.121749,12487.356617,20059.581028,1258.350101
1520.122068,16011.395908,19393.395680,-10658.965565
1520.122387,21067.626195,15026.180623,-9992.780217
1520.122705,21680.502593,14730.098246,-16062.468941
1520.123024,15628.348159,2294.638420,-12879.583391
1520.123343,4213.525239,6439.791695,-7772.162391
1520.123661,-4519.963438,-3330.926739,1184.329507
1520.123980,-5515.887586,-17098.757260,22132.157666
1520.124299,-7737.564530,-18135.045579,28201.846390
1520.124618,-12563.966167,-14582.057057,21391.951724
1520.124936,-18156.463303,-21614.013506,18283.086767
1520.125255,-15168.690860,-17320.819043,27091.537477
1520.125574,-6818.249932,-1702.473667,33827.411549
1520.125892,76.609550,6957.935855,21465.972318
1520.126211,8427.050478,17838.963202,7994.224174
1520.126530,11108.384721,23686.590144,-4515.256246
1520.126849,14172.766713,22798.343014,-11029.068536
1520.127167,16854.100956,9474.636058,-2146.597232
1520.127486,9499.584175,7994.224174,-5995.668130
1520.127805,3064.381992,5921.647536,-14137.933492
1520.128124,-7124.688131,1776.494261,-3034.844362
1520.128442,-9039.926876,-21317.931130,22132.157666
1520.128761,-11414.822920,-30200.402434,30274.423028
1520.129080,-13789.718964,-18431.127956,20503.704593
1520.129398,-16854.100956,-15248.242405,16580.613101
1520.129717,-15704.957709,-16358.551318,21021.848753
1520.130036,-9499.584175,-5773.606348,33161.226202
1520.130355,-2145.067394,4959.379811,24426.796086
1520.130673,3600.648841,14359.995275,8216.285956
1520.130992,10189.070123,26203.290347,-1332.370696
1520.131311,11951.089769,21539.992912,-7920.203579
1520.131629,20071.702048,16728.654289,-5625.565159
1520.131948,17160.539155,15026.180623,-12213.398043
1520.132267,7890.783629,8808.450710,-10807.006753
1520.132586,-689.485948,-3256.906145,-1702.473667
1520.132904,-9806.022374,-9474.636058,7179.997637
1520.133223,-7507.735880,-24204.734303,21910.095883
1520.133542,-12027.699319,-15618.345376,26277.310941
1520.133860,-14402.595362,-13693.809927,20133.601622
1520.134179,-16088.005458,-15692.365970,17098.757260
1520.134498,-8580.269578,-10955.047942,29830.299463
1520.134817,-995.924147,666.185348,30200.402434
1520.135135,459.657299,15544.324782,14582.057057
1520.135454,10801.946522,26351.331535,-1998.556043
1520.135773,12563.966167,19689.478057,296.082377
1520.136092,24515.055936,14359.995275,-2886.803174
1520.136410,23672.350888,18431.127956,-15100.201217
1520.136729,17466.977354,14582.057057,-20503.704593
1520.137048,5515.887586,4589.276840,-6809.894666
1520.137366,766.095498,-4219.173869,3923.091493
1520.137685,-4596.572988,-26869.475695,20133.601622
1520.138004,-9346.365076,-23168.445985,32643.082042
1520.138323,-11797.870669,-13323.706956,23686.590144
1520.138641,-11568.042020,-13693.809927,10584.944971
1520.138960,-10265.679673,-14952.160028,23760.610738
1520.139279,-3064.381992,-7328.038826,35677.926404
1520.139597,383.047749,3034.844362,15322.262999
1520.139916,3830.477490,21910.095883,1184.329507
1520.140235,11184.994271,24574.837274,-2590.720797
1520.140553,14709.033562,14434.015869,-222.061783
1520.140872,18156.463303,15692.365970,-4293.194464
1520.141191,14785.643111,13175.665768,-8586.388927
1520.141510,7277.907231,10140.821405,-12657.521608
1520.141828,-3140.991542,-1110.308913,-444.123565
1520.142147,-4136.915689,-19615.457463,21317.931130
1520.142466,-9729.412825,-22132.157666,30940.608376
1520.142784,-13559.890315,-14137.933492,20133.601622
1520.143103,-15858.176809,-14285.974681,14656.077652
1520.143422,-13559.890315,-19911.539840,25315.043216
1520.143740,-7660.954980,-18431.127956,29904.320057
1520.144059,-3677.258390,5921.647536,16136.489536
1520.144378,229.828649,20651.745782,8882.471304
1520.144697,5362.668486,23538.548956,-3478.967927
1520.145015,11184.994271,12287.418637,-1480.411884
1520.145334,14555.814462,8142.265362,5847.626942
1520.145653,9499.584175,13101.645173,-9326.594869
1520.145971,6511.811733,16950.716072,-16654.633695
1520.146290,-1378.971896,888.247130,-2146.597232
1520.146609,-6358.592633,-13175.665768,15544.324782
1520.146927,-7814.174080,-29386.175897,33679.370361
1520.147246,-15092.081311,-20281.642811,24352.775492
1520.147565,-16777.491406,-9548.656652,6513.812290
1520.147883,-11721.261119,-16654.633695,20799.786970
1520.148202,-9499.584175,-17394.839637,29830.299463
1520.148521,-1072.533697,-370.102971,27609.681637
1520.148840,1608.800546,21688.034101,8882.471304
1520.149158,7737.564530,27905.764013,-4367.215058
1520.149477,16394.443657,16802.674883,5995.668130
1520.149796,23595.741338,21317.931130,-1258.350101
1520.150114,22063.550342,15692.365970,-18357.107362
1520.150433,17543.586904,16654.633695,-19911.539840
1520.150752,5822.325785,4071.132681,-2146.597232
1520.151070,689.485948,-8882.471304,5255.462188
1520.151389,-919.314598,-22132.157666,15026.180623
1520.151708,-8120.612279,-12435.459826,24500.816680
1520.152026,-11184.994271,-10288.862594,21243.910535
1520.152345,-12870.404366,-18135.045579,12213.398043
1520.152664,-8427.050478,-23538.548956,29682.258274
1520.152983,-2987.772442,-1628.453072,24796.899057
1520.153301,1149.143247,13397.727550,17838.963202
1520.153620,4749.792088,16876.695478,2442.679609
1520.153939,13406.671215,21243.910535,3923.091493
1520.154257,17466.977354,11399.171507,2886.803174
1520.154576,17160.539155,13471.748144,-8808.450710
1520.154895,13636.499864,16580.613101,-15322.262999
1520.155213,8197.221829,14656.077652,-13619.789333
1520.155532,-3217.601092,-2960.823768,2368.659014
1520.155851,-5515.887586,-20725.766376,18283.086767
1520.156170,-13330.061665,-27165.558071,27091.537477
1520.156488,-16547.662757,-18949.272115,25537.104999
1520.156807,-18845.949251,-12213.398043,8142.265362
1520.157126,-15551.738609,-20429.683999,26943.496289
1520.157444,-10112.460574,-17616.901420,33531.329173
1520.157763,-4826.401637,2812.782580,18505.148550
1520.158082,-1838.629195,15470.304188,7772.162391
1520.158400,6818.249932,23242.466579,666.185348
1520.158719,16241.224558,11177.109724,4737.318029
1520.159038,19995.092498,19837.519246,-2738.761985
1520.159356,14709.033562,17098.757260,-13323.706956
1520.159675,11568.042020,17690.922014,-15026.180623
1520.159994,3140.991542,2812.782580,-5773.606348
1520.160313,-3677.258390,-12213.398043,14878.139434
1520.160631,-8350.440928,-25167.002028,27165.558071
1520.160950,-12180.918418,-16654.633695,22058.137072
1520.161269,-14249.376263,-10807.006753,10881.027347
1520.161587,-16394.443657,-22724.322419,22798.343014
1520.161906,-13023.623466,-25537.104999,36566.173535
1520.162225,-7124.688131,1406.391290,19467.416275
1520.162543,-2374.896044,15914.427753,12361.439231
1520.162862,5898.935335,24944.940245,7550.100608
1520.163181,13406.671215,18431.127956,6069.688724
1520.163500,20761.187996,17394.839637,-3923.091493
1520.163818,19458.825649,17616.901420,-10510.924376
1520.164137,15781.567259,19837.519246,-18135.045579
1520.164456,7507.735880,7624.121203,-10732.986159
1520.164774,383.047749,-2516.700203,4367.215058
1520.165093,-3983.696590,-20651.745782,14137.933492
1520.165412,-10572.117872,-22872.363608,26055.249158
1520.165730,-14325.985813,-15988.448347,21614.013506
1520.166049,-15475.129060,-14285.974681,14656.077652
1520.166368,-13253.452115,-21614.013506,23982.672521
1520.166686,-7584.345430,-7846.182985,27683.702231
1520.167005,-612.876398,10214.842000,23168.445985
1520.167324,2987.772442,20873.807564,7105.977043
1520.167643,11874.480219,28423.908173,3627.009116
1520.167961,18003.244203,16062.468941,3849.070898
1520.168280,22063.550342,19837.519246,-5403.503377
1520.168599,18769.339701,18135.045579,-15914.427753
1520.168917,14325.985813,14211.954086,-16284.530724
1520.169236,1455.581446,-1110.308913,-6513.812290
1520.169555,-4060.306139,-14211.954086,14359.995275
1520.169873,-6741.640382,-23612.569550,26351.331535
1520.170192,-11874.480219,-16062.468941,23390.507767
1520.170511,-12870.404366,-13619.789333,13545.768739
1520.170829,-15015.471761,-15914.427753,16580.613101
1520.171148,-9652.803275,-18579.169144,30718.546593
1520.171467,-5362.668486,-0.000000,27609.681637
1520.171786,1455.581446,13915.871710,15470.304188
1520.172104,6435.202183,22798.343014,-2072.576638
1520.172423,12257.527968,16506.592507,-1184.329507
1520.172742,15475.129060,14730.098246,-2072.576638
1520.173060,17390.367805,12287.418637,-3034.844362
1520.173379,11261.603821,14359.995275,-16654.633695
1520.173698,4213.525239,3404.947333,-6957.935855
1520.174016,-6971.469032,-6809.894666,5329.482782
1520.174335,-8580.269578,-27683.702231,25759.166782
1520.174654,-11874.480219,-25463.084405,28868.031738
1520.174973,-16317.834107,-16950.716072,18357.107362
1520.175291,-15628.348159,-18579.169144,15988.448347
1520.175610,-12334.137518,-13027.624579,29682.258274
1520.175929,-3370.820191,-1258.350101,33383.287984
1520.176247,3524.039291,7179.997637,16580.613101
1520.176566,7354.516781,23686.590144,2368.659014
1520.176885,11951.089769,16728.654289,-592.164754
1520.177203,14709.033562,14063.912898,-2146.597232
1520.177522,19612.044749,19763.498651,-11547.212695
1520.177841,17543.586904,19689.478057,-21984.116477
1520.178159,6511.811733,5847.626942,-3701.029710
1520.178478,-2911.162892,-2960.823768,296.082377
1520.178797,-2681.334243,-16432.571912,16876.695478
1520.179116,-8810.098227,-20133.601622,21762.054695
1520.179434,-14785.643111,-19689.478057,23242.466579
1520.179753,-14862.252661,-24574.837274,24278.754898
1520.180072,-17160.539155,-21317.931130,27313.599260
1520.180390,-7814.174080,-9696.697840,29756.278868
1520.180709,2528.115143,11029.068536,24796.899057
1520.181028,8656.879127,20725.766376,6143.709319
1520.181346,11491.432470,31680.814318,3404.947333
1520.181665,16088.005458,19911.539840,1850.514855
1520.181984,23978.789087,18949.272115,-14211.954086
1520.182302,22140.159892,21243.910535,-23760.610738
1520.182621,8350.440928,16136.489536,-13841.851115
1520.182940,-1225.752797,-222.061783,1924.535449
1520.183259,-8350.440928,-12509.480420,-3034.844362
1520.183577,-8580.269578,-26055.249158,29682.258274
1520.183896,-16241.224558,-30274.423028,38564.729578
1520.184215,-20914.407095,-19689.478057,13841.851115
1520.184533,-21527.283494,-23538.548956,17468.860231
1520.184852,-14709.033562,-16210.510130,35085.761651
1520.185171,-4366.744339,1702.473667,30200.402434
1520.185489,3064.381992,11621.233289,16654.633695
1520.185808,4443.353888,27535.661042,6735.874072
1520.186127,15781.567259,24722.878463,1184.329507
1520.186446,22293.378992,27979.784608,-15988.448347
1520.186764,25587.589633,23982.672521,-15100.201217
1520.187083,18616.120601,18949.272115,-19097.313304
1520.187402,4290.134789,2590.720797,-10066.800811
1520.187720,-6128.763984,-6365.771101,5403.503377
1520.188039,-6281.983084,-26499.372724,19763.498651
1520.188358,-10112.460574,-23390.507767,31310.711347
1520.188676,-13483.280765,-16210.510130,21910.095883
1520.188995,-17543.586904,-25833.187376,19467.416275
1520.189314,-16317.834107,-18209.066173,28719.990550
1520.189632,-10265.679673,-8734.430116,31088.649564
1520.189951,2987.772442,5403.503377,25981.228564
1520.190270,6511.811733,18727.210333,5921.647536
1520.190589,12104.308868,30274.423028,-1110.308913
1520.190907,16317.834107,18653.189738,-7105.977043
1520.191226,22982.864940,18801.230927,-8364.327145
1520.191545,19228.997000,16802.674883,-19837.519246
1520.191863,10572.117872,18653.189738,-14582.057057
1520.192182,-1762.019645,814.226536,4441.235652
1520.192501,-8886.707777,-13027.624579,740.205942
1520.192819,-5515.887586,-29756.278868,32198.958477
1520.193138,-13330.061665,-30348.443622,37454.420665
1520.193457,-17160.539155,-25315.043216,10140.821405
1520.193776,-20837.797546,-23094.425390,19837.519246
1520.194094,-11568.042020,-17320.819043,36122.049970
1520.194413,-2528.115143,4441.235652,31384.731941
1520.194732,5362.668486,13323.706956,14211.954086
1520.195050,7507.735880,28053.805202,3849.070898
1520.195369,16088.005458,24574.837274,-370.102971
1520.195688,22676.426741,31236.690752,-15840.407159
1520.196006,25127.932334,18949.272115,-18875.251521
1520.196325,13866.328514,19023.292709,-20429.683999
1520.196644,3600.648841,5995.668130,-2072.576638
1520.196962,-10418.898773,-12583.501014,814.226536
1520.197281,-7814.174080,-22946.384202,21910.095883
1520.197600,-7967.393179,-33605.349767,40045.141462
1520.197919,-15628.348159,-20799.786970,22428.240043
1520.198237,-17083.929605,-25167.002028,12953.603985
1520.198556,-14555.814462,-19393.395680,28201.846390
1520.198875,-7814.174080,-2294.638420,32865.143825
1520.199193,3524.039291,9400.615463,21688.034101
1520.199512,6052.154434,21762.054695,9918.759623
1520.199831,14709.033562,29460.196492,-1998.556043
1520.200149,20378.140247,25759.166782,-14508.036463
1520.200468,26660.123330,23686.590144,-18579.169144
1520.200787,19612.044749,15692.365970,-23686.590144
1520.201105,7201.297681,9400.615463,-16506.592507
1520.201424,-5822.325785,-4737.318029,9400.615463
1520.201743,-7431.126331,-14508.036463,11547.212695
1520.202062,-7354.516781,-21688.034101,30052.361245
1520.202380,-12410.747068,-28645.969955,30496.484810
1520.202699,-25510.980083,-29016.072926,15322.262999
1520.203018,-22446.598091,-26277.310941,27017.516883
1520.203336,-17160.539155,-16728.654289,36344.111752
1520.203655,-8963.317327,2368.659014,27091.537477
1520.203974,4136.915689,17098.757260,17468.860231
1520.204292,8886.707777,35825.967593,888.247130
1520.204611,17160.539155,27239.578666,-3478.967927
1520.204930,20378.140247,27017.516883,-17172.777854
1520.205249,20837.797546,21836.075289,-13397.727550
1520.205567,15628.348159,20281.642811,-11029.068536
1520.205886,1838.629195,1406.391290,-5773.606348
1520.206205,-9193.145976,-9474.636058,0.000000
1520.206523,-8350.440928,-23834.631332,24722.878463
1520.206842,-9499.584175,-30940.608376,32569.061448
1520.207161,-12257.527968,-25389.063811,20873.807564
1520.207479,-14249.376263,-25315.043216,22576.281231
1520.207798,-14632.424012,-17542.880825,28127.825796
1520.208117,-6511.811733,-4663.297435,25611.125593
1520.208435,3524.039291,8808.450710,28571.949361
1520.208754,8580.269578,21243.910535,10732.986159
1520.209073,16471.053207,27535.661042,-5329.482782
1520.209392,21067.626195,30126.381839,-13693.809927
1520.209710,25510.980083,24278.754898,-11769.274478
1520.210029,20531.359346,20429.683999,-27239.578666
1520.210348,7201.297681,5255.462188,-814.226536
1520.210666,-2145.067394,-7920.203579,6883.915261
1520.210985,-9882.631924,-22576.281231,10658.965565
1520.211304,-9193.145976,-22428.240043,29904.320057
1520.211622,-14709.033562,-22724.322419,31606.793723
1520.211941,-14862.252661,-28127.825796,19837.519246
1520.212260,-15168.690860,-22946.384202,24056.693115
1520.212579,-11644.651570,-11547.212695,33827.411549
1520.212897,1149.143247,11917.315666,31828.855506
1520.213216,7660.954980,17616.901420,7550.100608
1520.213535,16624.272307,28423.908173,3182.885551
1520.213853,15015.471761,23464.528361,-5255.462188
1520.214172,21986.940793,22724.322419,-12953.603985
1520.214491,19535.435199,23834.631332,-27091.537477
1520.214809,9652.803275,19615.457463,-25685.146187
1520.215128,1225.752797,444.123565,8364.327145
1520.215447,-8044.002729,-11991.336260,5551.544565
1520.215765,-8120.612279,-21910.095883,19245.354492
1520.216084,-13176.842566,-26943.496289,31014.628970
1520.216403,-19612.044749,-27387.619854,22872.363608
1520.216722,-21986.940793,-35381.844028,33161.226202
1520.217040,-17160.539155,-21317.931130,30348.443622
1520.217359,-8427.050478,4663.297435,28275.866984
1520.217678,4826.401637,12361.439231,19393.395680
1520.217996,7354.516781,28571.949361,2294.638420
1520.218315,15245.300410,23316.487173,-3923.091493
1520.218634,21450.673944,25389.063811,-9918.759623
1520.218952,21680.502593,29756.278868,-24426.796086
1520.219271,16088.005458,22946.384202,-29682.258274
1520.219590,3064.381992,4071.132681,1480.411884
1520.219908,-7201.297681,-9178.553681,5847.626942
1520.220227,-10495.508323,-23020.404796,12879.583391
1520.220546,-11031.775171,-25981.228564,31680.814318
1520.220865,-15015.471761,-25389.063811,27609.681637
1520.221183,-18922.558801,-30866.587781,21169.889941
1520.221502,-17160.539155,-21391.951724,27757.722825
1520.221821,-12334.137518,-11251.130318,28645.969955
1520.222139,-612.876398,5551.544565,29682.258274
1520.222458,5745.716235,20873.807564,8068.244768
1520.222777,15398.519510,32346.999665,148.041188
1520.223095,18769.339701,27313.599260,-10436.903782
1520.223414,23672.350888,27609.681637,-14878.139434
1520.223733,18999.168350,22724.322419,-23168.445985
1520.224052,10495.508323,8586.388927,-11325.150913
1520.224370,229.828649,-8586.388927,3256.906145
1520.224689,-7124.688131,-16432.571912,6957.935855
1520.225008,-5822.325785,-22280.198854,27905.764013
1520.225326,-12717.185267,-22650.301825,26351.331535
1520.225645,-11951.089769,-29238.134709,26055.249158
1520.225964,-12180.918418,-19837.519246,23094.425390
1520.226282,-7431.126331,-9770.718434,26943.496289
1520.226601,3140.991542,8512.368333,32198.958477
1520.226920,9652.803275,16210.510130,12361.439231
1520.227238,14172.766713,30644.525999,4293.194464
1520.227557,17696.806004,22058.137072,-3997.112087
1520.227876,21450.673944,17246.798449,-10881.027347
1520.228195,20378.140247,22428.240043,-22058.137072
1520.228513,9806.022374,19689.478057,-23908.651927
1520.228832,1838.629195,4219.173869,5699.585753
1520.229151,-6511.811733,-14508.036463,2590.720797
1520.229469,-6358.592633,-17542.880825,24352.775492
1520.229788,-15551.738609,-25167.002028,33975.452738
1520.230107,-20071.702048,-25092.981434,21021.848753
1520.230425,-19305.606550,-29238.134709,29534.217086
1520.230744,-13713.109414,-16802.674883,30052.361245
1520.231063,-9193.145976,3034.844362,35455.864622
1520.231381,4443.353888,13175.665768,22132.157666
1520.231700,9269.755526,33901.432144,-3404.947333
1520.232019,13483.280765,21391.951724,-1628.453072
1520.232338,20224.921147,27905.764013,-9474.636058
1520.232656,15858.176809,23168.445985,-19245.354492
1520.232975,12717.185267,19837.519246,-15840.407159
1520.233294,2451.505594,7105.977043,-7920.203579
1520.233612,-15704.957709,-12361.439231,-666.185348
1520.233931,-14632.424012,-30718.546593,26721.434506
1520.234250,-16088.005458,-26869.475695,35011.741057
1520.234568,-14555.814462,-25463.084405,26573.393318
1520.234887,-19075.777900,-28497.928767,25092.981434
1520.235206,-12104.308868,-7920.203579,29460.196492
1520.235525,-4213.525239,2960.823768,31310.711347
1520.235843,4060.306139,12583.501014,23094.425390
1520.236162,8886.707777,22872.363608,4811.338623
1520.236481,18999.168350,22058.137072,148.041188
1520.236799,20837.797546,25611.125593,-19763.498651
1520.237118,25434.370534,30718.546593,-21762.054695
1520.237437,20454.749797,21465.972318,-30200.402434
1520.237755,6205.373534,6143.709319,740.205942
1520.238074,-4749.792088,-5329.482782,-3923.091493
1520.238393,-8810.098227,-21243.910535,10214.842000
1520.238712,-8733.488677,-24870.919651,37602.461854
1520.239030,-15628.348159,-25167.002028,29238.134709
1520.239349,-20301.530697,-35085.761651,26055.249158
1520.239668,-15934.786358,-22354.219448,27165.558071
1520.239986,-11261.603821,-2960.823768,31680.814318
1520.240305,3370.820191,12509.480420,25463.084405
1520.240624,10648.727422,24722.878463,2368.659014
1520.240943,19688.654299,31236.690752,518.144159
1520.241261,18079.853753,30052.361245,-10658.965565
1520.241580,25587.589633,32865.143825,-19911.539840
1520.241899,16394.443657,17172.777854,-30200.402434
1520.242218,13483.280765,1332.370696,5255.462188
1520.242536,-2911.162892,-16580.613101,-3108.864956
1520.242855,-5592.497135,-23464.528361,17394.839637
1520.243174,-6435.202183,-29904.320057,36936.276506
1520.243492,-7814.174080,-23094.425390,28645.969955
1520.243811,-6818.249932,-23094.425390,14285.974681
1520.244130,-5132.839837,-9474.636058,23686.590144
1520.244449,0.000000,-4589.276840,35233.802839
1520.244767,6205.373534,9548.656652,17764.942608
1520.245086,14632.424012,17542.880825,2442.679609
1520.245405,13330.061665,14434.015869,-3701.029710
1520.245723,18233.072852,9696.697840,-7846.182985
1520.246042,16317.834107,17838.963202,-20281.642811
1520.246361,12640.575717,10214.842000,-22798.343014
1520.246680,7354.516781,-8216.285956,-1702.473667
1520.246998,-5286.058936,-23834.631332,3108.864956
1520.247317,-8197.221829,-29534.217086,31236.690752
1520.247636,-8273.831378,-29312.155303,34937.720462
1520.247955,-14325.985813,-25537.104999,20133.601622
1520.248273,-6894.859482,-19097.313304,27461.640448
1520.248592,-459.657299,-10066.800811,38268.647201
1520.248911,3677.258390,7624.121203,22354.219448
1520.249229,15245.300410,6217.729913,6883.915261
1520.249548,14709.033562,15618.345376,2220.617826
1520.249867,17237.148705,14804.118840,-4367.215058
1520.250186,15858.176809,13915.871710,-15396.283594
1520.250504,12640.575717,16506.592507,-26203.290347
1520.250823,2987.772442,2960.823768,-19319.375086
1520.251142,-4136.915689,-14730.098246,1628.453072
1520.251461,-11951.089769,-24944.940245,15322.262999
1520.251779,-10418.898773,-21539.992912,28275.866984
1520.252098,-14479.204912,-21021.848753,24944.940245
1520.252417,-13483.280765,-22872.363608,28571.949361
1520.252735,-8120.612279,-16876.695478,35233.802839
1520.253054,-5592.497135,148.041188,29090.093521
1520.253373,7354.516781,13619.789333,10807.006753
1520.253692,16011.395908,21095.869347,7105.977043
1520.254010,15704.957709,22650.301825,-4145.153275
1520.254329,13789.718964,18727.210333,-15692.365970
1520.254648,14479.204912,22502.260637,-15396.283594
1520.254967,8580.269578,14285.974681,-19393.395680
1520.255285,1991.848295,-5181.441594,-9030.512492
1520.255604,-7354.516781,-18875.251521,10658.965565
1520.255923,-10265.679673,-21688.034101,22428.240043
1520.256241,-8580.269578,-16950.716072,26055.249158
1520.256560,-8580.269578,-11843.295072,30792.567187
1520.256879,-2604.724693,-10881.027347,32050.917289
1520.257198,-1685.410096,296.082377,21021.848753
1520.257516,5286.058936,8068.244768,17246.798449
1520.257835,8656.879127,8808.450710,10066.800811
1520.258154,13636.499864,7846.182985,0.000000
1520.258473,12717.185267,15396.283594,-6661.853478
1520.258791,16088.005458,13841.851115,-4515.256246
1520.259110,10035.851024,11399.171507,-14211.954086
1520.259429,4903.011187,814.226536,-10436.903782
1520.259747,-2298.286494,-13175.665768,15100.201217
1520.260066,-7660.954980,-15322.262999,20429.683999
1520.260385,-7354.516781,-9918.759623,21984.116477
1520.260704,-6435.202183,-4441.235652,32421.020260
1520.261022,612.876398,-6439.791695,29830.299463
1520.261341,612.876398,-2220.617826,25537.104999
1520.261660,4903.011187,-0.000000,21762.054695
1520.261979,7967.393179,1850.514855,12361.439231
1520.262297,10648.727422,4737.318029,7772.162391
1520.262616,11414.822920,11103.089130,-3849.070898
1520.262935,14862.252661,5181.441594,-2516.700203
1520.263253,11568.042020,3627.009116,-5921.647536
1520.263572,7737.564530,-1480.411884,-3108.864956
1520.263891,1991.848295,-7179.997637,296.082377
1520.264210,1762.019645,-10436.903782,10140.821405
1520.264528,1225.752797,-8438.347739,16802.674883
1520.264847,919.314598,-4959.379811,19097.313304
1520.265166,-1455.581446,-7031.956449,18579.169144
1520.265484,306.438199,-2368.659014,19689.478057
1520.265803,-459.657299,-4515.256246,19393.395680
1520.266122,-2528.115143,-3997.112087,10214.842000
1520.266441,-1072.533697,-2960.823768,12805.562797
1520.266759,-306.438199,1628.453072,7105.977043
1520.267078,229.828649,-296.082377,4219.173869
1520.267397,2757.943793,-74.020594,2812.782580
1520.267716,3447.429741,-3478.967927,2072.576638
1520.268034,3447.429741,-3997.112087,0.000000
1520.268353,3677.258390,-6069.688724,4441.235652
1520.268672,3064.381992,-5255.462188,9548.656652
1520.268990,2604.724693,-5477.523971,10955.047942
1520.269309,536.266849,-3478.967927,13323.706956
1520.269628,-306.438199,-3404.947333,17542.880825
1520.269947,-2911.162892,-2664.741391,13915.871710
1520.270265,-2911.162892,-148.041188,8364.327145
1520.270584,-2987.772442,-1406.391290,8956.491898
1520.270903,-2068.457845,-296.082377,7994.224174
1520.271222,0.000000,-2220.617826,5477.523971
1520.271540,2681.334243,-2516.700203,4515.256246
1520.271859,4596.572988,-4145.153275,4959.379811
1520.272178,7584.345430,-5329.482782,6217.729913
1520.272496,7507.735880,-3256.906145,4441.235652
1520.272815,9039.926876,-0.000000,5699.585753
1520.273134,9039.926876,1258.350101,6291.750507
1520.273453,7814.174080,2146.597232,7624.121203
1520.273771,6741.640382,-148.041188,10214.842000
1520.274090,4519.963438,148.041188,8216.285956
1520.274409,2681.334243,-0.000000,7328.038826
1520.274728,842.705048,-592.164754,6587.832884
1520.275046,76.609550,-2886.803174,7031.956449
1520.275365,-995.924147,-5033.400406,8364.327145
1520.275684,-919.314598,-6439.791695,11029.068536
1520.276002,536.266849,-5477.523971,11917.315666
1520.276321,1762.019645,-2294.638420,11399.171507
1520.276640,4903.011187,814.226536,10955.047942
1520.276959,5822.325785,2664.741391,9178.553681
1520.277277,7277.907231,592.164754,9992.780217
1520.277596,6894.859482,-1554.432478,8364.327145
1520.277915,7201.297681,-3552.988522,9178.553681
1520.278234,5515.887586,-2886.803174,7105.977043
1520.278552,4290.134789,-3552.988522,6291.750507
1520.278871,2221.676944,-3701.029710,6365.771101
1520.279190,0.000000,-2738.761985,7846.182985
1520.279508,-2068.457845,-3997.112087,10807.006753
1520.279827,-2298.286494,-0.000000,12287.418637
1520.280146,-1378.971896,-222.061783,14656.077652
1520.280465,0.000000,1480.411884,16136.489536
1520.280783,459.657299,-814.226536,17024.736666
1520.281102,995.924147,-3330.926739,16580.613101
1520.281421,1608.800546,-4663.297435,14730.098246
1520.281739,3677.258390,-4737.318029,12509.480420
1520.282058,5056.230287,-3552.988522,9178.553681
1520.282377,5439.278036,-1110.308913,4885.359217
1520.282696,5515.887586,-0.000000,3404.947333
1520.283014,3907.087040,296.082377,3404.947333
1520.283333,2451.505594,1628.453072,4811.338623
1520.283652,995.924147,1850.514855,7624.121203
1520.283971,306.438199,2442.679609,10214.842000
1520.284289,-995.924147,666.185348,12213.398043
1520.284608,-1072.533697,-2368.659014,15470.304188
1520.284927,-842.705048,-5477.523971,16802.674883
1520.285245,383.047749,-6291.750507,16580.613101
1520.285564,2451.505594,-5033.400406,14063.912898
1520.285883,3677.258390,-2516.700203,10732.986159
1520.286202,5362.668486,-518.144159,8142.265362
1520.286520,6281.983084,1406.391290,5033.400406
1520.286839,6818.249932,2886.803174,2590.720797
1520.287158,6358.592633,3701.029710,1480.411884
1520.287477,6052.154434,3849.070898,1924.535449
1520.287795,5515.887586,1776.494261,4441.235652
1520.288114,4136.915689,-0.000000,6143.709319
1520.288433,2911.162892,-2960.823768,9548.656652
1520.288751,1685.410096,-4589.276840,12287.418637
1520.289070,1149.143247,-6143.709319,14434.015869
1520.289389,1072.533697,-6143.709319,14952.160028
1520.289708,995.924147,-4589.276840,13249.686362
1520.290026,1455.581446,-2294.638420,11473.192101
1520.290345,1072.533697,-666.185348,9844.739029
1520.290664,1915.238745,444.123565,8956.491898
1520.290983,3294.210641,1554.432478,5625.565159
1520.291301,4903.011187,2738.761985,3627.009116
1520.291620,6511.811733,1036.288319,2960.823768
1520.291939,6358.592633,-1036.288319,3775.050304
1520.292257,5898.935335,-3552.988522,5625.565159
1520.292576,4136.915689,-4811.338623,8216.285956
1520.292895,2987.772442,-5033.400406,10140.821405
1520.293214,1225.752797,-4219.173869,11843.295072
1520.293532,76.609550,-3701.029710,12213.398043
1520.293851,-689.485948,-2738.761985,12435.459826
1520.294170,-1225.752797,-2294.638420,11473.192101
1520.294489,-1762.019645,-2220.617826,10140.821405
1520.294807,-1838.629195,-2368.659014,9696.697840
1520.295126,-1455.581446,-2516.700203,9178.553681
1520.295445,-459.657299,-3330.926739,9178.553681
1520.295763,383.047749,-3775.050304,8734.430116
1520.296082,2068.457845,-3701.029710,8956.491898
1520.296401,2757.943793,-2738.761985,8364.327145
1520.296720,4366.744339,-1776.494261,8586.388927
1520.297038,5056.230287,-1480.411884,9178.553681
1520.297357,5209.449386,-814.226536,9104.533087
1520.297676,4366.744339,-1406.391290,9104.533087
1520.297994,3064.381992,-1998.556043,8882.471304
1520.298313,2145.067394,-2590.720797,8956.491898
1520.298632,1072.533697,-2516.700203,8956.491898
1520.298951,459.657299,-2738.761985,8882.471304
1520.299269,-612.876398,-1998.556043,9474.636058
1520.299588,-306.438199,-1702.473667,10066.800811
1520.299907,-229.828649,-1110.308913,10732.986159
1520.300226,383.047749,-740.205942,10807.006753
1520.300544,689.485948,-1406.391290,10658.965565
1520.300863,1762.019645,-1406.391290,10807.006753
1520.301182,3217.601092,-962.267725,10288.862594
1520.301500,3830.477490,-740.205942,8660.409521
1520.301819,4213.525239,148.041188,6809.894666
1520.302138,4979.620737,148.041188,7328.038826
1520.302457,4596.572988,888.247130,5847.626942
1520.302775,3677.258390,1258.350101,5847.626942
1520.303094,2834.553343,2220.617826,6883.915261
1520.303413,2068.457845,3330.926739,7476.080014
1520.303732,1915.238745,2072.576638,9030.512492
1520.304050,1072.533697,592.164754,10436.903782
1520.304369,766.095498,-518.144159,11843.295072
1520.304688,995.924147,-1554.432478,11843.295072
1520.305006,689.485948,-1480.411884,11769.274478
1520.305325,2221.676944,-3034.844362,11917.315666
1520.305644,1762.019645,-2516.700203,9770.718434
1520.305963,2374.896044,-1924.535449,8142.265362
1520.306281,2145.067394,-296.082377,6957.935855
1520.306600,2451.505594,1628.453072,6069.688724
1520.306919,2451.505594,1998.556043,5847.626942
1520.307238,1608.800546,2072.576638,6883.915261
1520.307556,842.705048,518.144159,9178.553681
1520.307875,766.095498,-370.102971,11325.150913
1520.308194,306.438199,-2368.659014,13027.624579
1520.308512,306.438199,-3997.112087,14211.954086
1520.308831,842.705048,-5477.523971,15988.448347
1520.309150,995.924147,-4663.297435,14804.118840
1520.309469,2451.505594,-4441.235652,14211.954086
1520.309787,2451.505594,-3997.112087,12361.439231
1520.310106,2911.162892,-2220.617826,9992.780217
1520.310425,4060.306139,-666.185348,7254.018232
1520.310744,3983.696590,-0.000000,5181.441594
1520.311062,4903.011187,-1036.288319,6587.832884
1520.311381,4596.572988,-1628.453072,7254.018232
1520.311700,4596.572988,-1924.535449,8142.265362
1520.312018,5286.058936,-2812.782580,9770.718434
1520.312337,5592.497135,-3182.885551,11325.150913
1520.312656,5898.935335,-3256.906145,11695.253884
1520.312975,6435.202183,-3034.844362,11029.068536
1520.313293,6205.373534,-2368.659014,10881.027347
1520.313612,6665.030833,-1406.391290,9030.512492
1520.313931,6128.763984,-444.123565,6957.935855
1520.314249,5362.668486,-518.144159,5995.668130
1520.314568,4826.401637,-1258.350101,5329.482782
1520.314887,3983.696590,-1184.329507,4885.359217
1520.315206,4060.306139,-2294.638420,5847.626942
1520.315524,3294.210641,-3034.844362,6957.935855
1520.315843,3217.601092,-3256.906145,7846.182985
1520.316162,3217.601092,-3330.926739,9252.574275
1520.316481,2834.553343,-3256.906145,10214.842000
1520.316799,3677.258390,-3701.029710,10436.903782
1520.317118,3830.477490,-3034.844362,10362.883188
1520.317437,4290.134789,-2886.803174,8882.471304
1520.317755,4673.182538,-3256.906145,7994.224174
1520.318074,4213.525239,-3552.988522,7476.080014
1520.318393,4366.744339,-3923.091493,7105.977043
1520.318712,3524.039291,-3034.844362,6069.688724
1520.319030,3064.381992,-2664.741391,6439.791695
1520.319349,2528.115143,-2516.700203,7328.038826
1520.319668,2987.772442,-2738.761985,8512.368333
1520.319987,3140.991542,-3552.988522,10584.944971
1520.320305,2681.334243,-4441.235652,11695.253884
1520.320624,2834.553343,-5329.482782,12731.542202
1520.320943,1915.238745,-5921.647536,13471.748144
1520.321261,1762.019645,-5995.668130,13471.748144
1520.321580,1915.238745,-5477.523971,12657.521608
1520.321899,1991.848295,-4293.194464,10881.027347
1520.322218,2298.286494,-2442.679609,9030.512492
1520.322536,3447.429741,-1480.411884,8142.265362
1520.322855,2374.896044,-0.000000,6809.894666
1520.323174,2298.286494,74.020594,7105.977043
1520.323493,995.924147,-296.082377,7846.182985
1520.323811,76.609550,-1332.370696,9844.739029
1520.324130,0.000000,-2960.823768,11103.089130
1520.324449,-229.828649,-2960.823768,11843.295072
1520.324767,536.266849,-2368.659014,12435.459826
1520.325086,766.095498,-1110.308913,11251.130318
1520.325405,766.095498,-444.123565,10807.006753
1520.325724,995.924147,-370.102971,10658.965565
1520.326042,306.438199,370.102971,9918.759623
1520.326361,1149.143247,1998.556043,8216.285956
1520.326680,1149.143247,2812.782580,6735.874072
1520.326999,1225.752797,3404.947333,6069.688724
1520.327317,1608.800546,3256.906145,6143.709319
1520.327636,1378.971896,2516.700203,6809.894666
1520.327955,1991.848295,1554.432478,8734.430116
1520.328273,2145.067394,-0.000000,9770.718434
1520.328592,2451.505594,-370.102971,10881.027347
1520.328911,2757.943793,-370.102971,11473.192101
1520.329230,3064.381992,-666.185348,11843.295072
1520.329548,3753.867940,-0.000000,11177.109724
1520.329867,3983.696590,740.205942,10362.883188
1520.330186,4673.182538,1924.535449,9474.636058
1520.330504,4290.134789,2664.741391,8068.244768
1520.330823,5515.887586,2960.823768,8142.265362
1520.331142,5209.449386,1554.432478,7772.162391
1520.331461,5209.449386,296.082377,8364.327145
1520.331779,5056.230287,-518.144159,9104.533087
1520.332098,5745.716235,-740.205942,10584.944971
1520.332417,5745.716235,-1480.411884,10584.944971
1520.332736,5745.716235,-2072.576638,11251.130318
1520.333054,5439.278036,-2738.761985,11399.171507
1520.333373,4903.011187,-2664.741391,11325.150913
1520.333692,4903.011187,-2442.679609,10510.924376
1520.334010,2987.772442,-2146.597232,9548.656652
1520.334329,2451.505594,-2590.720797,9696.697840
1520.334648,919.314598,-2516.700203,8512.368333
1520.334967,229.828649,-2590.720797,8882.471304
1520.335285,-306.438199,-3182.885551,9400.615463
1520.335604,-1915.238745,-2738.761985,8882.471304
1520.335923,-1762.019645,-3182.885551,9992.780217
1520.336242,-1838.629195,-1776.494261,9992.780217
1520.336560,-1072.533697,-1850.514855,10732.986159
1520.336879,-1225.752797,-3404.947333,10658.965565
1520.337198,-536.266849,-3997.112087,12139.377449
1520.337516,919.314598,-3627.009116,11399.171507
1520.337835,1838.629195,-2220.617826,9770.718434
1520.338154,2145.067394,-2664.741391,9030.512492
1520.338473,2451.505594,-3775.050304,8734.430116
1520.338791,3140.991542,-2590.720797,7105.977043
1520.339110,4519.963438,-1628.453072,5847.626942
1520.339429,4903.011187,-962.267725,5181.441594
1520.339748,5056.230287,-1702.473667,5477.523971
1520.340066,5286.058936,-2368.659014,6439.791695
1520.340386,4290.134789,-3478.967927,7105.977043
1520.340705,3217.601092,-4515.256246,8364.327145
1520.341023,2451.505594,-5477.523971,10140.821405
1520.341342,1532.190996,-5181.441594,10881.027347
1520.341661,1302.362347,-5477.523971,10510.924376
1520.341980,842.705048,-5329.482782,10732.986159
1520.342298,1455.581446,-4811.338623,11029.068536
1520.342617,1685.410096,-3627.009116,9474.636058
1520.342936,1685.410096,-2442.679609,8142.265362
1520.343255,1685.410096,-1628.453072,8512.368333
1520.343573,2604.724693,-814.226536,8438.347739
1520.343892,3983.696590,-740.205942,8142.265362
1520.344211,5515.887586,-666.185348,8512.368333
1520.344529,6205.373534,-592.164754,7994.224174
1520.344848,6588.421283,-888.247130,7105.977043
1520.345167,5669.106685,-1998.556043,7031.956449
1520.345486,4903.011187,-2590.720797,7846.182985
1520.345804,3830.477490,-2590.720797,7994.224174
1520.346123,2681.334243,-2960.823768,7105.977043
1520.346442,1838.629195,-2664.741391,7476.080014
1520.346760,766.095498,-1480.411884,8808.450710
1520.347079,306.438199,-74.020594,8290.306550
1520.347398,76.609550,666.185348,8660.409521
1520.347717,-306.438199,444.123565,10732.986159
1520.348035,-153.219100,666.185348,12065.356855
1520.348354,995.924147,1332.370696,11917.315666
1520.348673,2834.553343,1480.411884,12139.377449
1520.348991,4596.572988,1924.535449,11251.130318
1520.349310,6588.421283,1776.494261,8882.471304
1520.349629,7048.078582,666.185348,7105.977043
1520.349948,7048.078582,-518.144159,6809.894666
1520.350266,6128.763984,-0.000000,6069.688724
1520.350585,5745.716235,-0.000000,5995.668130
1520.350904,3753.867940,-444.123565,7698.141797
1520.351222,1455.581446,-814.226536,9104.533087
1520.351541,-689.485948,-740.205942,11621.233289
1520.351860,-1378.971896,-1258.350101,14137.933492
1520.352179,-1685.410096,-2442.679609,15174.221811
1520.352497,-1225.752797,-2886.803174,16432.571912
1520.352816,-229.828649,-2812.782580,16136.489536
1520.353135,1302.362347,-2220.617826,14285.974681
1520.353453,2987.772442,-1850.514855,11991.336260
1520.353772,5132.839837,-1850.514855,9992.780217
1520.354091,6052.154434,-666.185348,7402.059420
1520.354410,6358.592633,-148.041188,5551.544565
1520.354728,5822.325785,-370.102971,5551.544565
1520.355047,3370.820191,-0.000000,5477.523971
1520.355366,1762.019645,-740.205942,7624.121203
1520.355684,-766.095498,-1332.370696,9992.780217
1520.356003,-2451.505594,-3330.926739,12805.562797
1520.356322,-2528.115143,-4145.153275,15174.221811
1520.356641,-2604.724693,-4219.173869,15692.365970
1520.356959,-1072.533697,-4515.256246,16210.510130
1520.357278,689.485948,-3256.906145,14508.036463
1520.357597,3140.991542,-1628.453072,10881.027347
1520.357915,5056.230287,-1850.514855,7624.121203
1520.358234,5745.716235,-740.205942,5921.647536
1520.358553,6588.421283,370.102971,3034.844362
1520.358872,6128.763984,666.185348,518.144159
1520.359190,5209.449386,-0.000000,444.123565
1520.359509,3370.820191,-1702.473667,3552.988522
1520.359828,1149.143247,-3330.926739,5403.503377
1520.360146,-842.705048,-4071.132681,9548.656652
1520.360465,-1685.410096,-4515.256246,13397.727550
1520.360784,-1302.362347,-4367.215058,15248.242405
1520.361103,-383.047749,-3701.029710,15988.448347
1520.361421,1532.190996,-2738.761985,15914.427753
1520.361740,4060.306139,-1036.288319,12657.521608
1520.362059,7201.297681,-814.226536,10214.842000
1520.362377,8733.488677,-0.000000,5921.647536
1520.362696,9806.022374,-666.185348,1628.453072
1520.363015,9806.022374,-962.267725,-222.061783
1520.363334,7890.783629,-1036.288319,-1554.432478
1520.363652,6281.983084,-3997.112087,740.205942
1520.363971,3140.991542,-4737.318029,2442.679609
1520.364290,229.828649,-4737.318029,6661.853478
1520.364608,-2681.334243,-4071.132681,10288.862594
1520.364927,-4673.182538,-3701.029710,13471.748144
1520.365246,-6588.421283,-4219.173869,17690.922014
1520.365565,-6435.202183,-3775.050304,19393.395680
1520.365883,-5822.325785,-2590.720797,16728.654289
1520.366202,-4366.744339,-444.123565,13989.892304
1520.366521,-2374.896044,962.267725,10066.800811
1520.366839,-612.876398,888.247130,5329.482782
1520.367158,1915.238745,2368.659014,2146.597232
1520.367477,2757.943793,3404.947333,-444.123565
1520.367796,2451.505594,3701.029710,-444.123565
1520.368114,2145.067394,3701.029710,592.164754
1520.368433,1072.533697,2368.659014,4145.153275
1520.368752,-383.047749,888.247130,8438.347739
1520.369070,-2528.115143,1110.308913,11029.068536
1520.369389,-2987.772442,1110.308913,13397.727550
1520.369708,-3907.087040,222.061783,15174.221811
1520.370027,-3524.039291,-148.041188,16432.571912
1520.370345,-3064.381992,-74.020594,15322.262999
1520.370664,-1149.143247,2590.720797,12509.480420
1520.370983,0.000000,3182.885551,9030.512492
1520.371301,1608.800546,3701.029710,6143.709319
1520.371620,3064.381992,4589.276840,4515.256246
1520.371939,3064.381992,5477.523971,3923.091493
1520.372258,3677.258390,5403.503377,4219.173869
1520.372576,3370.820191,4219.173869,5477.523971
1520.372895,2298.286494,2738.761985,8364.327145
1520.373214,1149.143247,-0.000000,12213.398043
1520.373532,-459.657299,-2442.679609,16580.613101
1520.373851,-1378.971896,-2812.782580,17394.839637
1520.374170,-1532.190996,-2072.576638,19319.375086
1520.374489,-459.657299,-1110.308913,17468.860231
1520.374807,0.000000,1036.288319,15692.365970
1520.375126,1532.190996,3330.926739,12139.377449
1520.375445,3447.429741,4515.256246,7254.018232
1520.375764,3907.087040,6069.688724,5107.421000
1520.376082,4366.744339,5403.503377,3256.906145
1520.376401,3600.648841,3404.947333,2590.720797
1520.376720,2068.457845,1406.391290,4441.235652
1520.377038,229.828649,-1480.411884,7624.121203
1520.377357,-1991.848295,-3701.029710,10881.027347
1520.377676,-2681.334243,-4515.256246,14804.118840
1520.377995,-3524.039291,-3701.029710,17764.942608
1520.378313,-2604.724693,-1036.288319,18135.045579
1520.378632,-1532.190996,666.185348,17912.983796
1520.378951,689.485948,2738.761985,15026.180623
1520.379269,2834.553343,4219.173869,11399.171507
1520.379588,5592.497135,3997.112087,7031.956449
1520.379907,5745.716235,2664.741391,3923.091493
1520.380226,5286.058936,2368.659014,1554.432478
1520.380544,4903.011187,962.267725,0.000000
1520.380863,3830.477490,-0.000000,444.123565
1520.381182,919.314598,-1554.432478,3330.926739
1520.381500,-1455.581446,-3182.885551,7105.977043
1520.381819,-3600.648841,-4293.194464,10955.047942
1520.382138,-4749.792088,-3256.906145,14804.118840
1520.382457,-4903.011187,-3923.091493,17172.777854
1520.382775,-3524.039291,-2738.761985,18431.127956
1520.383094,-1455.581446,-2664.741391,16876.695478
1520.383413,995.924147,-444.123565,13101.645173
1520.383731,3524.039291,-0.000000,8734.430116
1520.384050,6052.154434,592.164754,4885.359217
1520.384369,7431.126331,2368.659014,-148.041188
1520.384688,7354.516781,3627.009116,-3256.906145
1520.385006,5209.449386,2072.576638,-3404.947333
1520.385325,1838.629195,296.082377,-1110.308913
1520.385644,-1378.971896,-1702.473667,2738.761985
1520.385962,-4903.011187,-4441.235652,7994.224174
1520.386281,-7814.174080,-6069.688724,12731.542202
1520.386600,-8733.488677,-6365.771101,17246.798449
1520.386919,-8503.660028,-6513.812290,20133.601622
1520.387237,-7431.126331,-3775.050304,18875.251521
1520.387556,-4596.572988,-1332.370696,19393.395680
1520.387875,-995.924147,962.267725,14434.015869
1520.388193,2528.115143,4885.359217,7698.141797
1520.388512,6435.202183,6069.688724,2590.720797
1520.388831,7048.078582,5847.626942,-2368.659014
1520.389150,6894.859482,4663.297435,-4959.379811
1520.389468,6511.811733,3701.029710,-3997.112087
1520.389787,3447.429741,666.185348,-888.247130
1520.390106,536.266849,-1924.535449,4145.153275
1520.390424,-3064.381992,-3182.885551,9326.594869
1520.390743,-4749.792088,-4663.297435,15618.345376
1520.391062,-5669.106685,-4515.256246,18949.272115
1520.391381,-6818.249932,-1258.350101,20207.622217
1520.391699,-3064.381992,-1036.288319,23168.445985
1520.392018,-2145.067394,4219.173869,17246.798449
1520.392337,2911.162892,3330.926739,14285.974681
1520.392655,5745.716235,3849.070898,10214.842000
1520.392974,9193.145976,4071.132681,3552.988522
1520.393293,10495.508323,2590.720797,-740.205942
1520.393612,9039.926876,3775.050304,-3849.070898
1520.393930,7967.393179,3034.844362,-370.102971
1520.394249,6052.154434,-222.061783,1258.350101
1520.394568,1915.238745,-0.000000,4441.235652
1520.394886,-995.924147,-3034.844362,11621.233289
1520.395205,-5056.230287,-3108.864956,16654.633695
1520.395524,-7048.078582,-2738.761985,19911.539840
1520.395843,-7124.688131,-4219.173869,23908.651927
1520.396161,-5975.544884,-962.267725,25389.063811
1520.396480,-3064.381992,962.267725,22206.178260
1520.396799,2451.505594,3997.112087,15026.180623
1520.397117,5898.935335,8068.244768,9252.574275
1520.397436,9346.365076,8586.388927,2072.576638
1520.397755,10112.460574,7328.038826,-3182.885551
1520.398074,9806.022374,9474.636058,-6809.894666
1520.398392,7507.735880,4293.194464,-3330.926739
1520.398711,3294.210641,3330.926739,-1036.288319
1520.399030,-1455.581446,-222.061783,6661.853478
1520.399348,-4213.525239,-3478.967927,12953.603985
1520.399667,-8350.440928,-5847.626942,18209.066173
1520.399986,-9652.803275,-4441.235652,24130.713709
1520.400305,-9193.145976,-2072.576638,23390.507767
1520.400623,-6588.421283,2220.617826,23612.569550
1520.400942,-2374.896044,6661.853478,19541.436869
1520.401261,306.438199,9474.636058,13545.768739
1520.401579,4673.182538,9844.739029,6957.935855
1520.401898,5515.887586,8364.327145,-1258.350101
1520.402217,6281.983084,6217.729913,-4663.297435
1520.402536,4290.134789,3182.885551,-5477.523971
1520.402854,2068.457845,296.082377,-4367.215058
1520.403173,-919.314598,-1924.535449,1110.308913
1520.403492,-4673.182538,-3330.926739,6143.709319
1520.403810,-8350.440928,-7550.100608,14878.139434
1520.404129,-10342.289223,-8808.450710,19689.478057
1520.404448,-10035.851024,-5699.585753,22650.301825
1520.404767,-8197.221829,-4071.132681,25685.146187
1520.405085,-4596.572988,-0.000000,24870.919651
1520.405404,306.438199,2812.782580,16210.510130
1520.405723,4366.744339,6735.874072,7994.224174
1520.406041,8656.879127,4959.379811,3775.050304
1520.406360,9729.412825,5699.585753,-4737.318029
1520.406679,8733.488677,4293.194464,-10436.903782
1520.406998,6971.469032,4145.153275,-7698.141797
1520.407316,4060.306139,296.082377,-3034.844362
1520.407635,-842.705048,-4663.297435,370.102971
1520.407954,-5745.716235,-7846.182985,9696.697840
1520.408273,-8733.488677,-11473.192101,19467.416275
1520.408591,-8733.488677,-10140.821405,21391.951724
1520.408910,-7124.688131,-6809.894666,24056.693115
1520.409229,-4826.401637,-3701.029710,27461.640448
1520.409547,0.000000,1332.370696,20947.828159
1520.409866,5592.497135,3775.050304,13989.892304
1520.410185,9806.022374,7328.038826,5773.606348
1520.410504,12334.137518,5403.503377,-814.226536
1520.410822,13253.452115,6883.915261,-9770.718434
1520.411141,12027.699319,8734.430116,-11769.274478
1520.411460,9729.412825,592.164754,-7179.997637
1520.411778,4136.915689,-962.267725,-4737.318029
1520.412097,-459.657299,592.164754,2220.617826
1520.412416,-5669.106685,-7031.956449,12583.501014
1520.412735,-8810.098227,-8882.471304,20725.766376
1520.413053,-8656.879127,-8586.388927,25018.960840
1520.413372,-6665.030833,-5403.503377,26055.249158
1520.413691,-4366.744339,-2516.700203,28127.825796
1520.414009,1685.410096,1036.288319,21836.075289
1520.414328,5975.544884,4219.173869,11991.336260
1520.414647,11261.603821,7920.203579,6069.688724
1520.414966,12104.308868,6661.853478,-3923.091493
1520.415284,10035.851024,8290.306550,-11769.274478
1520.415603,10265.679673,6957.935855,-11029.068536
1520.415922,6128.763984,2590.720797,-7920.203579
1520.416240,306.438199,296.082377,-1184.329507
1520.416559,-5515.887586,-1776.494261,5181.441594
1520.416878,-11644.651570,-6291.750507,14434.015869
1520.417197,-13330.061665,-11769.274478,27239.578666
1520.417515,-16624.272307,-11473.192101,26499.372724
1520.417834,-14785.643111,-9252.574275,31828.855506
1520.418153,-10801.946522,-4737.318029,36714.214723
1520.418471,-6128.763984,4367.215058,20133.601622
1520.418790,2451.505594,15174.221811,13471.748144
1520.419109,7660.954980,13767.830521,5773.606348
1520.419428,9039.926876,13175.665768,-2664.741391
1520.419746,7584.345430,11547.212695,-11473.192101
1520.420065,6818.249932,11103.089130,-9696.697840
1520.420384,6588.421283,9326.594869,-3923.091493
1520.420702,-459.657299,222.061783,-6513.812290
1520.421021,-3524.039291,-1258.350101,4441.235652
1520.421340,-10572.117872,-10881.027347,19837.519246
1520.421659,-13789.718964,-12805.562797,25018.960840
1520.421977,-12257.527968,-11621.233289,27683.702231
1520.422296,-8503.660028,-3256.906145,32791.123231
