#time,accel_x,accel_y,accel_z
1418.099861,459.657299,518.144159,9252.574275
1418.100180,306.438199,370.102971,9326.594869
1418.100499,306.438199,592.164754,9400.615463
1418.100817,459.657299,370.102971,9178.553681
1418.101136,76.609550,296.082377,9104.533087
1418.101455,612.876398,296.082377,8956.491898
1418.101774,459.657299,-74.020594,9474.636058
1418.102093,689.485948,370.102971,9326.594869
1418.102412,459.657299,222.061783,9178.553681
1418.102731,536.266849,222.061783,8956.491898
1418.103049,153.219100,370.102971,9178.553681
1418.103368,459.657299,222.061783,9326.594869
1418.103687,383.047749,370.102971,9400.615463
1418.104006,459.657299,592.164754,9474.636058
1418.104325,536.266849,222.061783,9252.574275
1418.104644,612.876398,518.144159,8956.491898
1418.104963,689.485948,370.102971,9326.594869
1418.105282,919.314598,518.144159,9030.512492
1418.105600,383.047749,444.123565,9252.574275
1418.105919,536.266849,444.123565,9326.594869
1418.106238,306.438199,444.123565,9252.574275
1418.106557,459.657299,518.144159,9400.615463
1418.106876,306.438199,370.102971,9400.615463
1418.107195,536.266849,222.061783,9178.553681
1418.107514,306.438199,518.144159,9178.553681
1418.107833,842.705048,518.144159,9622.677246
1418.108151,383.047749,444.123565,9474.636058
1418.108470,612.876398,296.082377,9326.594869
1418.108789,383.047749,370.102971,9400.615463
1418.109108,536.266849,518.144159,9400.615463
1418.109427,459.657299,370.102971,9326.594869
1418.109746,459.657299,666.185348,9326.594869
1418.110065,383.047749,370.102971,9400.615463
1418.110384,612.876398,370.102971,9326.594869
1418.110702,612.876398,-0.000000,9326.594869
1418.111021,383.047749,296.082377,9252.574275
1418.111340,536.266849,518.144159,9400.615463
1418.111659,306.438199,74.020594,9104.533087
1418.111978,383.047749,370.102971,9326.594869
1418.112297,766.095498,296.082377,9252.574275
1418.112616,536.266849,444.123565,9326.594869
1418.112934,383.047749,370.102971,9400.615463
1418.113253,459.657299,444.123565,9400.615463
1418.113572,612.876398,296.082377,9104.533087
1418.113891,459.657299,370.102971,9400.615463
1418.114210,612.876398,592.164754,9474.636058
1418.114529,153.219100,222.061783,9326.594869
1418.114848,536.266849,296.082377,9178.553681
1418.115167,459.657299,370.102971,9326.594869
1418.115485,306.438199,222.061783,9252.574275
1418.115804,612.876398,370.102971,9252.574275
1418.116123,383.047749,444.123565,9326.594869
1418.116442,612.876398,518.144159,9252.574275
1418.116761,383.047749,592.164754,9326.594869
1418.117080,459.657299,296.082377,9474.636058
1418.117399,383.047749,370.102971,9326.594869
1418.117718,459.657299,592.164754,9252.574275
1418.118036,459.657299,222.061783,9326.594869
1418.118355,383.047749,444.123565,9326.594869
1418.118674,459.657299,444.123565,9400.615463
1418.118993,306.438199,444.123565,9252.574275
1418.119312,383.047749,370.102971,9178.553681
1418.119631,459.657299,370.102971,9252.574275
1418.119950,459.657299,296.082377,9252.574275
1418.120269,383.047749,370.102971,8882.471304
1418.120587,153.219100,296.082377,9326.594869
1418.120906,306.438199,518.144159,9178.553681
1418.121225,229.828649,666.185348,9252.574275
1418.121544,0.000000,740.205942,9178.553681
1418.121863,76.609550,814.226536,9178.553681
1418.122182,0.000000,1036.288319,9178.553681
1418.122501,153.219100,888.247130,9178.553681
1418.122819,0.000000,1406.391290,9178.553681
1418.123138,0.000000,1036.288319,9252.574275
1418.123457,76.609550,1258.350101,9030.512492
1418.123776,-612.876398,740.205942,9252.574275
1418.124095,-536.266849,1110.308913,9252.574275
1418.124414,-612.876398,1110.308913,9326.594869
1418.124733,-842.705048,1110.308913,9326.594869
1418.125052,-1225.752797,1110.308913,9326.594869
1418.125370,-1378.971896,1554.432478,9178.553681
1418.125689,-1532.190996,1924.535449,9104.533087
1418.126008,-1991.848295,1776.494261,8734.430116
1418.126327,-2068.457845,2294.638420,8956.491898
1418.126646,-2451.505594,2146.597232,8808.450710
1418.126965,-2604.724693,2294.638420,8438.347739
1418.127284,-2911.162892,2516.700203,9030.512492
1418.127603,-3140.991542,2590.720797,8882.471304
1418.127921,-3294.210641,2442.679609,8956.491898
1418.128240,-3447.429741,2738.761985,9030.512492
1418.128559,-3677.258390,3034.844362,9326.594869
1418.128878,-3677.258390,3108.864956,9252.574275
1418.129197,-3600.648841,3256.906145,9104.533087
1418.129516,-3753.867940,3182.885551,9252.574275
1418.129835,-3524.039291,3256.906145,9252.574275
1418.130154,-3524.039291,3256.906145,9622.677246
1418.130472,-4060.306139,3108.864956,9844.739029
1418.130791,-4290.134789,3182.885551,9770.718434
1418.131110,-4366.744339,3182.885551,9622.677246
1418.131429,-4673.182538,3552.988522,9548.656652
1418.131748,-4366.744339,3775.050304,9622.677246
1418.132067,-4443.353888,4145.153275,9844.739029
1418.132386,-4366.744339,4071.132681,9696.697840
1418.132704,-3753.867940,4293.194464,9696.697840
1418.133023,-3217.601092,4219.173869,9992.780217
1418.133342,-2834.553343,4441.235652,9844.739029
1418.133661,-2451.505594,4737.318029,9844.739029
1418.133980,-1915.238745,4811.338623,9326.594869
1418.134299,-1455.581446,5625.565159,8734.430116
1418.134618,-1302.362347,5699.585753,8364.327145
1418.134937,-1225.752797,5921.647536,8216.285956
1418.135255,-1455.581446,5625.565159,7920.203579
1418.135574,-2068.457845,5255.462188,8142.265362
1418.135893,-2451.505594,4959.379811,8660.409521
1418.136212,-2681.334243,3923.091493,9104.533087
1418.136531,-3677.258390,3701.029710,9770.718434
1418.136850,-4596.572988,3256.906145,9844.739029
1418.137169,-4060.306139,3478.967927,9918.759623
1418.137488,-3370.820191,3923.091493,9622.677246
1418.137806,-2068.457845,4219.173869,9622.677246
1418.138125,-1838.629195,3997.112087,8660.409521
1418.138444,-1225.752797,3849.070898,8364.327145
1418.138763,-995.924147,3849.070898,7920.203579
1418.139082,-995.924147,3849.070898,7328.038826
1418.139401,-1072.533697,3182.885551,7402.059420
1418.139720,-1072.533697,3182.885551,7624.121203
1418.140038,-536.266849,3330.926739,8068.244768
1418.140357,0.000000,2960.823768,8512.368333
1418.140676,229.828649,2590.720797,8290.306550
1418.140995,153.219100,1480.411884,8808.450710
1418.141314,-612.876398,1184.329507,9400.615463
1418.141633,-1072.533697,666.185348,9918.759623
1418.141952,-1225.752797,222.061783,10881.027347
1418.142271,-919.314598,518.144159,11103.089130
1418.142589,-153.219100,740.205942,11029.068536
1418.142908,306.438199,1110.308913,9992.780217
1418.143227,612.876398,1258.350101,9474.636058
1418.143546,383.047749,814.226536,9178.553681
1418.143865,766.095498,740.205942,9326.594869
1418.144184,229.828649,1258.350101,9400.615463
1418.144503,76.609550,1776.494261,9178.553681
1418.144822,-153.219100,2072.576638,8956.491898
1418.145140,-689.485948,1332.370696,9178.553681
1418.145459,-1455.581446,74.020594,10436.903782
1418.145778,-2068.457845,-814.226536,11251.130318
1418.146097,-2604.724693,-444.123565,11843.295072
1418.146416,-3064.381992,-74.020594,11177.109724
1418.146735,-3217.601092,592.164754,10584.944971
1418.147054,-3140.991542,740.205942,10658.965565
1418.147373,-2757.943793,814.226536,9918.759623
1418.147691,-2604.724693,1628.453072,9030.512492
1418.148010,-2451.505594,2664.741391,8142.265362
1418.148329,-2068.457845,2442.679609,7846.182985
1418.148648,-2374.896044,2146.597232,8216.285956
1418.148967,-2451.505594,814.226536,8956.491898
1418.149286,-2528.115143,1110.308913,8882.471304
1418.149605,-2681.334243,2294.638420,7476.080014
1418.149923,-1915.238745,3701.029710,7105.977043
1418.150242,-1532.190996,3701.029710,7105.977043
1418.150561,-1991.848295,3108.864956,7846.182985
1418.150880,-2374.896044,2960.823768,7846.182985
1418.151199,-2604.724693,3330.926739,7994.224174
1418.151518,-2604.724693,3404.947333,7698.141797
1418.151837,-2987.772442,3182.885551,9030.512492
1418.152156,-2987.772442,2442.679609,9622.677246
1418.152474,-2911.162892,2516.700203,9104.533087
1418.152793,-2298.286494,2738.761985,8956.491898
1418.153112,-306.438199,3256.906145,9622.677246
1418.153431,1455.581446,3775.050304,8882.471304
1418.153750,1378.971896,3849.070898,8216.285956
1418.154069,1838.629195,3923.091493,8438.347739
1418.154388,2068.457845,3849.070898,7698.141797
1418.154707,2451.505594,3034.844362,8364.327145
1418.155025,2145.067394,3552.988522,8734.430116
1418.155344,766.095498,3923.091493,8882.471304
1418.155663,229.828649,3552.988522,8216.285956
1418.155982,-612.876398,2664.741391,9622.677246
1418.156301,-1762.019645,2812.782580,9770.718434
1418.156620,-2298.286494,4145.153275,9252.574275
1418.156939,-2911.162892,4367.215058,8808.450710
1418.157258,-3294.210641,3330.926739,11029.068536
1418.157576,-4290.134789,2294.638420,11843.295072
1418.157895,-4673.182538,1628.453072,11473.192101
1418.158214,-4826.401637,1998.556043,12361.439231
1418.158533,-3907.087040,2220.617826,12731.542202
1418.158852,-2604.724693,2960.823768,12213.398043
1418.159171,-1149.143247,4367.215058,10658.965565
1418.159490,0.000000,4293.194464,10214.842000
1418.159808,842.705048,4515.256246,9992.780217
1418.160127,1532.190996,4811.338623,7846.182985
1418.160446,2068.457845,4663.297435,6735.874072
1418.160765,1532.190996,2812.782580,7772.162391
1418.161084,766.095498,2220.617826,8512.368333
1418.161403,306.438199,1480.411884,8956.491898
1418.161722,-536.266849,1332.370696,8882.471304
1418.162041,-1225.752797,296.082377,11103.089130
1418.162360,-1762.019645,-0.000000,11621.233289
1418.162678,-1991.848295,-740.205942,11991.336260
1418.162997,-1378.971896,-1406.391290,13323.706956
1418.163316,-1072.533697,-1258.350101,13471.748144
1418.163635,766.095498,-740.205942,12287.418637
1418.163954,2374.896044,-740.205942,11547.212695
1418.164273,3677.258390,-592.164754,10436.903782
1418.164592,4519.963438,-1332.370696,9326.594869
1418.164911,5132.839837,-0.000000,7476.080014
1418.165230,5439.278036,-74.020594,6957.935855
1418.165549,4903.011187,-592.164754,7328.038826
1418.165867,4136.915689,-148.041188,8142.265362
1418.166186,2374.896044,-1036.288319,8216.285956
1418.166505,1072.533697,-1110.308913,8512.368333
1418.166824,-383.047749,-2738.761985,10584.944971
1418.167143,-842.705048,-3108.864956,11695.253884
1418.167462,-1072.533697,-3923.091493,11547.212695
1418.167781,-1225.752797,-4515.256246,11621.233289
1418.168100,-689.485948,-4515.256246,11991.336260
1418.168419,229.828649,-2664.741391,10732.986159
1418.168737,1685.410096,-1258.350101,8290.306550
1418.169056,2298.286494,-0.000000,7031.956449
1418.169375,2604.724693,1184.329507,5551.544565
1418.169694,2451.505594,2368.659014,3849.070898
1418.170013,1838.629195,2146.597232,3330.926739
1418.170332,153.219100,888.247130,4589.276840
1418.170651,-1072.533697,222.061783,5477.523971
1418.170970,-1685.410096,518.144159,5625.565159
1418.171289,-2681.334243,-148.041188,7105.977043
1418.171607,-3447.429741,-740.205942,9696.697840
1418.171926,-4290.134789,-1184.329507,10362.883188
1418.172245,-3907.087040,-592.164754,10288.862594
1418.172564,-3600.648841,370.102971,10214.842000
1418.172883,-2374.896044,518.144159,10658.965565
1418.173202,-995.924147,1480.411884,9178.553681
1418.173521,689.485948,2220.617826,7624.121203
1418.173840,1838.629195,2886.803174,6217.729913
1418.174159,2911.162892,2368.659014,4959.379811
1418.174478,3524.039291,3108.864956,4589.276840
1418.174796,3447.429741,3256.906145,4219.173869
1418.175115,2604.724693,2442.679609,5625.565159
1418.175434,1762.019645,2368.659014,7328.038826
1418.175753,536.266849,2812.782580,8216.285956
1418.176072,-383.047749,1924.535449,9474.636058
1418.176391,-2068.457845,814.226536,11843.295072
1418.176710,-2604.724693,-222.061783,13989.892304
1418.177029,-3140.991542,-370.102971,13693.809927
1418.177348,-2451.505594,-296.082377,14211.954086
1418.177666,-1915.238745,-148.041188,14211.954086
1418.177985,153.219100,814.226536,12953.603985
1418.178304,1378.971896,1998.556043,10955.047942
1418.178623,3447.429741,2812.782580,9696.697840
1418.178942,4443.353888,3182.885551,8586.388927
1418.179261,4979.620737,3552.988522,6809.894666
1418.179580,5056.230287,3182.885551,6513.812290
1418.179899,3830.477490,2590.720797,7476.080014
1418.180218,2374.896044,1850.514855,8364.327145
1418.180536,919.314598,1480.411884,8734.430116
1418.180855,-766.095498,296.082377,10881.027347
1418.181174,-2451.505594,-1406.391290,12805.562797
1418.181493,-3753.867940,-1924.535449,14508.036463
1418.181812,-5056.230287,-1480.411884,14211.954086
1418.182131,-4673.182538,-1258.350101,14285.974681
1418.182450,-3677.258390,-518.144159,15026.180623
1418.182769,-2528.115143,814.226536,13767.830521
1418.183088,-306.438199,1850.514855,11843.295072
1418.183406,2145.067394,1628.453072,10362.883188
1418.183725,3753.867940,1924.535449,9252.574275
1418.184044,4826.401637,1850.514855,6957.935855
1418.184363,5822.325785,1332.370696,5107.421000
1418.184682,4903.011187,1480.411884,5921.647536
1418.185001,4290.134789,1628.453072,5699.585753
1418.185320,3447.429741,1924.535449,5921.647536
1418.185639,2374.896044,1924.535449,6661.853478
1418.185958,536.266849,592.164754,8586.388927
1418.186277,-995.924147,-592.164754,10584.944971
1418.186595,-2451.505594,-1480.411884,11325.150913
1418.186914,-2987.772442,-2368.659014,11769.274478
1418.187233,-3294.210641,-3034.844362,12805.562797
1418.187552,-2528.115143,-1924.535449,12139.377449
1418.187871,-842.705048,-962.267725,9548.656652
1418.188190,612.876398,444.123565,8438.347739
1418.188509,2145.067394,1258.350101,6883.915261
1418.188828,2911.162892,2294.638420,4811.338623
1418.189147,3600.648841,2072.576638,4219.173869
1418.189465,2834.553343,1998.556043,4959.379811
1418.189784,2298.286494,1110.308913,5551.544565
1418.190103,1149.143247,1110.308913,5625.565159
1418.190422,153.219100,-74.020594,6809.894666
1418.190741,-1378.971896,-888.247130,8438.347739
1418.191060,-2834.553343,-2220.617826,9696.697840
1418.191379,-4060.306139,-2738.761985,10066.800811
1418.191698,-4826.401637,-2664.741391,10584.944971
1418.192017,-4443.353888,-2220.617826,11843.295072
1418.192335,-3524.039291,-1702.473667,10881.027347
1418.192654,-2145.067394,-1702.473667,9400.615463
1418.192973,-1455.581446,-1628.453072,9178.553681
1418.193292,0.000000,-1554.432478,8882.471304
1418.193611,689.485948,-814.226536,6957.935855
1418.193930,1838.629195,-296.082377,6291.750507
1418.194249,2451.505594,-888.247130,7105.977043
1418.194568,2221.676944,-0.000000,7402.059420
1418.194887,2757.943793,-0.000000,7550.100608
1418.195206,2068.457845,-74.020594,8142.265362
1418.195524,1532.190996,-222.061783,9992.780217
1418.195843,459.657299,-1110.308913,11103.089130
1418.196162,-153.219100,-666.185348,11251.130318
1418.196481,383.047749,-1258.350101,11991.336260
1418.196800,766.095498,-1332.370696,12287.418637
1418.197119,1532.190996,-888.247130,11547.212695
1418.197438,2911.162892,-296.082377,10140.821405
1418.197757,3983.696590,-148.041188,9030.512492
1418.198076,4749.792088,148.041188,8290.306550
1418.198394,5439.278036,444.123565,7550.100608
1418.198713,5822.325785,1776.494261,6069.688724
1418.199032,5209.449386,1554.432478,6439.791695
1418.199351,4136.915689,1332.370696,7698.141797
1418.199670,3217.601092,1258.350101,8290.306550
1418.199989,1915.238745,1184.329507,8734.430116
1418.200308,383.047749,-0.000000,10807.006753
1418.200627,-766.095498,-222.061783,11843.295072
1418.200946,-1072.533697,-148.041188,11843.295072
1418.201264,-1302.362347,-444.123565,11843.295072
1418.201583,-612.876398,-296.082377,12583.501014
1418.201902,0.000000,222.061783,11843.295072
1418.202221,1685.410096,2072.576638,8956.491898
1418.202540,2451.505594,2072.576638,7846.182985
1418.202859,2451.505594,1110.308913,7624.121203
1418.203178,2604.724693,518.144159,6735.874072
1418.203497,1991.848295,296.082377,5329.482782
1418.203816,1455.581446,-222.061783,6365.771101
1418.204134,-306.438199,-592.164754,8364.327145
1418.204453,-1838.629195,-222.061783,8364.327145
1418.204772,-3064.381992,-1036.288319,9474.636058
1418.205091,-4596.572988,-1702.473667,11029.068536
1418.205410,-5362.668486,-2442.679609,13767.830521
1418.205729,-5822.325785,-2664.741391,13545.768739
1418.206048,-5209.449386,-1924.535449,13471.748144
1418.206367,-3907.087040,-1776.494261,14211.954086
1418.206686,-2451.505594,-592.164754,13027.624579
1418.207005,-76.609550,-0.000000,10955.047942
1418.207323,2451.505594,1184.329507,8364.327145
1418.207642,3983.696590,1554.432478,7624.121203
1418.207961,5209.449386,2294.638420,5255.462188
1418.208280,6435.202183,2664.741391,3923.091493
1418.208599,6052.154434,2368.659014,4367.215058
1418.208918,4826.401637,2146.597232,5255.462188
1418.209237,3370.820191,2146.597232,6439.791695
1418.209556,1762.019645,1480.411884,6439.791695
1418.209875,536.266849,740.205942,9474.636058
1418.210193,-1455.581446,-814.226536,12139.377449
1418.210512,-2987.772442,-1110.308913,12287.418637
1418.210831,-3294.210641,-1776.494261,12435.459826
1418.211150,-2681.334243,-1184.329507,13249.686362
1418.211469,-1532.190996,-370.102971,13101.645173
1418.211788,383.047749,740.205942,10066.800811
1418.212107,2145.067394,1628.453072,8364.327145
1418.212426,3447.429741,2072.576638,8142.265362
1418.212745,4903.011187,1628.453072,6069.688724
1418.213063,5286.058936,1406.391290,4293.194464
1418.213382,5515.887586,1702.473667,4959.379811
1418.213701,4749.792088,1406.391290,5255.462188
1418.214020,3983.696590,740.205942,5625.565159
1418.214339,2221.676944,-74.020594,6957.935855
1418.214658,-229.828649,-1110.308913,8734.430116
1418.214977,-2145.067394,-2368.659014,11029.068536
1418.215296,-3907.087040,-3552.988522,12213.398043
1418.215615,-4673.182538,-3701.029710,13027.624579
1418.215934,-4673.182538,-3775.050304,14359.995275
1418.216252,-4290.134789,-3330.926739,13545.768739
1418.216571,-2145.067394,-2590.720797,11917.315666
1418.216890,-919.314598,-1628.453072,10436.903782
1418.217209,1149.143247,-814.226536,9918.759623
1418.217528,2528.115143,-370.102971,7994.224174
1418.217847,3447.429741,888.247130,5995.668130
1418.218166,3830.477490,1258.350101,5699.585753
1418.218485,4136.915689,1554.432478,6143.709319
1418.218804,3753.867940,1332.370696,5625.565159
1418.219122,2911.162892,444.123565,6587.832884
1418.219441,536.266849,-666.185348,8142.265362
1418.219760,-1302.362347,-1628.453072,10584.944971
1418.220079,-2374.896044,-2220.617826,11029.068536
1418.220398,-3217.601092,-1850.514855,11843.295072
1418.220717,-3370.820191,-1924.535449,12805.562797
1418.221036,-3064.381992,-814.226536,12657.521608
1418.221355,-1838.629195,296.082377,10955.047942
1418.221674,0.000000,1258.350101,9622.677246
1418.221992,919.314598,1554.432478,9178.553681
1418.222311,2681.334243,2442.679609,7994.224174
1418.222630,3753.867940,2812.782580,6439.791695
1418.222949,4749.792088,3034.844362,5625.565159
1418.223268,4596.572988,2960.823768,6217.729913
1418.223587,4979.620737,3182.885551,6069.688724
1418.223906,4519.963438,3108.864956,6069.688724
1418.224225,2911.162892,2146.597232,7920.203579
1418.224544,1378.971896,592.164754,10288.862594
1418.224862,76.609550,-370.102971,10658.965565
1418.225181,-766.095498,-962.267725,11695.253884
1418.225500,-1991.848295,-1036.288319,13175.665768
1418.225819,-1838.629195,-666.185348,12879.583391
1418.226138,-766.095498,444.123565,11695.253884
1418.226457,229.828649,814.226536,10658.965565
1418.226776,1225.752797,814.226536,10362.883188
1418.227095,1762.019645,888.247130,9030.512492
1418.227414,2221.676944,1628.453072,7031.956449
1418.227733,2298.286494,1924.535449,7105.977043
1418.228051,1762.019645,1998.556043,7920.203579
1418.228370,1915.238745,2072.576638,7920.203579
1418.228689,1378.971896,1998.556043,8216.285956
1418.229008,0.000000,888.247130,10214.842000
1418.229327,-1149.143247,-0.000000,11103.089130
1418.229646,-2374.896044,-222.061783,11325.150913
1418.229965,-2987.772442,-740.205942,11843.295072
1418.230284,-3294.210641,-666.185348,12657.521608
1418.230603,-3064.381992,-222.061783,12361.439231
1418.230921,-1685.410096,666.185348,11251.130318
1418.231240,-842.705048,1036.288319,9918.759623
1418.231559,0.000000,740.205942,9474.636058
1418.231878,306.438199,740.205942,8216.285956
1418.232197,1072.533697,1184.329507,7031.956449
1418.232516,1225.752797,1332.370696,6661.853478
1418.232835,1302.362347,1776.494261,7179.997637
1418.233154,1608.800546,2220.617826,6735.874072
1418.233473,1302.362347,2516.700203,7105.977043
1418.233791,612.876398,1554.432478,8068.244768
1418.234110,306.438199,148.041188,9844.739029
1418.234429,-536.266849,-444.123565,10732.986159
1418.234748,-842.705048,-518.144159,10807.006753
1418.235067,-1072.533697,-962.267725,11843.295072
1418.235386,0.000000,-1036.288319,12213.398043
1418.235705,229.828649,-518.144159,10584.944971
1418.236024,1838.629195,-222.061783,9474.636058
1418.236343,2757.943793,-222.061783,8956.491898
1418.236662,3983.696590,370.102971,7476.080014
1418.236980,4673.182538,-0.000000,5329.482782
1418.237299,4443.353888,518.144159,5699.585753
1418.237618,3830.477490,-370.102971,6661.853478
1418.237937,3217.601092,-296.082377,6513.812290
1418.238256,2298.286494,-148.041188,6883.915261
1418.238575,1072.533697,-1036.288319,9252.574275
1418.238894,-306.438199,-1554.432478,10510.924376
1418.239213,-1302.362347,-1480.411884,11251.130318
1418.239532,-1838.629195,-1480.411884,11473.192101
1418.239850,-2221.676944,-1406.391290,11917.315666
1418.240169,-2374.896044,-1702.473667,12287.418637
1418.240488,-995.924147,-740.205942,10510.924376
1418.240807,306.438199,-148.041188,9326.594869
1418.241126,612.876398,-0.000000,8734.430116
1418.241445,995.924147,370.102971,7846.182985
1418.241764,1762.019645,814.226536,6069.688724
1418.242083,1685.410096,1776.494261,5477.523971
1418.242402,1378.971896,1998.556043,6365.771101
1418.242720,612.876398,2738.761985,6069.688724
1418.243039,0.000000,2812.782580,5995.668130
1418.243358,-1455.581446,1850.514855,8438.347739
1418.243677,-2911.162892,1110.308913,9844.739029
1418.243996,-3830.477490,-0.000000,10510.924376
1418.244315,-4596.572988,-370.102971,11251.130318
1418.244634,-4060.306139,-740.205942,13175.665768
1418.244953,-3600.648841,-370.102971,13397.727550
1418.245272,-2451.505594,1184.329507,11917.315666
1418.245590,-383.047749,2146.597232,10436.903782
1418.245909,689.485948,2664.741391,10140.821405
1418.246228,2911.162892,2886.803174,8808.450710
1418.246547,3600.648841,3775.050304,7031.956449
1418.246866,4213.525239,4219.173869,6291.750507
1418.247185,4749.792088,3552.988522,7105.977043
1418.247504,4443.353888,2960.823768,7031.956449
1418.247823,3907.087040,2294.638420,7105.977043
1418.248142,3294.210641,1480.411884,9030.512492
1418.248461,1225.752797,-0.000000,10436.903782
1418.248779,612.876398,-370.102971,11621.233289
1418.249098,-306.438199,-370.102971,12065.356855
1418.249417,-995.924147,-444.123565,13175.665768
1418.249736,-919.314598,148.041188,13397.727550
1418.250055,0.000000,1332.370696,12583.501014
1418.250374,842.705048,1628.453072,11325.150913
1418.250693,1685.410096,1258.350101,11177.109724
1418.251012,1762.019645,592.164754,10584.944971
1418.251331,2451.505594,1110.308913,8364.327145
1418.251649,1991.848295,1628.453072,7476.080014
1418.251968,2145.067394,1850.514855,8142.265362
1418.252287,1532.190996,2146.597232,8216.285956
1418.252606,1455.581446,2368.659014,7105.977043
1418.252925,153.219100,1332.370696,8438.347739
1418.253244,-995.924147,222.061783,9548.656652
1418.253563,-2221.676944,-370.102971,10436.903782
1418.253882,-3447.429741,-444.123565,10140.821405
1418.254201,-4366.744339,-666.185348,11103.089130
1418.254519,-4213.525239,-666.185348,11621.233289
1418.254838,-4060.306139,-0.000000,10362.883188
1418.255157,-2911.162892,296.082377,9474.636058
1418.255476,-2298.286494,370.102971,8956.491898
1418.255795,-1532.190996,888.247130,7624.121203
1418.256114,-995.924147,296.082377,7550.100608
1418.256433,-766.095498,370.102971,7179.997637
1418.256752,-689.485948,814.226536,7328.038826
1418.257071,0.000000,2072.576638,7402.059420
1418.257390,689.485948,1554.432478,6809.894666
1418.257708,383.047749,74.020594,7994.224174
1418.258027,0.000000,-814.226536,9400.615463
1418.258346,-153.219100,-1628.453072,9992.780217
1418.258665,0.000000,-1776.494261,9326.594869
1418.258984,0.000000,-1332.370696,10510.924376
1418.259303,995.924147,-814.226536,10288.862594
1418.259622,2374.896044,-518.144159,9326.594869
1418.259941,3140.991542,444.123565,7476.080014
1418.260260,4366.744339,962.267725,7328.038826
1418.260578,4519.963438,962.267725,7105.977043
1418.260897,4519.963438,888.247130,6365.771101
1418.261216,3677.258390,888.247130,6661.853478
1418.261535,3294.210641,370.102971,7402.059420
1418.261854,2451.505594,814.226536,8216.285956
1418.262173,2221.676944,1258.350101,7920.203579
1418.262491,1455.581446,814.226536,9104.533087
1418.262809,612.876398,-0.000000,10732.986159
1418.263128,-306.438199,-1036.288319,11399.171507
1418.263447,-536.266849,-1110.308913,11325.150913
1418.263766,-842.705048,-740.205942,11695.253884
1418.264085,-383.047749,-518.144159,11547.212695
1418.264404,0.000000,-0.000000,10140.821405
1418.264723,689.485948,962.267725,8956.491898
1418.265042,766.095498,888.247130,8956.491898
1418.265360,919.314598,1036.288319,8216.285956
1418.265679,919.314598,1480.411884,7328.038826
1418.265998,306.438199,1702.473667,7402.059420
1418.266317,-383.047749,1110.308913,8882.471304
1418.266636,-995.924147,888.247130,9326.594869
1418.266955,-1455.581446,814.226536,9252.574275
1418.267274,-2221.676944,370.102971,10436.903782
1418.267592,-3294.210641,-0.000000,12509.480420
1418.267911,-3983.696590,222.061783,12139.377449
1418.268230,-3753.867940,-0.000000,11843.295072
1418.268549,-3217.601092,148.041188,12879.583391
1418.268868,-2987.772442,222.061783,12361.439231
1418.269187,-1532.190996,1332.370696,11029.068536
1418.269506,76.609550,1776.494261,9918.759623
1418.269824,689.485948,1332.370696,9770.718434
1418.270143,1455.581446,1110.308913,9178.553681
1418.270462,2221.676944,1554.432478,7994.224174
1418.270781,2451.505594,2368.659014,7105.977043
1418.271100,2911.162892,2368.659014,7402.059420
1418.271419,2757.943793,2664.741391,7550.100608
1418.271738,2451.505594,2442.679609,7476.080014
1418.272056,1838.629195,1850.514855,8438.347739
1418.272375,459.657299,888.247130,9918.759623
1418.272694,76.609550,592.164754,10288.862594
1418.273013,-842.705048,296.082377,10214.842000
1418.273332,-1149.143247,-1036.288319,11399.171507
1418.273651,-459.657299,-1110.308913,12509.480420
1418.273970,306.438199,-148.041188,11177.109724
1418.274288,1991.848295,370.102971,9696.697840
1418.274607,2987.772442,1036.288319,9104.533087
1418.274926,3600.648841,1184.329507,8364.327145
1418.275245,3983.696590,1258.350101,6735.874072
1418.275564,3830.477490,1628.453072,5625.565159
1418.275883,3294.210641,1332.370696,6439.791695
1418.276202,2451.505594,1110.308913,6735.874072
1418.276520,1915.238745,592.164754,6957.935855
1418.276839,76.609550,-592.164754,7994.224174
1418.277158,-1072.533697,-1554.432478,10066.800811
1418.277477,-2451.505594,-2442.679609,11029.068536
1418.277796,-2681.334243,-2368.659014,10955.047942
1418.278115,-2681.334243,-2368.659014,11769.274478
1418.278434,-2145.067394,-1998.556043,12361.439231
1418.278752,-1072.533697,-1184.329507,11473.192101
1418.279071,0.000000,-814.226536,9622.677246
1418.279390,1225.752797,-0.000000,8956.491898
1418.279709,1225.752797,-222.061783,8142.265362
1418.280028,995.924147,-74.020594,6143.709319
1418.280347,1378.971896,222.061783,5699.585753
1418.280666,689.485948,-148.041188,6883.915261
1418.280984,0.000000,-518.144159,7772.162391
1418.281303,-536.266849,-222.061783,7772.162391
1418.281622,-1225.752797,-592.164754,8808.450710
1418.281941,-1915.238745,-1332.370696,10436.903782
1418.282260,-2681.334243,-1628.453072,11251.130318
1418.282579,-2987.772442,-1554.432478,11621.233289
1418.282898,-2528.115143,-1258.350101,11917.315666
1418.283217,-1991.848295,-1184.329507,12583.501014
1418.283535,-842.705048,-444.123565,11621.233289
1418.283854,919.314598,148.041188,9992.780217
1418.284173,2068.457845,592.164754,8438.347739
1418.284492,3370.820191,1332.370696,7994.224174
1418.284811,4290.134789,2294.638420,5921.647536
1418.285130,4903.011187,2442.679609,5033.400406
1418.285449,5056.230287,1406.391290,6143.709319
1418.285767,4749.792088,1184.329507,6883.915261
1418.286086,3524.039291,1184.329507,7254.018232
1418.286405,3064.381992,1036.288319,7994.224174
1418.286724,1378.971896,-0.000000,9622.677246
1418.287043,306.438199,-1184.329507,10881.027347
1418.287362,-919.314598,-1258.350101,11843.295072
1418.287681,-842.705048,-814.226536,12139.377449
1418.287999,-766.095498,-666.185348,12435.459826
1418.288318,0.000000,444.123565,11695.253884
1418.288637,1378.971896,1406.391290,10362.883188
1418.288956,1915.238745,1332.370696,9030.512492
1418.289275,2528.115143,1406.391290,8364.327145
1418.289594,3140.991542,2072.576638,7550.100608
1418.289913,2451.505594,2220.617826,5773.606348
1418.290231,2374.896044,2146.597232,7031.956449
1418.290550,1455.581446,1850.514855,8142.265362
1418.290869,306.438199,1554.432478,7698.141797
1418.291188,-1072.533697,740.205942,8142.265362
1418.291507,-2298.286494,222.061783,10436.903782
1418.291826,-3217.601092,-666.185348,11547.212695
1418.292145,-3677.258390,-814.226536,11547.212695
1418.292463,-3983.696590,-1258.350101,12657.521608
1418.292782,-3370.820191,-2072.576638,13397.727550
1418.293101,-2987.772442,-1110.308913,12065.356855
1418.293420,-689.485948,296.082377,10658.965565
1418.293739,612.876398,1110.308913,9622.677246
1418.294058,1838.629195,1998.556043,8512.368333
1418.294377,3983.696590,1628.453072,7402.059420
1418.294695,3524.039291,2294.638420,6143.709319
1418.295014,3600.648841,2516.700203,5995.668130
1418.295333,3140.991542,2442.679609,6587.832884
1418.295652,2681.334243,1702.473667,6661.853478
1418.295971,2145.067394,444.123565,7698.141797
1418.296290,306.438199,-814.226536,9918.759623
1418.296609,-842.705048,-2516.700203,11473.192101
1418.296927,-1225.752797,-2812.782580,11991.336260
1418.297246,-1072.533697,-2442.679609,12509.480420
1418.297565,-995.924147,-1702.473667,13101.645173
1418.297884,536.266849,-1184.329507,12139.377449
1418.298203,1838.629195,-370.102971,10214.842000
1418.298522,3600.648841,148.041188,9178.553681
1418.298841,4519.963438,222.061783,8438.347739
1418.299159,5439.278036,296.082377,6513.812290
1418.299478,5592.497135,-0.000000,5995.668130
1418.299797,5132.839837,-0.000000,5995.668130
1418.300116,4136.915689,-74.020594,6069.688724
1418.300435,3677.258390,296.082377,6661.853478
1418.300754,2145.067394,-0.000000,6957.935855
1418.301073,612.876398,-888.247130,9326.594869
1418.301392,-1378.971896,-1702.473667,10807.006753
1418.301710,-2145.067394,-1924.535449,10807.006753
1418.302029,-3753.867940,-2590.720797,11547.212695
1418.302348,-3830.477490,-2886.803174,12731.542202
1418.302667,-3907.087040,-2960.823768,12805.562797
1418.302986,-2604.724693,-1776.494261,10658.965565
1418.303305,-1455.581446,-888.247130,9400.615463
1418.303624,-689.485948,-518.144159,8438.347739
1418.303942,766.095498,370.102971,6735.874072
1418.304261,1685.410096,1850.514855,5403.503377
1418.304580,1915.238745,2220.617826,5329.482782
1418.304899,1608.800546,2590.720797,5033.400406
1418.305218,1532.190996,2664.741391,6217.729913
1418.305537,-536.266849,2442.679609,5699.585753
1418.305856,-1302.362347,-0.000000,7920.203579
1418.306174,-2757.943793,-1480.411884,11399.171507
1418.306493,-3907.087040,-1258.350101,11103.089130
1418.306812,-2911.162892,-0.000000,10140.821405
1418.307131,-2757.943793,-74.020594,12213.398043
1418.307450,-2068.457845,-0.000000,12731.542202
1418.307769,459.657299,148.041188,10066.800811
1418.308088,383.047749,1258.350101,9474.636058
1418.308406,1915.238745,1702.473667,9696.697840
1418.308725,2834.553343,2590.720797,7476.080014
1418.309044,3983.696590,3330.926739,6291.750507
1418.309363,3983.696590,1998.556043,7476.080014
1418.309682,4213.525239,2220.617826,8438.347739
1418.310001,3753.867940,1554.432478,7105.977043
1418.310320,3600.648841,1110.308913,8586.388927
1418.310638,2145.067394,814.226536,10140.821405
1418.310957,1072.533697,-740.205942,11029.068536
1418.311276,229.828649,-888.247130,11843.295072
1418.311595,0.000000,-1036.288319,12435.459826
1418.311914,0.000000,-1406.391290,12879.583391
1418.312233,229.828649,-0.000000,12139.377449
1418.312552,1302.362347,1258.350101,11103.089130
1418.312870,1532.190996,888.247130,9326.594869
1418.313189,1762.019645,1184.329507,9474.636058
1418.313508,2298.286494,888.247130,8956.491898
1418.313827,2145.067394,1332.370696,6587.832884
1418.314146,2068.457845,2146.597232,7031.956449
1418.314465,1838.629195,1850.514855,8290.306550
1418.314784,536.266849,1702.473667,7772.162391
1418.315102,0.000000,1184.329507,8438.347739
1418.315421,-995.924147,-222.061783,10732.986159
1418.315740,-2145.067394,-444.123565,11991.336260
1418.316059,-2757.943793,148.041188,10807.006753
1418.316378,-2528.115143,222.061783,11251.130318
1418.316697,-2528.115143,-740.205942,12657.521608
1418.317016,-2145.067394,-370.102971,11769.274478
1418.317334,-766.095498,370.102971,9770.718434
1418.317653,459.657299,814.226536,8660.409521
1418.317972,1915.238745,740.205942,8216.285956
1418.318291,2221.676944,814.226536,6365.771101
1418.318610,2987.772442,1110.308913,4959.379811
1418.318929,2834.553343,1332.370696,5773.606348
1418.319248,2528.115143,1554.432478,6365.771101
1418.319567,1762.019645,1776.494261,5551.544565
1418.319885,1302.362347,814.226536,7624.121203
1418.320204,-459.657299,-222.061783,9104.533087
1418.320523,-1685.410096,-1702.473667,11325.150913
1418.320842,-2145.067394,-2220.617826,12287.418637
1418.321161,-1915.238745,-2146.597232,12583.501014
1418.321480,-2221.676944,-2146.597232,13175.665768
1418.321799,-842.705048,-1480.411884,13175.665768
1418.322117,1302.362347,-518.144159,11029.068536
1418.322436,2528.115143,148.041188,9548.656652
1418.322755,4060.306139,1036.288319,7994.224174
1418.323074,5132.839837,1332.370696,6143.709319
1418.323393,5592.497135,1036.288319,4885.359217
1418.323712,5362.668486,740.205942,5403.503377
1418.324031,4213.525239,-0.000000,5921.647536
1418.324349,3524.039291,-0.000000,6365.771101
1418.324668,1685.410096,518.144159,6957.935855
1418.324987,0.000000,-518.144159,8808.450710
1418.325306,-1532.190996,-1776.494261,11251.130318
1418.325625,-2757.943793,-1924.535449,11991.336260
1418.325944,-3983.696590,-2220.617826,12879.583391
1418.326263,-4136.915689,-1702.473667,13619.789333
1418.326581,-2987.772442,-592.164754,13397.727550
1418.326900,-1532.190996,-74.020594,11251.130318
1418.327219,-689.485948,148.041188,9844.739029
1418.327538,766.095498,740.205942,9474.636058
1418.327857,1532.190996,1776.494261,7105.977043
1418.328176,2451.505594,2812.782580,5181.441594
1418.328495,2604.724693,2960.823768,4737.318029
1418.328813,2528.115143,3034.844362,5699.585753
1418.329132,1762.019645,2516.700203,5107.421000
1418.329451,536.266849,1776.494261,5995.668130
1418.329770,-1072.533697,296.082377,8808.450710
1418.330089,-2834.553343,-0.000000,10140.821405
1418.330408,-3907.087040,-666.185348,11029.068536
1418.330727,-4903.011187,-666.185348,11769.274478
1418.331045,-4903.011187,-814.226536,13249.686362
1418.331364,-3753.867940,-74.020594,13175.665768
1418.331683,-2681.334243,740.205942,11769.274478
1418.332002,-1149.143247,2220.617826,10732.986159
1418.332321,229.828649,2146.597232,10066.800811
1418.332640,1838.629195,2590.720797,8734.430116
1418.332959,3217.601092,2738.761985,7105.977043
1418.333277,3600.648841,2590.720797,6661.853478
1418.333596,4136.915689,3108.864956,7105.977043
1418.333915,4213.525239,3182.885551,6735.874072
1418.334234,3983.696590,2960.823768,7105.977043
1418.334553,2451.505594,1332.370696,8364.327145
1418.334872,1072.533697,148.041188,10658.965565
1418.335191,-306.438199,-444.123565,11473.192101
1418.335509,-1532.190996,-814.226536,11251.130318
1418.335828,-1685.410096,-74.020594,12583.501014
1418.336147,-1608.800546,592.164754,12287.418637
1418.336466,-612.876398,1036.288319,11029.068536
1418.336785,306.438199,1110.308913,10214.842000
1418.337104,383.047749,962.267725,10288.862594
1418.337423,995.924147,740.205942,9474.636058
1418.337742,1838.629195,740.205942,8142.265362
1418.338060,1455.581446,1480.411884,8290.306550
1418.338379,1532.190996,1702.473667,9252.574275
1418.338698,1838.629195,2442.679609,8364.327145
1418.339017,1608.800546,2960.823768,7624.121203
1418.339336,1072.533697,2072.576638,9104.533087
1418.339655,0.000000,1110.308913,9918.759623
1418.339974,-766.095498,148.041188,10214.842000
1418.340292,-1532.190996,-666.185348,10436.903782
1418.340611,-2068.457845,-1480.411884,11843.295072
1418.340930,-2374.896044,-1258.350101,12213.398043
1418.341249,-1455.581446,-0.000000,9992.780217
1418.341568,-612.876398,148.041188,9178.553681
1418.341887,0.000000,518.144159,9178.553681
1418.342206,612.876398,1110.308913,8586.388927
1418.342524,1532.190996,1258.350101,6735.874072
1418.342843,1608.800546,1406.391290,6809.894666
1418.343162,1378.971896,740.205942,8512.368333
1418.343481,1455.581446,666.185348,8882.471304
1418.343800,689.485948,814.226536,8660.409521
1418.344119,459.657299,296.082377,9548.656652
1418.344438,-229.828649,-0.000000,10584.944971
1418.344756,-306.438199,-370.102971,10584.944971
1418.345075,0.000000,-666.185348,10066.800811
1418.345394,-229.828649,-592.164754,10732.986159
1418.345713,919.314598,-740.205942,10584.944971
1418.346032,2145.067394,-518.144159,9178.553681
1418.346351,2987.772442,-444.123565,7698.141797
1418.346670,3217.601092,-370.102971,7994.224174
1418.346988,3447.429741,-370.102971,6957.935855
1418.347307,3064.381992,-666.185348,5403.503377
1418.347626,3140.991542,74.020594,5921.647536
1418.347945,2221.676944,518.144159,7105.977043
1418.348264,1455.581446,518.144159,7179.997637
1418.348583,229.828649,814.226536,7550.100608
1418.348902,-1072.533697,-74.020594,9622.677246
1418.349220,-1838.629195,-592.164754,11177.109724
1418.349539,-3140.991542,-888.247130,11177.109724
1418.349858,-3064.381992,-814.226536,11843.295072
1418.350177,-2911.162892,-888.247130,12213.398043
1418.350496,-2604.724693,-1036.288319,12361.439231
1418.350815,-1455.581446,-148.041188,10362.883188
1418.351134,0.000000,518.144159,8956.491898
1418.351452,1072.533697,888.247130,7994.224174
1418.351771,1838.629195,1184.329507,7031.956449
1418.352090,2298.286494,1702.473667,5181.441594
1418.352409,1991.848295,1258.350101,5773.606348
1418.352728,1762.019645,962.267725,6883.915261
1418.353047,229.828649,1036.288319,7105.977043
1418.353366,306.438199,888.247130,7402.059420
1418.353684,-1149.143247,296.082377,9178.553681
1418.354003,-2374.896044,-1480.411884,11177.109724
1418.354322,-3524.039291,-1554.432478,12065.356855
1418.354641,-3370.820191,-666.185348,12731.542202
1418.354960,-2911.162892,-592.164754,13619.789333
1418.355279,-1915.238745,592.164754,13619.789333
1418.355598,-383.047749,888.247130,12139.377449
1418.355917,1378.971896,1702.473667,10955.047942
1418.356235,2451.505594,1998.556043,9844.739029
1418.356554,3907.087040,3108.864956,8068.244768
1418.356873,4903.011187,2960.823768,6291.750507
1418.357192,5209.449386,3108.864956,5625.565159
1418.357511,5286.058936,2072.576638,6809.894666
1418.357830,3983.696590,1628.453072,6957.935855
1418.358149,3677.258390,1480.411884,7105.977043
1418.358467,2221.676944,1110.308913,8068.244768
1418.358786,383.047749,-222.061783,10288.862594
1418.359105,-1149.143247,-1110.308913,11399.171507
1418.359424,-2451.505594,-1628.453072,11695.253884
1418.359743,-2911.162892,-814.226536,12509.480420
1418.360062,-2451.505594,-0.000000,13323.706956
1418.360381,-2068.457845,814.226536,11843.295072
1418.360699,-1225.752797,1110.308913,10658.965565
1418.361018,-383.047749,1480.411884,10288.862594
1418.361337,229.828649,1554.432478,9474.636058
1418.361656,1149.143247,2146.597232,7550.100608
1418.361975,1915.238745,2294.638420,7031.956449
1418.362294,1762.019645,2590.720797,7402.059420
1418.362613,1532.190996,2368.659014,6883.915261
1418.362931,1225.752797,1998.556043,6513.812290
1418.363250,459.657299,962.267725,7994.224174
1418.363569,-919.314598,-444.123565,9030.512492
1418.363888,-2298.286494,-1480.411884,9474.636058
1418.364207,-2834.553343,-1776.494261,10436.903782
1418.364526,-3217.601092,-1480.411884,11399.171507
1418.364844,-3294.210641,-1406.391290,11547.212695
1418.365163,-2374.896044,-888.247130,10881.027347
1418.365482,-1378.971896,-148.041188,9992.780217
1418.365801,0.000000,-0.000000,9622.677246
1418.366120,995.924147,370.102971,9252.574275
1418.366438,1838.629195,370.102971,8216.285956
1418.366757,2298.286494,518.144159,7550.100608
1418.367076,2604.724693,592.164754,8142.265362
1418.367395,2911.162892,1258.350101,8068.244768
1418.367714,3753.867940,1480.411884,6883.915261
1418.368032,3064.381992,1480.411884,7476.080014
1418.368351,2528.115143,592.164754,9104.533087
1418.368670,1991.848295,-222.061783,8808.450710
1418.368989,1302.362347,-1406.391290,9326.594869
1418.369308,1149.143247,-2368.659014,11103.089130
1418.369626,459.657299,-2812.782580,10881.027347
1418.369945,536.266849,-2072.576638,10066.800811
1418.370264,1455.581446,-1776.494261,9548.656652
1418.370583,1991.848295,-1184.329507,9178.553681
1418.370902,2757.943793,-222.061783,7698.141797
1418.371220,2604.724693,222.061783,7105.977043
1418.371539,2604.724693,592.164754,7402.059420
1418.371858,1762.019645,814.226536,7550.100608
1418.372177,1915.238745,814.226536,8216.285956
1418.372496,1838.629195,814.226536,8364.327145
1418.372814,536.266849,370.102971,9252.574275
1418.373133,0.000000,-592.164754,10510.924376
1418.373452,-766.095498,-888.247130,10658.965565
1418.373771,-842.705048,-1110.308913,10140.821405
1418.374090,-995.924147,-1480.411884,10658.965565
1418.374408,-689.485948,-1036.288319,11399.171507
1418.374727,-229.828649,-222.061783,9622.677246
1418.375046,229.828649,-0.000000,8290.306550
1418.375365,383.047749,-370.102971,8660.409521
1418.375684,0.000000,-148.041188,8068.244768
1418.376002,76.609550,740.205942,6513.812290
1418.376321,306.438199,1036.288319,7105.977043
1418.376640,-612.876398,1036.288319,8068.244768
1418.376959,0.000000,1406.391290,8882.471304
1418.377278,-536.266849,1406.391290,8586.388927
1418.377596,-1072.533697,444.123565,9548.656652
1418.377915,-1532.190996,-148.041188,11103.089130
1418.378234,-1762.019645,296.082377,11325.150913
1418.378553,-1149.143247,-0.000000,11695.253884
1418.378872,-995.924147,-444.123565,12065.356855
1418.379190,0.000000,-74.020594,11621.233289
1418.379509,995.924147,518.144159,10362.883188
1418.379828,1991.848295,1036.288319,8660.409521
1418.380147,2681.334243,1258.350101,8808.450710
1418.380466,3064.381992,1628.453072,7624.121203
1418.380784,3524.039291,1850.514855,6587.832884
1418.381103,3064.381992,1776.494261,6365.771101
1418.381422,2451.505594,1554.432478,7846.182985
1418.381741,2221.676944,1110.308913,7846.182985
1418.382060,1532.190996,1332.370696,8216.285956
1418.382378,766.095498,888.247130,9548.656652
1418.382697,0.000000,-74.020594,11769.274478
1418.383016,0.000000,-0.000000,12065.356855
1418.383335,-919.314598,-148.041188,12287.418637
1418.383654,-459.657299,-74.020594,12953.603985
1418.383972,0.000000,-0.000000,12953.603985
1418.384291,689.485948,814.226536,10955.047942
1418.384610,1991.848295,1480.411884,9844.739029
1418.384929,2374.896044,1184.329507,9104.533087
1418.385248,2451.505594,444.123565,8438.347739
1418.385566,2834.553343,222.061783,6661.853478
1418.385885,1685.410096,444.123565,5773.606348
1418.386204,1838.629195,296.082377,7105.977043
1418.386523,536.266849,444.123565,7476.080014
1418.386842,-383.047749,370.102971,7179.997637
1418.387160,-1608.800546,-592.164754,8882.471304
1418.387479,-2604.724693,-962.267725,10881.027347
1418.387798,-3294.210641,-1480.411884,11251.130318
1418.388117,-3524.039291,-1406.391290,11177.109724
1418.388435,-3064.381992,-814.226536,12213.398043
1418.388754,-2221.676944,-814.226536,12583.501014
1418.389073,-1149.143247,-148.041188,10881.027347
1418.389392,229.828649,1036.288319,9696.697840
1418.389711,1608.800546,1184.329507,9104.533087
1418.390029,2528.115143,1258.350101,8290.306550
1418.390348,3830.477490,1924.535449,6735.874072
1418.390667,3983.696590,1702.473667,5477.523971
1418.390986,3907.087040,1850.514855,5625.565159
1418.391305,2911.162892,1036.288319,6439.791695
1418.391623,2451.505594,444.123565,6735.874072
1418.391942,1225.752797,148.041188,7031.956449
1418.392261,229.828649,-1036.288319,9104.533087
1418.392580,-1072.533697,-2516.700203,10066.800811
1418.392899,-1762.019645,-2516.700203,10362.883188
1418.393217,-1685.410096,-2220.617826,11325.150913
1418.393536,-1455.581446,-1480.411884,12435.459826
1418.393855,76.609550,-814.226536,11473.192101
1418.394174,1532.190996,888.247130,9622.677246
1418.394493,2681.334243,1406.391290,9474.636058
1418.394811,3217.601092,1036.288319,9030.512492
1418.395130,3830.477490,962.267725,7772.162391
1418.395449,4366.744339,1184.329507,6365.771101
1418.395768,3370.820191,666.185348,6957.935855
1418.396087,3294.210641,518.144159,7772.162391
1418.396405,2757.943793,-74.020594,7624.121203
1418.396724,1302.362347,-814.226536,7846.182985
1418.397043,0.000000,-1702.473667,9992.780217
1418.397362,-1149.143247,-2146.597232,10436.903782
1418.397681,-2068.457845,-2738.761985,10510.924376
1418.397999,-2451.505594,-2220.617826,11473.192101
1418.398318,-2298.286494,-1480.411884,12065.356855
1418.398637,-1762.019645,-1480.411884,11029.068536
1418.398956,-995.924147,-222.061783,9548.656652
1418.399275,0.000000,222.061783,9400.615463
1418.399593,842.705048,592.164754,8882.471304
1418.399912,995.924147,1332.370696,7402.059420
1418.400231,1302.362347,2146.597232,7031.956449
1418.400550,842.705048,2664.741391,7550.100608
1418.400869,689.485948,2886.803174,8068.244768
1418.401187,229.828649,2072.576638,8290.306550
1418.401506,-766.095498,1628.453072,9030.512492
1418.401825,-919.314598,1332.370696,10362.883188
1418.402144,-1762.019645,148.041188,11251.130318
1418.402463,-1532.190996,-296.082377,10955.047942
1418.402781,-1838.629195,-296.082377,11325.150913
1418.403100,-1378.971896,-74.020594,11843.295072
1418.403419,76.609550,222.061783,10510.924376
1418.403738,1608.800546,1184.329507,7920.203579
1418.404057,2145.067394,2294.638420,7402.059420
1418.404375,3217.601092,1924.535449,7328.038826
1418.404694,2987.772442,2368.659014,6143.709319
1418.405013,3140.991542,2368.659014,6069.688724
1418.405332,2298.286494,1998.556043,7105.977043
1418.405651,995.924147,1406.391290,8956.491898
1418.405969,689.485948,1406.391290,9178.553681
1418.406288,0.000000,1850.514855,10066.800811
1418.406607,-766.095498,888.247130,11991.336260
1418.406926,-1685.410096,296.082377,13027.624579
1418.407245,-1915.238745,740.205942,12805.562797
1418.407563,-1149.143247,296.082377,12509.480420
1418.407882,-612.876398,148.041188,12879.583391
1418.408201,766.095498,370.102971,11399.171507
1418.408520,2528.115143,296.082377,9104.533087
1418.408839,3064.381992,296.082377,8068.244768
1418.409157,3600.648841,518.144159,7402.059420
1418.409476,4290.134789,1110.308913,5699.585753
1418.409795,4060.306139,1480.411884,4663.297435
1418.410114,2834.553343,1258.350101,5921.647536
1418.410433,1532.190996,962.267725,6957.935855
1418.410751,383.047749,1110.308913,7772.162391
1418.411070,-1762.019645,-0.000000,9844.739029
1418.411389,-3447.429741,-148.041188,11695.253884
1418.411708,-4136.915689,-1036.288319,13101.645173
1418.412027,-4903.011187,-740.205942,13175.665768
1418.412345,-3907.087040,-814.226536,14285.974681
1418.412664,-3447.429741,-148.041188,13841.851115
1418.412983,-1685.410096,222.061783,12287.418637
1418.413302,76.609550,962.267725,9548.656652
1418.413621,2374.896044,1554.432478,8586.388927
1418.413939,3447.429741,888.247130,7920.203579
1418.414258,3983.696590,1628.453072,4959.379811
1418.414577,4443.353888,1554.432478,4219.173869
1418.414896,4290.134789,1184.329507,4145.153275
1418.415215,3370.820191,592.164754,5699.585753
1418.415533,1915.238745,-222.061783,6513.812290
1418.415852,0.000000,-444.123565,7920.203579
1418.416171,-1532.190996,-1480.411884,10214.842000
1418.416490,-2911.162892,-1332.370696,12213.398043
1418.416808,-3600.648841,-1554.432478,12065.356855
1418.417127,-4290.134789,-1554.432478,13027.624579
1418.417446,-3907.087040,-2072.576638,15100.201217
1418.417765,-2451.505594,-1184.329507,14211.954086
1418.418084,-536.266849,-0.000000,11769.274478
1418.418402,1455.581446,888.247130,10066.800811
1418.418721,3370.820191,814.226536,9252.574275
1418.419040,4903.011187,1258.350101,6735.874072
1418.419359,5898.935335,2072.576638,4219.173869
1418.419678,6052.154434,2146.597232,4515.256246
1418.419996,5209.449386,1850.514855,4737.318029
1418.420315,4290.134789,1036.288319,4589.276840
1418.420634,2374.896044,-0.000000,5699.585753
1418.420953,383.047749,-740.205942,8216.285956
1418.421272,-1838.629195,-2072.576638,9770.718434
1418.421590,-3140.991542,-1924.535449,10288.862594
1418.421909,-4060.306139,-1850.514855,11769.274478
1418.422228,-4060.306139,-1332.370696,13175.665768
1418.422547,-3217.601092,-888.247130,12879.583391
1418.422866,-1991.848295,740.205942,11251.130318
1418.423184,-383.047749,1998.556043,10140.821405
1418.423503,995.924147,2960.823768,8882.471304
1418.423822,2221.676944,3330.926739,7105.977043
1418.424141,3294.210641,3997.112087,5625.565159
1418.424460,3140.991542,3701.029710,5699.585753
1418.424778,2604.724693,3108.864956,6143.709319
1418.425097,2221.676944,1850.514855,5921.647536
1418.425416,1225.752797,1332.370696,6513.812290
1418.425735,-306.438199,-0.000000,8290.306550
1418.426054,-1608.800546,-1110.308913,10066.800811
1418.426372,-3064.381992,-1924.535449,10807.006753
1418.426691,-3600.648841,-1554.432478,11103.089130
1418.427010,-3753.867940,-1258.350101,12879.583391
1418.427329,-3830.477490,-1110.308913,12731.542202
1418.427648,-2834.553343,-296.082377,12065.356855
1418.427966,-2068.457845,-0.000000,11251.130318
1418.428285,-612.876398,444.123565,10732.986159
1418.428604,536.266849,518.144159,9474.636058
1418.428923,1455.581446,1850.514855,8068.244768
1418.429242,2451.505594,2294.638420,8142.265362
1418.429560,2528.115143,2442.679609,8586.388927
1418.429879,3370.820191,2442.679609,8512.368333
1418.430198,3064.381992,1776.494261,8438.347739
1418.430517,2221.676944,962.267725,9918.759623
1418.430836,995.924147,296.082377,10732.986159
1418.431154,306.438199,148.041188,10658.965565
1418.431473,0.000000,-222.061783,10807.006753
1418.431792,-612.876398,-444.123565,12213.398043
1418.432111,-612.876398,-592.164754,11917.315666
1418.432430,383.047749,-296.082377,10362.883188
1418.432748,612.876398,-74.020594,9474.636058
1418.433067,1838.629195,666.185348,9326.594869
1418.433386,2068.457845,1184.329507,8438.347739
1418.433705,2451.505594,1702.473667,6883.915261
1418.434024,2681.334243,2220.617826,6883.915261
1418.434342,2604.724693,2516.700203,7476.080014
1418.434661,2757.943793,3182.885551,7402.059420
1418.434980,1838.629195,2886.803174,7402.059420
1418.435299,459.657299,1776.494261,9030.512492
1418.435618,-766.095498,814.226536,10510.924376
1418.435936,-1608.800546,-0.000000,10584.944971
1418.436255,-2374.896044,-518.144159,10881.027347
1418.436574,-2068.457845,-222.061783,11473.192101
1418.436893,-1838.629195,-0.000000,10955.047942
1418.437212,-689.485948,-518.144159,9844.739029
1418.437530,-153.219100,-74.020594,8290.306550
1418.437849,612.876398,-148.041188,8216.285956
1418.438168,995.924147,-370.102971,7105.977043
1418.438487,2068.457845,-222.061783,6143.709319
1418.438806,1532.190996,-0.000000,5625.565159
1418.439124,1072.533697,148.041188,7031.956449
1418.439443,842.705048,-222.061783,7476.080014
1418.439762,0.000000,-222.061783,8142.265362
1418.440081,-612.876398,-444.123565,9548.656652
1418.440400,-1762.019645,-740.205942,11177.109724
1418.440718,-1838.629195,-888.247130,11843.295072
1418.441037,-2068.457845,-962.267725,11843.295072
1418.441356,-1378.971896,-1702.473667,13323.706956
1418.441675,-612.876398,-1258.350101,12731.542202
1418.441994,919.314598,-814.226536,11251.130318
1418.442312,2528.115143,-1036.288319,9918.759623
1418.442631,3370.820191,-888.247130,9326.594869
1418.442950,3830.477490,-740.205942,7402.059420
1418.443269,4673.182538,370.102971,5551.544565
1418.443588,4903.011187,1110.308913,5403.503377
1418.443906,4596.572988,1406.391290,5921.647536
1418.444225,3830.477490,1554.432478,6069.688724
1418.444544,2528.115143,1258.350101,6735.874072
1418.444863,1302.362347,296.082377,8734.430116
1418.445182,-842.705048,-444.123565,10584.944971
1418.445500,-1838.629195,-1554.432478,11547.212695
1418.445819,-2604.724693,-1776.494261,12139.377449
1418.446138,-3753.867940,-1406.391290,13249.686362
1418.446457,-2987.772442,-740.205942,12805.562797
1418.446775,-1608.800546,814.226536,10807.006753
1418.447094,-383.047749,1184.329507,9474.636058
1418.447413,76.609550,1554.432478,9252.574275
1418.447732,995.924147,1554.432478,7920.203579
1418.448051,1915.238745,2220.617826,5699.585753
1418.448369,1762.019645,2294.638420,5329.482782
1418.448688,1455.581446,1924.535449,6365.771101
1418.449007,1149.143247,1258.350101,5995.668130
1418.449326,766.095498,1036.288319,6069.688724
1418.449645,-689.485948,-0.000000,7772.162391
1418.449963,-2528.115143,-592.164754,9548.656652
1418.450282,-3217.601092,-740.205942,10288.862594
1418.450601,-3294.210641,-444.123565,11325.150913
1418.450920,-3983.696590,-296.082377,12509.480420
1418.451239,-3983.696590,-0.000000,13249.686362
1418.451557,-2528.115143,666.185348,11917.315666
1418.451876,-1455.581446,1184.329507,11103.089130
1418.452195,229.828649,1924.535449,10658.965565
1418.452514,1685.410096,2146.597232,9548.656652
1418.452833,2604.724693,2294.638420,7994.224174
1418.453151,3370.820191,2664.741391,6735.874072
1418.453470,4136.915689,2812.782580,7254.018232
1418.453789,4366.744339,2442.679609,7105.977043
1418.454108,4213.525239,1998.556043,7179.997637
1418.454427,3370.820191,888.247130,8216.285956
1418.454745,1991.848295,-0.000000,9918.759623
1418.455064,1149.143247,-888.247130,10066.800811
1418.455383,-536.266849,-592.164754,10214.842000
1418.455702,-306.438199,-518.144159,11843.295072
1418.456021,-612.876398,-814.226536,11917.315666
1418.456339,76.609550,-74.020594,11473.192101
1418.456658,306.438199,-370.102971,10955.047942
1418.456977,383.047749,148.041188,11177.109724
1418.457296,995.924147,888.247130,9992.780217
1418.457615,1378.971896,1110.308913,8512.368333
1418.457933,1608.800546,1628.453072,8364.327145
1418.458252,1762.019645,1554.432478,9252.574275
1418.458571,1762.019645,1406.391290,8956.491898
1418.458890,1838.629195,1036.288319,8142.265362
1418.459209,995.924147,-74.020594,9474.636058
1418.459527,0.000000,-888.247130,9844.739029
1418.459846,-689.485948,-1776.494261,9844.739029
1418.460165,-1149.143247,-1924.535449,9696.697840
1418.460484,-1072.533697,-1554.432478,10436.903782
1418.460803,-1072.533697,-1110.308913,10510.924376
1418.461121,0.000000,-518.144159,9474.636058
1418.461440,229.828649,-1184.329507,9104.533087
1418.461759,689.485948,-740.205942,9400.615463
1418.462078,306.438199,-222.061783,8512.368333
1418.462397,919.314598,296.082377,7179.997637
1418.462715,1149.143247,962.267725,7698.141797
1418.463034,1302.362347,666.185348,8142.265362
1418.463353,1455.581446,1110.308913,8290.306550
1418.463672,1378.971896,1406.391290,7772.162391
1418.463991,1455.581446,888.247130,8882.471304
1418.464310,536.266849,-148.041188,9770.718434
1418.464628,0.000000,-666.185348,9992.780217
1418.464947,0.000000,-962.267725,10066.800811
1418.465266,0.000000,-740.205942,10066.800811
1418.465585,229.828649,-444.123565,9770.718434
1418.465904,1378.971896,-370.102971,8660.409521
1418.466223,1915.238745,-0.000000,7624.121203
1418.466541,2451.505594,-518.144159,7254.018232
1418.466860,2528.115143,-814.226536,7179.997637
1418.467179,2681.334243,-740.205942,6069.688724
1418.467498,1991.848295,148.041188,5773.606348
1418.467817,1608.800546,1184.329507,7105.977043
1418.468136,536.266849,814.226536,7846.182985
1418.468454,0.000000,1110.308913,7920.203579
1418.468773,-1302.362347,962.267725,9030.512492
1418.469092,-2451.505594,-0.000000,11029.068536
1418.469411,-2757.943793,-74.020594,11695.253884
1418.469730,-3064.381992,-74.020594,11473.192101
1418.470049,-2987.772442,-518.144159,12657.521608
1418.470367,-2298.286494,-444.123565,12879.583391
1418.470686,-995.924147,296.082377,10881.027347
1418.471005,306.438199,740.205942,9548.656652
1418.471324,1455.581446,666.185348,9400.615463
1418.471643,1838.629195,222.061783,8438.347739
1418.471962,2834.553343,666.185348,6809.894666
1418.472280,2834.553343,1036.288319,6069.688724
1418.472599,2757.943793,1332.370696,7254.018232
1418.472918,2374.896044,1332.370696,6957.935855
1418.473237,1455.581446,962.267725,7328.038826
1418.473556,229.828649,222.061783,9400.615463
1418.473875,-842.705048,-148.041188,10881.027347
1418.474193,-1762.019645,-296.082377,11325.150913
1418.474512,-2374.896044,-0.000000,11991.336260
1418.474831,-1532.190996,-518.144159,13619.789333
1418.475150,-1915.238745,370.102971,13471.748144
1418.475469,-459.657299,814.226536,12287.418637
1418.475788,306.438199,1110.308913,10807.006753
1418.476106,1915.238745,1554.432478,10362.883188
1418.476425,2451.505594,1480.411884,8882.471304
1418.476744,2987.772442,1924.535449,6883.915261
1418.477063,3370.820191,2072.576638,6735.874072
1418.477382,3370.820191,1776.494261,6957.935855
1418.477701,3447.429741,1184.329507,6735.874072
1418.478019,2911.162892,1184.329507,6439.791695
1418.478338,2221.676944,518.144159,8216.285956
1418.478657,383.047749,-74.020594,9178.553681
1418.478976,-383.047749,-666.185348,9474.636058
1418.479295,-1149.143247,-1036.288319,10807.006753
1418.479614,-1608.800546,-592.164754,11991.336260
1418.479932,-1532.190996,-740.205942,12065.356855
1418.480251,-1302.362347,370.102971,10881.027347
1418.480570,-842.705048,666.185348,10584.944971
1418.480889,0.000000,296.082377,10214.842000
1418.481208,766.095498,888.247130,9104.533087
1418.481527,919.314598,1332.370696,7994.224174
1418.481845,1915.238745,1702.473667,6957.935855
1418.482164,1685.410096,1554.432478,6957.935855
1418.482483,1991.848295,592.164754,7328.038826
1418.482802,1302.362347,148.041188,7105.977043
1418.483121,459.657299,-370.102971,8068.244768
1418.483440,0.000000,-1554.432478,9474.636058
1418.483758,-766.095498,-1924.535449,9474.636058
1418.484077,-1378.971896,-1628.453072,9992.780217
1418.484396,-995.924147,-1332.370696,10807.006753
1418.484715,-842.705048,-1036.288319,11251.130318
1418.485034,0.000000,-148.041188,9770.718434
1418.485353,919.314598,-0.000000,9178.553681
1418.485671,1685.410096,518.144159,9030.512492
1418.485990,1991.848295,518.144159,8808.450710
1418.486309,1991.848295,888.247130,7105.977043
1418.486628,3064.381992,1036.288319,7328.038826
1418.486947,2221.676944,1184.329507,8068.244768
1418.487266,2145.067394,1036.288319,8438.347739
1418.487584,2221.676944,814.226536,8142.265362
1418.487903,1532.190996,-444.123565,9400.615463
1418.488222,612.876398,-1110.308913,10362.883188
1418.488541,153.219100,-1332.370696,10140.821405
1418.488860,-383.047749,-814.226536,9770.718434
1418.489179,-383.047749,-518.144159,9622.677246
1418.489497,153.219100,-518.144159,9992.780217
1418.489816,1378.971896,-0.000000,9770.718434
1418.490135,1685.410096,-0.000000,8290.306550
1418.490454,1378.971896,296.082377,7920.203579
1418.490773,1685.410096,-148.041188,8068.244768
1418.491092,842.705048,518.144159,7402.059420
1418.491410,612.876398,222.061783,7624.121203
1418.491729,153.219100,1554.432478,8586.388927
1418.492048,0.000000,1998.556043,9326.594869
1418.492367,-229.828649,1776.494261,8660.409521
1418.492686,-1302.362347,1258.350101,9918.759623
1418.493005,-1762.019645,-370.102971,11917.315666
1418.493323,-2298.286494,-888.247130,12139.377449
1418.493642,-2221.676944,-962.267725,11547.212695
1418.493961,-1685.410096,-962.267725,11769.274478
1418.494280,-919.314598,-0.000000,11325.150913
1418.494599,536.266849,370.102971,9548.656652
1418.494918,2145.067394,1258.350101,7920.203579
1418.495236,2911.162892,1554.432478,7105.977043
1418.495555,2911.162892,1480.411884,6217.729913
1418.495874,3140.991542,1036.288319,5921.647536
1418.496193,2374.896044,1332.370696,5773.606348
1418.496512,1378.971896,1702.473667,7402.059420
1418.496831,383.047749,1628.453072,8068.244768
1418.497149,0.000000,1406.391290,8808.450710
1418.497468,-995.924147,962.267725,10214.842000
1418.497787,-2604.724693,296.082377,12139.377449
1418.498106,-3294.210641,-0.000000,13101.645173
1418.498425,-3140.991542,222.061783,12657.521608
1418.498744,-2298.286494,-0.000000,13693.809927
1418.499062,-1532.190996,-0.000000,12953.603985
1418.499381,0.000000,666.185348,11103.089130
1418.499700,1838.629195,1480.411884,9030.512492
1418.500019,3524.039291,1332.370696,8142.265362
1418.500338,4136.915689,592.164754,6735.874072
1418.500657,4673.182538,1480.411884,5255.462188
1418.500975,4213.525239,1332.370696,5033.400406
1418.501294,3600.648841,888.247130,6143.709319
1418.501613,2834.553343,592.164754,7254.018232
1418.501932,1762.019645,592.164754,7698.141797
1418.502251,0.000000,-0.000000,9326.594869
1418.502570,-1991.848295,-592.164754,11325.150913
1418.502888,-2604.724693,-1184.329507,12731.542202
1418.503207,-3140.991542,-814.226536,12953.603985
1418.503526,-3140.991542,-666.185348,13323.706956
1418.503845,-3140.991542,-518.144159,13841.851115
1418.504164,-1532.190996,592.164754,12509.480420
1418.504483,-153.219100,962.267725,10362.883188
1418.504801,995.924147,1332.370696,9474.636058
1418.505120,1915.238745,1406.391290,8290.306550
1418.505439,2681.334243,1332.370696,6513.812290
1418.505758,2987.772442,1702.473667,5255.462188
1418.506077,2604.724693,1554.432478,5699.585753
1418.506396,2374.896044,518.144159,6217.729913
1418.506714,1608.800546,444.123565,6365.771101
1418.507033,0.000000,-0.000000,7772.162391
1418.507352,-1302.362347,-888.247130,9400.615463
1418.507671,-2298.286494,-962.267725,10362.883188
1418.507990,-3064.381992,-666.185348,10807.006753
1418.508309,-2911.162892,-592.164754,11991.336260
1418.508627,-2834.553343,-74.020594,11991.336260
1418.508946,-1378.971896,370.102971,11547.212695
1418.509265,-153.219100,888.247130,9622.677246
1418.509584,766.095498,1924.535449,9474.636058
1418.509903,1915.238745,1554.432478,8586.388927
1418.510222,2681.334243,2146.597232,7179.997637
1418.510540,3524.039291,1924.535449,6143.709319
1418.510859,3600.648841,1702.473667,6883.915261
1418.511178,3983.696590,2516.700203,6365.771101
1418.511497,3064.381992,1628.453072,5773.606348
1418.511816,2374.896044,-74.020594,7476.080014
1418.512135,766.095498,-1406.391290,9474.636058
1418.512453,-306.438199,-1924.535449,9918.759623
1418.512772,-1455.581446,-1850.514855,10066.800811
1418.513091,-1991.848295,-1702.473667,10955.047942
1418.513410,-1762.019645,-1406.391290,11917.315666
1418.513729,-919.314598,-740.205942,11843.295072
1418.514048,0.000000,-148.041188,10807.006753
1418.514366,1149.143247,296.082377,10214.842000
1418.514685,1532.190996,592.164754,9548.656652
1418.515004,2298.286494,814.226536,8364.327145
1418.515323,2451.505594,888.247130,7698.141797
1418.515642,2374.896044,1332.370696,7994.224174
1418.515961,2145.067394,1406.391290,7920.203579
1418.516280,2145.067394,1406.391290,7920.203579
1418.516598,1225.752797,666.185348,8512.368333
1418.516917,76.609550,-740.205942,9918.759623
1418.517236,-689.485948,-1258.350101,10807.006753
1418.517555,-1608.800546,-1406.391290,10732.986159
1418.517874,-1991.848295,-1628.453072,11325.150913
1418.518193,-1762.019645,-1332.370696,11917.315666
1418.518511,-919.314598,-1184.329507,11621.233289
1418.518830,-153.219100,-0.000000,9548.656652
1418.519149,306.438199,444.123565,8956.491898
1418.519468,1455.581446,740.205942,8290.306550
1418.519787,1991.848295,1184.329507,7105.977043
1418.520106,1915.238745,1924.535449,6883.915261
1418.520424,1838.629195,2442.679609,7402.059420
1418.520743,995.924147,2886.803174,7846.182985
1418.521062,995.924147,2812.782580,7994.224174
1418.521381,229.828649,2368.659014,8734.430116
1418.521700,-1072.533697,666.185348,10658.965565
1418.522019,-1532.190996,-74.020594,10881.027347
1418.522337,-2451.505594,-370.102971,10658.965565
1418.522656,-2451.505594,-740.205942,11843.295072
1418.522975,-1991.848295,-740.205942,12435.459826
1418.523294,-919.314598,-148.041188,10955.047942
1418.523613,229.828649,148.041188,9030.512492
1418.523932,1072.533697,740.205942,8438.347739
1418.524250,2298.286494,1110.308913,7624.121203
1418.524569,2911.162892,1776.494261,5773.606348
1418.524888,2604.724693,1998.556043,5847.626942
1418.525207,2374.896044,1998.556043,6957.935855
1418.525526,1991.848295,2146.597232,7402.059420
1418.525845,689.485948,1480.411884,8068.244768
1418.526163,76.609550,1184.329507,9474.636058
1418.526482,-1225.752797,148.041188,10955.047942
1418.526801,-2145.067394,-0.000000,11473.192101
1418.527120,-1685.410096,-444.123565,12583.501014
1418.527439,-1608.800546,-370.102971,12139.377449
1418.527758,-1302.362347,-222.061783,12509.480420
1418.528076,0.000000,-0.000000,11325.150913
1418.528395,842.705048,1036.288319,9400.615463
1418.528714,2068.457845,444.123565,8290.306550
1418.529033,2604.724693,148.041188,7920.203579
1418.529352,2834.553343,592.164754,6439.791695
1418.529671,2757.943793,1332.370696,4811.338623
1418.529989,2298.286494,1480.411884,5921.647536
1418.530308,1762.019645,888.247130,8068.244768
1418.530627,995.924147,444.123565,7846.182985
1418.530946,-612.876398,222.061783,8290.306550
1418.531265,-1915.238745,-370.102971,11029.068536
1418.531584,-2757.943793,-814.226536,12361.439231
1418.531902,-3447.429741,-592.164754,11843.295072
1418.532221,-2987.772442,-666.185348,12805.562797
1418.532540,-2451.505594,-592.164754,13471.748144
1418.532859,-1225.752797,-0.000000,11769.274478
1418.533178,536.266849,444.123565,10066.800811
1418.533497,1915.238745,370.102971,9548.656652
1418.533815,3064.381992,666.185348,8068.244768
1418.534134,3830.477490,740.205942,5921.647536
1418.534453,4519.963438,962.267725,5329.482782
1418.534772,4290.134789,1332.370696,5625.565159
1418.535091,3753.867940,888.247130,5995.668130
1418.535410,3064.381992,740.205942,6069.688724
1418.535728,1915.238745,-370.102971,7698.141797
1418.536047,76.609550,-1184.329507,9918.759623
1418.536366,-766.095498,-2368.659014,11695.253884
1418.536685,-2374.896044,-2146.597232,12065.356855
1418.537004,-2451.505594,-1480.411884,13101.645173
1418.537323,-2068.457845,-740.205942,13249.686362
1418.537641,-842.705048,-0.000000,12509.480420
1418.537960,306.438199,74.020594,10881.027347
1418.538279,2145.067394,1184.329507,9474.636058
1418.538598,2681.334243,814.226536,8364.327145
1418.538917,3830.477490,1110.308913,6661.853478
1418.539236,4673.182538,1036.288319,5699.585753
1418.539554,3294.210641,962.267725,6069.688724
1418.539873,2604.724693,1036.288319,6143.709319
1418.540192,1915.238745,592.164754,6365.771101
1418.540511,766.095498,296.082377,7254.018232
1418.540830,-766.095498,-888.247130,9844.739029
1418.541149,-2451.505594,-962.267725,10807.006753
1418.541467,-3140.991542,-518.144159,10881.027347
1418.541786,-3830.477490,-1406.391290,11473.192101
1418.542105,-4290.134789,-1332.370696,11843.295072
1418.542424,-3064.381992,-888.247130,12509.480420
1418.542743,-1378.971896,296.082377,10881.027347
1418.543062,-536.266849,1036.288319,9844.739029
1418.543380,1302.362347,1258.350101,9548.656652
1418.543699,1991.848295,2072.576638,7402.059420
1418.544018,3677.258390,2664.741391,7179.997637
1418.544337,3370.820191,2886.803174,5329.482782
1418.544656,2528.115143,3923.091493,6587.832884
1418.544975,2451.505594,2886.803174,6069.688724
1418.545293,-153.219100,3552.988522,4663.297435
1418.545612,0.000000,-888.247130,9548.656652
1418.545931,-1991.848295,-2294.638420,11843.295072
1418.546250,-2757.943793,-1702.473667,11695.253884
1418.546569,-2987.772442,-2442.679609,11103.089130
1418.546888,-3064.381992,-1258.350101,13397.727550
1418.547206,-1455.581446,-1184.329507,12953.603985
1418.547525,-76.609550,-148.041188,10807.006753
1418.547844,153.219100,1110.308913,9400.615463
1418.548163,2604.724693,1998.556043,9696.697840
1418.548482,3140.991542,3849.070898,6735.874072
1418.548801,4366.744339,3849.070898,6217.729913
1418.549119,4213.525239,3330.926739,6735.874072
1418.549438,3140.991542,2368.659014,7179.997637
1418.549757,3064.381992,814.226536,7031.956449
1418.550076,2145.067394,444.123565,8808.450710
1418.550395,1072.533697,-518.144159,10362.883188
1418.550714,0.000000,-666.185348,11251.130318
1418.551032,-1608.800546,-888.247130,11769.274478
1418.551351,-1302.362347,-2368.659014,11621.233289
1418.551670,-1608.800546,-2220.617826,12583.501014
1418.551989,-995.924147,-666.185348,11991.336260
1418.552308,689.485948,-0.000000,10288.862594
1418.552627,919.314598,444.123565,8438.347739
1418.552945,2298.286494,296.082377,8586.388927
1418.553264,2298.286494,-0.000000,7105.977043
1418.553583,2757.943793,814.226536,5699.585753
1418.553902,3217.601092,1406.391290,6217.729913
1418.554221,2681.334243,2590.720797,6883.915261
1418.554540,2451.505594,2368.659014,6883.915261
1418.554858,1149.143247,1480.411884,8512.368333
1418.555177,-842.705048,370.102971,10140.821405
1418.555496,-1455.581446,-296.082377,11843.295072
1418.555815,-2298.286494,-222.061783,11695.253884
1418.556134,-2604.724693,-1258.350101,11473.192101
1418.556453,-3524.039291,-2146.597232,12583.501014
1418.556771,-2834.553343,-1998.556043,12361.439231
1418.557090,-1302.362347,-1776.494261,10510.924376
1418.557409,-306.438199,-1036.288319,9030.512492
1418.557728,1149.143247,-296.082377,8216.285956
1418.558047,2374.896044,-0.000000,6735.874072
1418.558366,3370.820191,962.267725,5699.585753
1418.558684,3064.381992,740.205942,5847.626942
1418.559003,3294.210641,1184.329507,6587.832884
1418.559322,2528.115143,1628.453072,6439.791695
1418.559641,1991.848295,1332.370696,7105.977043
1418.559960,689.485948,222.061783,9400.615463
1418.560279,-1378.971896,-1258.350101,11251.130318
1418.560597,-2451.505594,-1258.350101,11769.274478
1418.560916,-2834.553343,-592.164754,12435.459826
1418.561235,-2374.896044,-370.102971,13693.809927
1418.561554,-1762.019645,-370.102971,13175.665768
1418.561873,-383.047749,-370.102971,11843.295072
1418.562192,1072.533697,370.102971,9918.759623
1418.562510,2604.724693,592.164754,8512.368333
1418.562829,3677.258390,296.082377,6957.935855
1418.563148,4443.353888,962.267725,5477.523971
1418.563467,5056.230287,1332.370696,4367.215058
1418.563786,4213.525239,1480.411884,5551.544565
1418.564105,4060.306139,1776.494261,5921.647536
1418.564423,2681.334243,1036.288319,5995.668130
1418.564742,1149.143247,962.267725,8364.327145
1418.565061,-919.314598,-74.020594,10732.986159
1418.565380,-2298.286494,-666.185348,11769.274478
1418.565699,-2757.943793,-444.123565,12287.418637
1418.566018,-2834.553343,-222.061783,13841.851115
1418.566337,-2145.067394,-296.082377,13619.789333
1418.566656,-1455.581446,592.164754,11769.274478
1418.566974,0.000000,1036.288319,10288.862594
1418.567293,612.876398,1406.391290,9622.677246
1418.567612,1378.971896,1628.453072,7698.141797
1418.567931,2145.067394,1702.473667,6883.915261
1418.568250,2374.896044,1776.494261,6513.812290
1418.568569,2451.505594,2146.597232,6439.791695
1418.568888,2604.724693,1924.535449,6365.771101
1418.569207,1685.410096,1480.411884,6365.771101
1418.569526,229.828649,-370.102971,7920.203579
1418.569844,-995.924147,-1332.370696,9622.677246
1418.570163,-2451.505594,-2220.617826,10658.965565
1418.570482,-3294.210641,-2220.617826,11399.171507
1418.570801,-3524.039291,-666.185348,12509.480420
1418.571120,-3140.991542,-0.000000,12435.459826
1418.571439,-2221.676944,962.267725,11251.130318
1418.571758,-1072.533697,1776.494261,10510.924376
1418.572077,0.000000,1850.514855,9992.780217
1418.572395,689.485948,1776.494261,9252.574275
1418.572714,1455.581446,1998.556043,7476.080014
1418.573033,2298.286494,1924.535449,7550.100608
1418.573352,2757.943793,1776.494261,8216.285956
1418.573671,3140.991542,1184.329507,7476.080014
1418.573990,3600.648841,1036.288319,6883.915261
1418.574309,2528.115143,296.082377,7698.141797
1418.574628,1838.629195,-666.185348,9622.677246
1418.574947,919.314598,-1184.329507,9326.594869
1418.575265,0.000000,-1332.370696,9992.780217
1418.575584,-842.705048,-1184.329507,11325.150913
1418.575903,-766.095498,-518.144159,11029.068536
1418.576222,-459.657299,-666.185348,10140.821405
1418.576541,383.047749,-370.102971,10510.924376
1418.576860,1302.362347,-222.061783,10436.903782
1418.577179,1072.533697,-74.020594,9178.553681
1418.577498,1378.971896,740.205942,7994.224174
1418.577816,1685.410096,962.267725,8438.347739
1418.578135,1838.629195,962.267725,8290.306550
1418.578454,1915.238745,1110.308913,8512.368333
1418.578773,1762.019645,1258.350101,8216.285956
1418.579092,995.924147,962.267725,8734.430116
1418.579411,536.266849,-0.000000,9770.718434
1418.579730,0.000000,-814.226536,9696.697840
1418.580049,-919.314598,-888.247130,9844.739029
1418.580368,-459.657299,-962.267725,10436.903782
1418.580686,-383.047749,-962.267725,10436.903782
1418.581005,153.219100,-444.123565,9474.636058
1418.581324,919.314598,-148.041188,8290.306550
1418.581643,1149.143247,-74.020594,8956.491898
1418.581962,1072.533697,-0.000000,8586.388927
1418.582281,1378.971896,1332.370696,6587.832884
1418.582600,1838.629195,1998.556043,6735.874072
1418.582919,1608.800546,2590.720797,7920.203579
1418.583237,919.314598,2442.679609,7772.162391
1418.583556,842.705048,2294.638420,7846.182985
1418.583875,-153.219100,814.226536,9178.553681
1418.584194,-1378.971896,-0.000000,10807.006753
1418.584513,-1532.190996,-222.061783,10807.006753
1418.584832,-1455.581446,-148.041188,10881.027347
1418.585151,-1455.581446,222.061783,11029.068536
1418.585470,-842.705048,222.061783,10955.047942
1418.585789,-153.219100,518.144159,9918.759623
1418.586107,459.657299,666.185348,9030.512492
1418.586426,919.314598,222.061783,8660.409521
1418.586745,1455.581446,-0.000000,7772.162391
1418.587064,1762.019645,148.041188,6957.935855
1418.587383,2221.676944,-0.000000,7179.997637
1418.587702,1608.800546,592.164754,7698.141797
1418.588021,1378.971896,518.144159,8660.409521
1418.588340,689.485948,740.205942,8290.306550
1418.588658,229.828649,296.082377,9696.697840
1418.588977,-995.924147,-148.041188,11399.171507
1418.589296,-1838.629195,-444.123565,11325.150913
1418.589615,-1915.238745,-518.144159,11695.253884
1418.589934,-1991.848295,-74.020594,12065.356855
1418.590253,-1608.800546,-222.061783,12509.480420
1418.590572,-383.047749,-0.000000,11029.068536
1418.590891,383.047749,592.164754,9770.718434
1418.591210,995.924147,296.082377,9252.574275
1418.591528,1762.019645,-0.000000,8586.388927
1418.591847,2221.676944,296.082377,7402.059420
1418.592166,2451.505594,1036.288319,6883.915261
1418.592485,2298.286494,1184.329507,7550.100608
1418.592804,2145.067394,1184.329507,7402.059420
1418.593123,1608.800546,1184.329507,7476.080014
1418.593442,995.924147,814.226536,8586.388927
1418.593761,0.000000,296.082377,9622.677246
1418.594079,-842.705048,-296.082377,10436.903782
1418.594398,-1378.971896,-222.061783,10510.924376
1418.594717,-2145.067394,-74.020594,11547.212695
1418.595036,-919.314598,370.102971,11251.130318
1418.595355,-766.095498,1184.329507,10807.006753
1418.595674,0.000000,1406.391290,9918.759623
1418.595993,536.266849,1258.350101,9104.533087
1418.596312,766.095498,1480.411884,8882.471304
1418.596631,1532.190996,1480.411884,7476.080014
1418.596949,2145.067394,1702.473667,7476.080014
1418.597268,2068.457845,1702.473667,7698.141797
1418.597587,1762.019645,1554.432478,7550.100608
1418.597906,1685.410096,1110.308913,7105.977043
1418.598225,612.876398,740.205942,7772.162391
1418.598544,76.609550,-740.205942,9178.553681
1418.598863,-612.876398,-962.267725,9844.739029
1418.599182,-995.924147,-740.205942,10066.800811
1418.599500,-1378.971896,-370.102971,11029.068536
1418.599819,-1072.533697,222.061783,11473.192101
1418.600138,-153.219100,518.144159,10807.006753
1418.600457,536.266849,1110.308913,9474.636058
1418.600776,842.705048,1406.391290,9326.594869
1418.601095,1149.143247,1332.370696,8956.491898
1418.601414,1532.190996,962.267725,7328.038826
1418.601733,1608.800546,1110.308913,7328.038826
1418.602052,1915.238745,814.226536,8142.265362
1418.602370,995.924147,1184.329507,8290.306550
1418.602689,842.705048,888.247130,8068.244768
1418.603008,459.657299,222.061783,8660.409521
1418.603327,-153.219100,-222.061783,10214.842000
1418.603646,-1302.362347,-1110.308913,10362.883188
1418.603965,-1072.533697,-1406.391290,10732.986159
1418.604284,-1302.362347,-1258.350101,10955.047942
1418.604603,-612.876398,-222.061783,11399.171507
1418.604921,153.219100,222.061783,10288.862594
1418.605240,1302.362347,592.164754,9400.615463
1418.605559,1608.800546,666.185348,8734.430116
1418.605878,1378.971896,962.267725,8364.327145
1418.606197,1991.848295,1406.391290,7476.080014
1418.606516,1915.238745,1628.453072,7031.956449
1418.606835,1838.629195,1628.453072,7846.182985
1418.607154,1762.019645,1776.494261,8290.306550
1418.607473,842.705048,1184.329507,7994.224174
1418.607791,383.047749,296.082377,9030.512492
1418.608110,-766.095498,-1036.288319,10807.006753
1418.608429,-689.485948,-1110.308913,11103.089130
1418.608748,-689.485948,-1184.329507,11103.089130
1418.609067,-919.314598,-1480.411884,11621.233289
1418.609386,0.000000,-962.267725,11325.150913
1418.609705,536.266849,-0.000000,9918.759623
1418.610024,1608.800546,-0.000000,8660.409521
1418.610342,2298.286494,370.102971,8364.327145
1418.610661,2757.943793,592.164754,7476.080014
1418.610980,2911.162892,740.205942,6513.812290
1418.611299,2757.943793,1184.329507,7105.977043
1418.611618,1915.238745,1184.329507,7846.182985
1418.611937,1302.362347,370.102971,8512.368333
1418.612256,612.876398,222.061783,8882.471304
1418.612575,-306.438199,-74.020594,9844.739029
1418.612894,-1608.800546,-888.247130,11473.192101
1418.613212,-2068.457845,-1110.308913,11917.315666
1418.613531,-2451.505594,-1110.308913,11473.192101
1418.613850,-1762.019645,-814.226536,11843.295072
1418.614169,-995.924147,-74.020594,11769.274478
1418.614488,-383.047749,518.144159,10066.800811
1418.614807,919.314598,1036.288319,8364.327145
1418.615126,1762.019645,1776.494261,7328.038826
1418.615445,2451.505594,1258.350101,7105.977043
1418.615763,2221.676944,1258.350101,5403.503377
1418.616082,1608.800546,1332.370696,6217.729913
1418.616401,1378.971896,1036.288319,7105.977043
1418.616720,306.438199,1406.391290,8438.347739
1418.617039,-306.438199,1184.329507,8734.430116
1418.617358,-1685.410096,1480.411884,9474.636058
1418.617677,-2451.505594,740.205942,11103.089130
1418.617996,-2757.943793,222.061783,11103.089130
1418.618315,-3064.381992,148.041188,11769.274478
1418.618633,-2604.724693,-0.000000,11769.274478
1418.618952,-1838.629195,666.185348,11843.295072
1418.619271,-689.485948,666.185348,10288.862594
1418.619590,459.657299,1184.329507,8882.471304
1418.619909,1608.800546,1258.350101,8586.388927
1418.620228,2528.115143,1332.370696,8068.244768
1418.620547,2834.553343,1110.308913,6143.709319
1418.620866,2681.334243,1628.453072,5995.668130
1418.621185,3064.381992,1850.514855,6883.915261
1418.621503,2451.505594,1184.329507,7624.121203
1418.621822,1838.629195,592.164754,8068.244768
1418.622141,306.438199,222.061783,9696.697840
1418.622460,-229.828649,-370.102971,11547.212695
1418.622779,-1149.143247,-444.123565,11325.150913
1418.623098,-1378.971896,-444.123565,11843.295072
1418.623417,-1455.581446,-666.185348,12583.501014
1418.623736,-995.924147,-0.000000,12879.583391
1418.624054,0.000000,296.082377,11399.171507
1418.624373,1532.190996,592.164754,9844.739029
1418.624692,2451.505594,518.144159,9474.636058
1418.625011,2528.115143,370.102971,8586.388927
1418.625330,2834.553343,444.123565,7105.977043
1418.625649,2834.553343,888.247130,6587.832884
1418.625968,2834.553343,888.247130,7476.080014
1418.626287,2298.286494,518.144159,7254.018232
1418.626606,1532.190996,222.061783,7772.162391
1418.626924,229.828649,-444.123565,8438.347739
1418.627243,-919.314598,-814.226536,10066.800811
1418.627562,-1455.581446,-1036.288319,10658.965565
1418.627881,-1762.019645,-814.226536,10881.027347
1418.628200,-1838.629195,-222.061783,11399.171507
1418.628519,-1378.971896,592.164754,11473.192101
1418.628838,-306.438199,740.205942,10510.924376
1418.629157,919.314598,814.226536,9548.656652
1418.629475,1762.019645,592.164754,9104.533087
1418.629794,2145.067394,370.102971,8068.244768
1418.630113,2145.067394,444.123565,6957.935855
1418.630432,2681.334243,740.205942,6513.812290
1418.630751,1991.848295,1332.370696,6735.874072
1418.631070,2298.286494,1480.411884,6957.935855
1418.631389,1302.362347,1184.329507,7254.018232
1418.631708,536.266849,444.123565,8142.265362
1418.632027,-306.438199,-296.082377,9400.615463
1418.632345,-1378.971896,-2294.638420,10807.006753
1418.632664,-2451.505594,-2368.659014,11177.109724
1418.632983,-2298.286494,-2072.576638,11621.233289
1418.633302,-1455.581446,-1258.350101,12213.398043
1418.633621,-612.876398,-592.164754,11177.109724
1418.633940,1225.752797,518.144159,9548.656652
1418.634259,2604.724693,962.267725,8512.368333
1418.634578,3064.381992,666.185348,8364.327145
1418.634896,3217.601092,888.247130,7105.977043
1418.635215,3294.210641,1036.288319,6513.812290
1418.635534,2604.724693,962.267725,7402.059420
1418.635853,2068.457845,-74.020594,7920.203579
1418.636172,766.095498,-148.041188,8068.244768
1418.636491,76.609550,-592.164754,9400.615463
1418.636810,-1072.533697,-1554.432478,10140.821405
1418.637129,-1762.019645,-1554.432478,11399.171507
1418.637448,-1838.629195,-1480.411884,11325.150913
1418.637766,-1991.848295,-518.144159,11695.253884
1418.638085,-1532.190996,-592.164754,11621.233289
1418.638404,0.000000,-148.041188,10584.944971
1418.638723,1149.143247,666.185348,9474.636058
1418.639042,2221.676944,1184.329507,8290.306550
1418.639361,2451.505594,1184.329507,7402.059420
1418.639680,2834.553343,1110.308913,6513.812290
1418.639999,2528.115143,1184.329507,6439.791695
1418.640317,2451.505594,2368.659014,6143.709319
1418.640636,2068.457845,2368.659014,6957.935855
1418.640955,842.705048,2442.679609,7105.977043
1418.641274,153.219100,1184.329507,8734.430116
1418.641593,-1608.800546,-0.000000,10140.821405
1418.641912,-2604.724693,-592.164754,11769.274478
1418.642231,-3677.258390,-1110.308913,11991.336260
1418.642550,-3677.258390,-1110.308913,12657.521608
1418.642869,-2987.772442,-1110.308913,12583.501014
1418.643187,-1762.019645,-296.082377,11917.315666
1418.643506,-383.047749,444.123565,10140.821405
1418.643825,1225.752797,1554.432478,9030.512492
1418.644144,2068.457845,1924.535449,7624.121203
1418.644463,3370.820191,1776.494261,6735.874072
1418.644782,3677.258390,1998.556043,5921.647536
1418.645101,3447.429741,2146.597232,6587.832884
1418.645420,2681.334243,2146.597232,6513.812290
1418.645738,2068.457845,2072.576638,7254.018232
1418.646057,842.705048,666.185348,8512.368333
1418.646376,-766.095498,-0.000000,10881.027347
1418.646695,-1838.629195,-814.226536,12139.377449
1418.647014,-2834.553343,-1184.329507,12509.480420
1418.647333,-2681.334243,-1332.370696,13397.727550
1418.647652,-2374.896044,-888.247130,13915.871710
1418.647971,-1378.971896,-0.000000,12065.356855
1418.648290,153.219100,740.205942,9770.718434
1418.648608,1532.190996,1036.288319,8956.491898
1418.648927,2374.896044,1258.350101,8216.285956
1418.649246,3447.429741,1850.514855,5773.606348
1418.649565,3600.648841,2146.597232,4737.318029
1418.649884,3370.820191,1480.411884,6291.750507
1418.650203,2987.772442,666.185348,7179.997637
1418.650522,1532.190996,1184.329507,7254.018232
1418.650841,536.266849,666.185348,8808.450710
1418.651159,-919.314598,222.061783,10732.986159
1418.651478,-1838.629195,-296.082377,11769.274478
1418.651797,-1991.848295,-1184.329507,12213.398043
1418.652116,-2604.724693,-1258.350101,12213.398043
1418.652435,-2221.676944,-1332.370696,12953.603985
1418.652754,-766.095498,-666.185348,11917.315666
1418.653073,689.485948,222.061783,9918.759623
1418.653392,1608.800546,592.164754,8216.285956
1418.653711,2451.505594,518.144159,8068.244768
1418.654029,3600.648841,1110.308913,6661.853478
1418.654348,4443.353888,1998.556043,5329.482782
1418.654667,3907.087040,2368.659014,6143.709319
1418.654986,3830.477490,1480.411884,6809.894666
1418.655305,3064.381992,592.164754,7328.038826
1418.655624,1685.410096,-370.102971,7994.224174
1418.655943,-229.828649,-1702.473667,10658.965565
1418.656262,-1149.143247,-1924.535449,11991.336260
1418.656580,-2068.457845,-1776.494261,11843.295072
1418.656899,-2757.943793,-1554.432478,12065.356855
1418.657218,-2221.676944,-962.267725,12879.583391
1418.657537,-995.924147,-148.041188,11991.336260
1418.657856,612.876398,444.123565,10288.862594
1418.658175,1915.238745,962.267725,8438.347739
1418.658494,2604.724693,1036.288319,7772.162391
1418.658813,3217.601092,888.247130,6735.874072
1418.659132,3983.696590,296.082377,5329.482782
1418.659450,2834.553343,-0.000000,6069.688724
1418.659769,2451.505594,148.041188,7031.956449
1418.660088,1762.019645,-0.000000,7105.977043
1418.660407,459.657299,296.082377,7698.141797
1418.660726,-766.095498,-518.144159,9992.780217
1418.661045,-2451.505594,-888.247130,11325.150913
1418.661364,-3753.867940,-1110.308913,11251.130318
1418.661683,-3983.696590,-666.185348,11621.233289
1418.662001,-3753.867940,-592.164754,12731.542202
1418.662320,-2145.067394,-0.000000,11843.295072
1418.662639,-919.314598,148.041188,9992.780217
1418.662958,536.266849,1332.370696,8586.388927
1418.663277,1302.362347,1036.288319,8364.327145
1418.663596,2451.505594,1702.473667,7105.977043
1418.663915,3447.429741,1924.535449,5551.544565
1418.664234,2834.553343,2516.700203,5847.626942
1418.664552,2528.115143,2516.700203,6809.894666
1418.664871,1915.238745,2294.638420,6809.894666
1418.665190,689.485948,1110.308913,7994.224174
1418.665509,-919.314598,-444.123565,10066.800811
1418.665828,-2987.772442,-1110.308913,11177.109724
1418.666146,-3600.648841,-1628.453072,11547.212695
1418.666465,-3600.648841,-1480.411884,12213.398043
1418.666784,-3140.991542,-1036.288319,13175.665768
1418.667103,-1915.238745,-0.000000,11473.192101
1418.667422,-306.438199,962.267725,9992.780217
1418.667740,1378.971896,1332.370696,9474.636058
1418.668059,2451.505594,1702.473667,8660.409521
1418.668378,2987.772442,1554.432478,8438.347739
1418.668697,4213.525239,1702.473667,7105.977043
1418.669016,3907.087040,2516.700203,6661.853478
1418.669334,3524.039291,1998.556043,7179.997637
1418.669653,2987.772442,1776.494261,7920.203579
1418.669972,2068.457845,1036.288319,8142.265362
1418.670291,689.485948,518.144159,9474.636058
1418.670610,-766.095498,-0.000000,11251.130318
1418.670928,-1915.238745,-1036.288319,11621.233289
1418.671247,-2911.162892,-1628.453072,12361.439231
1418.671566,-2834.553343,-1776.494261,13619.789333
1418.671885,-1915.238745,-814.226536,13249.686362
1418.672203,-689.485948,-148.041188,10732.986159
1418.672522,1225.752797,444.123565,9770.718434
1418.672841,2451.505594,888.247130,9474.636058
1418.673160,3370.820191,1036.288319,6957.935855
1418.673479,3983.696590,2072.576638,5477.523971
1418.673797,4060.306139,2072.576638,6069.688724
1418.674116,3447.429741,2368.659014,6365.771101
1418.674435,2757.943793,2886.803174,6587.832884
1418.674754,1225.752797,1998.556043,7476.080014
1418.675073,-612.876398,814.226536,9178.553681
1418.675391,-2528.115143,-444.123565,10584.944971
1418.675710,-3370.820191,-1036.288319,11547.212695
1418.676029,-5056.230287,-1554.432478,11843.295072
1418.676348,-4136.915689,-1480.411884,13101.645173
1418.676667,-3753.867940,-666.185348,12435.459826
1418.676985,-2221.676944,222.061783,11029.068536
1418.677304,-536.266849,518.144159,9474.636058
1418.677623,459.657299,1184.329507,8364.327145
1418.677942,1608.800546,888.247130,7254.018232
1418.678261,3064.381992,1406.391290,5403.503377
1418.678579,3294.210641,2072.576638,5255.462188
1418.678898,2834.553343,2146.597232,5921.647536
1418.679217,2757.943793,1184.329507,5995.668130
1418.679536,1838.629195,1184.329507,6587.832884
1418.679855,689.485948,888.247130,9104.533087
1418.680173,-766.095498,-0.000000,10436.903782
1418.680492,-1608.800546,-962.267725,11103.089130
1418.680811,-2451.505594,-1036.288319,12287.418637
1418.681130,-2374.896044,-1332.370696,12953.603985
1418.681449,-1991.848295,-1258.350101,12657.521608
1418.681767,-842.705048,-666.185348,11547.212695
1418.682086,689.485948,-370.102971,10362.883188
1418.682405,1838.629195,296.082377,9252.574275
1418.682724,3370.820191,888.247130,7476.080014
1418.683043,4213.525239,370.102971,6291.750507
1418.683361,4673.182538,592.164754,6513.812290
1418.683680,4443.353888,740.205942,6661.853478
1418.683999,3677.258390,296.082377,6513.812290
1418.684318,2834.553343,-74.020594,7624.121203
1418.684637,766.095498,-518.144159,9622.677246
1418.684955,-306.438199,-1110.308913,10807.006753
1418.685274,-1608.800546,-1332.370696,10881.027347
1418.685593,-2145.067394,-1406.391290,11843.295072
1418.685912,-2681.334243,-1184.329507,12731.542202
1418.686231,-2298.286494,-1184.329507,12361.439231
1418.686549,-1072.533697,-222.061783,11769.274478
1418.686868,0.000000,-0.000000,10584.944971
1418.687187,842.705048,222.061783,9474.636058
1418.687506,1991.848295,1036.288319,8142.265362
1418.687825,2911.162892,888.247130,7105.977043
1418.688143,3907.087040,2146.597232,6439.791695
1418.688462,3677.258390,2220.617826,6661.853478
1418.688781,3294.210641,2368.659014,6217.729913
1418.689100,2604.724693,1702.473667,6661.853478
1418.689418,1608.800546,222.061783,8512.368333
1418.689737,-459.657299,-518.144159,9918.759623
1418.690056,-1838.629195,-296.082377,9992.780217
1418.690375,-3140.991542,-370.102971,10881.027347
1418.690694,-3447.429741,-0.000000,11769.274478
1418.691012,-2681.334243,-222.061783,11843.295072
1418.691331,-2528.115143,148.041188,10732.986159
1418.691650,-2374.896044,740.205942,9770.718434
1418.691969,-689.485948,814.226536,9622.677246
1418.692288,153.219100,1332.370696,8438.347739
1418.692606,842.705048,2146.597232,7254.018232
1418.692925,1149.143247,2368.659014,6809.894666
1418.693244,1685.410096,1998.556043,7846.182985
1418.693563,1608.800546,1924.535449,7772.162391
1418.693882,1915.238745,1702.473667,7772.162391
1418.694200,536.266849,1258.350101,8956.491898
1418.694519,-689.485948,370.102971,10362.883188
1418.694838,-1991.848295,-814.226536,10881.027347
1418.695157,-2298.286494,-962.267725,11325.150913
1418.695476,-2451.505594,148.041188,11769.274478
1418.695794,-1455.581446,-0.000000,11547.212695
1418.696113,-766.095498,222.061783,10362.883188
1418.696432,536.266849,592.164754,9770.718434
1418.696751,1225.752797,740.205942,9252.574275
1418.697070,1991.848295,1258.350101,7994.224174
1418.697388,2681.334243,1776.494261,6809.894666
1418.697707,2681.334243,1776.494261,7328.038826
1418.698026,2528.115143,2072.576638,7402.059420
1418.698345,2451.505594,1850.514855,7624.121203
1418.698664,1991.848295,1554.432478,8068.244768
1418.698982,1072.533697,1036.288319,9474.636058
1418.699301,229.828649,-0.000000,10584.944971
1418.699620,-536.266849,-74.020594,11251.130318
1418.699939,-919.314598,-1184.329507,11843.295072
1418.700258,-1149.143247,-740.205942,12287.418637
1418.700576,-229.828649,-74.020594,12435.459826
1418.700895,76.609550,296.082377,10140.821405
1418.701214,1072.533697,518.144159,9918.759623
1418.701533,1762.019645,518.144159,9474.636058
1418.701852,2528.115143,1258.350101,7550.100608
1418.702170,3447.429741,814.226536,6957.935855
1418.702489,3524.039291,740.205942,7031.956449
1418.702808,2834.553343,666.185348,6883.915261
1418.703127,2298.286494,148.041188,7105.977043
1418.703446,1378.971896,-0.000000,7846.182985
1418.703764,-306.438199,-1184.329507,9178.553681
1418.704083,-1149.143247,-1628.453072,10658.965565
1418.704402,-2221.676944,-1924.535449,11695.253884
1418.704721,-2451.505594,-1850.514855,11473.192101
1418.705040,-2068.457845,-1850.514855,12361.439231
1418.705358,-1302.362347,-1628.453072,12361.439231
1418.705677,-536.266849,-1110.308913,10658.965565
1418.705996,459.657299,-370.102971,9474.636058
1418.706315,1455.581446,-0.000000,9104.533087
1418.706633,2451.505594,444.123565,7698.141797
1418.706952,3294.210641,1036.288319,6143.709319
1418.707271,3064.381992,888.247130,6217.729913
1418.707590,2987.772442,666.185348,6661.853478
1418.707909,1991.848295,370.102971,6513.812290
1418.708227,842.705048,222.061783,6809.894666
1418.708546,-229.828649,148.041188,8290.306550
1418.708865,-1532.190996,-222.061783,9622.677246
1418.709184,-2681.334243,-740.205942,10362.883188
1418.709503,-3370.820191,-962.267725,11029.068536
1418.709821,-3370.820191,-1036.288319,11325.150913
1418.710140,-2911.162892,-592.164754,11399.171507
1418.710459,-1302.362347,-296.082377,10436.903782
1418.710778,-919.314598,814.226536,9030.512492
1418.711097,0.000000,1110.308913,8586.388927
1418.711415,1378.971896,1332.370696,7772.162391
1418.711734,2451.505594,1628.453072,6365.771101
1418.712053,3140.991542,2146.597232,6143.709319
1418.712372,3064.381992,1850.514855,6365.771101
1418.712691,2528.115143,1998.556043,6439.791695
1418.713009,2298.286494,1406.391290,7105.977043
1418.713328,1455.581446,1184.329507,8586.388927
1418.713647,0.000000,148.041188,10732.986159
1418.713966,-842.705048,-222.061783,10436.903782
1418.714285,-1762.019645,-370.102971,10807.006753
1418.714603,-1608.800546,-666.185348,12139.377449
1418.714922,-842.705048,-444.123565,12657.521608
1418.715241,-459.657299,-0.000000,11399.171507
1418.715560,459.657299,444.123565,10362.883188
1418.715879,1455.581446,1332.370696,10066.800811
1418.716197,2528.115143,1406.391290,9178.553681
1418.716516,3524.039291,1702.473667,7624.121203
1418.716835,3677.258390,1702.473667,7550.100608
1418.717154,3983.696590,1628.453072,7994.224174
1418.717473,3217.601092,1554.432478,8438.347739
1418.717791,3294.210641,1406.391290,8660.409521
1418.718110,2374.896044,1110.308913,9474.636058
1418.718429,1072.533697,148.041188,10584.944971
1418.718748,0.000000,-222.061783,11177.109724
1418.719067,-229.828649,-222.061783,11325.150913
1418.719385,-612.876398,-518.144159,11843.295072
1418.719704,-842.705048,-296.082377,12287.418637
1418.720023,-1302.362347,148.041188,11177.109724
1418.720342,-229.828649,518.144159,10288.862594
1418.720661,-153.219100,-0.000000,10066.800811
1418.720979,153.219100,-148.041188,9622.677246
1418.721298,536.266849,666.185348,7994.224174
1418.721617,536.266849,1036.288319,7550.100608
1418.721936,459.657299,1258.350101,8142.265362
1418.722255,689.485948,888.247130,8364.327145
1418.722573,-153.219100,740.205942,8512.368333
1418.722892,-459.657299,444.123565,9104.533087
1418.723211,-1532.190996,-296.082377,10214.842000
1418.723530,-1532.190996,-592.164754,10362.883188
1418.723848,-2298.286494,-1406.391290,10066.800811
1418.724167,-1915.238745,-1036.288319,10732.986159
1418.724486,-1685.410096,-296.082377,10362.883188
1418.724805,-766.095498,-0.000000,10140.821405
1418.725124,306.438199,-74.020594,9030.512492
1418.725442,766.095498,296.082377,8216.285956
1418.725761,1302.362347,814.226536,7698.141797
1418.726080,2298.286494,1554.432478,6587.832884
1418.726399,2451.505594,962.267725,6439.791695
1418.726718,2145.067394,1036.288319,7550.100608
1418.727036,2451.505594,888.247130,7105.977043
1418.727355,1838.629195,1036.288319,7105.977043
1418.727674,1225.752797,296.082377,8290.306550
1418.727993,612.876398,-370.102971,9844.739029
1418.728312,383.047749,-888.247130,9992.780217
1418.728630,0.000000,-962.267725,10436.903782
1418.728949,306.438199,-1036.288319,10584.944971
1418.729268,689.485948,-0.000000,10658.965565
1418.729587,1608.800546,370.102971,9474.636058
1418.729906,2451.505594,-222.061783,8438.347739
1418.730224,2834.553343,148.041188,8290.306550
1418.730543,3140.991542,370.102971,7254.018232
1418.730862,3447.429741,962.267725,6217.729913
1418.731181,2834.553343,1184.329507,6143.709319
1418.731500,2145.067394,1480.411884,7476.080014
1418.731818,1378.971896,814.226536,8512.368333
1418.732137,306.438199,-74.020594,8734.430116
1418.732456,-689.485948,-1036.288319,10066.800811
1418.732775,-1685.410096,-1702.473667,11843.295072
1418.733094,-2451.505594,-1702.473667,11695.253884
1418.733412,-2604.724693,-1850.514855,12139.377449
1418.733731,-2145.067394,-1036.288319,11991.336260
1418.734050,-1455.581446,-296.082377,11917.315666
1418.734369,0.000000,370.102971,9770.718434
1418.734688,919.314598,888.247130,8364.327145
1418.735006,1685.410096,1036.288319,8142.265362
1418.735325,2145.067394,888.247130,7698.141797
1418.735644,2068.457845,888.247130,6735.874072
1418.735963,1762.019645,814.226536,7105.977043
1418.736282,1302.362347,1184.329507,8290.306550
1418.736600,383.047749,888.247130,8660.409521
1418.736919,459.657299,740.205942,9104.533087
1418.737238,-995.924147,-0.000000,10288.862594
1418.737557,-1762.019645,-518.144159,11991.336260
1418.737876,-2298.286494,-962.267725,12213.398043
1418.738194,-2374.896044,-296.082377,11843.295072
1418.738513,-1991.848295,148.041188,11843.295072
1418.738832,-1072.533697,888.247130,11547.212695
1418.739151,0.000000,1184.329507,10066.800811
1418.739470,995.924147,1332.370696,8586.388927
1418.739788,2374.896044,1998.556043,8364.327145
1418.740107,2987.772442,2146.597232,7254.018232
1418.740426,3524.039291,1998.556043,5921.647536
1418.740745,3064.381992,1998.556043,6883.915261
1418.741063,2604.724693,1776.494261,7402.059420
1418.741382,2068.457845,1554.432478,7105.977043
1418.741701,1225.752797,1258.350101,8216.285956
1418.742020,0.000000,1110.308913,9474.636058
1418.742339,-1838.629195,-148.041188,10955.047942
1418.742657,-2528.115143,-370.102971,11695.253884
1418.742976,-3217.601092,-370.102971,11399.171507
1418.743295,-2757.943793,-222.061783,11991.336260
1418.743614,-2068.457845,518.144159,11621.233289
1418.743933,-919.314598,1332.370696,10288.862594
1418.744251,153.219100,1628.453072,8734.430116
1418.744570,919.314598,1258.350101,8512.368333
1418.744889,1608.800546,814.226536,8216.285956
1418.745208,1302.362347,814.226536,7105.977043
1418.745527,2374.896044,1924.535449,6513.812290
1418.745845,1991.848295,1184.329507,7920.203579
1418.746164,995.924147,740.205942,8512.368333
1418.746483,689.485948,814.226536,8068.244768
1418.746802,0.000000,814.226536,9548.656652
1418.747121,-383.047749,-0.000000,10881.027347
1418.747439,-1225.752797,-518.144159,11103.089130
1418.747758,-1302.362347,-1184.329507,10807.006753
1418.748077,-919.314598,-962.267725,11843.295072
1418.748396,0.000000,-518.144159,11621.233289
1418.748715,766.095498,-0.000000,10288.862594
1418.749033,1991.848295,814.226536,8956.491898
1418.749352,2604.724693,592.164754,8882.471304
1418.749671,3370.820191,-74.020594,8438.347739
1418.749990,3294.210641,370.102971,7476.080014
1418.750309,3140.991542,1184.329507,6957.935855
1418.750627,2681.334243,1628.453072,7698.141797
1418.750946,2374.896044,814.226536,8142.265362
1418.751265,1149.143247,518.144159,8216.285956
1418.751584,229.828649,-518.144159,9696.697840
1418.751903,-383.047749,-740.205942,10362.883188
1418.752221,-919.314598,-1036.288319,11029.068536
1418.752540,-1225.752797,-1850.514855,10732.986159
1418.752859,-919.314598,-1258.350101,11029.068536
1418.753178,-612.876398,-1406.391290,11843.295072
1418.753497,229.828649,-740.205942,10584.944971
1418.753815,1532.190996,370.102971,8586.388927
1418.754134,2757.943793,1184.329507,7624.121203
1418.754453,2528.115143,1036.288319,7031.956449
1418.754772,2757.943793,518.144159,6587.832884
1418.755091,2451.505594,370.102971,5995.668130
1418.755409,1762.019645,518.144159,6661.853478
1418.755728,1072.533697,370.102971,7624.121203
1418.756047,-306.438199,-444.123565,8290.306550
1418.756366,-1608.800546,-1110.308913,9400.615463
1418.756685,-2528.115143,-1776.494261,11029.068536
1418.757003,-3140.991542,-2072.576638,12139.377449
1418.757322,-3370.820191,-1332.370696,11917.315666
1418.757641,-2681.334243,-518.144159,11769.274478
1418.757960,-1991.848295,-222.061783,11695.253884
1418.758278,0.000000,-0.000000,10807.006753
1418.758597,995.924147,592.164754,9178.553681
1418.758916,1685.410096,1036.288319,7624.121203
1418.759235,3064.381992,1924.535449,6883.915261
1418.759554,3524.039291,2146.597232,6069.688724
1418.759872,3140.991542,2072.576638,5551.544565
1418.760191,2987.772442,1628.453072,6661.853478
1418.760510,1915.238745,1406.391290,7179.997637
1418.760829,766.095498,1036.288319,8364.327145
1418.761148,-766.095498,518.144159,9474.636058
1418.761466,-2221.676944,-0.000000,11103.089130
1418.761785,-3524.039291,-0.000000,11695.253884
1418.762104,-3140.991542,-0.000000,11843.295072
1418.762423,-2451.505594,-74.020594,12139.377449
1418.762742,-2374.896044,518.144159,11029.068536
1418.763060,-306.438199,444.123565,11029.068536
1418.763379,766.095498,1258.350101,9474.636058
1418.763698,2068.457845,1628.453072,8142.265362
1418.764017,2987.772442,1406.391290,7402.059420
1418.764335,3294.210641,2294.638420,6809.894666
1418.764654,3677.258390,2368.659014,5551.544565
1418.764973,3294.210641,2738.761985,6439.791695
1418.765291,2451.505594,1924.535449,7846.182985
1418.765610,1455.581446,888.247130,8808.450710
1418.765929,-459.657299,296.082377,9474.636058
1418.766248,-1608.800546,-296.082377,11695.253884
1418.766566,-2834.553343,-814.226536,12879.583391
1418.766885,-2911.162892,-740.205942,12583.501014
1418.767204,-2528.115143,-296.082377,12583.501014
1418.767522,-1608.800546,-666.185348,12657.521608
1418.767841,-153.219100,-74.020594,11695.253884
1418.768160,1072.533697,222.061783,9548.656652
1418.768479,2834.553343,592.164754,9252.574275
1418.768797,3064.381992,814.226536,8068.244768
1418.769116,3907.087040,1776.494261,6365.771101
1418.769435,4136.915689,2294.638420,5477.523971
1418.769753,3447.429741,2146.597232,6735.874072
1418.770072,2681.334243,1554.432478,7698.141797
1418.770391,1149.143247,962.267725,7772.162391
1418.770710,-689.485948,148.041188,9474.636058
1418.771028,-1838.629195,-1036.288319,11695.253884
1418.771347,-3064.381992,-962.267725,12213.398043
1418.771666,-3370.820191,-1480.411884,12805.562797
1418.771984,-3140.991542,-1332.370696,12805.562797
1418.772303,-2068.457845,-888.247130,12805.562797
1418.772622,-459.657299,148.041188,10807.006753
1418.772941,1378.971896,814.226536,8956.491898
1418.773259,3140.991542,1110.308913,8142.265362
1418.773578,4060.306139,1258.350101,6513.812290
1418.773897,4519.963438,1184.329507,4737.318029
1418.774215,4673.182538,1406.391290,3997.112087
1418.774534,3753.867940,1480.411884,5477.523971
1418.774853,2911.162892,1110.308913,6143.709319
1418.775172,1378.971896,370.102971,6439.791695
1418.775490,-383.047749,-740.205942,8808.450710
1418.775809,-2145.067394,-1554.432478,11103.089130
1418.776128,-2911.162892,-2368.659014,12805.562797
1418.776446,-3447.429741,-2368.659014,12805.562797
1418.776765,-3064.381992,-962.267725,12435.459826
1418.777084,-2068.457845,-666.185348,12879.583391
1418.777403,-229.828649,-148.041188,11843.295072
1418.777721,1225.752797,296.082377,9548.656652
1418.778040,3217.601092,962.267725,7994.224174
1418.778359,4749.792088,962.267725,6957.935855
1418.778677,6052.154434,1406.391290,5551.544565
1418.778996,5822.325785,1332.370696,4367.215058
1418.779315,4596.572988,1258.350101,4885.359217
1418.779634,4596.572988,666.185348,6735.874072
1418.779952,2604.724693,-0.000000,6883.915261
1418.780271,153.219100,-666.185348,8586.388927
1418.780590,-2068.457845,-1332.370696,10658.965565
1418.780909,-3600.648841,-2146.597232,12583.501014
1418.781227,-5132.839837,-2812.782580,12435.459826
1418.781546,-5515.887586,-2812.782580,13397.727550
1418.781865,-4979.620737,-1924.535449,13767.830521
1418.782183,-3677.258390,-0.000000,11843.295072
1418.782502,-1762.019645,962.267725,10140.821405
1418.782821,0.000000,2368.659014,8438.347739
1418.783140,1302.362347,2294.638420,8290.306550
1418.783458,2528.115143,2368.659014,5995.668130
1418.783777,3064.381992,2664.741391,4959.379811
1418.784096,4060.306139,2590.720797,6661.853478
1418.784414,2451.505594,2664.741391,6069.688724
1418.784733,1149.143247,1702.473667,6735.874072
1418.785052,0.000000,-222.061783,9252.574275
1418.785371,-1915.238745,148.041188,10436.903782
1418.785689,-2757.943793,-148.041188,10732.986159
1418.786008,-3600.648841,-74.020594,11547.212695
1418.786327,-4060.306139,-148.041188,12139.377449
1418.786645,-3140.991542,444.123565,12361.439231
1418.786964,-1762.019645,666.185348,11473.192101
1418.787283,-459.657299,814.226536,10362.883188
1418.787602,1455.581446,1628.453072,9326.594869
1418.787920,2528.115143,1702.473667,8290.306550
1418.788239,4596.572988,1850.514855,8142.265362
1418.788558,4749.792088,2590.720797,6513.812290
1418.788876,4826.401637,2516.700203,6439.791695
1418.789195,4749.792088,2146.597232,7105.977043
1418.789514,3983.696590,2516.700203,7476.080014
1418.789833,3140.991542,1406.391290,8808.450710
1418.790151,1225.752797,1110.308913,9992.780217
1418.790470,-383.047749,-592.164754,11769.274478
1418.790789,-2221.676944,-1776.494261,11917.315666
1418.791107,-2987.772442,-1332.370696,12509.480420
1418.791426,-2451.505594,-1702.473667,13545.768739
1418.791745,-1915.238745,-1332.370696,12361.439231
1418.792064,-536.266849,-296.082377,10436.903782
1418.792382,995.924147,-0.000000,9696.697840
1418.792701,2068.457845,148.041188,9104.533087
1418.793020,3370.820191,370.102971,7624.121203
1418.793338,3677.258390,1628.453072,5921.647536
1418.793657,3524.039291,2368.659014,5995.668130
1418.793976,2834.553343,2072.576638,6661.853478
1418.794295,2145.067394,1850.514855,6809.894666
1418.794613,536.266849,1184.329507,7550.100608
1418.794932,-1149.143247,-0.000000,9252.574275
1418.795251,-2451.505594,-740.205942,11325.150913
1418.795570,-3294.210641,-1184.329507,11547.212695
1418.795888,-4060.306139,-1258.350101,11843.295072
1418.796207,-3677.258390,-1184.329507,12879.583391
1418.796526,-2451.505594,-740.205942,12139.377449
1418.796844,-919.314598,-296.082377,10288.862594
1418.797163,536.266849,888.247130,8290.306550
1418.797482,2221.676944,1110.308913,8142.265362
1418.797801,3294.210641,740.205942,6883.915261
1418.798119,3753.867940,1036.288319,5403.503377
1418.798438,4290.134789,1628.453072,5107.421000
1418.798757,3907.087040,2220.617826,5699.585753
1418.799075,2604.724693,1184.329507,6365.771101
1418.799394,2068.457845,444.123565,7402.059420
1418.799713,383.047749,-296.082377,9030.512492
1418.800032,-1225.752797,-1554.432478,11177.109724
1418.800350,-2374.896044,-1628.453072,11917.315666
1418.800669,-2451.505594,-2368.659014,13175.665768
1418.800988,-2374.896044,-2220.617826,13397.727550
1418.801306,-1762.019645,-1480.411884,12361.439231
1418.801625,-153.219100,-1110.308913,11325.150913
1418.801944,1225.752797,-0.000000,9400.615463
1418.802263,2834.553343,666.185348,8808.450710
1418.802581,3677.258390,1184.329507,6587.832884
1418.802900,4519.963438,1036.288319,5995.668130
1418.803219,4290.134789,888.247130,5551.544565
1418.803537,3677.258390,1110.308913,6143.709319
1418.803856,2757.943793,666.185348,6809.894666
1418.804175,1532.190996,518.144159,7772.162391
1418.804494,-766.095498,-148.041188,9326.594869
1418.804812,-2221.676944,-1184.329507,10807.006753
1418.805131,-3294.210641,-2146.597232,11843.295072
1418.805450,-3830.477490,-1258.350101,12953.603985
1418.805768,-3830.477490,-740.205942,12657.521608
1418.806087,-2987.772442,-0.000000,12509.480420
1418.806406,-1532.190996,296.082377,10732.986159
1418.806725,0.000000,1258.350101,9474.636058
1418.807043,1225.752797,1332.370696,8438.347739
1418.807362,2604.724693,1776.494261,7105.977043
1418.807681,3677.258390,1998.556043,5699.585753
1418.807999,3983.696590,1924.535449,5477.523971
1418.808318,4136.915689,2072.576638,6217.729913
1418.808637,3600.648841,1776.494261,6365.771101
1418.808956,2221.676944,1554.432478,6883.915261
1418.809274,612.876398,518.144159,9252.574275
1418.809593,-919.314598,-296.082377,10955.047942
1418.809912,-2757.943793,-740.205942,11695.253884
1418.810230,-3830.477490,-814.226536,12509.480420
1418.810549,-3753.867940,-814.226536,13323.706956
1418.810868,-3294.210641,-518.144159,12805.562797
1418.811187,-2145.067394,296.082377,11251.130318
1418.811505,-689.485948,888.247130,9918.759623
1418.811824,383.047749,1332.370696,9104.533087
1418.812143,2068.457845,1850.514855,7920.203579
1418.812462,3217.601092,1850.514855,6513.812290
1418.812780,3600.648841,2294.638420,6809.894666
1418.813099,3370.820191,1850.514855,6957.935855
1418.813418,3370.820191,1480.411884,7476.080014
1418.813736,2451.505594,296.082377,8068.244768
1418.814055,1378.971896,-666.185348,10066.800811
1418.814374,-536.266849,-1628.453072,11103.089130
1418.814693,-1225.752797,-1406.391290,11325.150913
1418.815011,-1532.190996,-1036.288319,11251.130318
1418.815330,-1149.143247,-74.020594,12139.377449
1418.815649,-919.314598,296.082377,11843.295072
1418.815967,306.438199,962.267725,9918.759623
1418.816286,1378.971896,592.164754,9474.636058
1418.816605,2298.286494,592.164754,9178.553681
1418.816924,2911.162892,1332.370696,7772.162391
1418.817242,3600.648841,1628.453072,5699.585753
1418.817561,3524.039291,1998.556043,6365.771101
1418.817880,3524.039291,1924.535449,7179.997637
1418.818198,3217.601092,1850.514855,7105.977043
1418.818517,1915.238745,2072.576638,7179.997637
1418.818836,1149.143247,444.123565,9030.512492
1418.819155,-766.095498,-814.226536,10584.944971
1418.819473,-1838.629195,-1776.494261,10881.027347
1418.819792,-3140.991542,-2220.617826,11399.171507
1418.820111,-3140.991542,-1924.535449,12065.356855
1418.820429,-2451.505594,-1258.350101,11399.171507
1418.820748,-1455.581446,-148.041188,9696.697840
1418.821067,-153.219100,148.041188,8882.471304
1418.821386,842.705048,518.144159,8364.327145
1418.821704,1455.581446,370.102971,7624.121203
1418.822023,2145.067394,666.185348,6365.771101
1418.822342,1608.800546,1110.308913,6735.874072
1418.822660,1685.410096,1480.411884,7254.018232
1418.822979,919.314598,740.205942,8142.265362
1418.823298,0.000000,148.041188,8734.430116
1418.823617,-612.876398,-222.061783,9992.780217
1418.823935,-1838.629195,-814.226536,10881.027347
1418.824254,-2528.115143,-1554.432478,11843.295072
1418.824573,-2604.724693,-1628.453072,11547.212695
1418.824891,-2604.724693,-1110.308913,11769.274478
1418.825210,-2374.896044,-1036.288319,11843.295072
1418.825529,-536.266849,222.061783,10362.883188
1418.825848,919.314598,222.061783,9326.594869
1418.826166,2221.676944,148.041188,8808.450710
1418.826485,2911.162892,666.185348,7772.162391
1418.826804,3830.477490,1036.288319,6587.832884
1418.827122,4366.744339,1850.514855,6143.709319
1418.827441,4519.963438,1776.494261,7105.977043
1418.827760,4213.525239,1184.329507,7698.141797
1418.828079,2451.505594,1702.473667,6735.874072
1418.828397,1608.800546,666.185348,9104.533087
1418.828716,0.000000,-0.000000,10362.883188
1418.829035,-1072.533697,-148.041188,10732.986159
1418.829354,-1915.238745,-1110.308913,10584.944971
1418.829672,-2298.286494,-592.164754,12065.356855
1418.829991,-2374.896044,-1480.411884,12731.542202
1418.830310,-842.705048,-888.247130,11547.212695
1418.830628,-383.047749,-296.082377,9770.718434
1418.830947,842.705048,666.185348,9252.574275
1418.831266,1302.362347,962.267725,8512.368333
1418.831585,2528.115143,1258.350101,6735.874072
1418.831903,3140.991542,2072.576638,6365.771101
1418.832222,2757.943793,2368.659014,6291.750507
1418.832541,2451.505594,1554.432478,6809.894666
1418.832859,1608.800546,1184.329507,7254.018232
1418.833178,76.609550,444.123565,8808.450710
1418.833497,-689.485948,-0.000000,10214.842000
1418.833816,-2451.505594,-296.082377,10510.924376
1418.834134,-2834.553343,-296.082377,11325.150913
1418.834453,-3064.381992,-74.020594,12065.356855
1418.834772,-2911.162892,222.061783,11991.336260
1418.835090,-1838.629195,-0.000000,11177.109724
1418.835409,-1225.752797,592.164754,10288.862594
1418.835728,229.828649,814.226536,9918.759623
1418.836047,766.095498,1110.308913,8512.368333
1418.836365,1685.410096,1850.514855,7179.997637
1418.836684,2604.724693,2072.576638,6809.894666
1418.837003,3064.381992,2664.741391,6735.874072
1418.837321,3370.820191,1850.514855,7624.121203
1418.837640,2604.724693,1554.432478,7476.080014
1418.837959,1915.238745,814.226536,8512.368333
1418.838278,1149.143247,-0.000000,10362.883188
1418.838596,153.219100,74.020594,10658.965565
1418.838915,-459.657299,-0.000000,10658.965565
1418.839234,-1149.143247,-74.020594,11177.109724
1418.839552,-1149.143247,-666.185348,12065.356855
1418.839871,-919.314598,-370.102971,10955.047942
1418.840190,-689.485948,-0.000000,9992.780217
1418.840509,0.000000,-296.082377,9622.677246
1418.840827,0.000000,-0.000000,9252.574275
1418.841146,689.485948,518.144159,7920.203579
1418.841465,1072.533697,518.144159,7254.018232
1418.841783,1455.581446,814.226536,9178.553681
1418.842102,1072.533697,370.102971,8216.285956
1418.842421,612.876398,888.247130,8068.244768
1418.842740,536.266849,296.082377,9104.533087
1418.843058,0.000000,-666.185348,10732.986159
1418.843377,-306.438199,-666.185348,10732.986159
1418.843696,-842.705048,-814.226536,10140.821405
1418.844015,-459.657299,-222.061783,10881.027347
1418.844333,-229.828649,444.123565,10066.800811
1418.844652,306.438199,222.061783,9474.636058
1418.844971,1149.143247,814.226536,8142.265362
1418.845289,1302.362347,592.164754,8068.244768
1418.845608,1762.019645,444.123565,8142.265362
1418.845927,2145.067394,740.205942,7179.997637
1418.846246,1838.629195,1036.288319,7105.977043
1418.846564,1532.190996,1702.473667,7402.059420
1418.846883,1225.752797,1332.370696,8216.285956
1418.847202,919.314598,444.123565,7920.203579
1418.847520,536.266849,-0.000000,9030.512492
1418.847839,-76.609550,-148.041188,10140.821405
1418.848158,-766.095498,-888.247130,10436.903782
1418.848477,-229.828649,-888.247130,9918.759623
1418.848795,306.438199,-222.061783,10584.944971
1418.849114,459.657299,-148.041188,11103.089130
1418.849433,1072.533697,-0.000000,9474.636058
1418.849751,2221.676944,740.205942,8586.388927
1418.850070,2604.724693,1480.411884,7846.182985
1418.850389,2298.286494,814.226536,7624.121203
1418.850708,2221.676944,370.102971,6957.935855
1418.851026,1608.800546,148.041188,7476.080014
1418.851345,1149.143247,148.041188,7994.224174
1418.851664,153.219100,-592.164754,9178.553681
1418.851982,-1149.143247,-962.267725,9696.697840
1418.852301,-2221.676944,-814.226536,10658.965565
1418.852620,-2834.553343,-1258.350101,11843.295072
1418.852939,-3064.381992,-1332.370696,11769.274478
1418.853257,-3064.381992,-1184.329507,11547.212695
1418.853576,-1608.800546,-0.000000,11621.233289
1418.853895,-919.314598,74.020594,11621.233289
1418.854213,612.876398,666.185348,9474.636058
1418.854532,1685.410096,1628.453072,8512.368333
1418.854851,2374.896044,1332.370696,7476.080014
1418.855170,3140.991542,1776.494261,7328.038826
1418.855488,3217.601092,2220.617826,6217.729913
1418.855807,3064.381992,2146.597232,6069.688724
1418.856126,2374.896044,2220.617826,7402.059420
1418.856444,1302.362347,1850.514855,7994.224174
1418.856763,76.609550,1628.453072,8882.471304
1418.857082,-1378.971896,1332.370696,9770.718434
1418.857401,-2374.896044,-222.061783,11399.171507
1418.857719,-2987.772442,-518.144159,11843.295072
1418.858038,-3217.601092,-518.144159,11547.212695
1418.858357,-2681.334243,-370.102971,11843.295072
1418.858675,-2221.676944,-148.041188,12065.356855
1418.858994,-995.924147,-0.000000,10732.986159
1418.859313,76.609550,666.185348,9400.615463
1418.859632,1685.410096,1480.411884,8364.327145
1418.859950,2528.115143,1406.391290,7846.182985
1418.860269,3294.210641,1998.556043,6291.750507
1418.860588,2987.772442,2368.659014,6069.688724
1418.860907,3140.991542,2368.659014,7624.121203
1418.861225,2757.943793,1702.473667,7846.182985
1418.861544,1378.971896,370.102971,8660.409521
1418.861863,-459.657299,-148.041188,9474.636058
1418.862181,-1378.971896,-1332.370696,11547.212695
1418.862500,-2374.896044,-1554.432478,11769.274478
1418.862819,-2604.724693,-666.185348,11991.336260
1418.863138,-2451.505594,-740.205942,12361.439231
1418.863456,-2221.676944,-0.000000,11843.295072
1418.863775,-383.047749,-0.000000,10510.924376
1418.864094,612.876398,370.102971,9622.677246
1418.864412,1685.410096,518.144159,8734.430116
1418.864731,2451.505594,814.226536,7772.162391
1418.865050,2911.162892,1406.391290,6291.750507
1418.865369,3370.820191,1628.453072,5995.668130
1418.865687,3753.867940,2294.638420,6809.894666
1418.866006,2604.724693,2072.576638,7105.977043
1418.866325,2221.676944,1702.473667,6809.894666
1418.866644,1149.143247,888.247130,8364.327145
1418.866963,0.000000,-0.000000,9770.718434
1418.867281,-689.485948,-740.205942,10807.006753
1418.867600,-1608.800546,-666.185348,11695.253884
1418.867919,-1378.971896,-518.144159,11547.212695
1418.868238,-1225.752797,-444.123565,11621.233289
1418.868557,0.000000,-0.000000,11029.068536
1418.868875,842.705048,444.123565,9474.636058
1418.869194,1762.019645,370.102971,9104.533087
1418.869513,1991.848295,518.144159,7994.224174
1418.869832,2911.162892,-0.000000,7105.977043
1418.870151,2834.553343,-222.061783,7031.956449
1418.870469,2528.115143,-222.061783,7402.059420
1418.870788,2528.115143,-666.185348,8216.285956
1418.871107,1532.190996,-814.226536,8364.327145
1418.871426,536.266849,-592.164754,9252.574275
1418.871745,-612.876398,-1110.308913,10436.903782
1418.872063,-1532.190996,-1554.432478,11399.171507
1418.872382,-2145.067394,-1110.308913,11917.315666
1418.872701,-2221.676944,-518.144159,11843.295072
1418.873020,-2068.457845,-0.000000,11843.295072
1418.873338,-919.314598,370.102971,10955.047942
1418.873657,0.000000,518.144159,9992.780217
1418.873976,842.705048,814.226536,8808.450710
1418.874295,1072.533697,370.102971,8364.327145
1418.874614,1608.800546,888.247130,7846.182985
1418.874932,1685.410096,962.267725,7031.956449
1418.875251,1915.238745,1184.329507,7402.059420
1418.875570,1072.533697,1332.370696,7698.141797
1418.875889,459.657299,1480.411884,7772.162391
1418.876208,229.828649,1036.288319,7920.203579
1418.876526,-229.828649,222.061783,9696.697840
1418.876845,-995.924147,222.061783,9992.780217
1418.877164,-1302.362347,-296.082377,9400.615463
1418.877483,-1225.752797,-296.082377,10214.842000
1418.877802,-612.876398,296.082377,11029.068536
1418.878120,842.705048,814.226536,9844.739029
1418.878439,2145.067394,1702.473667,8290.306550
1418.878758,2834.553343,2516.700203,8290.306550
1418.879077,3524.039291,2294.638420,7105.977043
1418.879395,3753.867940,2146.597232,6291.750507
1418.879714,3217.601092,1776.494261,6883.915261
1418.880033,1915.238745,1850.514855,7179.997637
1418.880352,1378.971896,1702.473667,7476.080014
1418.880671,459.657299,1110.308913,8364.327145
1418.880989,-383.047749,-222.061783,9178.553681
1418.881308,-1532.190996,-1554.432478,11103.089130
1418.881627,-2681.334243,-1776.494261,12213.398043
1418.881946,-2451.505594,-2738.761985,11843.295072
1418.882265,-2834.553343,-2146.597232,11917.315666
1418.882583,-1915.238745,-1702.473667,12879.583391
1418.882902,-766.095498,-1110.308913,11399.171507
1418.883221,536.266849,-296.082377,9622.677246
1418.883540,1991.848295,814.226536,8734.430116
1418.883859,2834.553343,1036.288319,8290.306550
1418.884177,2987.772442,1628.453072,6291.750507
1418.884496,2451.505594,1110.308913,6291.750507
1418.884815,1838.629195,1258.350101,7031.956449
1418.885134,1225.752797,1110.308913,8142.265362
1418.885453,0.000000,1332.370696,8068.244768
1418.885771,-842.705048,1036.288319,9474.636058
1418.886090,-2145.067394,-0.000000,11769.274478
1418.886409,-2834.553343,-1036.288319,12509.480420
1418.886728,-3140.991542,-1036.288319,12509.480420
1418.887046,-3064.381992,-888.247130,12657.521608
1418.887365,-2451.505594,-814.226536,12583.501014
1418.887684,-383.047749,-74.020594,10881.027347
1418.888003,1455.581446,666.185348,9252.574275
1418.888322,2604.724693,1554.432478,8290.306550
1418.888640,3677.258390,1998.556043,6661.853478
1418.888959,4903.011187,2516.700203,5181.441594
1418.889278,5209.449386,3034.844362,4293.194464
1418.889597,4443.353888,2886.803174,5625.565159
1418.889916,3140.991542,1998.556043,6883.915261
1418.890234,1685.410096,1702.473667,7624.121203
1418.890553,459.657299,592.164754,9326.594869
1418.890872,-1072.533697,-592.164754,11251.130318
1418.891191,-2451.505594,-1184.329507,12805.562797
1418.891510,-3140.991542,-1554.432478,12953.603985
1418.891828,-3447.429741,-1554.432478,12879.583391
1418.892147,-2298.286494,-1406.391290,13027.624579
1418.892466,-1225.752797,-444.123565,11843.295072
1418.892785,459.657299,74.020594,9178.553681
1418.893103,2451.505594,592.164754,8734.430116
1418.893422,3294.210641,518.144159,7550.100608
1418.893741,4213.525239,1184.329507,5551.544565
1418.894060,4749.792088,1332.370696,4737.318029
