#time,accel_x,accel_y,accel_z
1145.421725,306.438199,296.082377,9400.615463
1145.422044,306.438199,370.102971,9400.615463
1145.422363,459.657299,592.164754,9326.594869
1145.422682,0.000000,296.082377,9548.656652
1145.423001,612.876398,444.123565,9474.636058
1145.423320,766.095498,518.144159,9178.553681
1145.423639,383.047749,296.082377,9178.553681
1145.423958,766.095498,148.041188,9178.553681
1145.424277,536.266849,296.082377,9400.615463
1145.424596,536.266849,222.061783,9178.553681
1145.424915,536.266849,370.102971,9178.553681
1145.425234,459.657299,370.102971,9178.553681
1145.425553,383.047749,222.061783,9474.636058
1145.425872,536.266849,370.102971,9178.553681
1145.426191,229.828649,222.061783,9178.553681
1145.426510,689.485948,444.123565,9326.594869
1145.426829,842.705048,148.041188,9400.615463
1145.427148,383.047749,296.082377,9326.594869
1145.427467,306.438199,370.102971,9252.574275
1145.427786,306.438199,370.102971,9252.574275
1145.428105,229.828649,222.061783,9252.574275
1145.428424,459.657299,-0.000000,9400.615463
1145.428743,306.438199,518.144159,9326.594869
1145.429062,383.047749,370.102971,9326.594869
1145.429381,689.485948,444.123565,9326.594869
1145.429700,383.047749,148.041188,9400.615463
1145.430019,536.266849,-0.000000,9104.533087
1145.430338,536.266849,222.061783,9474.636058
1145.430657,459.657299,370.102971,9474.636058
1145.430976,383.047749,518.144159,9252.574275
1145.431295,459.657299,592.164754,9400.615463
1145.431614,459.657299,370.102971,8808.450710
1145.431933,536.266849,444.123565,9252.574275
1145.432252,459.657299,296.082377,9104.533087
1145.432571,383.047749,444.123565,9400.615463
1145.432890,612.876398,148.041188,9326.594869
1145.433208,536.266849,444.123565,9622.677246
1145.433527,536.266849,296.082377,9474.636058
1145.433846,689.485948,370.102971,9104.533087
1145.434165,383.047749,296.082377,9326.594869
1145.434484,306.438199,222.061783,9326.594869
1145.434803,766.095498,444.123565,9474.636058
1145.435122,306.438199,222.061783,9178.553681
1145.435441,536.266849,296.082377,9252.574275
1145.435760,689.485948,296.082377,9104.533087
1145.436079,229.828649,296.082377,9326.594869
1145.436398,689.485948,370.102971,9474.636058
1145.436717,766.095498,518.144159,9104.533087
1145.437036,459.657299,296.082377,9326.594869
1145.437355,383.047749,222.061783,9252.574275
1145.437674,995.924147,-0.000000,9178.553681
1145.437993,306.438199,370.102971,9400.615463
1145.438312,459.657299,518.144159,9252.574275
1145.438631,306.438199,518.144159,9178.553681
1145.438950,536.266849,518.144159,9252.574275
1145.439269,689.485948,814.226536,9474.636058
1145.439588,689.485948,592.164754,8956.491898
1145.439907,612.876398,222.061783,9400.615463
1145.440226,459.657299,222.061783,9252.574275
1145.440545,536.266849,444.123565,9326.594869
1145.440864,612.876398,296.082377,9252.574275
1145.441183,383.047749,444.123565,9326.594869
1145.441502,459.657299,444.123565,9326.594869
1145.441821,383.047749,518.144159,9252.574275
1145.442140,536.266849,148.041188,9030.512492
1145.442459,76.609550,666.185348,9474.636058
1145.442778,229.828649,-0.000000,9030.512492
1145.443097,0.000000,-74.020594,9178.553681
1145.443416,0.000000,-296.082377,8660.409521
1145.443735,-306.438199,-370.102971,9104.533087
1145.444054,-536.266849,-666.185348,8956.491898
1145.444373,-766.095498,-666.185348,9400.615463
1145.444692,-766.095498,-1036.288319,8956.491898
1145.445011,-1072.533697,-666.185348,8808.450710
1145.445330,-1149.143247,-740.205942,8882.471304
1145.445649,-1225.752797,-1110.308913,8586.388927
1145.445968,-1378.971896,-1184.329507,9030.512492
1145.446287,-1455.581446,-1332.370696,8956.491898
1145.446606,-1608.800546,-1110.308913,9252.574275
1145.446924,-1378.971896,-962.267725,8882.471304
1145.447243,-995.924147,-962.267725,8512.368333
1145.447562,-1225.752797,-888.247130,8068.244768
1145.447881,-1225.752797,-814.226536,7698.141797
1145.448200,-1225.752797,-888.247130,7550.100608
1145.448519,-1302.362347,-1924.535449,7550.100608
1145.448838,-1991.848295,-2072.576638,7846.182985
1145.449157,-1762.019645,-1998.556043,7994.224174
1145.449476,-1838.629195,-2368.659014,8438.347739
1145.449795,-1838.629195,-2368.659014,8956.491898
1145.450114,-1915.238745,-2368.659014,9178.553681
1145.450433,-1991.848295,-1850.514855,9030.512492
1145.450752,-2145.067394,-1702.473667,8438.347739
1145.451071,-2374.896044,-1776.494261,8290.306550
1145.451390,-2298.286494,-2220.617826,8068.244768
1145.451709,-2757.943793,-2886.803174,8216.285956
1145.452028,-3370.820191,-3701.029710,9030.512492
1145.452347,-3524.039291,-4589.276840,9622.677246
1145.452666,-3907.087040,-4589.276840,10362.883188
1145.452985,-4213.525239,-4515.256246,11251.130318
1145.453304,-3830.477490,-4145.153275,11177.109724
1145.453623,-3677.258390,-3701.029710,11177.109724
1145.453942,-3447.429741,-2960.823768,11177.109724
1145.454261,-2911.162892,-2738.761985,11029.068536
1145.454580,-2451.505594,-2664.741391,10807.006753
1145.454899,-2757.943793,-2738.761985,10881.027347
1145.455218,-2221.676944,-3182.885551,10288.862594
1145.455537,-2528.115143,-3701.029710,10436.903782
1145.455856,-2451.505594,-3997.112087,10436.903782
1145.456175,-2911.162892,-4293.194464,10288.862594
1145.456494,-3064.381992,-4441.235652,10510.924376
1145.456813,-3217.601092,-4145.153275,10881.027347
1145.457132,-3677.258390,-4219.173869,11473.192101
1145.457451,-4060.306139,-3775.050304,11917.315666
1145.457770,-4366.744339,-3552.988522,11251.130318
1145.458089,-4749.792088,-2960.823768,11251.130318
1145.458408,-4826.401637,-3182.885551,11251.130318
1145.458727,-4903.011187,-3330.926739,10955.047942
1145.459046,-4596.572988,-3478.967927,10955.047942
1145.459365,-3600.648841,-3404.947333,11325.150913
1145.459684,-2987.772442,-3256.906145,11769.274478
1145.460003,-1915.238745,-2294.638420,11399.171507
1145.460322,-612.876398,-740.205942,9992.780217
1145.460641,76.609550,814.226536,8438.347739
1145.460959,995.924147,1702.473667,6809.894666
1145.461278,1455.581446,1998.556043,5403.503377
1145.461597,995.924147,1924.535449,4885.359217
1145.461916,1072.533697,222.061783,5551.544565
1145.462235,306.438199,-1480.411884,6883.915261
1145.462554,-229.828649,-2294.638420,7994.224174
1145.462873,-766.095498,-2664.741391,9030.512492
1145.463192,-1685.410096,-2072.576638,9548.656652
1145.463511,-842.705048,-814.226536,9844.739029
1145.463830,-306.438199,740.205942,9178.553681
1145.464149,0.000000,1702.473667,8734.430116
1145.464468,612.876398,1998.556043,8216.285956
1145.464787,459.657299,2146.597232,7179.997637
1145.465106,1149.143247,1628.453072,6809.894666
1145.465425,612.876398,962.267725,6069.688724
1145.465744,689.485948,296.082377,5773.606348
1145.466063,306.438199,-666.185348,5625.565159
1145.466382,383.047749,-1110.308913,7328.038826
1145.466701,-153.219100,-2146.597232,8512.368333
1145.467020,-842.705048,-2294.638420,9696.697840
1145.467339,-1608.800546,-2220.617826,10881.027347
1145.467658,-1838.629195,-1406.391290,11473.192101
1145.467977,-1762.019645,-148.041188,10955.047942
1145.468296,-2221.676944,-74.020594,10214.842000
1145.468615,-2374.896044,-518.144159,9992.780217
1145.468934,-2451.505594,-962.267725,9326.594869
1145.469253,-2681.334243,-1406.391290,8586.388927
1145.469572,-3294.210641,-2072.576638,8660.409521
1145.469891,-3217.601092,-3256.906145,8882.471304
1145.470210,-3370.820191,-4293.194464,10066.800811
1145.470529,-3294.210641,-4737.318029,11325.150913
1145.470848,-2911.162892,-3701.029710,11769.274478
1145.471167,-3677.258390,-2368.659014,11399.171507
1145.471486,-3677.258390,-1258.350101,10881.027347
1145.471805,-3600.648841,-962.267725,10955.047942
1145.472124,-4366.744339,-1850.514855,10658.965565
1145.472443,-4136.915689,-2664.741391,10140.821405
1145.472762,-5209.449386,-3256.906145,10140.821405
1145.473081,-4826.401637,-4367.215058,11029.068536
1145.473400,-4826.401637,-5477.523971,11991.336260
1145.473719,-4060.306139,-5773.606348,13323.706956
1145.474038,-2604.724693,-5477.523971,13693.809927
1145.474357,-1302.362347,-3701.029710,12583.501014
1145.474676,0.000000,-2294.638420,10955.047942
1145.474994,1838.629195,-592.164754,9622.677246
1145.475313,2911.162892,1702.473667,7105.977043
1145.475632,2987.772442,1406.391290,5107.421000
1145.475951,2604.724693,74.020594,5107.421000
1145.476270,2451.505594,-1480.411884,6587.832884
1145.476589,1149.143247,-2960.823768,7328.038826
1145.476908,76.609550,-3997.112087,8882.471304
1145.477227,-689.485948,-4737.318029,10436.903782
1145.477546,-1225.752797,-4367.215058,11251.130318
1145.477865,-2374.896044,-3775.050304,11177.109724
1145.478184,-3064.381992,-2368.659014,10510.924376
1145.478503,-2757.943793,-1332.370696,9992.780217
1145.478822,-2604.724693,-370.102971,8290.306550
1145.479141,-2681.334243,-814.226536,8586.388927
1145.479460,-2451.505594,-2072.576638,8586.388927
1145.479779,-2068.457845,-2664.741391,8216.285956
1145.480098,-1915.238745,-3478.967927,9326.594869
1145.480417,-2068.457845,-3256.906145,9622.677246
1145.480736,-842.705048,-1332.370696,8734.430116
1145.481055,306.438199,-222.061783,7994.224174
1145.481374,766.095498,666.185348,7846.182985
1145.481693,612.876398,888.247130,6513.812290
1145.482012,459.657299,1628.453072,5329.482782
1145.482331,0.000000,518.144159,5033.400406
1145.482650,-1532.190996,-1332.370696,5329.482782
1145.482969,-2987.772442,-3478.967927,5921.647536
1145.483288,-4826.401637,-4737.318029,7624.121203
1145.483607,-6128.763984,-6365.771101,9474.636058
1145.483926,-6511.811733,-5995.668130,11399.171507
1145.484245,-5898.935335,-5033.400406,12731.542202
1145.484564,-5898.935335,-3923.091493,13471.748144
1145.484883,-4903.011187,-2368.659014,13915.871710
1145.485202,-3370.820191,-518.144159,11843.295072
1145.485521,-1608.800546,740.205942,9992.780217
1145.485840,0.000000,1110.308913,9474.636058
1145.486159,459.657299,962.267725,7328.038826
1145.486478,995.924147,666.185348,4885.359217
1145.486796,995.924147,-592.164754,5181.441594
1145.487115,229.828649,-2590.720797,5181.441594
1145.487434,-766.095498,-3849.070898,5329.482782
1145.487753,-2221.676944,-4663.297435,7105.977043
1145.488072,-3907.087040,-5625.565159,9770.718434
1145.488391,-5439.278036,-7254.018232,11991.336260
1145.488710,-6128.763984,-7476.080014,14359.995275
1145.489029,-6128.763984,-6143.709319,16728.654289
1145.489348,-5898.935335,-5551.544565,15988.448347
1145.489667,-4366.744339,-3182.885551,15100.201217
1145.489986,-2374.896044,-1036.288319,15248.242405
1145.490305,76.609550,814.226536,11399.171507
1145.490624,2145.067394,1628.453072,7994.224174
1145.490943,3983.696590,4145.153275,5477.523971
1145.491262,4903.011187,3478.967927,2812.782580
1145.491581,4749.792088,1998.556043,888.247130
1145.491900,3983.696590,-444.123565,2220.617826
1145.492219,1685.410096,-2220.617826,3552.988522
1145.492538,-1302.362347,-5033.400406,6143.709319
1145.492857,-3677.258390,-6365.771101,11251.130318
1145.493175,-5975.544884,-6661.853478,14359.995275
1145.493494,-7507.735880,-6365.771101,16580.613101
1145.493813,-7354.516781,-3997.112087,17912.983796
1145.494132,-6741.640382,-1554.432478,18135.045579
1145.494451,-4903.011187,1332.370696,14508.036463
1145.494770,-1838.629195,3923.091493,11917.315666
1145.495089,306.438199,4959.379811,7772.162391
1145.495408,2681.334243,4663.297435,3627.009116
1145.495727,4826.401637,3330.926739,1554.432478
1145.496046,5209.449386,592.164754,222.061783
1145.496365,4443.353888,-2146.597232,-814.226536
1145.496684,2681.334243,-3182.885551,1554.432478
1145.497003,0.000000,-3997.112087,4219.173869
1145.497322,-2451.505594,-5329.482782,6883.915261
1145.497641,-5898.935335,-4885.359217,11843.295072
1145.497960,-8197.221829,-4515.256246,16802.674883
1145.498279,-8886.707777,-3923.091493,18431.127956
1145.498598,-8810.098227,-1110.308913,18357.107362
1145.498917,-7431.126331,-1628.453072,19097.313304
1145.499235,-4979.620737,-740.205942,17468.860231
1145.499554,-2298.286494,-888.247130,13989.892304
1145.499873,1072.533697,-74.020594,9030.512492
1145.500192,4060.306139,1036.288319,4145.153275
1145.500511,6588.421283,1110.308913,74.020594
1145.500830,7660.954980,962.267725,-2294.638420
1145.501149,6588.421283,-0.000000,-2886.803174
1145.501468,4290.134789,-2442.679609,-592.164754
1145.501787,919.314598,-3552.988522,3923.091493
1145.502106,-2757.943793,-5255.462188,9474.636058
1145.502425,-5822.325785,-6439.791695,15692.365970
1145.502744,-8810.098227,-6439.791695,19097.313304
1145.503063,-10035.851024,-6291.750507,22428.240043
1145.503382,-9652.803275,-4589.276840,23242.466579
1145.503701,-7277.907231,-2590.720797,19837.519246
1145.504020,-4290.134789,-962.267725,17098.757260
1145.504339,-459.657299,2368.659014,9844.739029
1145.504658,2834.553343,1258.350101,5329.482782
1145.504977,6588.421283,2072.576638,1406.391290
1145.505295,7967.393179,2738.761985,-1702.473667
1145.505614,8733.488677,1258.350101,-2886.803174
1145.505933,8963.317327,1332.370696,-1628.453072
1145.506252,6358.592633,444.123565,370.102971
1145.506571,4673.182538,-740.205942,5403.503377
1145.506890,1455.581446,-1480.411884,10436.903782
1145.507209,-1302.362347,-2812.782580,13545.768739
1145.507528,-3830.477490,-2220.617826,16432.571912
1145.507847,-4979.620737,-666.185348,18505.148550
1145.508166,-4366.744339,-740.205942,17764.942608
1145.508485,-3140.991542,1184.329507,15692.365970
1145.508804,-919.314598,2368.659014,12657.521608
1145.509123,1225.752797,3108.864956,8956.491898
1145.509442,4443.353888,3256.906145,3330.926739
1145.509761,6435.202183,4145.153275,1110.308913
1145.510080,8044.002729,4145.153275,296.082377
1145.510399,8197.221829,4367.215058,-666.185348
1145.510718,7584.345430,4293.194464,370.102971
1145.511037,5515.887586,3108.864956,2738.761985
1145.511356,3753.867940,1554.432478,7254.018232
1145.511674,2068.457845,962.267725,11843.295072
1145.511993,-842.705048,444.123565,15026.180623
1145.512312,-2374.896044,1036.288319,16358.551318
1145.512631,-3217.601092,1998.556043,15618.345376
1145.512950,-3370.820191,2220.617826,14878.139434
1145.513269,-2451.505594,1628.453072,12731.542202
1145.513588,-1302.362347,1184.329507,8734.430116
1145.513907,-306.438199,1332.370696,5773.606348
1145.514226,1532.190996,1184.329507,4367.215058
1145.514545,1455.581446,-740.205942,5181.441594
1145.514864,1455.581446,-1480.411884,6291.750507
1145.515183,536.266849,-296.082377,7031.956449
1145.515502,-229.828649,296.082377,9548.656652
1145.515821,-229.828649,1406.391290,12287.418637
1145.516140,-766.095498,3034.844362,13989.892304
1145.516459,-1991.848295,3997.112087,14285.974681
1145.516778,-2681.334243,3627.009116,14063.912898
1145.517097,-3294.210641,3034.844362,13619.789333
1145.517416,-3294.210641,1480.411884,12509.480420
1145.517734,-2221.676944,-370.102971,11473.192101
1145.518053,-2145.067394,-1998.556043,9474.636058
1145.518372,-1225.752797,-2886.803174,7179.997637
1145.518691,-995.924147,-2368.659014,5995.668130
1145.519010,0.000000,-3775.050304,7550.100608
1145.519329,0.000000,-3182.885551,7994.224174
1145.519648,0.000000,-1554.432478,8068.244768
1145.519967,-306.438199,-1110.308913,10436.903782
1145.520286,306.438199,666.185348,12953.603985
1145.520605,383.047749,1036.288319,14434.015869
1145.520924,766.095498,1258.350101,14656.077652
1145.521243,1378.971896,2516.700203,12879.583391
1145.521562,2221.676944,3256.906145,10732.986159
1145.521881,3294.210641,3256.906145,8216.285956
1145.522200,4213.525239,2072.576638,6217.729913
1145.522519,3140.991542,962.267725,3701.029710
1145.522838,2681.334243,-444.123565,2886.803174
1145.523157,1915.238745,-2960.823768,4219.173869
1145.523476,0.000000,-4811.338623,5255.462188
1145.523794,-1608.800546,-5625.565159,8438.347739
1145.524113,-2451.505594,-5773.606348,12509.480420
1145.524432,-2911.162892,-3923.091493,15026.180623
1145.524751,-2145.067394,-3108.864956,16580.613101
1145.525070,-1378.971896,962.267725,16358.551318
1145.525389,919.314598,3330.926739,15026.180623
1145.525708,2911.162892,5699.585753,11843.295072
1145.526027,5286.058936,7624.121203,6143.709319
1145.526346,7354.516781,7105.977043,2294.638420
1145.526665,8197.221829,5255.462188,-1110.308913
1145.526984,7507.735880,1554.432478,-1702.473667
1145.527303,6205.373534,-666.185348,-1184.329507
1145.527622,3600.648841,-3701.029710,814.226536
1145.527941,1455.581446,-5625.565159,3849.070898
1145.528260,-1991.848295,-5255.462188,8512.368333
1145.528579,-4749.792088,-5551.544565,13323.706956
1145.528898,-5822.325785,-4219.173869,16802.674883
1145.529217,-6281.983084,-2220.617826,19911.539840
1145.529536,-4979.620737,1036.288319,19837.519246
1145.529855,-2604.724693,3108.864956,18653.189738
1145.530173,536.266849,6439.791695,14730.098246
1145.530492,3447.429741,7550.100608,8438.347739
1145.530811,6052.154434,7031.956449,3701.029710
1145.531130,8197.221829,7920.203579,-1924.535449
1145.531449,8963.317327,7254.018232,-6143.709319
1145.531768,7737.564530,3775.050304,-6143.709319
1145.532087,5286.058936,-74.020594,-1924.535449
1145.532406,0.000000,-2664.741391,1998.556043
1145.532725,-3217.601092,-4737.318029,6217.729913
1145.533044,-7431.126331,-7105.977043,13915.871710
1145.533363,-9422.974625,-7698.141797,21539.992912
1145.533682,-10878.556072,-7624.121203,25759.166782
1145.534001,-10878.556072,-2886.803174,27609.681637
1145.534320,-7354.516781,4663.297435,24722.878463
1145.534639,-4213.525239,7328.038826,20429.683999
1145.534958,1915.238745,11251.130318,13989.892304
1145.535277,5669.106685,10214.842000,5551.544565
1145.535596,9806.022374,12065.356855,-814.226536
1145.535915,11338.213370,9548.656652,-7476.080014
1145.536233,11951.089769,4441.235652,-5995.668130
1145.536552,9652.803275,-1480.411884,-4071.132681
1145.536871,5286.058936,-4885.359217,518.144159
1145.537190,842.705048,-5699.585753,4959.379811
1145.537509,-3600.648841,-5773.606348,12139.377449
1145.537828,-6741.640382,-7031.956449,20873.807564
1145.538147,-9499.584175,-4959.379811,26573.393318
1145.538466,-10265.679673,-1776.494261,28349.887579
1145.538785,-10878.556072,3849.070898,27461.640448
1145.539104,-5056.230287,6735.874072,25389.063811
1145.539423,-1608.800546,7624.121203,16876.695478
1145.539742,6205.373534,8882.471304,11473.192101
1145.540061,8810.098227,11843.295072,2294.638420
1145.540380,12487.356617,5773.606348,-5403.503377
1145.540699,15015.471761,6513.812290,-8660.409521
1145.541018,14785.643111,-814.226536,-6513.812290
1145.541337,9346.365076,-3478.967927,-3404.947333
1145.541656,4749.792088,-3627.009116,-1554.432478
1145.541975,1915.238745,-2442.679609,6809.894666
1145.542293,-3294.210641,-6957.935855,14804.118840
1145.542612,-5132.839837,-5255.462188,23242.466579
1145.542931,-8733.488677,-3849.070898,26499.372724
1145.543250,-9422.974625,1258.350101,25537.104999
1145.543569,-8503.660028,3923.091493,23242.466579
1145.543888,-3370.820191,4737.318029,20207.622217
1145.544207,1838.629195,9400.615463,11473.192101
1145.544526,5745.716235,5995.668130,1110.308913
1145.544845,8120.612279,5255.462188,-3108.864956
1145.545164,10418.898773,4737.318029,-9252.574275
1145.545483,11108.384721,444.123565,-7105.977043
1145.545802,8580.269578,-3330.926739,-5995.668130
1145.546121,4290.134789,-5551.544565,-1924.535449
1145.546440,-842.705048,-6291.750507,4959.379811
1145.546759,-3753.867940,-7328.038826,11621.233289
1145.547078,-6971.469032,-8364.327145,17987.004391
1145.547397,-9193.145976,-3478.967927,21910.095883
1145.547716,-9039.926876,1110.308913,23982.672521
1145.548035,-9729.412825,4811.338623,17246.798449
1145.548354,-6588.421283,4367.215058,19911.539840
1145.548672,-3370.820191,5107.421000,13841.851115
1145.548991,1608.800546,1332.370696,5995.668130
1145.549310,5132.839837,3997.112087,-1406.391290
1145.549629,6205.373534,1776.494261,-6957.935855
1145.549948,7660.954980,-2294.638420,-7031.956449
1145.550267,6665.030833,-3478.967927,-3923.091493
1145.550586,3907.087040,-4737.318029,-148.041188
1145.550905,842.705048,-6439.791695,3701.029710
1145.551224,-3600.648841,-5403.503377,9770.718434
1145.551543,-5669.106685,-5329.482782,18875.251521
1145.551862,-6665.030833,-2368.659014,23760.610738
1145.552181,-7584.345430,1998.556043,25018.960840
1145.552500,-6741.640382,5255.462188,21614.013506
1145.552819,-4519.963438,10066.800811,18209.066173
1145.553138,153.219100,4071.132681,13545.768739
1145.553457,5439.278036,5921.647536,6143.709319
1145.553776,8503.660028,5773.606348,-3330.926739
1145.554095,9193.145976,1406.391290,-7179.997637
1145.554414,8503.660028,-2812.782580,-6587.832884
1145.554732,8120.612279,-5329.482782,222.061783
1145.555051,4903.011187,-8882.471304,3330.926739
1145.555370,1378.971896,-4663.297435,5773.606348
1145.555689,-919.314598,-3404.947333,14878.139434
1145.556008,-3064.381992,-2664.741391,22946.384202
1145.556327,-4826.401637,2220.617826,25389.063811
1145.556646,-3830.477490,6217.729913,25389.063811
1145.556965,-4060.306139,11769.274478,20799.786970
1145.557284,-1608.800546,8216.285956,17320.819043
1145.557603,2911.162892,11769.274478,10362.883188
1145.557922,7277.907231,6069.688724,2812.782580
1145.558241,9346.365076,1998.556043,-518.144159
1145.558560,9116.536426,1628.453072,-7105.977043
1145.558879,7890.783629,-4811.338623,-4737.318029
1145.559198,7124.688131,-6143.709319,-296.082377
1145.559517,3907.087040,-6365.771101,3701.029710
1145.559836,-1072.533697,-4515.256246,7254.018232
1145.560155,-2451.505594,-4441.235652,17320.819043
1145.560474,-6665.030833,-0.000000,22280.198854
1145.560792,-6435.202183,1776.494261,27387.619854
1145.561111,-7277.907231,4515.256246,25981.228564
1145.561430,-5898.935335,9252.574275,25315.043216
1145.561749,-1532.190996,12731.542202,15100.201217
1145.562068,1455.581446,12953.603985,4145.153275
1145.562387,6281.983084,7994.224174,1554.432478
1145.562706,6435.202183,4515.256246,-7179.997637
1145.563025,6971.469032,-518.144159,-10288.862594
1145.563344,4903.011187,-4885.359217,-6439.791695
1145.563663,2298.286494,-9178.553681,888.247130
1145.563982,-1685.410096,-9770.718434,3034.844362
1145.564301,-7354.516781,-11029.068536,9770.718434
1145.564620,-9269.755526,-9548.656652,19467.416275
1145.564939,-10112.460574,-4515.256246,26869.475695
1145.565258,-9729.412825,-370.102971,28497.928767
1145.565577,-9499.584175,5255.462188,27979.784608
1145.565896,-5209.449386,11843.295072,24278.754898
1145.566215,-1991.848295,15840.407159,14804.118840
1145.566534,3600.648841,10214.842000,7254.018232
1145.566853,8044.002729,7698.141797,222.061783
1145.567171,11414.822920,5329.482782,-7698.141797
1145.567490,9652.803275,-962.267725,-12287.418637
1145.567809,8120.612279,-9474.636058,-4885.359217
1145.568128,3217.601092,-12213.398043,-666.185348
1145.568447,306.438199,-11843.295072,1258.350101
1145.568766,-3064.381992,-12583.501014,7846.182985
1145.569085,-8656.879127,-12435.459826,17024.736666
1145.569404,-8503.660028,-9696.697840,26277.310941
1145.569723,-10878.556072,-2516.700203,27535.661042
1145.570042,-8580.269578,3256.906145,28423.908173
1145.570361,-5056.230287,4663.297435,29608.237680
1145.570680,-1378.971896,13397.727550,19615.457463
1145.570999,6281.983084,14211.954086,7920.203579
1145.571318,12563.966167,11399.171507,444.123565
1145.571637,16164.615008,10584.944971,-10140.821405
1145.571956,18539.511052,4071.132681,-14804.118840
1145.572275,16088.005458,-2590.720797,-14137.933492
1145.572594,11184.994271,-8882.471304,-8882.471304
1145.572913,4060.306139,-13767.830521,-4219.173869
1145.573231,-1915.238745,-13027.624579,1480.411884
1145.573550,-8197.221829,-17838.963202,14508.036463
1145.573869,-11568.042020,-16136.489536,26129.269753
1145.574188,-12870.404366,-10362.883188,31458.752535
1145.574507,-12717.185267,-1110.308913,31680.814318
1145.574826,-9959.241474,9622.677246,31236.690752
1145.575145,-4443.353888,12361.439231,25759.166782
1145.575464,1762.019645,10881.027347,13619.789333
1145.575783,12027.699319,17468.860231,1776.494261
1145.576102,14709.033562,11917.315666,-6883.915261
1145.576421,15398.519510,9252.574275,-17394.839637
1145.576740,15934.786358,592.164754,-15174.221811
1145.577059,11874.480219,-8068.244768,-7624.121203
1145.577378,3217.601092,-13175.665768,-5255.462188
1145.577697,-3677.258390,-10140.821405,-962.267725
1145.578016,-7277.907231,-15100.201217,10436.903782
1145.578335,-10878.556072,-11399.171507,22354.219448
1145.578654,-13789.718964,-7402.059420,31458.752535
1145.578973,-14172.766713,222.061783,34123.493926
1145.579291,-16854.100956,9918.759623,28645.969955
1145.579610,-7660.954980,12805.562797,29386.175897
1145.579929,-3600.648841,17838.963202,19985.560434
1145.580248,1838.629195,13323.706956,8364.327145
1145.580567,9882.631924,14137.933492,-3997.112087
1145.580886,14172.766713,12361.439231,-11029.068536
1145.581205,15321.909960,2886.803174,-13323.706956
1145.581524,12487.356617,-1332.370696,-12139.377449
1145.581843,4366.744339,-11177.109724,-5921.647536
1145.582162,-1608.800546,-10807.006753,-1998.556043
1145.582481,-3524.039291,-9474.636058,8512.368333
1145.582800,-9116.536426,-12879.583391,20281.642811
1145.583119,-10112.460574,-12361.439231,30274.423028
1145.583438,-13636.499864,-2738.761985,34715.658680
1145.583757,-14862.252661,4959.379811,30866.587781
1145.584076,-10648.727422,12879.583391,27831.743419
1145.584395,-3600.648841,17690.922014,25167.002028
1145.584713,2757.943793,14063.912898,12361.439231
1145.585032,7967.393179,15100.201217,-1258.350101
1145.585351,14249.376263,10066.800811,-9252.574275
1145.585670,14172.766713,1776.494261,-14285.974681
1145.585989,14632.424012,-6069.688724,-9326.594869
1145.586308,10112.460574,-13915.871710,-2664.741391
1145.586626,1915.238745,-14063.912898,-1924.535449
1145.586945,1149.143247,-9696.697840,5995.668130
1145.587264,-3524.039291,-12583.501014,16580.613101
1145.587583,-6358.592633,-11399.171507,26869.475695
1145.587902,-8503.660028,-4441.235652,31384.731941
1145.588221,-11184.994271,4515.256246,30496.484810
1145.588539,-9422.974625,11769.274478,27609.681637
1145.588858,-1302.362347,15100.201217,26129.269753
1145.589177,3447.429741,20429.683999,16284.530724
1145.589496,9116.536426,8734.430116,1480.411884
1145.589815,14325.985813,8512.368333,-11177.109724
1145.590134,16164.615008,2220.617826,-16506.592507
1145.590452,16624.272307,-3997.112087,-14434.015869
1145.590771,11031.775171,-13915.871710,-9844.739029
1145.591090,5439.278036,-12065.356855,-3923.091493
1145.591409,-1532.190996,-11547.212695,-2590.720797
1145.591728,-4366.744339,-11695.253884,12731.542202
1145.592047,-10035.851024,-15322.262999,28423.908173
1145.592365,-13713.109414,-8290.306550,34049.473332
1145.592684,-14479.204912,-148.041188,30496.484810
1145.593003,-12180.918418,13101.645173,23686.590144
1145.593322,-6971.469032,13619.789333,27535.661042
1145.593641,1302.362347,16654.633695,16580.613101
1145.593960,4826.401637,14211.954086,1998.556043
1145.594278,12334.137518,11473.192101,-6587.832884
1145.594597,12717.185267,5773.606348,-17616.901420
1145.594916,12487.356617,-3034.844362,-15618.345376
1145.595235,8963.317327,-11473.192101,-7254.018232
1145.595554,1302.362347,-16210.510130,-5033.400406
1145.595873,-4060.306139,-13101.645173,-2664.741391
1145.596191,-6511.811733,-12213.398043,6661.853478
1145.596510,-12257.527968,-14730.098246,23686.590144
1145.596829,-14632.424012,-14285.974681,30718.546593
1145.597148,-17007.320056,666.185348,33679.370361
1145.597467,-13406.671215,10658.965565,29238.134709
1145.597786,-8810.098227,15914.427753,23760.610738
1145.598104,0.000000,18357.107362,19615.457463
1145.598423,7354.516781,18505.148550,5329.482782
1145.598742,14096.157163,15100.201217,-3108.864956
1145.599061,15628.348159,10584.944971,-15322.262999
1145.599380,16854.100956,2738.761985,-15100.201217
1145.599699,12334.137518,-9252.574275,-9770.718434
1145.600018,6205.373534,-14582.057057,-4219.173869
1145.600336,229.828649,-12287.418637,-2738.761985
1145.600655,-3217.601092,-9918.759623,1998.556043
1145.600974,-6435.202183,-13915.871710,21021.848753
1145.601293,-10955.165621,-10584.944971,29608.237680
1145.601612,-16164.615008,-5625.565159,36344.111752
1145.601931,-16241.224558,2368.659014,34123.493926
1145.602249,-10878.556072,14063.912898,34197.514520
1145.602568,-766.095498,16728.654289,26647.413912
1145.602887,4213.525239,23686.590144,10066.800811
1145.603206,12410.747068,13693.809927,1480.411884
1145.603525,19841.873398,18431.127956,-12583.501014
1145.603844,19688.654299,7846.182985,-20059.581028
1145.604162,16854.100956,-7328.038826,-10066.800811
1145.604481,10035.851024,-13693.809927,-1628.453072
1145.604800,5745.716235,-13323.706956,-3701.029710
1145.605119,1378.971896,-9548.656652,-1184.329507
1145.605438,-3600.648841,-13323.706956,11621.233289
1145.605757,-8120.612279,-17690.922014,28053.805202
1145.606075,-13636.499864,-11695.253884,32421.020260
1145.606394,-14325.985813,-3997.112087,39823.079680
1145.606713,-14019.547613,9252.574275,33457.308578
1145.607032,-7124.688131,16802.674883,30052.361245
1145.607351,7201.297681,19763.498651,19467.416275
1145.607670,8580.269578,23538.548956,4515.256246
1145.607988,15934.786358,14211.954086,-3997.112087
1145.608307,18003.244203,12953.603985,-17098.757260
1145.608626,20148.311597,888.247130,-13841.851115
1145.608945,14709.033562,-10214.842000,-11695.253884
1145.609264,5209.449386,-11917.315666,-5329.482782
1145.609583,-1455.581446,-11769.274478,-1776.494261
1145.609901,-3677.258390,-14656.077652,7031.956449
1145.610220,-9652.803275,-15840.407159,18135.045579
1145.610539,-16164.615008,-11473.192101,30422.464216
1145.610858,-15934.786358,-4737.318029,32643.082042
1145.611177,-19765.263848,4219.173869,31976.896694
1145.611496,-15781.567259,10510.924376,30866.587781
1145.611814,-7660.954980,9474.636058,31976.896694
1145.612133,1072.533697,20725.766376,7550.100608
1145.612452,7124.688131,14508.036463,-3108.864956
1145.612771,11568.042020,15914.427753,-10214.842000
1145.613090,17390.367805,6217.729913,-16876.695478
1145.613409,17620.196454,-1258.350101,-14211.954086
1145.613727,9346.365076,-6069.688724,-11103.089130
1145.614046,1225.752797,-11769.274478,-7179.997637
1145.614365,-2757.943793,-12361.439231,-2886.803174
1145.614684,-5822.325785,-14211.954086,9918.759623
1145.615003,-12487.356617,-19023.292709,26129.269753
1145.615322,-16394.443657,-9104.533087,30718.546593
1145.615640,-16317.834107,-2590.720797,36196.070564
1145.615959,-15475.129060,8142.265362,29090.093521
1145.616278,-7584.345430,11695.253884,31310.711347
1145.616597,-306.438199,17024.736666,20503.704593
1145.616916,8350.440928,20651.745782,4145.153275
1145.617235,18079.853753,14211.954086,-3701.029710
1145.617553,19075.777900,10362.883188,-14656.077652
1145.617872,23442.522239,2072.576638,-14434.015869
1145.618191,19765.263848,-5181.441594,-12805.562797
1145.618510,11491.432470,-11103.089130,-11399.171507
1145.618829,4290.134789,-9844.739029,-6069.688724
1145.619148,1149.143247,-14878.139434,5255.462188
1145.619466,-5209.449386,-18283.086767,16802.674883
1145.619785,-9806.022374,-12287.418637,31014.628970
1145.620104,-13636.499864,-7105.977043,34937.720462
1145.620423,-16854.100956,2368.659014,33161.226202
1145.620742,-9806.022374,11103.089130,34493.596897
1145.621061,-4136.915689,10955.047942,28423.908173
1145.621380,6128.763984,13323.706956,11547.212695
1145.621698,9346.365076,26647.413912,-4071.132681
1145.622017,14862.252661,10732.986159,-8882.471304
1145.622336,16471.053207,7105.977043,-16950.716072
1145.622655,18769.339701,-814.226536,-11325.150913
1145.622974,12257.527968,-7105.977043,-9474.636058
1145.623293,5056.230287,-11843.295072,-9178.553681
1145.623611,-766.095498,-7105.977043,-3775.050304
1145.623930,-6894.859482,-16432.571912,11251.130318
1145.624249,-9576.193725,-12731.542202,27091.537477
1145.624568,-13866.328514,-8882.471304,34271.535115
1145.624887,-18462.901502,-2516.700203,33309.267390
1145.625206,-17773.415554,9400.615463,29386.175897
1145.625524,-9959.241474,13989.892304,29016.072926
1145.625843,-3447.429741,17098.757260,21095.869347
1145.626162,1685.410096,18801.230927,9400.615463
1145.626481,12104.308868,19245.354492,2220.617826
1145.626800,15092.081311,10362.883188,-11177.109724
1145.627119,16471.053207,5699.585753,-10584.944971
1145.627437,14479.204912,-3552.988522,-9548.656652
1145.627756,7814.174080,-8734.430116,-12879.583391
1145.628075,383.047749,-9474.636058,-9770.718434
1145.628394,-1762.019645,-12065.356855,5107.421000
1145.628713,-7890.783629,-12287.418637,18357.107362
1145.629032,-12104.308868,-10955.047942,31828.855506
1145.629350,-15475.129060,-5847.626942,35974.008781
1145.629669,-20224.921147,3627.009116,32643.082042
1145.629988,-14938.862211,11991.336260,32791.123231
1145.630307,-7507.735880,14508.036463,29238.134709
1145.630626,-229.828649,20133.601622,17246.798449
1145.630945,7814.174080,20355.663405,1110.308913
1145.631263,12947.013916,16728.654289,-6069.688724
1145.631582,16854.100956,6217.729913,-13545.768739
1145.631901,18462.901502,-1998.556043,-12213.398043
1145.632220,14938.862211,-7994.224174,-9844.739029
1145.632539,5515.887586,-12509.480420,-10732.986159
1145.632858,1532.190996,-13841.851115,-4885.359217
1145.633176,-2145.067394,-13841.851115,7550.100608
1145.633495,-5362.668486,-16358.551318,24426.796086
1145.633814,-10955.165621,-12065.356855,33235.246796
1145.634133,-17850.025103,-3701.029710,35899.988187
1145.634452,-16700.881856,4885.359217,34567.617491
1145.634771,-9269.755526,13175.665768,32198.958477
1145.635089,-1072.533697,17912.983796,19393.395680
1145.635408,8273.831378,13249.686362,6143.709319
1145.635727,16471.053207,21539.992912,-5255.462188
1145.636046,21527.283494,11103.089130,-14211.954086
1145.636365,20531.359346,-74.020594,-14137.933492
1145.636684,18692.730151,-7624.121203,-9252.574275
1145.637002,15551.738609,-11177.109724,-11177.109724
1145.637321,6358.592633,-11843.295072,-15544.324782
1145.637640,2681.334243,-11695.253884,-6217.729913
1145.637959,-4290.134789,-19689.478057,12065.356855
1145.638278,-8580.269578,-16506.592507,26129.269753
1145.638597,-14709.033562,-16950.716072,36566.173535
1145.638915,-20991.016645,-4589.276840,36862.255912
1145.639234,-18386.291952,6735.874072,35455.864622
1145.639553,-11414.822920,13989.892304,32643.082042
1145.639872,612.876398,14063.912898,18209.066173
1145.640191,6971.469032,31754.834912,740.205942
1145.640510,12793.794817,17616.901420,-3997.112087
1145.640828,14709.033562,10214.842000,-14211.954086
1145.641147,18769.339701,4515.256246,-14656.077652
1145.641466,15781.567259,-6587.832884,-13175.665768
1145.641785,6281.983084,-10436.903782,-12213.398043
1145.642104,1225.752797,-10955.047942,-9622.677246
1145.642423,-2298.286494,-20281.642811,4071.132681
1145.642742,-10035.851024,-17098.757260,12805.562797
1145.643060,-13406.671215,-14359.995275,25167.002028
1145.643379,-23136.084040,-11547.212695,32050.917289
1145.643698,-21527.283494,222.061783,36566.173535
1145.644017,-18386.291952,10066.800811,41007.409187
1145.644336,-9039.926876,15248.242405,28497.928767
1145.644655,-1225.752797,20651.745782,12065.356855
1145.644973,7967.393179,21317.931130,740.205942
1145.645292,13253.452115,18949.272115,-7105.977043
1145.645611,17696.806004,9326.594869,-16062.468941
1145.645930,18769.339701,2072.576638,-15618.345376
1145.646249,13330.061665,-11473.192101,-10510.924376
1145.646568,3830.477490,-10288.862594,-15100.201217
1145.646886,1532.190996,-11695.253884,-5033.400406
1145.647205,-3677.258390,-15692.365970,8734.430116
1145.647524,-8350.440928,-18135.045579,18801.230927
1145.647843,-16241.224558,-14211.954086,33901.432144
1145.648162,-20301.530697,-10584.944971,41377.512158
1145.648481,-22063.550342,4959.379811,38342.667796
1145.648799,-11491.432470,9992.780217,41155.450375
1145.649118,-2681.334243,16432.571912,25759.166782
1145.649437,4826.401637,22798.343014,10881.027347
1145.649756,18079.853753,18875.251521,-1702.473667
1145.650075,20684.578446,21095.869347,-11991.336260
1145.650394,22753.036291,7105.977043,-14211.954086
1145.650712,22369.988542,-7476.080014,-8734.430116
1145.651031,17007.320056,-9844.739029,-10732.986159
1145.651350,7584.345430,-14730.098246,-9844.739029
1145.651669,4979.620737,-14508.036463,222.061783
1145.651988,306.438199,-11547.212695,13175.665768
1145.652307,-7660.954980,-18283.086767,26721.434506
1145.652625,-15015.471761,-14804.118840,33531.329173
1145.652944,-18539.511052,-3182.885551,36714.214723
1145.653263,-15321.909960,6291.750507,35307.823433
1145.653582,-7967.393179,11991.336260,32198.958477
1145.653901,-766.095498,13471.748144,20133.601622
1145.654220,4979.620737,27387.619854,5477.523971
1145.654538,12257.527968,13027.624579,-3256.906145
1145.654857,16930.710506,13027.624579,-12435.459826
1145.655176,21680.502593,2738.761985,-14211.954086
1145.655495,17160.539155,-2590.720797,-15544.324782
1145.655814,7201.297681,-10140.821405,-17098.757260
1145.656133,1378.971896,-11177.109724,-8882.471304
1145.656451,-4826.401637,-15914.427753,1036.288319
1145.656770,-7354.516781,-20873.807564,13619.789333
1145.657089,-15475.129060,-17468.860231,30496.484810
1145.657408,-19152.387450,-7624.121203,36270.091158
1145.657727,-22063.550342,1850.514855,33087.205607
1145.658046,-17007.320056,10658.965565,31384.731941
1145.658364,-9729.412825,11621.233289,32346.999665
1145.658683,-4903.011187,19097.313304,11177.109724
1145.659002,5362.668486,28349.887579,-7624.121203
1145.659321,11951.089769,19171.333898,-12879.583391
1145.659640,16777.491406,8734.430116,-11177.109724
1145.659959,17620.196454,-888.247130,-14656.077652
1145.660277,14096.157163,-9030.512492,-14359.995275
1145.660596,4596.572988,-11177.109724,-13175.665768
1145.660915,-153.219100,-19763.498651,-3627.009116
1145.661234,-4366.744339,-14211.954086,8364.327145
1145.661553,-7660.954980,-21317.931130,25537.104999
1145.661872,-14249.376263,-16950.716072,36048.029375
1145.662190,-19841.873398,-2368.659014,33161.226202
1145.662509,-15858.176809,6217.729913,35381.844028
1145.662828,-9806.022374,15840.407159,26795.455100
1145.663147,-153.219100,13619.789333,31606.793723
1145.663466,4596.572988,20133.601622,10732.986159
1145.663785,12487.356617,19393.395680,-5551.544565
1145.664104,20148.311597,11251.130318,-8882.471304
1145.664422,18999.168350,11621.233289,-16358.551318
1145.664741,19765.263848,-11399.171507,-7846.182985
1145.665060,12870.404366,-10362.883188,-8586.388927
1145.665379,9729.412825,-10362.883188,-10658.965565
1145.665698,1225.752797,-12805.562797,-3775.050304
1145.666017,-1532.190996,-16728.654289,14359.995275
1145.666335,-7814.174080,-22502.260637,30496.484810
1145.666654,-13406.671215,-14137.933492,37972.564825
1145.666973,-18999.168350,-1184.329507,34123.493926
1145.667292,-15245.300410,7624.121203,33235.246796
1145.667611,-8120.612279,11917.315666,28571.949361
1145.667930,1072.533697,14359.995275,21984.116477
1145.668248,8503.660028,23020.404796,11621.233289
1145.668567,12793.794817,17912.983796,-3404.947333
1145.668886,19228.997000,14656.077652,-9548.656652
1145.669205,20914.407095,814.226536,-9696.697840
1145.669524,17620.196454,-6883.915261,-8142.265362
1145.669843,10189.070123,-12361.439231,-9104.533087
1145.670161,4596.572988,-12213.398043,-7105.977043
1145.670480,0.000000,-16580.613101,1554.432478
1145.670799,-4136.915689,-14211.954086,15026.180623
1145.671118,-12563.966167,-19763.498651,29016.072926
1145.671437,-18386.291952,-7846.182985,35159.782245
1145.671756,-21757.112143,-444.123565,34715.658680
1145.672074,-18462.901502,11843.295072,31236.690752
1145.672393,-8503.660028,13989.892304,22798.343014
1145.672712,-4443.353888,11769.274478,24648.857869
1145.673031,4826.401637,21317.931130,-222.061783
1145.673350,10189.070123,17987.004391,-8512.368333
1145.673669,15934.786358,10881.027347,-9992.780217
1145.673987,17543.586904,-0.000000,-11843.295072
1145.674306,14325.985813,-7772.162391,-8882.471304
1145.674625,5669.106685,-11399.171507,-10732.986159
1145.674944,-1608.800546,-13619.789333,-6883.915261
1145.675263,-2145.067394,-10658.965565,-814.226536
1145.675582,-7737.564530,-18209.066173,19319.375086
1145.675900,-13406.671215,-11473.192101,31606.793723
1145.676219,-20071.702048,-7920.203579,33975.452738
1145.676538,-22906.255390,2738.761985,36714.214723
1145.676857,-16777.491406,12657.521608,30718.546593
1145.677176,-6128.763984,12213.398043,23242.466579
1145.677495,1762.019645,20207.622217,13397.727550
1145.677813,9806.022374,24130.713709,0.000000
1145.678132,14172.766713,14137.933492,-2590.720797
1145.678451,17926.634653,5551.544565,-11917.315666
1145.678770,22982.864940,-1628.453072,-7624.121203
1145.679089,16471.053207,-5995.668130,-13397.727550
1145.679408,9039.926876,-8808.450710,-10881.027347
1145.679726,5745.716235,-12583.501014,-5699.585753
1145.680045,-1608.800546,-14952.160028,-2072.576638
1145.680364,-5439.278036,-16654.633695,19911.539840
1145.680683,-11184.994271,-12953.603985,33309.267390
1145.681002,-16777.491406,-8290.306550,38934.832549
1145.681321,-18616.120601,-1480.411884,37454.420665
1145.681639,-11414.822920,7624.121203,35677.926404
1145.681958,-2757.943793,15248.242405,24056.693115
1145.682277,5592.497135,16876.695478,11843.295072
1145.682596,12563.966167,21243.910535,-962.267725
1145.682915,17466.977354,13915.871710,-11547.212695
1145.683234,21833.721693,8364.327145,-15248.242405
1145.683552,20914.407095,-3182.885551,-9474.636058
1145.683871,14096.157163,-7105.977043,-14359.995275
1145.684190,6435.202183,-12583.501014,-9326.594869
1145.684509,1455.581446,-12509.480420,-3182.885551
1145.684828,-4903.011187,-15914.427753,9104.533087
1145.685147,-10572.117872,-17764.942608,27239.578666
1145.685466,-15704.957709,-11251.130318,33161.226202
1145.685784,-17850.025103,-1184.329507,32791.123231
1145.686103,-17926.634653,5551.544565,32272.979071
1145.686422,-10418.898773,10436.903782,30792.567187
1145.686741,-2145.067394,13175.665768,24944.940245
1145.687060,1838.629195,24796.899057,5033.400406
1145.687379,7737.564530,12657.521608,-1924.535449
1145.687698,12793.794817,17468.860231,-9252.574275
1145.688017,19918.482948,6661.853478,-11029.068536
1145.688336,17160.539155,1258.350101,-10658.965565
1145.688655,9346.365076,-4441.235652,-15322.262999
1145.688974,3370.820191,-10362.883188,-9326.594869
1145.689292,-2681.334243,-13249.686362,-6439.791695
1145.689611,-6588.421283,-14359.995275,12509.480420
1145.689930,-12947.013916,-19911.539840,27757.722825
1145.690249,-17926.634653,-13471.748144,33309.267390
1145.690568,-21374.064394,-6143.709319,33753.390955
1145.690887,-23136.084040,5625.565159,34567.617491
1145.691206,-7890.783629,7624.121203,38564.729578
1145.691525,-2068.457845,19171.333898,16802.674883
1145.691844,7354.516781,25907.207970,4589.276840
1145.692163,12487.356617,19615.457463,-7031.956449
1145.692482,16088.005458,18209.066173,-9474.636058
1145.692801,21067.626195,1480.411884,-13175.665768
1145.693120,16471.053207,-4811.338623,-13545.768739
1145.693439,9116.536426,-10510.924376,-13545.768739
1145.693758,4903.011187,-12287.418637,-3552.988522
1145.694076,-1378.971896,-11695.253884,-4293.194464
1145.694395,-4903.011187,-17912.983796,17616.901420
1145.694714,-8350.440928,-20873.807564,33605.349767
1145.695033,-15628.348159,-8956.491898,33975.452738
1145.695352,-16317.834107,1554.432478,33827.411549
1145.695671,-13253.452115,8142.265362,36714.214723
1145.695990,-4979.620737,12583.501014,30792.567187
1145.696309,3447.429741,19097.313304,18135.045579
1145.696628,12793.794817,18209.066173,2812.782580
1145.696947,18769.339701,23908.651927,-11843.295072
1145.697266,21220.845295,13471.748144,-17394.839637
1145.697585,23289.303139,-962.267725,-11399.171507
1145.697904,17773.415554,-9400.615463,-13471.748144
1145.698223,10265.679673,-10510.924376,-11325.150913
1145.698541,3294.210641,-14211.954086,-7179.997637
1145.698860,-2451.505594,-13767.830521,3330.926739
1145.699179,-7354.516781,-21762.054695,24500.816680
1145.699498,-10955.165621,-21317.931130,37528.441259
1145.699817,-15015.471761,-5107.421000,36196.070564
1145.700136,-17390.367805,2146.597232,33605.349767
1145.700455,-14938.862211,11917.315666,30644.525999
1145.700774,-5592.497135,12657.521608,26499.372724
1145.701093,2528.115143,21243.910535,9992.780217
1145.701412,5439.278036,16210.510130,3034.844362
1145.701731,12410.747068,21762.054695,-14878.139434
1145.702050,16394.443657,10807.006753,-17098.757260
1145.702369,16777.491406,888.247130,-10436.903782
1145.702688,11874.480219,-10732.986159,-7920.203579
1145.703007,4136.915689,-13915.871710,-11547.212695
1145.703325,-1608.800546,-17246.798449,-2072.576638
1145.703644,-4826.401637,-13249.686362,12065.356855
1145.703963,-8044.002729,-24056.693115,27239.578666
1145.704282,-13176.842566,-13027.624579,37972.564825
1145.704601,-16394.443657,2886.803174,29904.320057
1145.704920,-15321.909960,9474.636058,27683.702231
1145.705239,-14402.595362,10584.944971,30200.402434
1145.705558,-4903.011187,7476.080014,22206.178260
1145.705877,3140.991542,22946.384202,4293.194464
1145.706196,7814.174080,20429.683999,-5551.544565
1145.706515,12334.137518,12879.583391,-7031.956449
1145.706834,17007.320056,4367.215058,-13545.768739
1145.707153,17850.025103,-5107.421000,-6587.832884
1145.707472,11644.651570,-15470.304188,-6439.791695
1145.707790,4290.134789,-11991.336260,-5329.482782
1145.708109,536.266849,-15766.386565,-3404.947333
1145.708428,-2604.724693,-15544.324782,14878.139434
1145.708747,-9269.755526,-18505.148550,30274.423028
1145.709066,-15321.909960,-11621.233289,36714.214723
1145.709385,-15704.957709,296.082377,35677.926404
1145.709704,-15321.909960,12361.439231,28201.846390
1145.710023,-7737.564530,13101.645173,22650.301825
1145.710342,1378.971896,18727.210333,18949.272115
1145.710661,7814.174080,20577.725188,8290.306550
1145.710980,12640.575717,15470.304188,-4811.338623
1145.711299,15858.176809,12287.418637,-12583.501014
1145.711618,19765.263848,1036.288319,-11103.089130
1145.711937,18616.120601,-9622.677246,-3478.967927
1145.712256,10648.727422,-13101.645173,-7328.038826
1145.712574,7048.078582,-12879.583391,-6439.791695
1145.712893,2987.772442,-8734.430116,-1776.494261
1145.713212,-2834.553343,-9622.677246,15026.180623
1145.713531,-7660.954980,-16580.613101,34863.699868
1145.713850,-12870.404366,-5625.565159,35307.823433
1145.714169,-16700.881856,3627.009116,33827.411549
1145.714488,-12257.527968,11547.212695,26055.249158
1145.714807,-4903.011187,12953.603985,23168.445985
1145.715126,1915.238745,15766.386565,11843.295072
1145.715445,7967.393179,16284.530724,5329.482782
1145.715764,12717.185267,14656.077652,-8290.306550
1145.716083,16777.491406,8734.430116,-13619.789333
1145.716402,18692.730151,2146.597232,-11103.089130
1145.716721,14632.424012,-5847.626942,-6513.812290
1145.717039,7507.735880,-9326.594869,-7179.997637
1145.717358,842.705048,-10362.883188,-10955.047942
1145.717677,-2451.505594,-11695.253884,962.267725
1145.717996,-9422.974625,-14434.015869,19837.519246
1145.718315,-15168.690860,-16136.489536,31014.628970
1145.718634,-20684.578446,-8438.347739,35233.802839
1145.718953,-21144.235745,2294.638420,33309.267390
1145.719272,-17926.634653,8142.265362,29238.134709
1145.719591,-9806.022374,11103.089130,27461.640448
1145.719910,-1149.143247,19393.395680,13027.624579
1145.720229,3677.258390,20207.622217,1628.453072
1145.720548,8427.050478,18135.045579,-2442.679609
1145.720867,13023.623466,7920.203579,-7846.182985
1145.721186,15321.909960,-814.226536,-9918.759623
1145.721505,14709.033562,-5033.400406,-5033.400406
1145.721823,6894.859482,-11843.295072,-4663.297435
1145.722142,3830.477490,-14211.954086,-8068.244768
1145.722461,-2757.943793,-8808.450710,-1332.370696
1145.722780,-5132.839837,-15248.242405,21836.075289
1145.723099,-10801.946522,-15840.407159,29978.340651
1145.723418,-17160.539155,-3775.050304,29090.093521
1145.723737,-17620.196454,5181.441594,33309.267390
1145.724056,-14479.204912,10140.821405,30052.361245
1145.724375,-2911.162892,12583.501014,26129.269753
1145.724694,5056.230287,15914.427753,13175.665768
1145.725013,9806.022374,17024.736666,5329.482782
1145.725332,14862.252661,13767.830521,-8586.388927
1145.725651,20991.016645,8216.285956,-12065.356855
1145.725970,22523.207641,74.020594,-10214.842000
1145.726288,19382.216099,-6883.915261,-9178.553681
1145.726607,11721.261119,-9400.615463,-11251.130318
1145.726926,4519.963438,-8734.430116,-9474.636058
1145.727245,1532.190996,-12139.377449,4441.235652
1145.727564,-6052.154434,-16950.716072,21021.848753
1145.727883,-10648.727422,-14582.057057,33531.329173
1145.728202,-18233.072852,-5773.606348,32124.937883
1145.728521,-18003.244203,148.041188,37232.358883
1145.728840,-12257.527968,6069.688724,33309.267390
1145.729159,-306.438199,12361.439231,21688.034101
1145.729478,3753.867940,19837.519246,11621.233289
1145.729797,10495.508323,13545.768739,3256.906145
1145.730116,13713.109414,14434.015869,-8216.285956
1145.730435,18922.558801,9178.553681,-13175.665768
1145.730754,17620.196454,3256.906145,-11695.253884
1145.731072,12257.527968,-5255.462188,-12953.603985
1145.731391,7201.297681,-9030.512492,-8438.347739
1145.731710,1915.238745,-8956.491898,-7105.977043
1145.732029,-4519.963438,-11769.274478,3108.864956
1145.732348,-9499.584175,-14804.118840,19763.498651
1145.732667,-12257.527968,-16506.592507,33235.246796
1145.732986,-18003.244203,-5329.482782,33013.185013
1145.733305,-20301.530697,1628.453072,30644.525999
1145.733624,-15934.786358,5477.523971,32050.917289
1145.733943,-4903.011187,14137.933492,23538.548956
1145.734262,-1532.190996,15544.324782,11547.212695
1145.734581,6588.421283,21688.034101,-1036.288319
1145.734900,12487.356617,19837.519246,-9474.636058
1145.735219,15245.300410,13471.748144,-14285.974681
1145.735537,15398.519510,-222.061783,-12435.459826
1145.735856,9806.022374,-4737.318029,-9252.574275
1145.736175,2911.162892,-11473.192101,-7328.038826
1145.736494,-1532.190996,-11917.315666,-2294.638420
1145.736813,-5592.497135,-15618.345376,7328.038826
1145.737132,-11797.870669,-20281.642811,29238.134709
1145.737451,-13636.499864,-16358.551318,34419.576303
1145.737770,-20378.140247,-6069.688724,31014.628970
1145.738089,-18616.120601,2738.761985,29460.196492
1145.738408,-16241.224558,5995.668130,30496.484810
1145.738727,-3217.601092,16136.489536,27091.537477
1145.739046,0.000000,21539.992912,7402.059420
1145.739365,9116.536426,20355.663405,148.041188
1145.739684,14555.814462,17024.736666,-9030.512492
1145.740002,18386.291952,7105.977043,-13323.706956
1145.740321,20684.578446,-2072.576638,-9252.574275
1145.740640,14249.376263,-9622.677246,-8068.244768
1145.740959,6894.859482,-14952.160028,-6957.935855
1145.741278,6128.763984,-11621.233289,0.000000
1145.741597,-919.314598,-13027.624579,7846.182985
1145.741916,-6435.202183,-18949.272115,24130.713709
1145.742235,-9576.193725,-12657.521608,34197.514520
1145.742554,-12334.137518,-1776.494261,32495.040854
1145.742873,-13942.938064,7105.977043,29756.278868
1145.743192,-9806.022374,7476.080014,26203.290347
1145.743511,-995.924147,12509.480420,23908.651927
1145.743830,8044.002729,18135.045579,7772.162391
1145.744149,12870.404366,13915.871710,-1702.473667
1145.744468,16011.395908,11917.315666,-11473.192101
1145.744786,18922.558801,6069.688724,-16506.592507
1145.745105,19305.606550,-2886.803174,-12731.542202
1145.745424,12257.527968,-9548.656652,-10066.800811
1145.745743,6281.983084,-10288.862594,-4145.153275
1145.746062,689.485948,-11103.089130,-4663.297435
1145.746381,-5592.497135,-14211.954086,12435.459826
1145.746700,-10265.679673,-17542.880825,32346.999665
1145.747019,-14938.862211,-7624.121203,34493.596897
1145.747338,-16011.395908,2072.576638,27609.681637
1145.747657,-15858.176809,7920.203579,24796.899057
1145.747976,-11414.822920,9178.553681,23242.466579
1145.748295,-3600.648841,15470.304188,18653.189738
1145.748614,1072.533697,11843.295072,9326.594869
1145.748933,6818.249932,13545.768739,-3627.009116
1145.749251,10878.556072,9326.594869,-9770.718434
1145.749570,14019.547613,5625.565159,-11029.068536
1145.749889,13100.233016,-5255.462188,-8216.285956
1145.750208,6588.421283,-5921.647536,-6809.894666
1145.750527,1838.629195,-12435.459826,-5699.585753
1145.750846,-536.266849,-9104.533087,0.000000
1145.751165,-8120.612279,-11547.212695,12657.521608
1145.751484,-9269.755526,-11769.274478,27091.537477
1145.751803,-15398.519510,-8142.265362,30866.587781
1145.752122,-16930.710506,4663.297435,30274.423028
1145.752441,-14555.814462,7328.038826,24574.837274
1145.752760,-10572.117872,13545.768739,20947.828159
1145.753079,-995.924147,12731.542202,19985.560434
1145.753398,5515.887586,14582.057057,9474.636058
1145.753717,7814.174080,12879.583391,-4515.256246
1145.754035,12334.137518,7920.203579,-7105.977043
1145.754354,15015.471761,2738.761985,-10584.944971
1145.754673,14632.424012,-8290.306550,-7105.977043
1145.754992,9806.022374,-13027.624579,-1406.391290
1145.755311,4673.182538,-11029.068536,-1184.329507
1145.755630,3140.991542,-11843.295072,1480.411884
1145.755949,-919.314598,-7920.203579,20207.622217
1145.756268,-5898.935335,-12731.542202,30792.567187
1145.756587,-10418.898773,-1110.308913,32346.999665
1145.756906,-12257.527968,7994.224174,26647.413912
1145.757225,-9039.926876,11917.315666,23538.548956
1145.757544,-3370.820191,10584.944971,18801.230927
1145.757863,3064.381992,10658.965565,14137.933492
1145.758182,9346.365076,8882.471304,7254.018232
1145.758500,12334.137518,6143.709319,-1776.494261
1145.758819,14938.862211,-592.164754,-4737.318029
1145.759138,16011.395908,-2072.576638,-5921.647536
1145.759457,13789.718964,-8660.409521,-5699.585753
1145.759776,9959.241474,-9548.656652,-4737.318029
1145.760095,5515.887586,-6291.750507,-2516.700203
1145.760414,1302.362347,-6217.729913,6587.832884
1145.760733,-4443.353888,-6957.935855,16580.613101
1145.761052,-10265.679673,-6069.688724,28053.805202
1145.761371,-13176.842566,-2886.803174,31902.876100
1145.761690,-14709.033562,4515.256246,27979.784608
1145.762009,-13406.671215,6957.935855,21095.869347
1145.762328,-5209.449386,6291.750507,19171.333898
1145.762647,-612.876398,10807.006753,11103.089130
1145.762966,7737.564530,9622.677246,3923.091493
1145.763284,7354.516781,9548.656652,-370.102971
1145.763603,10801.946522,3182.885551,-7402.059420
1145.763922,10955.165621,1998.556043,-8808.450710
1145.764241,9882.631924,-4959.379811,-5551.544565
1145.764560,5592.497135,-7476.080014,-3404.947333
1145.764879,-842.705048,-7624.121203,-2960.823768
1145.765198,-3217.601092,-7402.059420,8956.491898
1145.765517,-10342.289223,-10807.006753,20133.601622
1145.765836,-12104.308868,-8586.388927,28423.908173
1145.766155,-14709.033562,-2146.597232,30792.567187
1145.766474,-14325.985813,3627.009116,25907.207970
1145.766793,-11797.870669,6291.750507,21539.992912
1145.767112,-4519.963438,11843.295072,19467.416275
1145.767431,3447.429741,15470.304188,11103.089130
1145.767749,5898.935335,9992.780217,1776.494261
1145.768068,9116.536426,7994.224174,-2442.679609
1145.768387,14785.643111,2294.638420,-7105.977043
1145.768706,16777.491406,2590.720797,-11177.109724
1145.769025,15092.081311,-4663.297435,-9696.697840
1145.769344,7890.783629,-5921.647536,-8438.347739
1145.769663,4443.353888,-5699.585753,-5107.421000
1145.769982,-1072.533697,-7179.997637,5329.482782
1145.770301,-9193.145976,-10510.924376,18283.086767
1145.770620,-12257.527968,-11843.295072,28201.846390
1145.770939,-16930.710506,-8586.388927,32865.143825
1145.771258,-16700.881856,-0.000000,33013.185013
1145.771577,-12257.527968,3182.885551,29608.237680
1145.771896,-4136.915689,13175.665768,21539.992912
1145.772215,3600.648841,10807.006753,16284.530724
1145.772533,8886.707777,12139.377449,4737.318029
1145.772852,13406.671215,15322.262999,-8586.388927
1145.773171,18922.558801,9252.574275,-12065.356855
1145.773490,18003.244203,1110.308913,-9400.615463
1145.773809,16317.834107,-4811.338623,-3552.988522
1145.774128,10418.898773,-9252.574275,-5107.421000
1145.774447,5286.058936,-2812.782580,-5107.421000
1145.774766,766.095498,-9400.615463,5847.626942
1145.775085,-5975.544884,-12213.398043,19023.292709
1145.775404,-9576.193725,-14211.954086,29608.237680
1145.775723,-15245.300410,-7402.059420,31088.649564
1145.776042,-15092.081311,-814.226536,32272.979071
1145.776361,-12563.966167,3627.009116,30866.587781
1145.776680,-4060.306139,7254.018232,28942.052332
1145.776998,2681.334243,9326.594869,15840.407159
1145.777317,8810.098227,14137.933492,2960.823768
1145.777636,11874.480219,9548.656652,-3478.967927
1145.777955,16011.395908,8142.265362,-9918.759623
1145.778274,18769.339701,2368.659014,-12435.459826
1145.778593,13330.061665,-1628.453072,-11103.089130
1145.778912,7354.516781,-6143.709319,-6513.812290
1145.779231,1072.533697,-4663.297435,-4589.276840
1145.779550,-2145.067394,-9474.636058,6291.750507
1145.779869,-9729.412825,-16580.613101,19837.519246
1145.780188,-17007.320056,-11547.212695,29164.114115
1145.780507,-16547.662757,-8216.285956,33679.370361
1145.780826,-19612.044749,-962.267725,33087.205607
1145.781145,-13253.452115,2368.659014,36270.091158
1145.781464,-10112.460574,7031.956449,23094.425390
1145.781782,-842.705048,13323.706956,15988.448347
1145.782101,5669.106685,14359.995275,1776.494261
1145.782420,9806.022374,16358.551318,-6513.812290
1145.782739,13483.280765,10658.965565,-15248.242405
1145.783058,15551.738609,5773.606348,-14952.160028
1145.783377,12717.185267,-222.061783,-11473.192101
1145.783696,8656.879127,-6513.812290,-7031.956449
1145.784015,2911.162892,-6883.915261,-4293.194464
1145.784334,229.828649,-7031.956449,2960.823768
1145.784653,-5515.887586,-14730.098246,16654.633695
1145.784972,-10495.508323,-14211.954086,30274.423028
1145.785291,-13253.452115,-10658.965565,32495.040854
1145.785610,-17083.929605,-666.185348,29386.175897
1145.785929,-14096.157163,3330.926739,29682.258274
1145.786247,-7124.688131,8142.265362,26943.496289
1145.786566,2528.115143,16136.489536,11843.295072
1145.786885,6741.640382,15988.448347,-3182.885551
1145.787204,12180.918418,13545.768739,-3775.050304
1145.787523,14709.033562,11843.295072,-14582.057057
1145.787842,17850.025103,3775.050304,-14878.139434
1145.788161,14938.862211,-2590.720797,-8808.450710
1145.788480,8273.831378,-11695.253884,-3775.050304
1145.788799,4213.525239,-6069.688724,-1850.514855
1145.789118,229.828649,-10807.006753,5699.585753
1145.789437,-4136.915689,-13545.768739,22724.322419
1145.789756,-8044.002729,-12065.356855,31088.649564
1145.790075,-10112.460574,-5329.482782,29534.217086
1145.790394,-12947.013916,1332.370696,26055.249158
1145.790713,-8580.269578,9474.636058,23538.548956
1145.791032,-5592.497135,10214.842000,25315.043216
1145.791351,4136.915689,12435.459826,17838.963202
1145.791670,8886.707777,11843.295072,3997.112087
1145.791989,13866.328514,14656.077652,-5625.565159
1145.792308,15934.786358,11843.295072,-14063.912898
1145.792627,17313.758255,1480.411884,-14211.954086
1145.792946,13406.671215,-6587.832884,-4737.318029
1145.793265,7737.564530,-11325.150913,-2368.659014
1145.793584,2451.505594,-7698.141797,-518.144159
1145.793903,-1762.019645,-2220.617826,3923.091493
1145.794222,-5898.935335,-10214.842000,25018.960840
1145.794541,-9882.631924,-12953.603985,31532.773129
1145.794860,-14555.814462,-3775.050304,31532.773129
1145.795178,-13942.938064,3923.091493,25907.207970
1145.795497,-14172.766713,5921.647536,20725.766376
1145.795816,-6665.030833,6143.709319,25092.981434
1145.796135,-2911.162892,10658.965565,13249.686362
1145.796454,3370.820191,13767.830521,2960.823768
1145.796773,6665.030833,13397.727550,-6217.729913
1145.797092,10265.679673,7920.203579,-8660.409521
1145.797411,11261.603821,-740.205942,-8734.430116
1145.797730,9729.412825,-5847.626942,-6587.832884
1145.798049,5209.449386,-8216.285956,-1110.308913
1145.798368,-459.657299,-8438.347739,-296.082377
1145.798687,-3983.696590,-11473.192101,9104.533087
1145.799006,-5822.325785,-13323.706956,25241.022622
1145.799325,-11491.432470,-9400.615463,29830.299463
1145.799644,-12027.699319,-2294.638420,28423.908173
1145.799963,-14325.985813,5847.626942,20355.663405
1145.800282,-9806.022374,9844.739029,20429.683999
1145.800601,-3064.381992,12213.398043,19467.416275
1145.800920,306.438199,9918.759623,11177.109724
1145.801239,8656.879127,8660.409521,5773.606348
1145.801558,10112.460574,8290.306550,-5699.585753
1145.801877,12563.966167,4441.235652,-11325.150913
1145.802196,15781.567259,-1776.494261,-8882.471304
1145.802515,12487.356617,-7105.977043,-2960.823768
1145.802834,10878.556072,-11029.068536,-740.205942
1145.803153,4673.182538,-6439.791695,-2072.576638
1145.803472,229.828649,-6587.832884,8956.491898
1145.803791,-1225.752797,-9326.594869,22650.301825
1145.804110,-7507.735880,-4811.338623,27535.661042
1145.804429,-9193.145976,-1850.514855,28275.866984
1145.804748,-9882.631924,6291.750507,20133.601622
1145.805067,-7354.516781,10510.924376,17246.798449
1145.805386,-1225.752797,7772.162391,13175.665768
1145.805705,3294.210641,8216.285956,10214.842000
1145.806024,8120.612279,6439.791695,3775.050304
1145.806343,10725.336972,5329.482782,-2368.659014
1145.806662,12104.308868,2294.638420,-5773.606348
1145.806981,12717.185267,-4811.338623,-5847.626942
1145.807300,9959.241474,-9548.656652,-962.267725
1145.807619,6128.763984,-9474.636058,0.000000
1145.807937,1225.752797,-6291.750507,2072.576638
1145.808256,-3064.381992,-5699.585753,11251.130318
1145.808575,-6281.983084,-6439.791695,21317.931130
1145.808894,-11184.994271,-3108.864956,27017.516883
1145.809213,-12563.966167,296.082377,27387.619854
1145.809532,-12563.966167,5995.668130,18949.272115
1145.809851,-8044.002729,9844.739029,16210.510130
1145.810170,-3294.210641,10955.047942,8290.306550
1145.810489,1915.238745,7772.162391,7031.956449
1145.810808,4903.011187,3182.885551,6587.832884
1145.811127,6511.811733,2220.617826,0.000000
1145.811446,8197.221829,740.205942,-4219.173869
1145.811765,10572.117872,-2146.597232,-2590.720797
1145.812084,6128.763984,-7550.100608,-1702.473667
1145.812403,3140.991542,-7179.997637,-2442.679609
1145.812722,-1685.410096,-4219.173869,3404.947333
1145.813041,-4366.744339,-3997.112087,14656.077652
1145.813360,-8503.660028,-4737.318029,22354.219448
1145.813679,-11951.089769,-2738.761985,26499.372724
1145.813998,-12257.527968,1258.350101,28201.846390
1145.814317,-10572.117872,8512.368333,22798.343014
1145.814636,-7507.735880,11399.171507,12583.501014
1145.814955,-2757.943793,8364.327145,10066.800811
1145.815274,3524.039291,8438.347739,5477.523971
1145.815593,6894.859482,4589.276840,1406.391290
1145.815912,8886.707777,518.144159,-2590.720797
1145.816231,9652.803275,-2812.782580,-1998.556043
1145.816550,9806.022374,-5181.441594,-2590.720797
1145.816869,7814.174080,-6217.729913,-2146.597232
1145.817188,5362.668486,-5699.585753,3330.926739
1145.817507,1302.362347,-6291.750507,8068.244768
1145.817826,-4749.792088,-5107.421000,16876.695478
1145.818145,-7354.516781,-3478.967927,24944.940245
1145.818464,-9882.631924,-1110.308913,28349.887579
1145.818783,-8044.002729,3627.009116,25981.228564
1145.819102,-5975.544884,7402.059420,21317.931130
1145.819421,-842.705048,9474.636058,15322.262999
1145.819740,4903.011187,10955.047942,7105.977043
1145.820059,9652.803275,9474.636058,-518.144159
1145.820378,12104.308868,3404.947333,-1554.432478
1145.820696,14172.766713,-814.226536,-4885.359217
1145.821015,12563.966167,-1850.514855,-4737.318029
1145.821334,11568.042020,-5921.647536,-4663.297435
1145.821653,7354.516781,-6291.750507,-1702.473667
1145.821972,3983.696590,-8216.285956,3775.050304
1145.822291,-3064.381992,-6661.853478,9104.533087
1145.822610,-7201.297681,-5477.523971,21021.848753
1145.822929,-10342.289223,-3997.112087,25315.043216
1145.823248,-10265.679673,-1850.514855,30126.381839
1145.823567,-11644.651570,2146.597232,27683.702231
1145.823886,-7814.174080,5921.647536,20503.704593
1145.824205,-4749.792088,11843.295072,11103.089130
1145.824524,2374.896044,8734.430116,5773.606348
1145.824843,6281.983084,6365.771101,148.041188
1145.825162,9806.022374,3627.009116,-3034.844362
1145.825481,9806.022374,962.267725,-5033.400406
1145.825800,7124.688131,-2812.782580,-3108.864956
1145.826119,7277.907231,-5255.462188,-2590.720797
1145.826438,3983.696590,-5477.523971,-3478.967927
1145.826757,-383.047749,-4663.297435,2220.617826
1145.827076,-5592.497135,-6217.729913,12065.356855
1145.827395,-10878.556072,-4737.318029,17690.922014
1145.827714,-12870.404366,-4367.215058,24130.713709
1145.828033,-14632.424012,296.082377,27609.681637
1145.828352,-11874.480219,1924.535449,29460.196492
1145.828671,-7201.297681,7105.977043,20799.786970
1145.828990,-2374.896044,8068.244768,11029.068536
1145.829309,4596.572988,12065.356855,5995.668130
1145.829628,7201.297681,8216.285956,-222.061783
1145.829947,10878.556072,3923.091493,-2960.823768
1145.830266,12027.699319,1850.514855,-6365.771101
1145.830585,11261.603821,370.102971,-5403.503377
1145.830904,9499.584175,-3404.947333,-3775.050304
1145.831223,6894.859482,-4441.235652,370.102971
1145.831542,1685.410096,-5329.482782,4293.194464
1145.831861,-3064.381992,-5699.585753,13915.871710
1145.832180,-6971.469032,-6957.935855,21614.013506
1145.832499,-9576.193725,-6587.832884,26129.269753
1145.832818,-11874.480219,-2960.823768,30126.381839
1145.833137,-9959.241474,2590.720797,26499.372724
1145.833455,-2834.553343,3627.009116,23390.507767
1145.833774,2681.334243,10955.047942,11103.089130
1145.834093,7354.516781,7846.182985,4885.359217
1145.834412,9729.412825,4885.359217,-1332.370696
1145.834731,13023.623466,4515.256246,-4589.276840
1145.835050,14555.814462,-2738.761985,-2886.803174
1145.835369,10648.727422,-2590.720797,-2590.720797
1145.835688,8350.440928,-3701.029710,-666.185348
1145.836007,5056.230287,-4589.276840,-222.061783
1145.836326,536.266849,-1110.308913,5995.668130
1145.836645,-2681.334243,-6809.894666,16358.551318
1145.836964,-9806.022374,-5033.400406,18431.127956
1145.837283,-11644.651570,-4737.318029,25759.166782
1145.837602,-13253.452115,-1702.473667,29090.093521
1145.837921,-11108.384721,2294.638420,27165.558071
1145.838240,-5056.230287,4589.276840,18949.272115
1145.838559,-1685.410096,5403.503377,8808.450710
1145.838878,4903.011187,10140.821405,5329.482782
1145.839197,8810.098227,6217.729913,-3108.864956
1145.839516,11644.651570,2516.700203,-4737.318029
1145.839835,12257.527968,2368.659014,-5107.421000
1145.840154,10265.679673,-1332.370696,-3849.070898
1145.840473,7890.783629,740.205942,-5995.668130
1145.840792,4519.963438,-2294.638420,-1036.288319
1145.841111,-766.095498,-5255.462188,7254.018232
1145.841430,-5898.935335,-5699.585753,13915.871710
1145.841749,-9652.803275,-4959.379811,21910.095883
1145.842068,-13483.280765,-4885.359217,25759.166782
1145.842387,-12334.137518,-148.041188,28275.866984
1145.842706,-12793.794817,3404.947333,25685.146187
1145.843025,-5515.887586,5551.544565,18283.086767
1145.843344,-2298.286494,6661.853478,10955.047942
1145.843663,4366.744339,8512.368333,5033.400406
1145.843982,7814.174080,2886.803174,-444.123565
1145.844301,11261.603821,-222.061783,-2590.720797
1145.844620,11261.603821,-148.041188,-1850.514855
1145.844939,10955.165621,-1924.535449,-2146.597232
1145.845258,7584.345430,-2072.576638,-3478.967927
1145.845577,4366.744339,-666.185348,1036.288319
1145.845896,766.095498,-1480.411884,7698.141797
1145.846214,-2757.943793,-148.041188,11547.212695
1145.846533,-8580.269578,-222.061783,14804.118840
1145.846852,-9959.241474,-2960.823768,23612.569550
1145.847171,-14096.157163,-2368.659014,23538.548956
1145.847490,-10342.289223,-0.000000,25167.002028
1145.847809,-6588.421283,1554.432478,20725.766376
1145.848128,-2604.724693,370.102971,12509.480420
1145.848447,3907.087040,2664.741391,7179.997637
1145.848766,6281.983084,6661.853478,-370.102971
1145.849085,10648.727422,3923.091493,-1702.473667
1145.849404,11721.261119,-592.164754,-148.041188
1145.849723,11338.213370,-444.123565,518.144159
1145.850042,10112.460574,-370.102971,1036.288319
1145.850361,7967.393179,740.205942,1850.514855
1145.850680,4136.915689,-444.123565,7328.038826
1145.850999,1149.143247,-1776.494261,13693.809927
1145.851318,-2374.896044,296.082377,16432.571912
1145.851637,-5592.497135,296.082377,17690.922014
1145.851956,-7507.735880,1036.288319,17912.983796
1145.852275,-6511.811733,2368.659014,18061.024985
1145.852594,-3600.648841,296.082377,13693.809927
1145.852913,-1149.143247,-1554.432478,10955.047942
1145.853232,0.000000,-2368.659014,7846.182985
1145.853551,3830.477490,-3108.864956,7476.080014
1145.853870,6205.373534,-4293.194464,6217.729913
1145.854189,8427.050478,-3552.988522,7402.059420
1145.854508,7890.783629,-2368.659014,6883.915261
1145.854827,6052.154434,1554.432478,4145.153275
1145.855146,5592.497135,2590.720797,3997.112087
1145.855465,2451.505594,5403.503377,4663.297435
1145.855784,689.485948,4515.256246,8512.368333
1145.856103,-3907.087040,3923.091493,10140.821405
1145.856422,-6128.763984,3552.988522,11843.295072
1145.856741,-8427.050478,-0.000000,13619.789333
1145.857060,-9039.926876,-1480.411884,15100.201217
1145.857379,-8197.221829,-3775.050304,14804.118840
1145.857698,-5515.887586,-3775.050304,11399.171507
1145.858017,-3600.648841,-1924.535449,9548.656652
1145.858336,-1762.019645,-2664.741391,8660.409521
1145.858654,689.485948,-1406.391290,8734.430116
1145.858973,2451.505594,-370.102971,9178.553681
1145.859292,4366.744339,814.226536,9844.739029
1145.859611,3753.867940,3997.112087,7031.956449
1145.859930,5132.839837,6513.812290,5329.482782
1145.860249,4213.525239,7624.121203,4811.338623
1145.860568,3217.601092,6587.832884,5625.565159
1145.860887,2374.896044,5477.523971,7105.977043
1145.861206,1455.581446,4737.318029,6143.709319
1145.861525,-229.828649,1184.329507,7328.038826
1145.861844,-2068.457845,-3182.885551,9474.636058
1145.862163,-2451.505594,-6143.709319,11843.295072
1145.862482,-1915.238745,-7624.121203,12657.521608
1145.862801,-1991.848295,-7402.059420,12509.480420
1145.863120,-1149.143247,-7550.100608,13619.789333
1145.863439,153.219100,-4885.359217,14211.954086
1145.863758,1838.629195,-888.247130,15026.180623
1145.864077,2911.162892,1850.514855,13693.809927
1145.864396,4213.525239,3849.070898,11325.150913
1145.864715,5822.325785,6069.688724,8956.491898
1145.865034,7737.564530,7328.038826,5033.400406
1145.865353,7584.345430,8438.347739,2368.659014
1145.865672,8044.002729,7476.080014,1554.432478
1145.865991,6971.469032,4589.276840,370.102971
1145.866310,4596.572988,1184.329507,2442.679609
1145.866629,2298.286494,-1924.535449,3552.988522
1145.866948,-1149.143247,-4071.132681,6587.832884
1145.867267,-3600.648841,-6365.771101,9844.739029
1145.867586,-6894.859482,-7920.203579,12509.480420
1145.867905,-8427.050478,-8956.491898,16876.695478
1145.868224,-9039.926876,-7476.080014,19393.395680
1145.868543,-7431.126331,-4441.235652,21539.992912
1145.868862,-5669.106685,-222.061783,19689.478057
1145.869181,-1838.629195,4737.318029,16358.551318
1145.869500,1072.533697,9696.697840,11843.295072
1145.869819,4979.620737,11769.274478,6587.832884
1145.870138,8350.440928,11917.315666,740.205942
1145.870457,9729.412825,12139.377449,-4441.235652
1145.870776,9499.584175,9474.636058,-6661.853478
1145.871095,8580.269578,3552.988522,-4293.194464
1145.871413,5286.058936,-2738.761985,-888.247130
1145.871732,689.485948,-7328.038826,3997.112087
1145.872051,-4060.306139,-10288.862594,8660.409521
1145.872370,-8044.002729,-12805.562797,14952.160028
1145.872689,-10878.556072,-13841.851115,22132.157666
1145.873008,-12334.137518,-10732.986159,25315.043216
1145.873327,-11797.870669,-6439.791695,26721.434506
1145.873646,-8886.707777,148.041188,24796.899057
1145.873965,-4826.401637,6735.874072,20355.663405
1145.874284,-153.219100,9844.739029,14656.077652
1145.874603,5362.668486,13323.706956,7920.203579
1145.874922,9729.412825,14211.954086,74.020594
1145.875241,12870.404366,13841.851115,-7179.997637
1145.875560,14709.033562,9548.656652,-9326.594869
1145.875879,14249.376263,2812.782580,-7254.018232
1145.876198,10955.165621,-2368.659014,-4515.256246
1145.876517,7124.688131,-5847.626942,-444.123565
1145.876836,1302.362347,-8586.388927,4071.132681
1145.877155,-3830.477490,-10807.006753,12657.521608
1145.877474,-10342.289223,-11843.295072,19689.478057
1145.877793,-12870.404366,-11695.253884,27683.702231
1145.878112,-14479.204912,-5477.523971,30200.402434
1145.878431,-12180.918418,370.102971,29016.072926
1145.878750,-8273.831378,7105.977043,24278.754898
1145.879069,-2298.286494,9918.759623,17764.942608
1145.879388,4290.134789,13619.789333,10214.842000
1145.879707,11108.384721,15840.407159,0.000000
1145.880026,14402.595362,13175.665768,-11029.068536
1145.880345,16624.272307,9474.636058,-12953.603985
1145.880664,16624.272307,-1110.308913,-9178.553681
1145.880983,13176.842566,-5033.400406,-4589.276840
1145.881302,8044.002729,-9474.636058,0.000000
1145.881621,2068.457845,-9474.636058,5181.441594
1145.881940,-2911.162892,-11325.150913,12879.583391
1145.882259,-7660.954980,-10362.883188,23982.672521
1145.882578,-14325.985813,-10658.965565,26943.496289
1145.882897,-15781.567259,-5255.462188,29756.278868
1145.883216,-14785.643111,1924.535449,27387.619854
1145.883535,-9959.241474,5773.606348,23464.528361
1145.883854,-4519.963438,10436.903782,17764.942608
1145.884172,1149.143247,12731.542202,8660.409521
1145.884491,3524.039291,8734.430116,518.144159
1145.884810,9652.803275,9326.594869,-6069.688724
1145.885129,12563.966167,4367.215058,-9622.677246
1145.885448,13100.233016,-2146.597232,-6957.935855
1145.885767,8044.002729,-7105.977043,-4293.194464
1145.886086,6128.763984,-6439.791695,-370.102971
1145.886405,612.876398,-7994.224174,6513.812290
1145.886724,-2145.067394,-11103.089130,12435.459826
1145.887043,-8580.269578,-11029.068536,22058.137072
1145.887353,-10572.117872,-7846.182985,27831.743419
1145.887671,-15092.081311,-370.102971,25537.104999
1145.887990,-12334.137518,6217.729913,21762.054695
1145.888309,-9269.755526,6143.709319,24574.837274
1145.888628,-1378.971896,11473.192101,17172.777854
1145.888947,4136.915689,9474.636058,2220.617826
1145.889265,7890.783629,13693.809927,-4737.318029
1145.889584,10955.165621,5477.523971,-9696.697840
1145.889903,11338.213370,-296.082377,-9474.636058
1145.890222,11031.775171,-7846.182985,-5995.668130
1145.890541,6281.983084,-9992.780217,296.082377
1145.890859,2604.724693,-9548.656652,3552.988522
1145.891178,995.924147,-9622.677246,12509.480420
1145.891497,-3064.381992,-9696.697840,20281.642811
1145.891816,-8656.879127,-5107.421000,26055.249158
1145.892134,-9269.755526,592.164754,27313.599260
1145.892453,-10725.336972,10510.924376,20503.704593
1145.892772,-6128.763984,11621.233289,19615.457463
1145.893091,-4596.572988,10214.842000,16876.695478
1145.893410,612.876398,12213.398043,9400.615463
1145.893728,6588.421283,10214.842000,-962.267725
1145.894047,10189.070123,10066.800811,-6661.853478
1145.894366,11644.651570,-0.000000,-9400.615463
1145.894685,10955.165621,-7328.038826,-4219.173869
1145.895004,8120.612279,-12287.418637,0.000000
1145.895322,4979.620737,-10510.924376,4737.318029
1145.895641,842.705048,-9548.656652,9400.615463
1145.895960,-612.876398,-9474.636058,18209.066173
1145.896279,-3600.648841,-4145.153275,25833.187376
1145.896597,-5592.497135,-370.102971,28275.866984
1145.896916,-8197.221829,8364.327145,21317.931130
1145.897235,-5515.887586,14211.954086,18135.045579
1145.897554,-1072.533697,13175.665768,13619.789333
1145.897873,2987.772442,17764.942608,5699.585753
1145.898191,7967.393179,10362.883188,1406.391290
1145.898510,9346.365076,8808.450710,-7105.977043
1145.898829,9806.022374,1998.556043,-11399.171507
1145.899148,9576.193725,-8808.450710,-5699.585753
1145.899467,7431.126331,-14730.098246,444.123565
1145.899785,3600.648841,-15174.221811,4663.297435
1145.900104,-2451.505594,-15100.201217,10732.986159
1145.900423,-4979.620737,-11399.171507,20503.704593
1145.900742,-8733.488677,-5995.668130,26055.249158
1145.901060,-9806.022374,888.247130,29164.114115
1145.901379,-12793.794817,5625.565159,26351.331535
1145.901698,-10878.556072,13841.851115,18283.086767
1145.902017,-6588.421283,16358.551318,11991.336260
1145.902336,-2911.162892,19985.560434,6661.853478
1145.902654,4673.182538,12287.418637,3108.864956
1145.902973,6128.763984,8512.368333,-8512.368333
1145.903292,10878.556072,1998.556043,-8586.388927
1145.903611,9806.022374,-5847.626942,-8216.285956
1145.903930,8350.440928,-10881.027347,-4737.318029
1145.904248,3830.477490,-16432.571912,444.123565
1145.904567,1455.581446,-15692.365970,6365.771101
1145.904886,-5898.935335,-13249.686362,10436.903782
1145.905205,-9729.412825,-12583.501014,25315.043216
1145.905523,-13330.061665,-9252.574275,30422.464216
1145.905842,-14862.252661,-1702.473667,31754.834912
1145.906161,-13713.109414,8956.491898,24426.796086
1145.906480,-8120.612279,18505.148550,19837.519246
1145.906799,-2681.334243,21539.992912,13619.789333
1145.907117,4290.134789,19615.457463,5033.400406
1145.907436,11491.432470,17394.839637,-3034.844362
1145.907755,14785.643111,10584.944971,-10214.842000
1145.908074,14785.643111,296.082377,-11029.068536
1145.908393,13942.938064,-9918.759623,-6883.915261
1145.908711,9882.631924,-15914.427753,-888.247130
1145.909030,4749.792088,-18431.127956,1036.288319
1145.909349,919.314598,-15396.283594,6291.750507
1145.909668,-3217.601092,-17320.819043,17616.901420
1145.909986,-8503.660028,-16136.489536,29090.093521
1145.910305,-14709.033562,-9178.553681,33309.267390
1145.910624,-14479.204912,1702.473667,33383.287984
1145.910943,-11414.822920,14878.139434,23242.466579
1145.911262,-4443.353888,15766.386565,15396.283594
1145.911580,3524.039291,24648.857869,9770.718434
1145.911899,9806.022374,20059.581028,1998.556043
1145.912218,15934.786358,12435.459826,-7846.182985
1145.912537,18845.949251,7476.080014,-14211.954086
1145.912856,19535.435199,-2960.823768,-12213.398043
1145.913174,16164.615008,-11103.089130,-7624.121203
1145.913493,9729.412825,-14582.057057,-4737.318029
1145.913812,3830.477490,-14878.139434,-1258.350101
1145.914131,-3447.429741,-15840.407159,5773.606348
1145.914450,-6741.640382,-15470.304188,25389.063811
1145.914768,-13789.718964,-16876.695478,33679.370361
1145.915087,-17466.977354,-7698.141797,36122.049970
1145.915406,-19152.387450,5995.668130,30792.567187
1145.915725,-13483.280765,17320.819043,28127.825796
1145.916043,-3907.087040,19245.354492,19985.560434
1145.916362,1685.410096,21095.869347,7328.038826
1145.916681,7354.516781,21243.910535,-2072.576638
1145.917000,13406.671215,20133.601622,-13915.871710
1145.917319,16317.834107,11769.274478,-20281.642811
1145.917637,15934.786358,-3775.050304,-12213.398043
1145.917956,10112.460574,-10732.986159,-7179.997637
1145.918275,2834.553343,-13989.892304,-7476.080014
1145.918594,-2681.334243,-15618.345376,518.144159
1145.918913,-5515.887586,-21021.848753,14285.974681
1145.919231,-12640.575717,-21688.034101,29164.114115
1145.919550,-17007.320056,-16136.489536,38194.626607
1145.919869,-19918.482948,-6143.709319,40267.203245
1145.920188,-20991.016645,7402.059420,28794.011144
1145.920506,-11874.480219,12509.480420,26647.413912
1145.920825,-1302.362347,24426.796086,23686.590144
1145.921144,4903.011187,23612.569550,2960.823768
1145.921463,11491.432470,25463.084405,-8438.347739
1145.921782,16700.881856,21317.931130,-15026.180623
1145.922100,18922.558801,8956.491898,-19171.333898
1145.922419,18616.120601,-7402.059420,-13693.809927
1145.922738,10878.556072,-11547.212695,-5995.668130
1145.923057,3064.381992,-16876.695478,-7254.018232
1145.923376,-383.047749,-13915.871710,666.185348
1145.923694,-6894.859482,-19985.560434,16876.695478
1145.924013,-7048.078582,-23834.631332,40711.326810
1145.924332,-16317.834107,-16062.468941,36640.194129
1145.924651,-17313.758255,-5477.523971,35529.885216
1145.924969,-15628.348159,8364.327145,28201.846390
1145.925288,-5745.716235,16950.716072,31014.628970
1145.925607,3370.820191,16950.716072,22872.363608
1145.925926,8656.879127,30348.443622,-370.102971
1145.926245,16011.395908,29016.072926,-12953.603985
1145.926563,20531.359346,21688.034101,-21539.992912
1145.926882,20607.968896,6587.832884,-18801.230927
1145.927201,16777.491406,-11991.336260,-7402.059420
1145.927520,9116.536426,-14211.954086,-9178.553681
1145.927839,2298.286494,-13027.624579,-6513.812290
1145.928157,-2911.162892,-19171.333898,10066.800811
1145.928476,-7737.564530,-28349.887579,28645.969955
1145.928795,-6818.249932,-24204.734303,39082.873738
1145.929114,-12870.404366,-10362.883188,35159.782245
1145.929432,-16011.395908,-518.144159,30570.505405
1145.929751,-10035.851024,9400.615463,29016.072926
1145.930070,-7354.516781,25018.960840,25167.002028
1145.930389,3677.258390,18801.230927,16580.613101
1145.930708,6894.859482,27979.784608,-9104.533087
1145.931026,15321.909960,29756.278868,-14656.077652
1145.931345,16471.053207,15766.386565,-25315.043216
1145.931664,16777.491406,-222.061783,-21984.116477
1145.931983,12947.013916,-9548.656652,-6291.750507
1145.932302,2298.286494,-17468.860231,-5699.585753
1145.932620,-2451.505594,-18949.272115,-2812.782580
1145.932939,-8350.440928,-24796.899057,12805.562797
1145.933258,-8963.317327,-31236.690752,34197.514520
1145.933577,-13253.452115,-22650.301825,40711.326810
1145.933895,-13483.280765,-6661.853478,31976.896694
1145.934214,-15781.567259,8290.306550,28423.908173
1145.934533,-10265.679673,13471.748144,25685.146187
1145.934852,-8350.440928,21243.910535,20503.704593
1145.935171,2068.457845,30866.587781,9918.759623
1145.935489,6894.859482,29164.114115,-11177.109724
1145.935808,15321.909960,30718.546593,-20577.725188
1145.936127,13559.890315,14211.954086,-24130.713709
1145.936446,14249.376263,-7698.141797,-8808.450710
1145.936765,8273.831378,-17764.942608,-4515.256246
1145.937083,383.047749,-20725.766376,-3034.844362
1145.937402,-4290.134789,-21984.116477,6883.915261
1145.937721,-6052.154434,-30718.546593,21169.889941
1145.938040,-7584.345430,-30126.381839,40637.306216
1145.938358,-9882.631924,-16358.551318,43005.965230
1145.938677,-13789.718964,4219.173869,26795.455100
1145.938996,-11568.042020,16432.571912,24574.837274
1145.939315,-6435.202183,22058.137072,21836.075289
1145.939634,1762.019645,26129.269753,17098.757260
1145.939952,6435.202183,31384.731941,222.061783
1145.940271,13942.938064,28719.990550,-10732.986159
1145.940590,17160.539155,22206.178260,-23686.590144
1145.940909,19841.873398,6217.729913,-22798.343014
1145.941228,14862.252661,-13693.809927,-9474.636058
1145.941546,6971.469032,-18875.251521,-2442.679609
1145.941865,1838.629195,-24130.713709,-3108.864956
1145.942184,-1378.971896,-23686.590144,10362.883188
1145.942503,-6052.154434,-28571.949361,26573.393318
1145.942822,-8580.269578,-24130.713709,38934.832549
1145.943140,-12563.966167,-11769.274478,43894.212361
1145.943459,-11261.603821,4737.318029,32272.979071
1145.943778,-7737.564530,17987.004391,22058.137072
1145.944097,-4290.134789,27165.558071,18061.024985
1145.944415,3064.381992,29460.196492,11251.130318
1145.944734,8963.317327,27757.722825,-2146.597232
1145.945053,17696.806004,30718.546593,-17616.901420
1145.945372,18539.511052,20281.642811,-25167.002028
1145.945691,17083.929605,-814.226536,-17838.963202
1145.946009,12410.747068,-18357.107362,-4515.256246
1145.946328,4673.182538,-22132.157666,-3256.906145
1145.946647,1072.533697,-20873.807564,296.082377
1145.946966,-6665.030833,-26425.352129,15396.283594
1145.947285,-9499.584175,-27387.619854,33531.329173
1145.947603,-11874.480219,-21836.075289,42339.779882
1145.947922,-15475.129060,-4885.359217,35825.967593
1145.948241,-12104.308868,8956.491898,32643.082042
1145.948560,-11721.261119,20577.725188,23834.631332
1145.948878,-3830.477490,21169.889941,21614.013506
1145.949197,2451.505594,28571.949361,12731.542202
1145.949516,10572.117872,31828.855506,-5107.421000
1145.949835,13023.623466,28423.908173,-18949.272115
1145.950154,17007.320056,17764.942608,-23982.672521
1145.950472,17390.367805,-3404.947333,-13175.665768
1145.950791,8197.221829,-16580.613101,-4737.318029
1145.951110,-536.266849,-24204.734303,-5699.585753
1145.951429,-3753.867940,-23834.631332,1998.556043
1145.951748,-10495.508323,-23834.631332,9474.636058
1145.952066,-12027.699319,-27017.516883,37084.317694
1145.952385,-15934.786358,-26277.310941,47595.242071
1145.952704,-21067.626195,-10584.944971,40193.182651
1145.953023,-19228.997000,7179.997637,30792.567187
1145.953341,-14325.985813,23686.590144,25611.125593
1145.953660,-5439.278036,25759.166782,21910.095883
1145.953979,1838.629195,30348.443622,2368.659014
1145.954298,9346.365076,32495.040854,-5181.441594
1145.954617,17160.539155,24722.878463,-12065.356855
1145.954935,17160.539155,12879.583391,-26721.434506
1145.955254,18999.168350,-6365.771101,-10732.986159
1145.955573,16394.443657,-18579.169144,-518.144159
1145.955892,3907.087040,-21317.931130,-7772.162391
1145.956211,2068.457845,-27609.681637,6957.935855
1145.956529,-4136.915689,-28571.949361,16950.716072
1145.956848,-2987.772442,-25167.002028,31236.690752
1145.957167,-8886.707777,-17320.819043,38564.729578
1145.957486,-12640.575717,-1258.350101,34419.576303
1145.957804,-12487.356617,8290.306550,25463.084405
1145.958123,-8656.879127,19245.354492,28571.949361
1145.958442,2987.772442,23834.631332,24204.734303
1145.958761,8197.221829,28571.949361,1776.494261
1145.959080,15628.348159,26943.496289,-10807.006753
1145.959398,19228.997000,21688.034101,-21317.931130
1145.959717,23902.179538,9400.615463,-18209.066173
1145.960036,18156.463303,-4219.173869,-13915.871710
1145.960355,11721.261119,-17764.942608,-3034.844362
1145.960674,4979.620737,-18135.045579,-6365.771101
1145.960992,-4290.134789,-19985.560434,3330.926739
1145.961311,-10189.070123,-26129.269753,23760.610738
1145.961630,-7354.516781,-27239.578666,39526.997303
1145.961949,-11414.822920,-8734.430116,35677.926404
1145.962267,-13330.061665,3478.967927,29016.072926
1145.962586,-15398.519510,8734.430116,31236.690752
1145.962905,-8733.488677,15100.201217,27313.599260
1145.963224,76.609550,28053.805202,14211.954086
1145.963543,3370.820191,27831.743419,-5699.585753
1145.963861,9576.193725,28201.846390,-12361.439231
1145.964180,13713.109414,22872.363608,-21910.095883
1145.964499,14862.252661,5921.647536,-17098.757260
1145.964818,10495.508323,-10288.862594,-4811.338623
1145.965137,4213.525239,-13323.706956,-6513.812290
1145.965455,-3294.210641,-19837.519246,-5403.503377
1145.965774,-9422.974625,-19911.539840,9474.636058
1145.966093,-10418.898773,-29904.320057,29238.134709
1145.966412,-10418.898773,-25018.960840,39008.853143
1145.966730,-15781.567259,-9104.533087,33531.329173
1145.967049,-14785.643111,-74.020594,35011.741057
1145.967368,-15092.081311,11473.192101,32717.102636
1145.967687,-6281.983084,21539.992912,20873.807564
1145.968006,0.000000,29312.155303,8586.388927
1145.968324,4979.620737,35529.885216,-4219.173869
1145.968643,14019.547613,31532.773129,-11695.253884
1145.968962,16700.881856,21910.095883,-22798.343014
1145.969281,16777.491406,-2960.823768,-15692.365970
1145.969600,16088.005458,-14285.974681,-2368.659014
1145.969918,6205.373534,-17912.983796,-4737.318029
1145.970237,-1991.848295,-20873.807564,-2812.782580
1145.970556,-4903.011187,-29756.278868,20577.725188
1145.970875,-3907.087040,-32198.958477,37232.358883
1145.971194,-8197.221829,-22724.322419,35159.782245
1145.971512,-12180.918418,-5921.647536,32717.102636
1145.971831,-12257.527968,8734.430116,32717.102636
1145.972150,-4443.353888,19245.354492,28127.825796
1145.972469,-766.095498,29608.237680,17246.798449
1145.972787,5362.668486,28275.866984,7031.956449
1145.973106,11491.432470,29164.114115,-5995.668130
1145.973425,18079.853753,26351.331535,-20725.766376
1145.973744,21220.845295,10066.800811,-21688.034101
1145.974063,17313.758255,-8216.285956,-13175.665768
1145.974381,10342.289223,-18283.086767,-1702.473667
1145.974700,5975.544884,-19023.292709,-5107.421000
1145.975019,-995.924147,-17098.757260,-1406.391290
1145.975338,-6435.202183,-26647.413912,21836.075289
1145.975657,-8044.002729,-29460.196492,38046.585419
1145.975975,-10112.460574,-18875.251521,40563.285622
1145.976294,-14785.643111,-4293.194464,28349.887579
1145.976613,-13483.280765,7476.080014,28719.990550
1145.976932,-9806.022374,18061.024985,24722.878463
1145.977250,-1302.362347,21688.034101,15618.345376
1145.977569,4596.572988,26795.455100,3330.926739
1145.977888,8733.488677,29460.196492,-12583.501014
1145.978207,13100.233016,26943.496289,-23834.631332
1145.978526,15398.519510,8068.244768,-23612.569550
1145.978844,10955.165621,-11473.192101,-8512.368333
1145.979163,4443.353888,-19837.519246,-2738.761985
1145.979482,-1608.800546,-18431.127956,-7846.182985
1145.979801,-7048.078582,-26647.413912,7994.224174
1145.980120,-10342.289223,-35677.926404,23686.590144
1145.980438,-10418.898773,-28719.990550,40267.203245
1145.980757,-13023.623466,-13471.748144,40119.162056
1145.981076,-14709.033562,4071.132681,27165.558071
1145.981395,-13483.280765,14582.057057,25092.981434
1145.981713,-9422.974625,26129.269753,18283.086767
1145.982032,-1455.581446,25833.187376,5551.544565
1145.982351,5209.449386,30718.546593,-3404.947333
1145.982670,12410.747068,33087.205607,-10732.986159
1145.982989,15245.300410,20725.766376,-26573.393318
1145.983307,17160.539155,444.123565,-20133.601622
1145.983626,12870.404366,-14508.036463,1258.350101
1145.983945,4596.572988,-23464.528361,-1628.453072
1145.984264,-229.828649,-20503.704593,-4293.194464
1145.984583,-3753.867940,-27535.661042,12953.603985
1145.984901,-7124.688131,-24944.940245,27757.722825
1145.985220,-8197.221829,-23686.590144,46558.953752
1145.985539,-10495.508323,-5329.482782,42117.718100
1145.985858,-10035.851024,10288.862594,28053.805202
1145.986176,-7660.954980,21688.034101,18875.251521
1145.986495,995.924147,19171.333898,25241.022622
1145.986814,9039.926876,29164.114115,10658.965565
1145.987133,11414.822920,29090.093521,-7994.224174
1145.987452,18233.072852,27461.640448,-17987.004391
1145.987770,24898.103685,17912.983796,-22132.157666
1145.988089,19612.044749,-4589.276840,-19837.519246
1145.988408,15704.957709,-20429.683999,2146.597232
1145.988727,10418.898773,-21465.972318,1850.514855
1145.989046,459.657299,-18135.045579,-4515.256246
1145.989364,76.609550,-24426.796086,21762.054695
1145.989683,-1762.019645,-28053.805202,43598.129984
1145.990002,-4903.011187,-13693.809927,44708.438897
1145.990321,-6052.154434,7402.059420,32791.123231
1145.990639,-2834.553343,17987.004391,22354.219448
1145.990958,-2451.505594,35455.864622,12435.459826
1145.991277,7048.078582,24796.899057,13101.645173
1145.991596,6205.373534,36936.276506,-10732.986159
1145.991915,10265.679673,33679.370361,-17616.901420
1145.992233,11951.089769,21984.116477,-21317.931130
1145.992552,10342.289223,1258.350101,-18135.045579
1145.992871,11874.480219,-12731.542202,-2146.597232
1145.993190,689.485948,-21984.116477,-3404.947333
1145.993509,-2681.334243,-24056.693115,8290.306550
1145.993828,-5898.935335,-25611.125593,24722.878463
1145.994147,-4903.011187,-17987.004391,36344.111752
1145.994466,-4903.011187,-8660.409521,41821.635723
1145.994784,-5592.497135,12139.377449,29460.196492
1145.995103,-8120.612279,22280.198854,19763.498651
1145.995422,-2681.334243,30570.505405,13471.748144
1145.995741,689.485948,30422.464216,5847.626942
1145.996060,2221.676944,35159.782245,-13323.706956
1145.996379,3140.991542,28275.866984,-12139.377449
1145.996698,6128.763984,9770.718434,-18283.086767
1145.997016,6894.859482,-814.226536,-15322.262999
1145.997335,3447.429741,-16062.468941,-3701.029710
1145.997654,-2987.772442,-29830.299463,15174.221811
1145.997973,-2298.286494,-32569.061448,19689.478057
1145.998292,-689.485948,-23316.487173,26869.475695
1145.998611,-842.705048,-13619.789333,34345.555709
1145.998930,842.705048,-5625.565159,39971.120868
1145.999249,383.047749,10732.986159,26573.393318
1145.999567,459.657299,24648.857869,21391.951724
1145.999886,3983.696590,31162.670158,7550.100608
1146.000205,4213.525239,31384.731941,-3923.091493
1146.000524,6665.030833,33901.432144,-11251.130318
1146.000843,7354.516781,13619.789333,-13397.727550
1146.001162,4519.963438,-666.185348,-8290.306550
1146.001481,6665.030833,-11473.192101,-5255.462188
1146.001800,3983.696590,-16580.613101,2738.761985
1146.002118,766.095498,-28942.052332,15174.221811
1146.002437,-306.438199,-30274.423028,25167.002028
1146.002756,4213.525239,-15544.324782,30052.361245
1146.003075,5515.887586,-5403.503377,24574.837274
1146.003394,1532.190996,-1480.411884,24352.775492
1146.003713,1838.629195,14952.160028,21317.931130
1146.004032,1608.800546,16802.674883,17468.860231
1146.004351,3064.381992,27979.784608,-3552.988522
1146.004669,4596.572988,28645.969955,-7624.121203
1146.004988,4749.792088,13175.665768,-11399.171507
1146.005307,4519.963438,6291.750507,-14285.974681
1146.005626,7354.516781,-2368.659014,-370.102971
1146.005945,6818.249932,-14063.912898,6735.874072
1146.006264,5056.230287,-12361.439231,8142.265362
1146.006583,4903.011187,-19615.457463,23242.466579
1146.006902,5822.325785,-14359.995275,23168.445985
1146.007220,9039.926876,-2072.576638,16802.674883
1146.007539,4596.572988,5329.482782,11843.295072
1146.007858,766.095498,5107.421000,15322.262999
1146.008177,995.924147,10510.924376,14952.160028
1146.008496,-1378.971896,17468.860231,-814.226536
1146.008815,-2298.286494,19319.375086,-3997.112087
1146.009134,-1225.752797,11843.295072,962.267725
1146.009452,-1302.362347,740.205942,592.164754
1146.009771,-1225.752797,-3849.070898,4515.256246
1146.010090,1378.971896,-3256.906145,15174.221811
1146.010409,3217.601092,-3404.947333,13397.727550
1146.010728,5515.887586,-2294.638420,13545.768739
1146.011047,8273.831378,-1998.556043,19837.519246
1146.011366,7431.126331,666.185348,9992.780217
1146.011685,5975.544884,6735.874072,-888.247130
1146.012003,3524.039291,10362.883188,1332.370696
1146.012322,-1072.533697,5773.606348,7550.100608
1146.012641,-3907.087040,5625.565159,5921.647536
1146.012960,-5745.716235,5995.668130,4959.379811
1146.013279,-6205.373534,3775.050304,11103.089130
1146.013598,-5898.935335,1110.308913,12361.439231
1146.013917,-1838.629195,2220.617826,10362.883188
1146.014236,-1378.971896,2146.597232,10658.965565
1146.014554,1532.190996,3478.967927,16580.613101
1146.014873,3600.648841,4663.297435,14878.139434
1146.015192,5669.106685,2812.782580,10288.862594
1146.015511,6358.592633,-2664.741391,9400.615463
1146.015830,6741.640382,-4663.297435,11251.130318
1146.016149,7890.783629,-666.185348,6217.729913
1146.016468,7354.516781,6069.688724,3182.885551
1146.016787,6205.373534,8142.265362,5995.668130
1146.017105,3294.210641,7031.956449,9030.512492
1146.017424,1455.581446,7846.182985,10955.047942
1146.017743,995.924147,8882.471304,9474.636058
1146.018062,1072.533697,8956.491898,7698.141797
1146.018381,1915.238745,1998.556043,9474.636058
1146.018700,2451.505594,-3627.009116,13693.809927
1146.019019,3140.991542,-7254.018232,17616.901420
1146.019338,2374.896044,-7550.100608,19023.292709
1146.019656,2757.943793,-7179.997637,16210.510130
1146.019975,4903.011187,-3182.885551,13175.665768
1146.020294,6435.202183,4811.338623,8956.491898
1146.020613,7507.735880,13101.645173,2294.638420
1146.020932,7201.297681,15766.386565,-444.123565
1146.021251,5592.497135,13693.809927,444.123565
1146.021570,4749.792088,8586.388927,4589.276840
1146.021888,1762.019645,3256.906145,7772.162391
1146.022207,459.657299,-1628.453072,11103.089130
1146.022526,-383.047749,-5033.400406,12065.356855
1146.022845,-459.657299,-6143.709319,13989.892304
1146.023164,689.485948,-3775.050304,15470.304188
1146.023483,1149.143247,1110.308913,14730.098246
1146.023802,1608.800546,6365.771101,12805.562797
1146.024121,1532.190996,10140.821405,8438.347739
1146.024439,2681.334243,11103.089130,3775.050304
1146.024758,3370.820191,9104.533087,2960.823768
1146.025077,3370.820191,6069.688724,1628.453072
1146.025396,3677.258390,1332.370696,2886.803174
1146.025715,2451.505594,-1924.535449,4663.297435
1146.026034,2145.067394,-2072.576638,7772.162391
1146.026353,919.314598,-1332.370696,10214.842000
1146.026672,0.000000,518.144159,11103.089130
1146.026990,-689.485948,3256.906145,10436.903782
1146.027309,-459.657299,4145.153275,10807.006753
1146.027628,153.219100,5403.503377,12065.356855
1146.027947,1838.629195,5107.421000,13471.748144
1146.028266,2528.115143,4515.256246,11917.315666
1146.028585,3524.039291,888.247130,10584.944971
1146.028904,5286.058936,-1110.308913,10436.903782
1146.029223,7431.126331,-1998.556043,8290.306550
1146.029541,7507.735880,-1480.411884,5181.441594
1146.029860,7660.954980,1258.350101,3182.885551
1146.030179,7201.297681,3404.947333,4367.215058
1146.030498,5975.544884,5551.544565,5773.606348
1146.030817,3983.696590,6143.709319,6291.750507
1146.031136,1915.238745,4663.297435,9474.636058
1146.031455,306.438199,1850.514855,10584.944971
1146.031774,-689.485948,-74.020594,12805.562797
1146.032092,-766.095498,-2590.720797,15470.304188
1146.032411,-1302.362347,-2220.617826,15766.386565
1146.032730,-459.657299,-2294.638420,14656.077652
1146.033049,229.828649,-1628.453072,13989.892304
1146.033368,1838.629195,518.144159,11991.336260
1146.033687,3753.867940,3849.070898,8586.388927
1146.034006,5132.839837,6439.791695,6069.688724
1146.034324,6281.983084,7920.203579,3997.112087
1146.034643,6128.763984,7698.141797,3775.050304
1146.034962,5209.449386,6143.709319,4367.215058
1146.035281,3830.477490,4145.153275,5551.544565
1146.035600,2451.505594,1702.473667,7031.956449
1146.035919,383.047749,222.061783,8882.471304
1146.036238,0.000000,-222.061783,10955.047942
1146.036557,-689.485948,-222.061783,13915.871710
1146.036875,-1378.971896,-0.000000,15174.221811
1146.037194,-1225.752797,2072.576638,14952.160028
1146.037513,-612.876398,3256.906145,13915.871710
1146.037832,1149.143247,4441.235652,12361.439231
1146.038151,2987.772442,5255.462188,9326.594869
1146.038470,4749.792088,5477.523971,7105.977043
1146.038789,5745.716235,5625.565159,4367.215058
1146.039108,6358.592633,4885.359217,2738.761985
1146.039426,6665.030833,4219.173869,3627.009116
1146.039745,5209.449386,2664.741391,5477.523971
1146.040064,4290.134789,2886.803174,6069.688724
1146.040383,2528.115143,3182.885551,7772.162391
1146.040702,1378.971896,2590.720797,10436.903782
1146.041021,76.609550,1776.494261,12731.542202
1146.041340,-459.657299,1110.308913,14063.912898
1146.041659,-1149.143247,814.226536,13989.892304
1146.041977,-1225.752797,518.144159,13249.686362
1146.042296,-766.095498,296.082377,12139.377449
1146.042615,0.000000,592.164754,10066.800811
1146.042934,1072.533697,1628.453072,8364.327145
1146.043253,2145.067394,3330.926739,6809.894666
1146.043572,2911.162892,4589.276840,5255.462188
1146.043891,4136.915689,4589.276840,5403.503377
1146.044210,4443.353888,4219.173869,6883.915261
1146.044528,4136.915689,4145.153275,6735.874072
1146.044847,3294.210641,2886.803174,7698.141797
1146.045166,2681.334243,1036.288319,9474.636058
1146.045485,2068.457845,-296.082377,11251.130318
1146.045804,1072.533697,-1184.329507,11991.336260
1146.046123,-153.219100,-1480.411884,12805.562797
1146.046442,-459.657299,-814.226536,12361.439231
1146.046760,-766.095498,222.061783,11399.171507
1146.047079,-459.657299,1184.329507,10436.903782
1146.047398,0.000000,2146.597232,9918.759623
1146.047717,612.876398,2812.782580,8512.368333
1146.048036,1762.019645,2220.617826,8290.306550
1146.048355,2528.115143,1406.391290,7920.203579
1146.048674,4060.306139,1110.308913,8364.327145
1146.048993,4443.353888,740.205942,7105.977043
1146.049311,4366.744339,370.102971,7920.203579
1146.049630,4366.744339,296.082377,8882.471304
1146.049949,3140.991542,518.144159,9474.636058
1146.050268,2451.505594,1110.308913,10140.821405
1146.050587,1378.971896,1480.411884,10584.944971
1146.050906,153.219100,1998.556043,10732.986159
1146.051225,536.266849,1998.556043,10807.006753
1146.051544,842.705048,1702.473667,10510.924376
1146.051862,1608.800546,1406.391290,10510.924376
1146.052181,1915.238745,1184.329507,9918.759623
1146.052500,3447.429741,1036.288319,10140.821405
1146.052819,4290.134789,1998.556043,8956.491898
1146.053138,5132.839837,2368.659014,8956.491898
1146.053457,5975.544884,2516.700203,9030.512492
1146.053776,6128.763984,3108.864956,8438.347739
1146.054095,5745.716235,3552.988522,7550.100608
1146.054413,5439.278036,4367.215058,7846.182985
1146.054732,4519.963438,3404.947333,8512.368333
1146.055051,3524.039291,2812.782580,8734.430116
1146.055370,2221.676944,2516.700203,8142.265362
1146.055689,612.876398,1332.370696,9030.512492
1146.056008,-842.705048,666.185348,10510.924376
1146.056327,-1991.848295,814.226536,10807.006753
1146.056645,-2374.896044,1258.350101,11917.315666
1146.056964,-3217.601092,1480.411884,12583.501014
1146.057283,-2374.896044,1924.535449,12879.583391
1146.057602,-1532.190996,2516.700203,12287.418637
1146.057921,0.000000,3478.967927,11991.336260
1146.058240,1838.629195,4811.338623,10066.800811
1146.058559,3370.820191,4885.359217,7772.162391
1146.058878,4596.572988,5107.421000,5995.668130
1146.059196,5286.058936,4663.297435,5403.503377
1146.059515,5592.497135,3701.029710,5107.421000
1146.059834,5209.449386,2886.803174,5329.482782
1146.060153,4979.620737,2516.700203,6735.874072
1146.060472,4673.182538,2886.803174,8438.347739
1146.060791,4060.306139,3108.864956,9326.594869
1146.061110,4060.306139,3478.967927,9918.759623
1146.061429,4060.306139,4293.194464,10140.821405
1146.061747,4443.353888,5921.647536,9400.615463
1146.062066,5209.449386,6735.874072,7402.059420
1146.062385,6741.640382,6587.832884,6735.874072
1146.062704,7584.345430,6069.688724,6069.688724
1146.063023,8427.050478,5255.462188,5551.544565
1146.063342,9116.536426,4663.297435,5181.441594
1146.063661,9193.145976,4293.194464,5551.544565
1146.063980,8810.098227,4811.338623,6217.729913
1146.064298,8044.002729,5625.565159,5773.606348
1146.064617,7277.907231,6217.729913,5477.523971
1146.064936,6128.763984,6365.771101,6587.832884
1146.065255,4749.792088,5181.441594,7105.977043
1146.065574,3064.381992,4071.132681,8586.388927
1146.065893,1302.362347,2664.741391,9844.739029
1146.066212,459.657299,1850.514855,11399.171507
1146.066531,-153.219100,1258.350101,11991.336260
1146.066849,-459.657299,1554.432478,11695.253884
1146.067168,0.000000,2072.576638,11103.089130
1146.067487,459.657299,2220.617826,9992.780217
1146.067806,842.705048,2442.679609,10066.800811
1146.068125,995.924147,2590.720797,9400.615463
1146.068444,1149.143247,2664.741391,8882.471304
1146.068763,1072.533697,2442.679609,8882.471304
1146.069081,612.876398,1184.329507,9030.512492
1146.069400,76.609550,222.061783,9770.718434
1146.069719,-383.047749,-1036.288319,11325.150913
1146.070038,-1455.581446,-1332.370696,12287.418637
1146.070357,-1685.410096,-1110.308913,13915.871710
1146.070676,-2528.115143,-370.102971,13915.871710
1146.070995,-2528.115143,1036.288319,14137.933492
1146.071314,-1991.848295,1332.370696,13175.665768
1146.071632,-1225.752797,1184.329507,11695.253884
1146.071951,-459.657299,740.205942,10436.903782
1146.072270,229.828649,-296.082377,9474.636058
1146.072589,842.705048,-1480.411884,9252.574275
1146.072908,2221.676944,-2442.679609,9474.636058
1146.073227,2298.286494,-3256.906145,9918.759623
1146.073546,3064.381992,-3034.844362,10658.965565
1146.073865,3447.429741,-888.247130,10881.027347
1146.074183,4136.915689,2146.597232,9918.759623
1146.074502,4443.353888,4663.297435,9104.533087
1146.074821,4366.744339,6291.750507,7994.224174
1146.075140,4136.915689,6883.915261,7031.956449
1146.075459,3753.867940,5329.482782,6957.935855
1146.075778,3524.039291,2738.761985,7179.997637
1146.076097,3140.991542,592.164754,7254.018232
1146.076416,3294.210641,-1628.453072,8142.265362
1146.076734,3907.087040,-2442.679609,8364.327145
1146.077053,3830.477490,-3108.864956,10288.862594
1146.077372,3907.087040,-1110.308913,10955.047942
1146.077691,4749.792088,1554.432478,9696.697840
1146.078010,4673.182538,4885.359217,7550.100608
1146.078329,4596.572988,8512.368333,4737.318029
1146.078648,4213.525239,9252.574275,3627.009116
1146.078967,3217.601092,8808.450710,2886.803174
1146.079285,2298.286494,5921.647536,3330.926739
1146.079604,1149.143247,2146.597232,4737.318029
1146.079923,306.438199,-518.144159,7476.080014
1146.080242,1149.143247,-1850.514855,10955.047942
1146.080561,612.876398,-1184.329507,11029.068536
1146.080880,1762.019645,-444.123565,11917.315666
1146.081199,1532.190996,2368.659014,10658.965565
1146.081517,2221.676944,4589.276840,9474.636058
1146.081836,2298.286494,5995.668130,7624.121203
1146.082155,1608.800546,7254.018232,5329.482782
1146.082474,2374.896044,5255.462188,5329.482782
1146.082793,1532.190996,4219.173869,5477.523971
1146.083112,2221.676944,2146.597232,7772.162391
1146.083431,1532.190996,444.123565,8586.388927
1146.083750,1915.238745,740.205942,10362.883188
1146.084068,2987.772442,1406.391290,11473.192101
1146.084387,3983.696590,3923.091493,11103.089130
1146.084706,4519.963438,5403.503377,10510.924376
1146.085025,5362.668486,4811.338623,11325.150913
1146.085344,5209.449386,5329.482782,10658.965565
1146.085663,5286.058936,5403.503377,9474.636058
1146.085982,5745.716235,4145.153275,8512.368333
1146.086301,3830.477490,3256.906145,7772.162391
1146.086619,3140.991542,592.164754,9326.594869
1146.086938,1838.629195,-148.041188,8734.430116
1146.087257,689.485948,-814.226536,11177.109724
1146.087576,0.000000,-740.205942,13989.892304
1146.087895,-612.876398,1480.411884,14137.933492
1146.088214,536.266849,2738.761985,14804.118840
1146.088533,1225.752797,3923.091493,14582.057057
1146.088851,1991.848295,4737.318029,13323.706956
1146.089170,3753.867940,3478.967927,11843.295072
1146.089489,4290.134789,3034.844362,10066.800811
1146.089808,4979.620737,2220.617826,9252.574275
1146.090127,4443.353888,1924.535449,8216.285956
1146.090446,3524.039291,2072.576638,6291.750507
1146.090764,4443.353888,2294.638420,6143.709319
1146.091083,2528.115143,3256.906145,5477.523971
1146.091402,1838.629195,2146.597232,7920.203579
1146.091721,0.000000,1554.432478,9474.636058
1146.092040,-995.924147,2516.700203,12287.418637
1146.092358,-1532.190996,1480.411884,14878.139434
1146.092677,-2068.457845,1184.329507,15248.242405
1146.092996,-1302.362347,1554.432478,15248.242405
1146.093315,-306.438199,2294.638420,12953.603985
1146.093634,919.314598,2664.741391,9992.780217
1146.093953,2757.943793,3997.112087,7550.100608
1146.094271,4213.525239,6365.771101,5181.441594
1146.094590,5439.278036,6883.915261,2516.700203
1146.094909,6052.154434,6291.750507,1480.411884
1146.095228,5745.716235,5329.482782,1776.494261
1146.095547,6128.763984,3701.029710,3404.947333
1146.095865,4519.963438,1184.329507,5403.503377
1146.096184,3217.601092,-592.164754,9622.677246
1146.096503,2374.896044,-1702.473667,13101.645173
1146.096822,919.314598,-1998.556043,15174.221811
1146.097141,1455.581446,-592.164754,16728.654289
1146.097460,2068.457845,2294.638420,14730.098246
1146.097778,2911.162892,4515.256246,11399.171507
1146.098097,5056.230287,6735.874072,9030.512492
1146.098416,6052.154434,8068.244768,4959.379811
1146.098735,7660.954980,7624.121203,1406.391290
1146.099054,8427.050478,6439.791695,148.041188
1146.099373,8197.221829,3849.070898,148.041188
1146.099691,7660.954980,-222.061783,2220.617826
1146.100010,5439.278036,-2960.823768,5181.441594
1146.100329,4903.011187,-4663.297435,9252.574275
1146.100648,1838.629195,-4589.276840,12583.501014
1146.100967,689.485948,-3330.926739,16136.489536
1146.101285,-1608.800546,-666.185348,17838.963202
1146.101604,-1838.629195,2886.803174,16284.530724
1146.101923,-1455.581446,5033.400406,14582.057057
1146.102242,-383.047749,6883.915261,12139.377449
1146.102561,919.314598,7550.100608,8364.327145
1146.102880,2451.505594,8438.347739,2664.741391
1146.103198,3753.867940,6217.729913,1850.514855
1146.103517,3907.087040,3849.070898,888.247130
1146.103836,3907.087040,-0.000000,1332.370696
1146.104155,3064.381992,-2590.720797,3552.988522
1146.104474,842.705048,-3701.029710,6809.894666
1146.104793,-459.657299,-3997.112087,10955.047942
1146.105111,-2068.457845,-2664.741391,15396.283594
1146.105430,-2987.772442,-666.185348,17987.004391
1146.105749,-3600.648841,-74.020594,19023.292709
1146.106068,-3907.087040,3701.029710,18431.127956
1146.106387,-1378.971896,4737.318029,16284.530724
1146.106705,76.609550,6513.812290,13619.789333
1146.107024,3524.039291,8364.327145,9400.615463
1146.107343,6588.421283,8290.306550,5403.503377
1146.107662,8120.612279,8290.306550,518.144159
1146.107981,9652.803275,6143.709319,-1924.535449
1146.108300,10112.460574,3478.967927,-962.267725
1146.108618,8963.317327,1702.473667,74.020594
1146.108937,6818.249932,-2442.679609,3849.070898
1146.109256,3140.991542,-3034.844362,8068.244768
1146.109575,-153.219100,-5033.400406,15100.201217
1146.109894,-3140.991542,-5107.421000,18653.189738
1146.110213,-5515.887586,-3182.885551,20799.786970
1146.110531,-5975.544884,-1184.329507,21539.992912
1146.110850,-5669.106685,1480.411884,18653.189738
1146.111169,-5132.839837,4219.173869,15026.180623
1146.111488,-2528.115143,6365.771101,13545.768739
1146.111807,-383.047749,9326.594869,8290.306550
1146.112125,2911.162892,9474.636058,2738.761985
1146.112444,5898.935335,7698.141797,444.123565
1146.112763,6358.592633,3701.029710,-1184.329507
1146.113082,6971.469032,-1554.432478,-296.082377
1146.113401,5975.544884,-3478.967927,888.247130
1146.113720,3294.210641,-4737.318029,4737.318029
1146.114038,919.314598,-6365.771101,10732.986159
1146.114357,-2528.115143,-4589.276840,15914.427753
1146.114676,-5056.230287,-2960.823768,18949.272115
1146.114995,-7507.735880,-1036.288319,19171.333898
1146.115314,-8044.002729,444.123565,18431.127956
1146.115633,-7660.954980,2294.638420,16802.674883
1146.115951,-5975.544884,4219.173869,13471.748144
1146.116270,-4213.525239,3330.926739,11103.089130
1146.116589,-1302.362347,3701.029710,7254.018232
1146.116908,1915.238745,2664.741391,2368.659014
1146.117227,4903.011187,740.205942,-1110.308913
1146.117545,5822.325785,-2220.617826,-1554.432478
1146.117864,6358.592633,-4737.318029,1184.329507
1146.118183,5362.668486,-6217.729913,2368.659014
1146.118502,2298.286494,-6809.894666,8290.306550
1146.118821,0.000000,-6957.935855,14804.118840
1146.119140,-2757.943793,-4737.318029,19245.354492
1146.119458,-4673.182538,-3256.906145,20281.642811
1146.119777,-3753.867940,-1036.288319,18653.189738
1146.120096,-4826.401637,3997.112087,15544.324782
1146.120415,-2068.457845,5107.421000,13619.789333
1146.120734,766.095498,6069.688724,8586.388927
1146.121052,2987.772442,7328.038826,2072.576638
1146.121371,4903.011187,5255.462188,-1480.411884
1146.121690,6358.592633,1332.370696,-3701.029710
1146.122009,7660.954980,-2516.700203,-1776.494261
1146.122328,7660.954980,-6217.729913,-814.226536
1146.122647,5209.449386,-8290.306550,3256.906145
1146.122965,3830.477490,-9104.533087,9622.677246
1146.123284,766.095498,-7328.038826,14804.118840
1146.123603,-1838.629195,-4145.153275,19837.519246
1146.123922,-4596.572988,-2146.597232,20281.642811
1146.124241,-5209.449386,592.164754,19541.436869
1146.124560,-5439.278036,7031.956449,14211.954086
1146.124878,-3370.820191,7476.080014,11547.212695
1146.125197,-842.705048,9696.697840,8438.347739
1146.125516,2528.115143,10214.842000,4737.318029
1146.125835,5286.058936,7772.162391,-148.041188
1146.126154,6511.811733,4959.379811,-4293.194464
1146.126472,6435.202183,-1406.391290,-3034.844362
1146.126791,5745.716235,-8068.244768,444.123565
1146.127110,2834.553343,-11695.253884,4441.235652
1146.127429,459.657299,-11769.274478,10214.842000
1146.127748,-2451.505594,-9474.636058,16210.510130
1146.128067,-4903.011187,-5403.503377,22206.178260
1146.128385,-5975.544884,-296.082377,23760.610738
1146.128704,-6128.763984,4885.359217,22354.219448
1146.129023,-5975.544884,10436.903782,19689.478057
1146.129342,-3600.648841,12065.356855,14137.933492
1146.129661,-766.095498,15100.201217,8660.409521
1146.129980,2834.553343,16506.592507,4441.235652
1146.130298,5975.544884,11991.336260,-370.102971
1146.130617,8350.440928,7254.018232,-6809.894666
1146.130936,9576.193725,518.144159,-5995.668130
1146.131255,7201.297681,-9770.718434,-1258.350101
1146.131574,4903.011187,-13249.686362,5107.421000
1146.131892,2068.457845,-11917.315666,9844.739029
1146.132211,-766.095498,-8142.265362,17098.757260
1146.132530,-4903.011187,-5625.565159,22280.198854
1146.132849,-6588.421283,-444.123565,24574.837274
1146.133168,-6588.421283,4959.379811,23760.610738
1146.133487,-6894.859482,11991.336260,17246.798449
1146.133805,-5362.668486,9622.677246,15100.201217
1146.134124,-2604.724693,14804.118840,10658.965565
1146.134443,1685.410096,16432.571912,4663.297435
1146.134762,4366.744339,9696.697840,962.267725
1146.135081,5822.325785,6587.832884,-3478.967927
1146.135400,8350.440928,148.041188,-3552.988522
1146.135718,8120.612279,-6957.935855,-3108.864956
1146.136037,6281.983084,-11917.315666,1406.391290
1146.136356,2987.772442,-15174.221811,9030.512492
1146.136675,-459.657299,-13397.727550,15914.427753
1146.136994,-3753.867940,-11029.068536,23316.487173
1146.137312,-6818.249932,-5921.647536,26869.475695
1146.137631,-8733.488677,-1258.350101,26055.249158
1146.137950,-7431.126331,5255.462188,23094.425390
1146.138269,-5209.449386,11695.253884,17764.942608
1146.138588,-2374.896044,11621.233289,10881.027347
1146.138907,689.485948,15026.180623,7994.224174
1146.139225,4979.620737,11917.315666,1628.453072
1146.139544,8656.879127,9030.512492,-8512.368333
1146.139863,9806.022374,1850.514855,-10658.965565
1146.140182,10495.508323,-7994.224174,-5625.565159
1146.140501,9346.365076,-16876.695478,-962.267725
1146.140820,5745.716235,-21095.869347,5329.482782
1146.141138,766.095498,-18949.272115,11399.171507
1146.141457,-3907.087040,-16358.551318,21614.013506
1146.141776,-7354.516781,-9548.656652,25685.146187
1146.142095,-9806.022374,-1924.535449,26129.269753
1146.142414,-9806.022374,2516.700203,23612.569550
1146.142732,-9729.412825,10881.027347,15988.448347
1146.143051,-4826.401637,9844.739029,13027.624579
1146.143370,-1991.848295,18801.230927,7179.997637
1146.143689,3524.039291,17616.901420,2516.700203
1146.144008,6281.983084,9104.533087,-6883.915261
1146.144327,9729.412825,7476.080014,-13397.727550
1146.144645,11108.384721,-4737.318029,-11399.171507
1146.144964,8273.831378,-15470.304188,-9696.697840
1146.145283,5898.935335,-22428.240043,0.000000
1146.145602,229.828649,-21836.075289,7920.203579
1146.145921,-5592.497135,-17987.004391,15470.304188
1146.146239,-9346.365076,-13693.809927,27313.599260
1146.146558,-13100.233016,-7550.100608,32198.958477
1146.146877,-12257.527968,2146.597232,27831.743419
1146.147196,-10955.165621,11399.171507,20947.828159
1146.147515,-4060.306139,14211.954086,15544.324782
1146.147834,-2298.286494,25315.043216,10510.924376
1146.148152,3370.820191,18431.127956,4589.276840
1146.148471,5669.106685,18505.148550,-5847.626942
1146.148790,12334.137518,12139.377449,-12287.418637
1146.149109,12257.527968,1406.391290,-18357.107362
1146.149428,8427.050478,-15026.180623,-13545.768739
1146.149747,5669.106685,-20207.622217,592.164754
1146.150065,1455.581446,-24722.878463,6365.771101
1146.150384,-4060.306139,-16136.489536,15470.304188
1146.150703,-7507.735880,-14656.077652,27239.578666
1146.151022,-11261.603821,-6587.832884,33753.390955
1146.151341,-12104.308868,296.082377,33087.205607
1146.151659,-10342.289223,12731.542202,24426.796086
1146.151978,-8120.612279,18283.086767,21614.013506
1146.152297,-1149.143247,18727.210333,17987.004391
1146.152616,3370.820191,25981.228564,11473.192101
1146.152935,6665.030833,17764.942608,148.041188
1146.153254,10648.727422,16950.716072,-7772.162391
1146.153572,14785.643111,12361.439231,-18875.251521
1146.153891,16011.395908,-6291.750507,-15692.365970
1146.154210,13253.452115,-16580.613101,-7254.018232
1146.154529,7584.345430,-20873.807564,4441.235652
1146.154848,995.924147,-18061.024985,9326.594869
1146.155167,-4366.744339,-13323.706956,19319.375086
1146.155485,-8503.660028,-14952.160028,34493.596897
1146.155804,-15015.471761,-7698.141797,35899.988187
1146.156123,-14479.204912,2442.679609,32717.102636
1146.156442,-12640.575717,12731.542202,22058.137072
1146.156761,-5898.935335,12879.583391,16654.633695
1146.157079,536.266849,21317.931130,16950.716072
1146.157398,5056.230287,22872.363608,8882.471304
1146.157717,10572.117872,25463.084405,-5329.482782
1146.158036,11338.213370,18357.107362,-16876.695478
1146.158355,15321.909960,5921.647536,-15618.345376
1146.158674,14785.643111,-11251.130318,-12953.603985
1146.158992,10035.851024,-19615.457463,-5477.523971
1146.159311,3140.991542,-23094.425390,2368.659014
1146.159630,-612.876398,-23612.569550,15470.304188
1146.159949,-6665.030833,-21614.013506,26055.249158
1146.160268,-10725.336972,-15544.324782,36418.132346
1146.160587,-11797.870669,222.061783,34493.596897
1146.160905,-11721.261119,14285.974681,20059.581028
1146.161224,-8350.440928,14656.077652,19245.354492
1146.161543,-2834.553343,16876.695478,24648.857869
1146.161862,536.266849,23464.528361,12731.542202
1146.162181,3447.429741,27535.661042,-4071.132681
1146.162499,9806.022374,21762.054695,-9104.533087
1146.162818,13483.280765,14878.139434,-21539.992912
1146.163137,12027.699319,-3478.967927,-22206.178260
1146.163456,10035.851024,-22946.384202,-6291.750507
1146.163775,2068.457845,-27387.619854,74.020594
1146.164094,-4443.353888,-26203.290347,5329.482782
1146.164412,-8350.440928,-24056.693115,19319.375086
1146.164731,-11721.261119,-23760.610738,35455.864622
1146.165050,-15398.519510,-11547.212695,41081.429781
1146.165369,-14555.814462,1554.432478,30644.525999
1146.165688,-10955.165621,12731.542202,20873.807564
1146.166006,-3983.696590,17468.860231,18949.272115
1146.166325,-2757.943793,18949.272115,16506.592507
1146.166644,3677.258390,14952.160028,7328.038826
1146.166963,7814.174080,28868.031738,-12657.521608
1146.167282,15781.567259,20429.683999,-25463.084405
1146.167601,13866.328514,3849.070898,-28201.846390
1146.167919,14325.985813,-15544.324782,-13545.768739
1146.168238,9039.926876,-28275.866984,-5477.523971
1146.168557,1991.848295,-24648.857869,-1702.473667
1146.168876,-1838.629195,-30940.608376,15322.262999
1146.169195,-8120.612279,-27165.558071,26055.249158
1146.169514,-10801.946522,-21614.013506,42857.924042
1146.169832,-10801.946522,-6809.894666,41747.615129
1146.170151,-9269.755526,11029.068536,22502.260637
1146.170470,-4673.182538,17098.757260,20207.622217
1146.170789,2145.067394,25833.187376,21169.889941
1146.171108,1991.848295,19985.560434,15322.262999
1146.171426,7890.783629,28719.990550,1776.494261
1146.171745,11184.994271,28497.928767,-15100.201217
1146.172064,14325.985813,19541.436869,-26351.331535
1146.172383,17773.415554,-962.267725,-24870.919651
1146.172702,12487.356617,-20281.642811,-7624.121203
1146.173021,6358.592633,-28942.052332,-518.144159
1146.173339,-2987.772442,-26055.249158,3404.947333
1146.173658,-6052.154434,-26647.413912,24278.754898
1146.173977,-8656.879127,-27831.743419,37676.482448
1146.174296,-13406.671215,-14137.933492,41229.470969
1146.174615,-11568.042020,1406.391290,34049.473332
1146.174934,-8810.098227,12583.501014,20503.704593
1146.175252,-7354.516781,20947.828159,15544.324782
1146.175571,-1915.238745,18949.272115,25315.043216
1146.175890,3983.696590,30644.525999,15988.448347
1146.176209,9652.803275,36714.214723,-10362.883188
1146.176528,13100.233016,35011.741057,-24426.796086
1146.176846,15015.471761,17616.901420,-23538.548956
1146.177165,15781.567259,-6365.771101,-19911.539840
1146.177484,8656.879127,-21614.013506,-11843.295072
1146.177803,2221.676944,-31384.731941,5699.585753
1146.178122,-4673.182538,-27979.784608,13471.748144
1146.178441,-10572.117872,-29830.299463,27387.619854
1146.178759,-11568.042020,-24056.693115,43450.088795
1146.179078,-13942.938064,-9252.574275,41673.594535
1146.179397,-12410.747068,10955.047942,24722.878463
1146.179716,-7967.393179,22280.198854,20799.786970
1146.180035,-6205.373534,25092.981434,24352.775492
1146.180354,-1608.800546,21391.951724,21984.116477
1146.180672,689.485948,29016.072926,8808.450710
1146.180991,9652.803275,36788.235317,-10584.944971
1146.181310,12410.747068,22576.281231,-28868.031738
1146.181629,13942.938064,11399.171507,-27239.578666
1146.181948,14555.814462,-18431.127956,-8216.285956
1146.182266,6894.859482,-28868.031738,-3997.112087
1146.182585,-306.438199,-28645.969955,666.185348
1146.182904,-5286.058936,-28423.908173,22058.137072
1146.183223,-5362.668486,-26721.434506,33013.185013
1146.183542,-10112.460574,-18949.272115,41229.470969
1146.183861,-11568.042020,-6587.832884,38490.708984
1146.184179,-8656.879127,12879.583391,24944.940245
1146.184498,-5209.449386,18579.169144,18505.148550
1146.184817,-1455.581446,23390.507767,17024.736666
1146.185136,4213.525239,17987.004391,22132.157666
1146.185455,10572.117872,29978.340651,444.123565
