#time,accel_x,accel_y,accel_z
1713.491482,459.657299,370.102971,9400.615463
1713.491800,919.314598,518.144159,9918.759623
1713.492118,459.657299,222.061783,9400.615463
1713.492435,842.705048,148.041188,9474.636058
1713.492753,536.266849,296.082377,9400.615463
1713.493070,1072.533697,148.041188,9474.636058
1713.493388,766.095498,296.082377,9252.574275
1713.493706,689.485948,444.123565,9474.636058
1713.494023,689.485948,444.123565,9474.636058
1713.494341,689.485948,444.123565,9474.636058
1713.494659,1225.752797,222.061783,9326.594869
1713.494976,995.924147,592.164754,9622.677246
1713.495294,919.314598,444.123565,9400.615463
1713.495611,919.314598,370.102971,9326.594869
1713.495929,842.705048,370.102971,9400.615463
1713.496247,689.485948,-0.000000,9400.615463
1713.496564,612.876398,444.123565,9474.636058
1713.496882,842.705048,444.123565,9252.574275
1713.497200,842.705048,444.123565,9400.615463
1713.497517,689.485948,444.123565,9252.574275
1713.497835,842.705048,-0.000000,9104.533087
1713.498152,536.266849,74.020594,9474.636058
1713.498470,536.266849,148.041188,9474.636058
1713.498788,612.876398,370.102971,9326.594869
1713.499105,766.095498,296.082377,9400.615463
1713.499423,842.705048,370.102971,9252.574275
1713.499741,689.485948,222.061783,9326.594869
1713.500058,919.314598,370.102971,9474.636058
1713.500376,766.095498,370.102971,9326.594869
1713.500693,1149.143247,222.061783,9474.636058
1713.501011,383.047749,-0.000000,9474.636058
1713.501329,995.924147,296.082377,9474.636058
1713.501646,842.705048,370.102971,9474.636058
1713.501964,842.705048,518.144159,9400.615463
1713.502282,1072.533697,370.102971,9326.594869
1713.502599,689.485948,370.102971,9252.574275
1713.502917,842.705048,370.102971,9474.636058
1713.503235,842.705048,444.123565,9474.636058
1713.503552,919.314598,-0.000000,9326.594869
1713.503870,766.095498,222.061783,9474.636058
1713.504187,766.095498,296.082377,9548.656652
1713.504505,689.485948,444.123565,9548.656652
1713.504823,689.485948,222.061783,9474.636058
1713.505140,766.095498,444.123565,9400.615463
1713.505458,766.095498,-0.000000,9252.574275
1713.505776,689.485948,222.061783,9474.636058
1713.506093,1072.533697,370.102971,9474.636058
1713.506411,995.924147,296.082377,9326.594869
1713.506728,919.314598,370.102971,9474.636058
1713.507046,842.705048,370.102971,9622.677246
1713.507364,995.924147,518.144159,9474.636058
1713.507681,612.876398,296.082377,9548.656652
1713.507999,766.095498,222.061783,9326.594869
1713.508317,919.314598,370.102971,9400.615463
1713.508634,766.095498,148.041188,9252.574275
1713.508952,766.095498,222.061783,9474.636058
1713.509269,919.314598,222.061783,9400.615463
1713.509587,766.095498,222.061783,9400.615463
1713.509905,1302.362347,-0.000000,9400.615463
1713.510222,1072.533697,222.061783,9400.615463
1713.510540,689.485948,-0.000000,9252.574275
1713.510858,842.705048,370.102971,9400.615463
1713.511175,766.095498,-0.000000,9104.533087
1713.511493,919.314598,-0.000000,9252.574275
1713.511810,459.657299,-0.000000,9326.594869
1713.512128,229.828649,-148.041188,9252.574275
1713.512446,0.000000,-592.164754,9400.615463
1713.512763,-229.828649,-592.164754,9474.636058
1713.513081,0.000000,-666.185348,9474.636058
1713.513399,-153.219100,-740.205942,9400.615463
1713.513716,-153.219100,-370.102971,9326.594869
1713.514034,-306.438199,-518.144159,8956.491898
1713.514351,-153.219100,-518.144159,8734.430116
1713.514669,-383.047749,-518.144159,8586.388927
1713.514987,-536.266849,-888.247130,8734.430116
1713.515304,-919.314598,-1258.350101,8808.450710
1713.515622,-689.485948,-1554.432478,9178.553681
1713.515940,-612.876398,-1628.453072,9474.636058
1713.516257,-612.876398,-1332.370696,9252.574275
1713.516575,-612.876398,-814.226536,8808.450710
1713.516893,-306.438199,-592.164754,8438.347739
1713.517210,-383.047749,-296.082377,7772.162391
1713.517528,-459.657299,-592.164754,7698.141797
1713.517845,-689.485948,-962.267725,7550.100608
1713.518163,-612.876398,-1184.329507,8364.327145
1713.518481,-766.095498,-1702.473667,8734.430116
1713.518798,-459.657299,-1998.556043,9030.512492
1713.519116,-919.314598,-1850.514855,9474.636058
1713.519434,-1302.362347,-1332.370696,9252.574275
1713.519751,-995.924147,-592.164754,9030.512492
1713.520069,-1225.752797,-592.164754,8216.285956
1713.520386,-1532.190996,-962.267725,7772.162391
1713.520704,-1532.190996,-1554.432478,8438.347739
1713.521022,-1762.019645,-2442.679609,8586.388927
1713.521339,-2374.896044,-3552.988522,9548.656652
1713.521657,-2911.162892,-4293.194464,10436.903782
1713.521975,-3447.429741,-4811.338623,11399.171507
1713.522292,-3830.477490,-4663.297435,11473.192101
1713.522610,-4060.306139,-3997.112087,11251.130318
1713.522927,-3983.696590,-3627.009116,10881.027347
1713.523245,-3830.477490,-3182.885551,10955.047942
1713.523563,-3830.477490,-3182.885551,10584.944971
1713.523880,-3294.210641,-3775.050304,10881.027347
1713.524198,-3907.087040,-4367.215058,10658.965565
1713.524516,-3907.087040,-4737.318029,10955.047942
1713.524833,-3907.087040,-5255.462188,10955.047942
1713.525151,-4290.134789,-5255.462188,11399.171507
1713.525468,-4749.792088,-5255.462188,11325.150913
1713.525786,-4519.963438,-4959.379811,11695.253884
1713.526104,-4979.620737,-4737.318029,11769.274478
1713.526421,-4290.134789,-4515.256246,12287.418637
1713.526739,-4290.134789,-4071.132681,11917.315666
1713.527057,-3600.648841,-3701.029710,11769.274478
1713.527374,-2757.943793,-3108.864956,11399.171507
1713.527692,-2681.334243,-2590.720797,10362.883188
1713.528010,-2145.067394,-2368.659014,9918.759623
1713.528327,-1762.019645,-2072.576638,9622.677246
1713.528645,-1455.581446,-2516.700203,9474.636058
1713.528962,-1225.752797,-3404.947333,10732.986159
1713.529280,-1225.752797,-3849.070898,10807.006753
1713.529598,-383.047749,-4367.215058,11103.089130
1713.529915,-689.485948,-3478.967927,10140.821405
1713.530233,0.000000,-2664.741391,9844.739029
1713.530551,766.095498,-1702.473667,8364.327145
1713.530868,1455.581446,-1258.350101,7328.038826
1713.531186,1838.629195,-1036.288319,6735.874072
1713.531503,2374.896044,-1628.453072,8142.265362
1713.531821,2068.457845,-1850.514855,7254.018232
1713.532139,1532.190996,-2442.679609,7624.121203
1713.532456,536.266849,-3552.988522,8142.265362
1713.532774,0.000000,-3849.070898,8956.491898
1713.533092,229.828649,-2886.803174,8438.347739
1713.533409,0.000000,-1850.514855,7550.100608
1713.533727,76.609550,-1406.391290,6587.832884
1713.534044,229.828649,-2368.659014,6735.874072
1713.534362,-306.438199,-2590.720797,9178.553681
1713.534680,-536.266849,-3330.926739,8808.450710
1713.534997,-1149.143247,-2072.576638,8216.285956
1713.535315,-536.266849,-1036.288319,8808.450710
1713.535633,153.219100,740.205942,8068.244768
1713.535950,689.485948,444.123565,7772.162391
1713.536268,-459.657299,-370.102971,7698.141797
1713.536585,-612.876398,-444.123565,8586.388927
1713.536903,-229.828649,-222.061783,8808.450710
1713.537221,0.000000,518.144159,7772.162391
1713.537538,842.705048,-370.102971,8290.306550
1713.537856,-842.705048,444.123565,6587.832884
1713.538174,-766.095498,-1184.329507,9030.512492
1713.538491,-1915.238745,-666.185348,10214.842000
1713.538809,-1225.752797,-888.247130,9178.553681
1713.539126,-1685.410096,444.123565,9326.594869
1713.539444,-2757.943793,-0.000000,9770.718434
1713.539762,-3983.696590,-0.000000,11399.171507
1713.540079,-4366.744339,-222.061783,9992.780217
1713.540397,-4366.744339,-296.082377,10436.903782
1713.540715,-5209.449386,-0.000000,8956.491898
1713.541032,-4826.401637,-888.247130,11843.295072
1713.541350,-5362.668486,-1628.453072,11621.233289
1713.541668,-4979.620737,-3034.844362,14285.974681
1713.541985,-5132.839837,-2368.659014,13693.809927
1713.542303,-4673.182538,-1480.411884,13101.645173
1713.542620,-3370.820191,296.082377,11399.171507
1713.542938,-2451.505594,888.247130,10362.883188
1713.543256,-1838.629195,740.205942,10362.883188
1713.543573,-1225.752797,-0.000000,10288.862594
1713.543891,-842.705048,-222.061783,9992.780217
1713.544209,-612.876398,-1332.370696,9992.780217
1713.544526,76.609550,-1998.556043,10881.027347
1713.544844,-306.438199,-2220.617826,10658.965565
1713.545161,-842.705048,-2368.659014,9770.718434
1713.545479,-689.485948,-2664.741391,10066.800811
1713.545797,-766.095498,-2294.638420,10140.821405
1713.546114,-689.485948,-3182.885551,11029.068536
1713.546432,-1072.533697,-2664.741391,10807.006753
1713.546750,-1838.629195,-2886.803174,11695.253884
1713.547067,-1455.581446,-2664.741391,11991.336260
1713.547385,-1302.362347,-2960.823768,12065.356855
1713.547702,-995.924147,-3330.926739,11991.336260
1713.548020,-1225.752797,-3997.112087,11917.315666
1713.548338,-459.657299,-3182.885551,11991.336260
1713.548655,612.876398,-3404.947333,12657.521608
1713.548973,1608.800546,-2516.700203,11177.109724
1713.549291,2451.505594,-1850.514855,8882.471304
1713.549608,2911.162892,-1258.350101,7550.100608
1713.549926,2834.553343,-1776.494261,6291.750507
1713.550243,2604.724693,-2886.803174,5995.668130
1713.550561,1608.800546,-4737.318029,6957.935855
1713.550879,766.095498,-4811.338623,7698.141797
1713.551196,76.609550,-4737.318029,7105.977043
1713.551514,-766.095498,-4515.256246,8438.347739
1713.551832,-1685.410096,-5255.462188,8512.368333
1713.552149,-2681.334243,-4811.338623,9030.512492
1713.552467,-3064.381992,-3775.050304,7994.224174
1713.552784,-3140.991542,-3997.112087,10658.965565
1713.553102,-2757.943793,-4071.132681,9992.780217
1713.553419,-1991.848295,-2590.720797,10362.883188
1713.553737,-1302.362347,-1998.556043,9548.656652
1713.554054,-766.095498,-2368.659014,9548.656652
1713.554371,-229.828649,-1036.288319,6735.874072
1713.554689,612.876398,-2072.576638,5477.523971
1713.555006,-306.438199,-1554.432478,3997.112087
1713.555323,-306.438199,-3256.906145,4959.379811
1713.555640,-1991.848295,-2960.823768,3627.009116
1713.555958,-2068.457845,-5181.441594,5625.565159
1713.556275,-3907.087040,-5477.523971,5403.503377
1713.556592,-4826.401637,-7105.977043,8808.450710
1713.556910,-6358.592633,-6365.771101,9252.574275
1713.557227,-6281.983084,-5329.482782,10436.903782
1713.557544,-6281.983084,-4293.194464,11029.068536
1713.557862,-5898.935335,-2442.679609,12805.562797
1713.558179,-4290.134789,-518.144159,10140.821405
1713.558496,-2834.553343,148.041188,10214.842000
1713.558813,-1378.971896,-444.123565,10510.924376
1713.559131,-306.438199,-296.082377,9252.574275
1713.559448,766.095498,-296.082377,6439.791695
1713.559765,536.266849,-740.205942,6661.853478
1713.560083,306.438199,-1998.556043,7031.956449
1713.560400,-306.438199,-2886.803174,7254.018232
1713.560717,-1302.362347,-3775.050304,6957.935855
1713.561035,-1685.410096,-5181.441594,10732.986159
1713.561352,-2987.772442,-4145.153275,11029.068536
1713.561669,-3064.381992,-3404.947333,11843.295072
1713.561986,-3064.381992,-1184.329507,11473.192101
1713.562304,-2604.724693,-370.102971,13397.727550
1713.562621,-2451.505594,592.164754,13619.789333
1713.562938,0.000000,814.226536,13175.665768
1713.563256,1072.533697,1850.514855,10807.006753
1713.563573,2374.896044,1850.514855,11325.150913
1713.563890,2374.896044,962.267725,9252.574275
1713.564207,3447.429741,-148.041188,8364.327145
1713.564525,2298.286494,-1554.432478,7920.203579
1713.564842,1225.752797,-3182.885551,9696.697840
1713.565159,612.876398,-3182.885551,9104.533087
1713.565477,-153.219100,-1554.432478,10436.903782
1713.565794,-229.828649,-1628.453072,11029.068536
1713.566111,-2451.505594,518.144159,10732.986159
1713.566429,-1915.238745,296.082377,11399.171507
1713.566746,-4213.525239,-0.000000,11843.295072
1713.567063,-3753.867940,-1406.391290,15100.201217
1713.567380,-3983.696590,-1110.308913,13767.830521
1713.567698,-2451.505594,-222.061783,14137.933492
1713.568015,229.828649,-740.205942,13027.624579
1713.568332,383.047749,740.205942,11103.089130
1713.568650,2451.505594,-1554.432478,10732.986159
1713.568967,2221.676944,-222.061783,8364.327145
1713.569284,2911.162892,296.082377,4885.359217
1713.569601,3294.210641,740.205942,7031.956449
1713.569919,2451.505594,-0.000000,4293.194464
1713.570236,153.219100,-888.247130,7476.080014
1713.570553,-1302.362347,-1554.432478,8364.327145
1713.570871,-3830.477490,-3182.885551,10881.027347
1713.571188,-5132.839837,-1998.556043,10362.883188
1713.571505,-4903.011187,-3849.070898,14804.118840
1713.571823,-6358.592633,-2516.700203,12953.603985
1713.572140,-5439.278036,-3701.029710,13101.645173
1713.572457,-4903.011187,-2146.597232,11917.315666
1713.572774,-2374.896044,-3330.926739,13175.665768
1713.573092,0.000000,-444.123565,8142.265362
1713.573409,1378.971896,-814.226536,7698.141797
1713.573726,2681.334243,-740.205942,7105.977043
1713.574044,3370.820191,-1998.556043,5107.421000
1713.574361,4060.306139,-1776.494261,4811.338623
1713.574678,3600.648841,-3034.844362,6069.688724
1713.574995,2681.334243,-2220.617826,5181.441594
1713.575313,1225.752797,-962.267725,6217.729913
1713.575630,-612.876398,-1554.432478,7031.956449
1713.575947,-1915.238745,-2442.679609,9030.512492
1713.576265,-2374.896044,-2368.659014,10140.821405
1713.576582,-2145.067394,-2664.741391,11473.192101
1713.576899,-1685.410096,-2368.659014,11029.068536
1713.577217,306.438199,-1628.453072,11843.295072
1713.577534,2145.067394,-814.226536,10066.800811
1713.577851,4519.963438,-666.185348,8882.471304
1713.578168,4596.572988,-222.061783,7105.977043
1713.578486,5975.544884,-296.082377,6365.771101
1713.578803,6358.592633,592.164754,4293.194464
1713.579120,6818.249932,1480.411884,2664.741391
1713.579438,4903.011187,2072.576638,2590.720797
1713.579755,3677.258390,1110.308913,6217.729913
1713.580072,1455.581446,-0.000000,6069.688724
1713.580389,153.219100,-1924.535449,9474.636058
1713.580707,-1915.238745,-3478.967927,11843.295072
1713.581024,-1915.238745,-1554.432478,12139.377449
1713.581341,-536.266849,-370.102971,12213.398043
1713.581659,0.000000,1554.432478,12953.603985
1713.581976,1838.629195,666.185348,11917.315666
1713.582293,1991.848295,2812.782580,8956.491898
1713.582611,3600.648841,3330.926739,8290.306550
1713.582928,4673.182538,3108.864956,8068.244768
1713.583245,5439.278036,2738.761985,6365.771101
1713.583562,4979.620737,3701.029710,5181.441594
1713.583880,4290.134789,3775.050304,4737.318029
1713.584197,2987.772442,3108.864956,5921.647536
1713.584514,1838.629195,1480.411884,7550.100608
1713.584832,-689.485948,-444.123565,9252.574275
1713.585149,-2604.724693,-370.102971,10584.944971
1713.585466,-3753.867940,-1258.350101,13767.830521
1713.585784,-4290.134789,-296.082377,15322.262999
1713.586101,-3447.429741,-666.185348,17098.757260
1713.586418,-3830.477490,1554.432478,15396.283594
1713.586735,-2145.067394,3330.926739,14359.995275
1713.587053,-459.657299,5699.585753,11843.295072
1713.587370,1455.581446,7105.977043,8808.450710
1713.587687,3370.820191,5995.668130,6439.791695
1713.588005,4290.134789,5699.585753,5329.482782
1713.588322,4213.525239,3404.947333,5477.523971
1713.588639,3064.381992,814.226536,6513.812290
1713.588956,1455.581446,-666.185348,8068.244768
1713.589274,-842.705048,-2294.638420,11251.130318
1713.589591,-3524.039291,-2220.617826,12287.418637
1713.589908,-4826.401637,-2368.659014,14211.954086
1713.590226,-6588.421283,-740.205942,15322.262999
1713.590543,-5975.544884,-74.020594,16432.571912
1713.590860,-5132.839837,1036.288319,16136.489536
1713.591178,-3677.258390,3404.947333,15322.262999
1713.591495,-1072.533697,5255.462188,12139.377449
1713.591812,1225.752797,5255.462188,9326.594869
1713.592129,3294.210641,4737.318029,7698.141797
1713.592447,4596.572988,2220.617826,6365.771101
1713.592764,5056.230287,740.205942,4441.235652
1713.593081,5056.230287,-1776.494261,5551.544565
1713.593399,4213.525239,-3182.885551,6587.832884
1713.593716,2681.334243,-2886.803174,6513.812290
1713.594033,536.266849,-3478.967927,8364.327145
1713.594350,-1302.362347,-3701.029710,11029.068536
1713.594668,-3600.648841,-3775.050304,13323.706956
1713.594985,-3677.258390,-2368.659014,14434.015869
1713.595302,-2451.505594,-888.247130,15322.262999
1713.595620,-842.705048,1628.453072,13619.789333
1713.595937,2221.676944,1332.370696,13249.686362
1713.596254,3140.991542,2442.679609,10510.924376
1713.596572,5286.058936,1998.556043,7920.203579
1713.596889,6435.202183,1184.329507,4071.132681
1713.597206,6894.859482,444.123565,2368.659014
1713.597523,7201.297681,-1184.329507,1406.391290
1713.597841,5745.716235,-1924.535449,962.267725
1713.598158,4519.963438,-4663.297435,5181.441594
1713.598475,1762.019645,-5995.668130,7624.121203
1713.598793,-229.828649,-5699.585753,10066.800811
1713.599110,-1685.410096,-3997.112087,11103.089130
1713.599427,-1532.190996,-2960.823768,14063.912898
1713.599744,-1608.800546,-1480.411884,13619.789333
1713.600062,-383.047749,666.185348,12139.377449
1713.600379,689.485948,3034.844362,11769.274478
1713.600696,1838.629195,4441.235652,9178.553681
1713.601014,3753.867940,3701.029710,6809.894666
1713.601331,3983.696590,2738.761985,2812.782580
1713.601648,4596.572988,1036.288319,3330.926739
1713.601966,3983.696590,-296.082377,1776.494261
1713.602283,3294.210641,-2368.659014,2368.659014
1713.602600,2987.772442,-4515.256246,4441.235652
1713.602917,1072.533697,-4737.318029,6513.812290
1713.603235,-842.705048,-4441.235652,8438.347739
1713.603552,-2681.334243,-3552.988522,10881.027347
1713.603869,-4749.792088,-3182.885551,13397.727550
1713.604187,-5439.278036,-0.000000,14211.954086
1713.604504,-4443.353888,2886.803174,14878.139434
1713.604821,-3370.820191,4737.318029,12509.480420
1713.605139,-1608.800546,4515.256246,12805.562797
1713.605456,-306.438199,5773.606348,9992.780217
1713.605773,1149.143247,5699.585753,7179.997637
1713.606090,2604.724693,5921.647536,3256.906145
1713.606408,3830.477490,3330.926739,2368.659014
1713.606725,4136.915689,-0.000000,3404.947333
1713.607042,3217.601092,-1554.432478,3923.091493
1713.607360,1762.019645,-3849.070898,7698.141797
1713.607677,-1378.971896,-3256.906145,9770.718434
1713.607994,-2374.896044,-2664.741391,14508.036463
1713.608311,-4366.744339,-222.061783,15692.365970
1713.608629,-5286.058936,1776.494261,16580.613101
1713.608946,-5209.449386,3182.885551,17690.922014
1713.609263,-4826.401637,6365.771101,16358.551318
1713.609581,-612.876398,9104.533087,14804.118840
1713.609898,1915.238745,10066.800811,11547.212695
1713.610215,4213.525239,8364.327145,9326.594869
1713.610533,5592.497135,6217.729913,6809.894666
1713.610850,5209.449386,2738.761985,5033.400406
1713.611167,6435.202183,-2294.638420,7846.182985
1713.611484,5286.058936,-3997.112087,7698.141797
1713.611802,4673.182538,-3404.947333,7254.018232
1713.612119,2451.505594,-1628.453072,8364.327145
1713.612436,0.000000,-2220.617826,12953.603985
1713.612754,-1302.362347,-1110.308913,15470.304188
1713.613071,-2757.943793,-0.000000,15840.407159
1713.613388,-2451.505594,2590.720797,15840.407159
1713.613705,-1072.533697,4811.338623,17098.757260
1713.614023,536.266849,7550.100608,14878.139434
1713.614340,5286.058936,7624.121203,14804.118840
1713.614657,5439.278036,9992.780217,8142.265362
1713.614975,6588.421283,6883.915261,6587.832884
1713.615292,6588.421283,4441.235652,4367.215058
1713.615609,6511.811733,222.061783,4885.359217
1713.615927,5822.325785,-3182.885551,3775.050304
1713.616244,3600.648841,-4737.318029,5329.482782
1713.616561,2298.286494,-5773.606348,7624.121203
1713.616878,-459.657299,-4367.215058,9326.594869
1713.617196,-1991.848295,-4293.194464,12583.501014
1713.617513,-4290.134789,-3627.009116,13027.624579
1713.617830,-5439.278036,-1332.370696,14508.036463
1713.618148,-4136.915689,370.102971,14804.118840
1713.618465,-2604.724693,3849.070898,14063.912898
1713.618782,459.657299,4959.379811,12139.377449
1713.619099,2068.457845,5329.482782,9474.636058
1713.619417,3370.820191,3923.091493,5847.626942
1713.619734,4596.572988,1036.288319,5551.544565
1713.620051,4596.572988,-1554.432478,3775.050304
1713.620369,4443.353888,-3775.050304,2368.659014
1713.620686,3524.039291,-4959.379811,1332.370696
1713.621003,2374.896044,-4811.338623,2812.782580
1713.621321,-536.266849,-5033.400406,4737.318029
1713.621638,-2987.772442,-5699.585753,9252.574275
1713.621955,-5898.935335,-5033.400406,9474.636058
1713.622272,-8580.269578,-2220.617826,10807.006753
1713.622590,-6435.202183,-2368.659014,14878.139434
1713.622907,-6665.030833,-962.267725,15248.242405
1713.623224,-3140.991542,-592.164754,17616.901420
1713.623542,0.000000,4367.215058,12805.562797
1713.623859,1838.629195,6587.832884,6439.791695
1713.624176,5898.935335,4515.256246,4145.153275
1713.624494,6665.030833,3923.091493,1554.432478
1713.624811,7124.688131,296.082377,-370.102971
1713.625128,7354.516781,-2072.576638,-370.102971
1713.625445,5669.106685,-3182.885551,-296.082377
1713.625763,4903.011187,-3923.091493,2886.803174
1713.626080,842.705048,-5255.462188,5773.606348
1713.626397,-3600.648841,-5329.482782,9400.615463
1713.626715,-6971.469032,-7772.162391,14582.057057
1713.627032,-10112.460574,-3923.091493,16210.510130
1713.627349,-8120.612279,-2072.576638,18727.210333
1713.627666,-5898.935335,1406.391290,18727.210333
1713.627984,-1149.143247,3997.112087,20207.622217
1713.628301,3064.381992,8438.347739,14211.954086
1713.628618,6052.154434,9770.718434,6513.812290
1713.628936,9806.022374,7772.162391,5995.668130
1713.629253,12410.747068,4737.318029,4737.318029
1713.629570,13100.233016,2960.823768,-740.205942
1713.629888,12104.308868,1110.308913,-2146.597232
1713.630205,10189.070123,-2368.659014,1628.453072
1713.630522,7354.516781,-3182.885551,5403.503377
1713.630839,2451.505594,-5329.482782,7920.203579
1713.631157,-4519.963438,-4367.215058,9474.636058
1713.631474,-7584.345430,-5107.421000,16210.510130
1713.631791,-9806.022374,-4515.256246,19985.560434
1713.632109,-8656.879127,-3627.009116,23464.528361
1713.632426,-6128.763984,962.267725,23242.466579
1713.632743,-2145.067394,7105.977043,20651.745782
1713.633060,3753.867940,11473.192101,16580.613101
1713.633378,5515.887586,11769.274478,8586.388927
1713.633695,8656.879127,8882.471304,6735.874072
1713.634012,9269.755526,8808.450710,1480.411884
1713.634330,11261.603821,5255.462188,148.041188
1713.634647,9806.022374,-148.041188,1776.494261
1713.634964,6971.469032,-1628.453072,2072.576638
1713.635282,4903.011187,-2072.576638,3108.864956
1713.635599,459.657299,-5773.606348,9030.512492
1713.635916,-7124.688131,-7476.080014,12065.356855
1713.636233,-10342.289223,-5255.462188,16728.654289
1713.636551,-15321.909960,-296.082377,12583.501014
1713.636868,-12947.013916,-1036.288319,21762.054695
1713.637185,-8044.002729,-4737.318029,28275.866984
1713.637503,-10725.336972,5255.462188,11843.295072
1713.637820,-3447.429741,5477.523971,18135.045579
1713.638137,-3524.039291,10584.944971,10732.986159
1713.638454,1532.190996,7920.203579,10140.821405
1713.638772,5209.449386,8364.327145,5033.400406
1713.639089,3294.210641,3923.091493,666.185348
1713.639406,5669.106685,-148.041188,1480.411884
1713.639724,6358.592633,-1924.535449,666.185348
1713.640041,7814.174080,-5995.668130,7179.997637
1713.640358,3983.696590,-9104.533087,3108.864956
1713.640676,-2911.162892,-6735.874072,6217.729913
1713.640993,-7277.907231,-5921.647536,12583.501014
1713.641310,-10801.946522,-6069.688724,17320.819043
1713.641627,-12257.527968,-6957.935855,18209.066173
1713.641945,-9422.974625,-4885.359217,23760.610738
1713.642262,-7124.688131,4885.359217,19763.498651
1713.642579,2068.457845,10436.903782,10955.047942
1713.642897,5362.668486,8512.368333,4515.256246
1713.643214,9039.926876,5477.523971,5847.626942
1713.643531,11874.480219,4959.379811,518.144159
1713.643848,13253.452115,4145.153275,-7254.018232
1713.644166,13023.623466,-5329.482782,-1998.556043
1713.644483,11261.603821,-8808.450710,3182.885551
1713.644800,9806.022374,-6143.709319,2146.597232
1713.645118,6588.421283,-5921.647536,3034.844362
1713.645435,-612.876398,-7698.141797,9030.512492
1713.645752,-7584.345430,-6587.832884,13545.768739
1713.646070,-9039.926876,-6291.750507,17172.777854
1713.646387,-8886.707777,-5181.441594,18357.107362
1713.646704,-6894.859482,-3478.967927,23686.590144
1713.647021,-2604.724693,3182.885551,20577.725188
1713.647339,4519.963438,10658.965565,9992.780217
1713.647656,8886.707777,12287.418637,2738.761985
1713.647973,11414.822920,6587.832884,3478.967927
1713.648291,12257.527968,5625.565159,-1850.514855
1713.648608,12334.137518,1998.556043,-5033.400406
1713.648925,10265.679673,-3182.885551,-3108.864956
1713.649243,9806.022374,-8216.285956,3849.070898
1713.649560,7814.174080,-7846.182985,4737.318029
1713.649877,4366.744339,-6291.750507,3404.947333
1713.650194,-2911.162892,-5921.647536,8290.306550
1713.650512,-6894.859482,-7179.997637,15174.221811
1713.650829,-10572.117872,-5625.565159,17468.860231
1713.651146,-8963.317327,-4219.173869,21391.951724
1713.651464,-8963.317327,296.082377,20651.745782
1713.651781,-6588.421283,2146.597232,22724.322419
1713.652098,-2528.115143,9918.759623,14211.954086
1713.652415,-229.828649,13915.871710,5995.668130
1713.652733,2604.724693,11251.130318,4589.276840
1713.653050,5515.887586,9696.697840,3256.906145
1713.653367,7354.516781,7328.038826,-1110.308913
1713.653685,8120.612279,-74.020594,-2220.617826
1713.654002,7507.735880,-6513.812290,5847.626942
1713.654319,4903.011187,-9918.759623,10955.047942
1713.654637,3677.258390,-6809.894666,8808.450710
1713.654954,-1915.238745,-2442.679609,5403.503377
1713.655271,-7048.078582,-5847.626942,17616.901420
1713.655588,-13559.890315,-4737.318029,17024.736666
1713.655906,-11874.480219,-1998.556043,21539.992912
1713.656223,-12027.699319,1406.391290,18949.272115
1713.656540,-7354.516781,4663.297435,23834.631332
1713.656857,-3753.867940,10584.944971,19245.354492
1713.657175,-306.438199,15692.365970,4737.318029
1713.657492,4903.011187,14656.077652,814.226536
1713.657809,7584.345430,7994.224174,5403.503377
1713.658126,9806.022374,4885.359217,-148.041188
1713.658444,9959.241474,-444.123565,-4885.359217
1713.658761,9882.631924,-6291.750507,5995.668130
1713.659078,5056.230287,-9178.553681,11843.295072
1713.659395,3907.087040,-6957.935855,11991.336260
1713.659713,536.266849,-5107.421000,8438.347739
1713.660030,-8120.612279,-5625.565159,18209.066173
1713.660347,-11874.480219,-3701.029710,20429.683999
1713.660664,-9806.022374,2738.761985,17542.880825
1713.660982,-8044.002729,2886.803174,15470.304188
1713.661299,-2374.896044,2516.700203,22576.281231
1713.661616,612.876398,10732.986159,14508.036463
1713.661933,5209.449386,16358.551318,0.000000
1713.662251,9576.193725,7772.162391,0.000000
1713.662568,9576.193725,1110.308913,3701.029710
1713.662885,9576.193725,-370.102971,0.000000
1713.663202,11031.775171,-3552.988522,-444.123565
1713.663520,7201.297681,-7920.203579,2220.617826
1713.663837,7584.345430,-11103.089130,12583.501014
1713.664154,4213.525239,-6217.729913,9992.780217
1713.664471,1838.629195,-2886.803174,4219.173869
1713.664789,-5745.716235,-4589.276840,16284.530724
1713.665106,-8044.002729,-5033.400406,18135.045579
1713.665423,-4903.011187,-2590.720797,19911.539840
1713.665740,-4826.401637,962.267725,13397.727550
1713.666058,-2298.286494,2590.720797,17690.922014
1713.666375,612.876398,8808.450710,12065.356855
1713.666692,3370.820191,14211.954086,2294.638420
1713.667009,7814.174080,4885.359217,-148.041188
1713.667327,5362.668486,1332.370696,1332.370696
1713.667644,5669.106685,-222.061783,-3108.864956
1713.667961,7507.735880,-5329.482782,-5107.421000
1713.668278,4673.182538,-10881.027347,1480.411884
1713.668596,3217.601092,-16802.674883,12213.398043
1713.668913,153.219100,-11029.068536,13915.871710
1713.669230,-1532.190996,-2516.700203,2368.659014
1713.669547,-6741.640382,-1776.494261,13175.665768
1713.669865,-8350.440928,-3256.906145,15396.283594
1713.670182,-7737.564530,-444.123565,17320.819043
1713.670499,-7354.516781,1702.473667,13471.748144
1713.670816,-4213.525239,4589.276840,18357.107362
1713.671134,-3294.210641,7846.182985,11843.295072
1713.671451,2145.067394,10288.862594,4589.276840
1713.671768,6281.983084,8068.244768,666.185348
1713.672085,5515.887586,5033.400406,-296.082377
1713.672403,7201.297681,-1036.288319,-1628.453072
1713.672720,6741.640382,-5403.503377,-3923.091493
1713.673037,5669.106685,-8216.285956,3923.091493
1713.673354,4060.306139,-8882.471304,7698.141797
1713.673672,153.219100,-6883.915261,11473.192101
1713.673989,-3064.381992,-5329.482782,8660.409521
1713.674306,-11184.994271,-4737.318029,16802.674883
1713.674623,-9499.584175,-4885.359217,22280.198854
1713.674941,-9959.241474,1924.535449,15766.386565
1713.675258,-6435.202183,2812.782580,17616.901420
1713.675575,-3294.210641,6587.832884,20947.828159
1713.675892,76.609550,10881.027347,13323.706956
1713.676210,5592.497135,12879.583391,4071.132681
1713.676527,9193.145976,10436.903782,2072.576638
1713.676844,10418.898773,4663.297435,666.185348
1713.677161,9422.974625,296.082377,-592.164754
1713.677479,9499.584175,-5107.421000,0.000000
1713.677796,4596.572988,-6809.894666,4589.276840
1713.678113,4826.401637,-7624.121203,11843.295072
1713.678430,2298.286494,-5329.482782,14952.160028
1713.678748,-1991.848295,-5107.421000,15248.242405
1713.679065,-7124.688131,-3775.050304,20281.642811
1713.679382,-7967.393179,666.185348,19467.416275
1713.679699,-5669.106685,8142.265362,12953.603985
1713.680017,-2987.772442,5551.544565,16802.674883
1713.680334,1149.143247,5403.503377,22650.301825
1713.680651,2987.772442,12805.562797,11843.295072
1713.680968,6971.469032,13101.645173,5699.585753
1713.681286,8350.440928,9548.656652,2590.720797
1713.681603,7814.174080,1776.494261,4515.256246
1713.681920,7431.126331,-444.123565,1554.432478
1713.682237,4749.792088,-4737.318029,814.226536
1713.682555,2221.676944,-9474.636058,7920.203579
1713.682872,2451.505594,-7179.997637,11695.253884
1713.683189,2911.162892,-3182.885551,11695.253884
1713.683506,-3524.039291,-2812.782580,8142.265362
1713.683824,-7354.516781,-4145.153275,17912.983796
1713.684141,-10801.946522,-4293.194464,18135.045579
1713.684458,-10725.336972,2146.597232,14656.077652
1713.684775,-5362.668486,2368.659014,19319.375086
1713.685093,-2298.286494,9548.656652,17172.777854
1713.685410,1149.143247,9918.759623,13323.706956
1713.685727,3753.867940,10881.027347,4737.318029
1713.686044,6435.202183,6439.791695,2812.782580
1713.686362,6971.469032,2590.720797,1776.494261
1713.686679,9882.631924,-3701.029710,2368.659014
1713.686996,7277.907231,-4589.276840,-2664.741391
1713.687313,6358.592633,-7402.059420,4367.215058
1713.687631,4136.915689,-5995.668130,4589.276840
1713.687948,3217.601092,-6143.709319,6957.935855
1713.688265,-2451.505594,-4663.297435,7105.977043
1713.688582,-7431.126331,-4589.276840,15396.283594
1713.688900,-11031.775171,-3478.967927,15322.262999
1713.689217,-9652.803275,1184.329507,15396.283594
1713.689534,-6665.030833,222.061783,20577.725188
1713.689851,-3140.991542,5699.585753,18949.272115
1713.690169,2681.334243,9474.636058,11843.295072
1713.690486,7660.954980,11029.068536,2664.741391
1713.690803,9882.631924,6217.729913,666.185348
1713.691120,8580.269578,3108.864956,1628.453072
1713.691438,10342.289223,-888.247130,1776.494261
1713.691755,8580.269578,-4367.215058,-3627.009116
1713.692072,5975.544884,-6957.935855,1776.494261
1713.692389,3294.210641,-6143.709319,5329.482782
1713.692707,1608.800546,-3552.988522,4663.297435
1713.693024,-2221.676944,-3701.029710,5181.441594
1713.693341,-8886.707777,-7105.977043,17764.942608
1713.693658,-13406.671215,-6587.832884,18135.045579
1713.693976,-12257.527968,-1850.514855,17690.922014
1713.694293,-7507.735880,-1406.391290,18653.189738
1713.694610,-3524.039291,1554.432478,22428.240043
1713.694927,-842.705048,6883.915261,14730.098246
1713.695245,5209.449386,12065.356855,5551.544565
1713.695562,6588.421283,10584.944971,2072.576638
1713.695879,9806.022374,1628.453072,7772.162391
1713.696196,10112.460574,-2516.700203,5847.626942
1713.696514,9729.412825,2368.659014,-6217.729913
1713.696831,9576.193725,592.164754,1406.391290
1713.697148,7201.297681,-4219.173869,2886.803174
1713.697465,4290.134789,-5625.565159,6291.750507
1713.697783,383.047749,-5921.647536,4441.235652
1713.698100,-6665.030833,-6587.832884,17542.880825
1713.698417,-10342.289223,-7476.080014,23686.590144
1713.698734,-11338.213370,-3552.988522,19911.539840
1713.699052,-8886.707777,2442.679609,17616.901420
1713.699369,-6511.811733,3330.926739,23168.445985
1713.699686,-2757.943793,9252.574275,15840.407159
1713.700003,2604.724693,6735.874072,10140.821405
1713.700321,5362.668486,9326.594869,7846.182985
1713.700638,9576.193725,4441.235652,6143.709319
1713.700955,8120.612279,8660.409521,0.000000
1713.701272,12180.918418,-1850.514855,1554.432478
1713.701590,6741.640382,-6439.791695,1554.432478
1713.701907,4903.011187,-9770.718434,9178.553681
1713.702224,3677.258390,-5847.626942,9548.656652
1713.702541,1838.629195,-1036.288319,592.164754
1713.702859,-3524.039291,-6143.709319,15692.365970
1713.703176,-10648.727422,-5477.523971,19837.519246
1713.703493,-11951.089769,-4959.379811,21688.034101
1713.703810,-13713.109414,-0.000000,16136.489536
1713.704128,-5439.278036,-2294.638420,23094.425390
1713.704445,-1225.752797,5773.606348,18801.230927
1713.704762,4826.401637,10288.862594,7476.080014
1713.705079,8503.660028,14211.954086,2294.638420
1713.705397,9116.536426,8142.265362,4071.132681
1713.705714,12640.575717,5699.585753,3182.885551
1713.706031,12563.966167,-666.185348,962.267725
1713.706348,9346.365076,-1776.494261,-2442.679609
1713.706666,8044.002729,-3404.947333,3701.029710
1713.706983,4443.353888,-3701.029710,4293.194464
1713.707300,4060.306139,-4367.215058,5625.565159
1713.707617,-3370.820191,-4589.276840,10955.047942
1713.707935,-9116.536426,-6069.688724,15840.407159
1713.708252,-11951.089769,-1702.473667,16950.716072
1713.708569,-10955.165621,-814.226536,15026.180623
1713.708886,-9116.536426,-444.123565,20577.725188
1713.709204,-4366.744339,1184.329507,22206.178260
1713.709521,-2068.457845,13545.768739,6365.771101
1713.709838,3447.429741,13249.686362,-518.144159
1713.710155,4749.792088,8216.285956,5847.626942
1713.710473,6894.859482,2294.638420,3775.050304
1713.710790,8427.050478,-1776.494261,3256.906145
1713.711107,5592.497135,-1036.288319,-3627.009116
1713.711424,6665.030833,-6513.812290,6217.729913
1713.711742,5056.230287,-6809.894666,4737.318029
1713.712059,4443.353888,-2442.679609,2368.659014
1713.712376,995.924147,-3034.844362,5255.462188
1713.712693,-8197.221829,-5847.626942,13249.686362
1713.713011,-13559.890315,-5847.626942,16284.530724
1713.713328,-11568.042020,-1258.350101,15248.242405
1713.713645,-10572.117872,-222.061783,18505.148550
1713.713962,-4366.744339,-3478.967927,26277.310941
1713.714280,-7201.297681,4885.359217,13323.706956
1713.714597,766.095498,13989.892304,7920.203579
1713.714914,4903.011187,13693.809927,2294.638420
1713.715231,9806.022374,5329.482782,6069.688724
1713.715549,9806.022374,-2220.617826,7328.038826
1713.715866,10189.070123,-666.185348,1110.308913
1713.716183,10955.165621,592.164754,-4737.318029
1713.716500,9959.241474,-5403.503377,5773.606348
1713.716818,8427.050478,-6883.915261,9844.739029
1713.717135,4596.572988,-4293.194464,4515.256246
1713.717452,-2681.334243,-3627.009116,10288.862594
1713.717769,-9346.365076,-5921.647536,16358.551318
1713.718087,-10189.070123,-7328.038826,21984.116477
1713.718404,-8427.050478,-444.123565,18875.251521
1713.718721,-5975.544884,3849.070898,18505.148550
1713.719038,-2068.457845,5329.482782,21984.116477
1713.719356,-1838.629195,10955.047942,4811.338623
1713.719673,5669.106685,9622.677246,3330.926739
1713.719990,7507.735880,6291.750507,5255.462188
1713.720307,11338.213370,-888.247130,7105.977043
1713.720625,8503.660028,-5403.503377,4811.338623
1713.720942,7201.297681,-1628.453072,-148.041188
1713.721259,7048.078582,-3627.009116,5181.441594
1713.721576,5592.497135,-5551.544565,9252.574275
1713.721894,4366.744339,-4071.132681,8586.388927
1713.722211,-2987.772442,-4589.276840,10214.842000
1713.722528,-9576.193725,-2368.659014,13027.624579
1713.722845,-8503.660028,-5921.647536,20207.622217
1713.723163,-9959.241474,666.185348,15766.386565
1713.723480,-4519.963438,-2516.700203,19911.539840
1713.723797,-3983.696590,-1554.432478,21910.095883
1713.724114,-3447.429741,6809.894666,13989.892304
1713.724432,1378.971896,13101.645173,2146.597232
1713.724749,7201.297681,11547.212695,1184.329507
1713.725066,10418.898773,3108.864956,5033.400406
1713.725383,9499.584175,-2960.823768,8512.368333
1713.725701,7814.174080,-3627.009116,3701.029710
1713.726018,7124.688131,740.205942,-6883.915261
1713.726335,10189.070123,-4145.153275,6291.750507
1713.726652,8044.002729,-5329.482782,12361.439231
1713.726970,4213.525239,-5255.462188,6809.894666
1713.727287,-6665.030833,1480.411884,3775.050304
1713.727604,-8197.221829,-370.102971,11029.068536
1713.727921,-8963.317327,-3923.091493,19985.560434
1713.728239,-8810.098227,-1258.350101,18949.272115
1713.728556,-7354.516781,-2220.617826,20059.581028
1713.728873,-7660.954980,2220.617826,19393.395680
1713.729190,-5592.497135,8512.368333,6661.853478
1713.729508,1991.848295,10584.944971,3256.906145
1713.729825,5745.716235,7031.956449,3108.864956
1713.730142,8733.488677,-740.205942,8068.244768
1713.730459,6588.421283,-3997.112087,7328.038826
1713.730777,4903.011187,296.082377,-3034.844362
1713.731094,7277.907231,-0.000000,-2812.782580
1713.731411,7507.735880,-3923.091493,7624.121203
1713.731728,3907.087040,-5329.482782,12139.377449
1713.732046,-5286.058936,-3108.864956,2590.720797
1713.732363,-12717.185267,-1554.432478,8068.244768
1713.732680,-11414.822920,-2886.803174,14878.139434
1713.732997,-8656.879127,-3701.029710,27905.764013
1713.733315,-4903.011187,-3108.864956,18727.210333
1713.733632,-7124.688131,-148.041188,18505.148550
1713.733949,-5898.935335,9326.594869,10584.944971
1713.734266,4443.353888,12583.501014,6587.832884
1713.734584,11338.213370,10362.883188,666.185348
1713.734901,12180.918418,222.061783,7179.997637
1713.735218,9346.365076,-296.082377,6883.915261
1713.735535,9806.022374,6661.853478,-3034.844362
1713.735853,9959.241474,7105.977043,-7254.018232
1713.736170,12027.699319,-5921.647536,9104.533087
1713.736487,6052.154434,-8808.450710,13249.686362
1713.736804,1072.533697,74.020594,3404.947333
1713.737122,-6205.373534,-0.000000,4441.235652
1713.737439,-7967.393179,-3330.926739,12953.603985
1713.737756,-6358.592633,-8808.450710,25389.063811
1713.738073,-4903.011187,-2812.782580,24722.878463
1713.738391,-5209.449386,-666.185348,16728.654289
1713.738708,-5822.325785,2442.679609,17246.798449
1713.739025,-1149.143247,7254.018232,11917.315666
1713.739342,7660.954980,11621.233289,6513.812290
1713.739660,8580.269578,7624.121203,2738.761985
1713.739977,8197.221829,1702.473667,8586.388927
1713.740294,6588.421283,1998.556043,3404.947333
1713.740611,9039.926876,3330.926739,-3478.967927
1713.740929,11031.775171,-2516.700203,1924.535449
1713.741246,9576.193725,-9178.553681,14434.015869
1713.741563,1762.019645,-5773.606348,6587.832884
1713.741880,-2911.162892,-1998.556043,4219.173869
1713.742198,-10648.727422,-1628.453072,9548.656652
1713.742515,-9422.974625,-7624.121203,21984.116477
1713.742832,-7201.297681,-9030.512492,28053.805202
1713.743149,-10878.556072,-5033.400406,19393.395680
1713.743467,-9652.803275,370.102971,19837.519246
1713.743784,-7201.297681,8660.409521,15174.221811
1713.744101,2451.505594,13397.727550,7179.997637
1713.744418,8810.098227,10881.027347,3775.050304
1713.744736,7431.126331,5995.668130,6439.791695
1713.745053,8427.050478,3182.885551,4145.153275
1713.745370,9806.022374,6809.894666,-2738.761985
1713.745687,12257.527968,3256.906145,-1110.308913
1713.746005,11184.994271,-4811.338623,6069.688724
1713.746322,5439.278036,-6439.791695,7698.141797
1713.746639,-1532.190996,-2516.700203,666.185348
1713.746956,-6894.859482,-2664.741391,4071.132681
1713.747274,-11491.432470,-4885.359217,12361.439231
1713.747591,-8503.660028,-9474.636058,24870.919651
1713.747908,-11031.775171,-5477.523971,25389.063811
1713.748225,-10418.898773,-666.185348,18431.127956
1713.748543,-8273.831378,2738.761985,17616.901420
1713.748860,-3524.039291,9178.553681,12139.377449
1713.749177,7584.345430,10436.903782,7920.203579
1713.749494,7584.345430,11029.068536,-1702.473667
1713.749812,7201.297681,4811.338623,1850.514855
1713.750129,7814.174080,2442.679609,1554.432478
1713.750446,9882.631924,370.102971,518.144159
1713.750763,9806.022374,-1480.411884,0.000000
1713.751081,7124.688131,-8290.306550,8808.450710
1713.751398,1532.190996,-5773.606348,6957.935855
1713.751715,-2068.457845,-2368.659014,2590.720797
1713.752032,-5898.935335,-1406.391290,6143.709319
1713.752350,-8580.269578,-4737.318029,14730.098246
1713.752667,-5669.106685,-10807.006753,27387.619854
1713.752984,-9039.926876,-5403.503377,19171.333898
1713.753301,-7737.564530,-1850.514855,18949.272115
1713.753619,-4749.792088,4515.256246,16950.716072
1713.753936,4060.306139,8734.430116,9770.718434
1713.754253,9806.022374,8808.450710,6439.791695
1713.754570,8886.707777,6513.812290,3849.070898
1713.754887,10878.556072,3997.112087,4663.297435
1713.755204,14402.595362,4959.379811,740.205942
1713.755522,15934.786358,1924.535449,-888.247130
1713.755839,15781.567259,-4219.173869,2516.700203
1713.756156,10265.679673,-5773.606348,3627.009116
1713.756473,4290.134789,-2368.659014,-1332.370696
1713.756790,-612.876398,-1480.411884,1480.411884
1713.757108,-7354.516781,-2886.803174,9474.636058
1713.757425,-8044.002729,-9696.697840,21317.931130
1713.757742,-12257.527968,-8956.491898,23464.528361
1713.758059,-14019.547613,-7698.141797,26203.290347
1713.758376,-13176.842566,-2664.741391,22428.240043
1713.758694,-7201.297681,3923.091493,18431.127956
1713.759011,0.000000,10881.027347,8364.327145
1713.759328,5439.278036,12065.356855,6217.729913
1713.759645,6511.811733,7254.018232,3701.029710
1713.759962,9116.536426,4367.215058,2368.659014
1713.760279,11414.822920,4071.132681,592.164754
1713.760597,11644.651570,888.247130,296.082377
1713.760914,10189.070123,-4145.153275,3997.112087
1713.761231,3753.867940,-2146.597232,2664.741391
1713.761548,-842.705048,-2664.741391,0.000000
1713.761865,-7660.954980,-444.123565,1998.556043
1713.762183,-9652.803275,-5403.503377,13175.665768
1713.762500,-11874.480219,-11547.212695,21391.951724
1713.762817,-15628.348159,-10140.821405,22058.137072
1713.763134,-15704.957709,-7328.038826,25611.125593
1713.763451,-13713.109414,-2664.741391,25537.104999
1713.763768,-4826.401637,4145.153275,16062.468941
1713.764086,1915.238745,7550.100608,13323.706956
1713.764403,3983.696590,11029.068536,9622.677246
1713.764720,8810.098227,11695.253884,5329.482782
1713.765037,13866.328514,12805.562797,592.164754
1713.765354,16317.834107,7254.018232,0.000000
1713.765672,16088.005458,1924.535449,1332.370696
1713.765989,13942.938064,-0.000000,1480.411884
1713.766306,8810.098227,-962.267725,-1110.308913
1713.766623,7201.297681,-4219.173869,2664.741391
1713.766940,-1991.848295,-2516.700203,2294.638420
1713.767258,-4749.792088,-7772.162391,14211.954086
1713.767575,-9499.584175,-10140.821405,19689.478057
1713.767892,-14709.033562,-10584.944971,20577.725188
1713.768209,-13942.938064,-13027.624579,26499.372724
1713.768526,-13253.452115,-5033.400406,28127.825796
1713.768843,-3447.429741,4737.318029,17394.839637
1713.769161,1685.410096,14359.995275,7179.997637
1713.769478,5209.449386,11991.336260,7772.162391
1713.769795,9193.145976,9474.636058,4589.276840
1713.770112,12870.404366,9474.636058,962.267725
1713.770429,15398.519510,7846.182985,-2220.617826
1713.770747,15321.909960,592.164754,-1480.411884
1713.771064,13023.623466,-3478.967927,2664.741391
1713.771381,9116.536426,-2960.823768,2368.659014
1713.771698,3524.039291,-4441.235652,3404.947333
1713.772015,-4213.525239,-5995.668130,3849.070898
1713.772333,-8503.660028,-8364.327145,13693.809927
1713.772650,-12563.966167,-7105.977043,17098.757260
1713.772967,-15858.176809,-5181.441594,15766.386565
1713.773284,-14709.033562,-9030.512492,22280.198854
1713.773601,-13789.718964,-6439.791695,24278.754898
1713.773918,-5439.278036,1850.514855,19245.354492
1713.774236,1302.362347,8734.430116,12509.480420
1713.774553,3140.991542,7846.182985,6587.832884
1713.774870,10572.117872,8512.368333,8808.450710
1713.775187,13176.842566,10584.944971,2516.700203
1713.775504,16164.615008,8290.306550,-1406.391290
1713.775822,15475.129060,3701.029710,-3478.967927
1713.776139,16088.005458,-296.082377,1924.535449
1713.776456,12410.747068,3108.864956,-3552.988522
1713.776773,9652.803275,-740.205942,-296.082377
1713.777090,-2528.115143,-6069.688724,3775.050304
1713.777408,-6894.859482,-9918.759623,13545.768739
1713.777725,-14402.595362,-7328.038826,12213.398043
1713.778042,-15628.348159,-9326.594869,16654.633695
1713.778359,-15245.300410,-14063.912898,27609.681637
1713.778676,-16088.005458,-10510.924376,27757.722825
1713.778993,-9729.412825,1480.411884,17394.839637
1713.779311,-2757.943793,9252.574275,17024.736666
1713.779628,-229.828649,10658.965565,11029.068536
1713.779945,6588.421283,9474.636058,6439.791695
1713.780262,9652.803275,14359.995275,0.000000
1713.780579,12257.527968,11399.171507,-1332.370696
1713.780897,14632.424012,7476.080014,-2590.720797
1713.781214,16547.662757,1702.473667,2664.741391
1713.781531,13559.890315,740.205942,2368.659014
1713.781848,8656.879127,-1258.350101,2664.741391
1713.782165,-1225.752797,-5033.400406,2886.803174
1713.782482,-6128.763984,-10288.862594,14952.160028
1713.782800,-12410.747068,-9474.636058,12879.583391
1713.783117,-15858.176809,-5773.606348,10140.821405
1713.783434,-15321.909960,-8956.491898,22058.137072
1713.783751,-15934.786358,-8660.409521,28571.949361
1713.784068,-9499.584175,-0.000000,21910.095883
1713.784386,-2298.286494,8364.327145,15692.365970
1713.784703,1915.238745,9400.615463,10140.821405
1713.785020,7201.297681,7254.018232,8660.409521
1713.785337,11644.651570,10214.842000,4145.153275
1713.785654,14172.766713,12213.398043,-3256.906145
1713.785972,18309.682402,7920.203579,-4663.297435
1713.786289,17160.539155,1406.391290,3627.009116
1713.786606,14709.033562,-2072.576638,3775.050304
1713.786923,10495.508323,-2220.617826,1850.514855
1713.787240,536.266849,-3330.926739,3256.906145
1713.787557,-3830.477490,-9844.739029,14285.974681
1713.787875,-9576.193725,-8142.265362,14063.912898
1713.788192,-11874.480219,-3997.112087,11103.089130
1713.788509,-12563.966167,-7920.203579,20799.786970
1713.788826,-12717.185267,-10955.047942,26647.413912
1713.789143,-7890.783629,-2368.659014,26055.249158
1713.789461,-1532.190996,9918.759623,13323.706956
1713.789778,2068.457845,13175.665768,4441.235652
1713.790095,6205.373534,9474.636058,7402.059420
1713.790412,10342.289223,5847.626942,6069.688724
1713.790729,10189.070123,7254.018232,-592.164754
1713.791047,14709.033562,5329.482782,0.000000
1713.791364,14632.424012,2294.638420,1924.535449
1713.791681,15858.176809,-1036.288319,4959.379811
1713.791998,10648.727422,-74.020594,1036.288319
1713.792315,1072.533697,-3256.906145,2220.617826
1713.792632,-5132.839837,-9178.553681,9548.656652
1713.792950,-11797.870669,-9252.574275,11029.068536
1713.793267,-14555.814462,-4885.359217,10881.027347
1713.793584,-15245.300410,-6883.915261,21243.910535
1713.793901,-16241.224558,-11769.274478,23612.569550
1713.794218,-15934.786358,-8586.388927,25759.166782
1713.794536,-9346.365076,1036.288319,21762.054695
1713.794853,-3907.087040,9622.677246,9400.615463
1713.795170,3907.087040,10288.862594,4515.256246
1713.795487,8963.317327,9992.780217,7105.977043
1713.795804,11491.432470,8956.491898,2294.638420
1713.796122,14555.814462,9252.574275,-4515.256246
1713.796439,19228.997000,4145.153275,74.020594
1713.796756,17773.415554,-1998.556043,3701.029710
1713.797073,12793.794817,-3034.844362,666.185348
1713.797390,6358.592633,-3627.009116,3256.906145
1713.797707,-2528.115143,-7624.121203,7179.997637
1713.798025,-6894.859482,-11547.212695,14434.015869
1713.798342,-12563.966167,-5773.606348,10955.047942
1713.798659,-13023.623466,-5107.421000,16284.530724
1713.798976,-12640.575717,-6587.832884,22132.157666
1713.799293,-13636.499864,-5329.482782,20577.725188
1713.799611,-5975.544884,2072.576638,19911.539840
1713.799928,-766.095498,12065.356855,10807.006753
1713.800245,4673.182538,9770.718434,3478.967927
1713.800562,8963.317327,6217.729913,6513.812290
1713.800879,8350.440928,6883.915261,4663.297435
1713.801196,10112.460574,6217.729913,-1110.308913
1713.801514,14019.547613,2960.823768,-370.102971
1713.801831,14862.252661,-1184.329507,9030.512492
1713.802148,9422.974625,-3182.885551,5477.523971
1713.802465,4979.620737,-3034.844362,5107.421000
1713.802782,-2987.772442,-5625.565159,7772.162391
1713.803100,-5592.497135,-8216.285956,15544.324782
1713.803417,-10265.679673,-3034.844362,9696.697840
1713.803734,-9959.241474,-3182.885551,11473.192101
1713.804051,-12410.747068,-5551.544565,17764.942608
1713.804368,-13559.890315,-8660.409521,25389.063811
1713.804686,-7967.393179,666.185348,20947.828159
1713.805003,-1378.971896,10066.800811,14211.954086
1713.805320,5822.325785,11177.109724,5329.482782
1713.805637,9346.365076,6143.709319,8660.409521
1713.805954,11491.432470,4737.318029,5181.441594
1713.806271,13559.890315,7698.141797,-4811.338623
1713.806589,17466.977354,7031.956449,-5033.400406
1713.806906,16471.053207,-0.000000,3775.050304
1713.807223,13559.890315,-2738.761985,6513.812290
1713.807540,9422.974625,1110.308913,2072.576638
1713.807857,-2145.067394,-3256.906145,2738.761985
1713.808175,-6281.983084,-10140.821405,20281.642811
1713.808492,-12257.527968,-7179.997637,15026.180623
1713.808809,-14785.643111,-1628.453072,10288.862594
1713.809126,-13330.061665,-6735.874072,21539.992912
1713.809443,-15551.738609,-7031.956449,22280.198854
1713.809761,-9729.412825,-5403.503377,28794.011144
1713.810078,-4673.182538,9474.636058,13989.892304
1713.810395,2374.896044,15322.262999,4811.338623
1713.810712,5745.716235,11695.253884,7328.038826
1713.811029,9652.803275,7550.100608,5995.668130
1713.811346,8733.488677,7550.100608,-2146.597232
1713.811664,12027.699319,4219.173869,-592.164754
1713.811981,14555.814462,-444.123565,3923.091493
1713.812298,12947.013916,-6365.771101,10732.986159
1713.812615,10572.117872,-2368.659014,5329.482782
1713.812932,2374.896044,-2368.659014,3775.050304
1713.813250,-5132.839837,-7402.059420,12213.398043
1713.813567,-10955.165621,-8216.285956,12287.418637
1713.813884,-12640.575717,-2072.576638,9030.512492
1713.814201,-14479.204912,-4145.153275,13693.809927
1713.814518,-12870.404366,-9178.553681,23316.487173
1713.814836,-14785.643111,-6439.791695,25389.063811
1713.815153,-6358.592633,4367.215058,17024.736666
1713.815470,0.000000,8068.244768,11991.336260
1713.815787,3677.258390,7328.038826,10362.883188
1713.816104,9346.365076,5477.523971,9104.533087
1713.816421,10265.679673,8586.388927,518.144159
1713.816739,14249.376263,9622.677246,-5329.482782
1713.817056,16547.662757,3182.885551,444.123565
1713.817373,15934.786358,-3330.926739,6957.935855
1713.817690,12487.356617,-2294.638420,5921.647536
1713.818007,6435.202183,-1258.350101,2516.700203
1713.818325,-4596.572988,-6365.771101,4219.173869
1713.818642,-3983.696590,-8216.285956,16580.613101
1713.818959,-9422.974625,-4737.318029,8956.491898
1713.819276,-12257.527968,-5477.523971,11399.171507
1713.819593,-11108.384721,-9252.574275,23908.651927
1713.819910,-12793.794817,-4515.256246,23242.466579
1713.820228,-2911.162892,3330.926739,19245.354492
1713.820545,2987.772442,13989.892304,9400.615463
1713.820862,6741.640382,11251.130318,3552.988522
1713.821179,9959.241474,7772.162391,2886.803174
1713.821496,12180.918418,5773.606348,-962.267725
1713.821814,10495.508323,7328.038826,-4589.276840
1713.822131,12793.794817,2072.576638,-592.164754
1713.822448,12180.918418,444.123565,3256.906145
1713.822765,9806.022374,-2368.659014,9252.574275
1713.823082,4519.963438,-3923.091493,7179.997637
1713.823400,-4673.182538,-4737.318029,4737.318029
1713.823717,-7431.126331,-9622.677246,15692.365970
1713.824034,-12334.137518,-7105.977043,11547.212695
1713.824351,-14172.766713,-3552.988522,12435.459826
1713.824668,-12870.404366,-7772.162391,21614.013506
1713.824985,-14325.985813,-5255.462188,21243.910535
1713.825303,-7354.516781,296.082377,24278.754898
1713.825620,-2068.457845,10066.800811,12731.542202
1713.825937,5822.325785,13249.686362,4737.318029
1713.826254,9499.584175,10214.842000,3775.050304
1713.826571,10418.898773,4589.276840,5995.668130
1713.826889,10878.556072,7254.018232,-2294.638420
1713.827206,13942.938064,5033.400406,-2516.700203
1713.827523,15398.519510,1850.514855,-1332.370696
1713.827840,13176.842566,-6217.729913,11325.150913
1713.828157,8886.707777,-1480.411884,5551.544565
1713.828475,689.485948,-1776.494261,3923.091493
1713.828792,-6128.763984,-8068.244768,13841.851115
1713.829109,-14019.547613,-8660.409521,16284.530724
1713.829426,-12793.794817,-5995.668130,20207.622217
1713.829743,-14709.033562,-7105.977043,19319.375086
1713.830060,-14402.595362,-5403.503377,20429.683999
1713.830378,-10342.289223,-1036.288319,24426.796086
1713.830695,-3370.820191,13767.830521,11917.315666
1713.831012,5286.058936,15544.324782,4737.318029
1713.831329,6281.983084,11547.212695,2442.679609
1713.831646,6205.373534,4663.297435,6809.894666
1713.831964,7124.688131,4441.235652,2220.617826
1713.832281,8580.269578,3182.885551,-962.267725
1713.832598,9729.412825,-2590.720797,2812.782580
1713.832915,7431.126331,-8882.471304,13915.871710
1713.833232,5439.278036,-5255.462188,12583.501014
1713.833549,766.095498,-2960.823768,8142.265362
1713.833867,-5822.325785,-6883.915261,13101.645173
1713.834184,-9576.193725,-5477.523971,16654.633695
1713.834501,-9882.631924,-3256.906145,11177.109724
1713.834818,-11797.870669,-962.267725,9548.656652
1713.835135,-8580.269578,-3849.070898,20429.683999
1713.835453,-9576.193725,592.164754,18209.066173
1713.835770,0.000000,8364.327145,10658.965565
1713.836087,7737.564530,12213.398043,8808.450710
1713.836404,8273.831378,7328.038826,4737.318029
1713.836721,11261.603821,222.061783,8438.347739
1713.837039,11261.603821,222.061783,2960.823768
1713.837356,11797.870669,4293.194464,-2960.823768
1713.837673,13023.623466,-666.185348,0.000000
1713.837990,11338.213370,-4737.318029,7105.977043
1713.838307,10418.898773,-5107.421000,9474.636058
1713.838624,5515.887586,148.041188,6217.729913
1713.838942,-2451.505594,-4293.194464,4441.235652
1713.839259,-7737.564530,-7402.059420,17098.757260
1713.839576,-9959.241474,-6587.832884,14656.077652
1713.839893,-11108.384721,1110.308913,12139.377449
1713.840210,-8963.317327,-4737.318029,21762.054695
1713.840528,-9193.145976,-3552.988522,19393.395680
1713.840845,-2604.724693,5255.462188,14285.974681
1713.841162,5362.668486,13989.892304,5995.668130
1713.841479,8810.098227,9770.718434,2516.700203
1713.841796,10112.460574,370.102971,6143.709319
1713.842114,8120.612279,-1258.350101,1702.473667
1713.842431,9193.145976,4293.194464,-3182.885551
1713.842748,10418.898773,2072.576638,-2146.597232
1713.843065,9729.412825,-1554.432478,2738.761985
1713.843382,7890.783629,-6365.771101,10140.821405
1713.843699,2221.676944,2294.638420,1998.556043
1713.844017,-3447.429741,-1406.391290,6217.729913
1713.844334,-11491.432470,-7179.997637,16358.551318
1713.844651,-13636.499864,-10955.047942,16802.674883
1713.844968,-14709.033562,-1332.370696,13545.768739
1713.845285,-13253.452115,-1924.535449,17616.901420
1713.845603,-11414.822920,-3404.947333,18727.210333
1713.845920,-7277.907231,-1110.308913,21465.972318
1713.846237,1608.800546,9548.656652,11769.274478
1713.846554,4673.182538,14656.077652,3552.988522
1713.846871,8580.269578,7624.121203,11399.171507
1713.847189,8350.440928,5181.441594,7698.141797
1713.847506,10725.336972,8142.265362,-1702.473667
1713.847823,13023.623466,8142.265362,-6587.832884
1713.848140,12870.404366,1554.432478,-1628.453072
1713.848457,11338.213370,-7698.141797,7254.018232
1713.848774,5669.106685,-1628.453072,6143.709319
1713.849092,2374.896044,-1332.370696,5403.503377
1713.849409,-6818.249932,-9474.636058,8956.491898
1713.849726,-12563.966167,-11029.068536,22576.281231
1713.850043,-13253.452115,-11917.315666,21984.116477
1713.850360,-16777.491406,-4367.215058,17838.963202
1713.850678,-8580.269578,-7772.162391,25981.228564
1713.850995,-7737.564530,4959.379811,17320.819043
1713.851312,2298.286494,13397.727550,11325.150913
1713.851629,5515.887586,21095.869347,2294.638420
1713.851946,7048.078582,3108.864956,9252.574275
1713.852263,5745.716235,1554.432478,12139.377449
1713.852581,9269.755526,2812.782580,3034.844362
1713.852898,8886.707777,7105.977043,-7920.203579
1713.853215,8733.488677,222.061783,-2072.576638
1713.853532,11568.042020,-9696.697840,16728.654289
1713.853849,4060.306139,-7624.121203,10362.883188
1713.854167,1532.190996,-8142.265362,12583.501014
1713.854484,-9039.926876,-7328.038826,7328.038826
1713.854791,-5286.058936,-7994.224174,22724.322419
1713.855109,-10265.679673,-4515.256246,14137.933492
1713.855426,-9806.022374,-296.082377,11399.171507
1713.855743,-7967.393179,-1110.308913,19615.457463
1713.856060,-6665.030833,4811.338623,16432.571912
1713.856378,3447.429741,8216.285956,12435.459826
1713.856695,8197.221829,14359.995275,6217.729913
1713.857012,10725.336972,7698.141797,6439.791695
1713.857329,12334.137518,2368.659014,5551.544565
1713.857647,11874.480219,2072.576638,4367.215058
1713.857964,12793.794817,5773.606348,-962.267725
1713.858281,14402.595362,1924.535449,-1628.453072
1713.858598,13942.938064,-296.082377,962.267725
1713.858916,11491.432470,-4589.276840,7476.080014
1713.859233,5439.278036,-74.020594,5625.565159
1713.859550,-2834.553343,-296.082377,-666.185348
1713.859867,-7354.516781,-8216.285956,14434.015869
1713.860185,-13483.280765,-7179.997637,12065.356855
1713.860502,-14709.033562,-5033.400406,15248.242405
1713.860819,-14402.595362,-9474.636058,21984.116477
1713.861136,-14325.985813,-5699.585753,12879.583391
1713.861454,-8427.050478,-1702.473667,21317.931130
1713.861771,-3140.991542,10288.862594,13471.748144
1713.862088,1455.581446,15248.242405,4219.173869
1713.862405,5286.058936,6365.771101,7920.203579
1713.862723,2604.724693,1332.370696,10362.883188
1713.863040,7431.126331,3775.050304,3701.029710
1713.863357,11108.384721,5847.626942,-5625.565159
1713.863674,12410.747068,1554.432478,-4589.276840
1713.863992,12257.527968,-7476.080014,10955.047942
1713.864309,6358.592633,-1036.288319,4071.132681
1713.864626,1072.533697,-1184.329507,3108.864956
1713.864944,-9116.536426,-2664.741391,4293.194464
1713.865261,-10265.679673,-9622.677246,17912.983796
1713.865578,-13636.499864,-7105.977043,13471.748144
1713.865895,-15704.957709,-2072.576638,12065.356855
1713.866213,-11414.822920,-8734.430116,24574.837274
1713.866530,-13253.452115,-1850.514855,18801.230927
1713.866847,-1455.581446,296.082377,21317.931130
1713.867164,766.095498,9844.739029,10214.842000
1713.867482,4596.572988,5773.606348,8808.450710
1713.867799,7507.735880,5107.421000,9252.574275
1713.868116,10955.165621,5625.565159,6365.771101
1713.868433,11261.603821,12435.459826,-2368.659014
1713.868751,17160.539155,6809.894666,-1776.494261
1713.869068,14325.985813,1998.556043,2664.741391
1713.869385,13406.671215,-5403.503377,8660.409521
1713.869702,6894.859482,-1258.350101,4293.194464
1713.870020,1532.190996,-5773.606348,4663.297435
1713.870337,-2681.334243,-7994.224174,15026.180623
1713.870654,-4903.011187,-11251.130318,13545.768739
1713.870971,-12257.527968,-2368.659014,10584.944971
1713.871289,-8350.440928,-6143.709319,20799.786970
1713.871606,-9882.631924,-2072.576638,19171.333898
1713.871923,-5056.230287,-1480.411884,21910.095883
1713.872240,1302.362347,10436.903782,13915.871710
1713.872558,2451.505594,11917.315666,9474.636058
1713.872875,7354.516781,7254.018232,8364.327145
1713.873192,7201.297681,2738.761985,6809.894666
1713.873509,10189.070123,5329.482782,4589.276840
1713.873827,10572.117872,7031.956449,-1628.453072
1713.874144,14479.204912,1776.494261,-666.185348
1713.874461,10495.508323,-5921.647536,10436.903782
1713.874778,8427.050478,-7105.977043,11621.233289
1713.875096,1302.362347,-1776.494261,6217.729913
1713.875413,-3600.648841,740.205942,6217.729913
1713.875730,-5362.668486,-7179.997637,12213.398043
1713.876047,-11797.870669,-3627.009116,9548.656652
1713.876365,-14709.033562,-2146.597232,11473.192101
1713.876682,-11568.042020,-3849.070898,19171.333898
1713.876999,-11721.261119,-1480.411884,18431.127956
1713.877317,-3217.601092,-444.123565,20873.807564
1713.877634,-2604.724693,9104.533087,9696.697840
1713.877951,3294.210641,5181.441594,11695.253884
1713.878268,3753.867940,2442.679609,10140.821405
1713.878586,8733.488677,-1702.473667,15026.180623
1713.878903,7967.393179,9326.594869,148.041188
1713.879220,16011.395908,10807.006753,-3330.926739
1713.879537,15704.957709,7846.182985,518.144159
1713.879855,15092.081311,-222.061783,3849.070898
1713.880172,9806.022374,2368.659014,-2220.617826
1713.880489,2221.676944,-1924.535449,-222.061783
1713.880806,-4596.572988,-5033.400406,6069.688724
1713.881124,-10572.117872,-11177.109724,9548.656652
1713.881441,-16011.395908,-5107.421000,8216.285956
1713.881758,-15628.348159,-11325.150913,22576.281231
1713.882075,-18079.853753,-8216.285956,19393.395680
1713.882393,-14555.814462,-8586.388927,21169.889941
1713.882710,-9576.193725,518.144159,20577.725188
1713.883027,-5132.839837,6143.709319,15914.427753
1713.883344,229.828649,6587.832884,10881.027347
1713.883662,1302.362347,4219.173869,11325.150913
1713.883979,6511.811733,7328.038826,7846.182985
1713.884296,8273.831378,13323.706956,-2294.638420
1713.884613,16777.491406,11843.295072,-5255.462188
1713.884931,16700.881856,2146.597232,3256.906145
1713.885248,15858.176809,-5477.523971,6883.915261
1713.885565,7814.174080,-3256.906145,2886.803174
1713.885882,5592.497135,-3701.029710,5847.626942
1713.886200,0.000000,-7254.018232,6069.688724
1713.886517,-4903.011187,-11029.068536,6217.729913
1713.886834,-13023.623466,-5107.421000,4737.318029
1713.887151,-10955.165621,-6439.791695,17320.819043
1713.887469,-14325.985813,-4293.194464,12953.603985
1713.887786,-8810.098227,-6365.771101,23686.590144
1713.888103,-6205.373534,296.082377,19023.292709
1713.888420,-3217.601092,3627.009116,15840.407159
1713.888738,1302.362347,1036.288319,14952.160028
1713.889055,2528.115143,-1850.514855,19245.354492
1713.889372,9193.145976,5921.647536,11177.109724
1713.889690,15551.738609,14582.057057,1480.411884
1713.890007,20224.921147,16728.654289,-5847.626942
1713.890324,21297.454844,6513.812290,5329.482782
1713.890641,20301.530697,444.123565,4145.153275
1713.890959,14555.814462,-0.000000,3627.009116
1713.891276,10189.070123,-2146.597232,2220.617826
1713.891593,5745.716235,-6217.729913,6883.915261
1713.891910,-1455.581446,-7624.121203,3478.967927
1713.892228,-8963.317327,-3849.070898,4367.215058
1713.892545,-11414.822920,-7105.977043,10955.047942
1713.892862,-13636.499864,-5551.544565,12879.583391
1713.893179,-11568.042020,-9696.697840,23316.487173
1713.893497,-10265.679673,-2738.761985,20355.663405
1713.893814,-7507.735880,370.102971,19245.354492
1713.894131,-5515.887586,-814.226536,16506.592507
1713.894448,-3140.991542,-1924.535449,22724.322419
1713.894766,1991.848295,7846.182985,14359.995275
1713.895083,7201.297681,20651.745782,0.000000
1713.895400,14402.595362,22280.198854,-6809.894666
1713.895717,15398.519510,9548.656652,5847.626942
1713.896035,15628.348159,592.164754,6587.832884
1713.896352,10955.165621,1110.308913,5033.400406
1713.896669,5439.278036,1924.535449,-2220.617826
1713.896986,919.314598,-4811.338623,6217.729913
1713.897304,-3600.648841,-6291.750507,5921.647536
1713.897621,-9729.412825,-2664.741391,2368.659014
1713.897938,-13789.718964,-6883.915261,7624.121203
1713.898255,-18233.072852,-5625.565159,9992.780217
1713.898573,-14172.766713,-9622.677246,25833.187376
1713.898890,-11414.822920,-4071.132681,19911.539840
1713.899207,-8656.879127,-2664.741391,20577.725188
1713.899524,-7354.516781,-6661.853478,19171.333898
1713.899842,-6665.030833,-2960.823768,21910.095883
1713.900159,2604.724693,8364.327145,14656.077652
1713.900476,9269.755526,21688.034101,814.226536
1713.900793,16777.491406,22650.301825,-6217.729913
1713.901111,18769.339701,13693.809927,2664.741391
1713.901428,18616.120601,3849.070898,5921.647536
1713.901745,15015.471761,666.185348,7402.059420
1713.902063,11491.432470,-1480.411884,1332.370696
1713.902380,6741.640382,-5699.585753,5181.441594
1713.902697,5822.325785,-5255.462188,5551.544565
1713.903014,-2528.115143,-1036.288319,-3552.988522
1713.903332,-8656.879127,-8512.368333,3627.009116
1713.903649,-14019.547613,-7550.100608,9696.697840
1713.903966,-12410.747068,-10732.986159,22132.157666
1713.904283,-11874.480219,-7994.224174,22724.322419
1713.904601,-12027.699319,-5477.523971,20355.663405
1713.904918,-9806.022374,-7179.997637,21021.848753
1713.905235,-7737.564530,-4663.297435,22946.384202
1713.905552,1225.752797,3404.947333,18949.272115
1713.905870,6052.154434,16358.551318,7328.038826
1713.906187,15015.471761,22354.219448,-3552.988522
1713.906504,19535.435199,13989.892304,1998.556043
1713.906821,20454.749797,3330.926739,8956.491898
1713.907139,17160.539155,-888.247130,10955.047942
1713.907456,15551.738609,-0.000000,74.020594
1713.907773,12027.699319,-2294.638420,1480.411884
1713.908090,11414.822920,-3034.844362,4663.297435
1713.908408,2834.553343,1480.411884,-5699.585753
1713.908725,-2834.553343,-4515.256246,-2738.761985
1713.909042,-12104.308868,-3330.926739,814.226536
1713.909359,-14785.643111,-10140.821405,13989.892304
1713.909677,-15245.300410,-11251.130318,17987.004391
1713.909994,-17160.539155,-9104.533087,17468.860231
1713.910311,-13253.452115,-16728.654289,26055.249158
1713.910628,-19841.873398,-14804.118840,17024.736666
1713.910946,-10035.851024,-13841.851115,38194.626607
1713.911263,-7124.688131,2442.679609,23686.590144
1713.911580,3217.601092,21688.034101,3775.050304
1713.911897,14632.424012,22946.384202,5921.647536
1713.912215,16854.100956,17468.860231,13619.789333
1713.912532,15934.786358,12583.501014,3478.967927
1713.912849,20148.311597,10658.965565,4071.132681
1713.913166,17926.634653,6217.729913,3775.050304
1713.913484,21757.112143,1110.308913,4737.318029
1713.913801,22293.378992,3108.864956,74.020594
1713.914118,12257.527968,4885.359217,-11325.150913
1713.914436,6435.202183,-3256.906145,-7105.977043
1713.914753,-4749.792088,-8216.285956,-5329.482782
1713.915070,-11261.603821,-7920.203579,6217.729913
1713.915387,-15092.081311,-7179.997637,4293.194464
1713.915705,-19688.654299,-5921.647536,7254.018232
1713.916022,-24285.227287,-20799.786970,12953.603985
1713.916339,-28958.409824,-22650.301825,24944.940245
1713.916656,-23212.693589,-29978.340651,45300.603650
1713.916974,-21833.721693,-11917.315666,26573.393318
1713.917291,-6128.763984,1258.350101,27461.640448
1713.917608,383.047749,15248.242405,26943.496289
1713.917925,2145.067394,17764.942608,18283.086767
1713.918243,12793.794817,17172.777854,14063.912898
1713.918560,11721.261119,24426.796086,6735.874072
1713.918877,21374.064394,21391.951724,3108.864956
1713.919194,27809.266577,21910.095883,5921.647536
1713.919512,40373.232745,18431.127956,9252.574275
1713.919829,38381.384450,17690.922014,-6957.935855
1713.920146,37002.412553,4885.359217,-9474.636058
1713.920463,26047.246932,2664.741391,-14063.912898
1713.920781,17620.196454,-222.061783,-17024.736666
1713.921098,8427.050478,-1628.453072,-9400.615463
1713.921415,-2604.724693,-148.041188,-9548.656652
1713.921732,-13330.061665,-10436.903782,-4959.379811
1713.922050,-23978.789087,-11103.089130,0.000000
1713.922367,-27272.999729,-20799.786970,13619.789333
1713.922684,-39224.089498,-24722.878463,9400.615463
1713.923001,-41982.033290,-28127.825796,23686.590144
1713.923319,-42824.738338,-33235.246796,39378.956114
1713.923636,-37998.336701,-22354.219448,44264.315332
1713.923953,-27349.609279,-11251.130318,47003.077317
1713.924270,-14325.985813,1184.329507,34937.720462
1713.924588,-7354.516781,13767.830521,19245.354492
1713.924905,2298.286494,7179.997637,37528.441259
1713.925222,8273.831378,19689.478057,22946.384202
1713.925539,19535.435199,34419.576303,1184.329507
1713.925857,33478.373263,43376.068201,-1480.411884
1713.926174,37615.288952,35677.926404,5181.441594
1713.926491,58989.353346,22576.281231,9770.718434
1713.926809,52017.884314,22724.322419,-22724.322419
1713.927126,59755.448844,5255.462188,-13693.809927
1713.927443,50715.521968,222.061783,-2368.659014
1713.927760,51175.179266,-8142.265362,6735.874072
1713.928078,50332.474219,-11325.150913,8512.368333
1713.928395,41369.156892,7624.121203,7846.182985
1713.928712,35393.612008,13175.665768,8956.491898
1713.929029,33325.154163,19985.560434,7031.956449
1713.929347,29111.628924,28423.908173,-4293.194464
1713.929664,24974.713235,41747.615129,-15618.345376
1713.929981,20684.578446,39304.935520,-19467.416275
1713.930298,11491.432470,31606.793723,-22576.281231
1713.930616,6052.154434,15100.201217,-18135.045579
1713.930933,-3600.648841,4737.318029,-5403.503377
1713.931250,-16547.662757,-17690.922014,0.000000
1713.931567,-24438.446386,-19467.416275,9992.780217
1713.931885,-36312.926605,-20873.807564,21317.931130
1713.932202,-46578.606278,-19319.375086,34863.699868
1713.932519,-54239.561258,-7920.203579,30940.608376
1713.932836,-58836.134246,-592.164754,36196.070564
1713.933154,-53933.123059,-4737.318029,42783.903448
1713.933471,-47651.139976,222.061783,33013.185013
1713.933788,-36542.755255,2812.782580,23094.425390
1713.934105,-29954.333972,3330.926739,14285.974681
1713.934423,-26123.856482,1480.411884,14804.118840
1713.934740,-19535.435199,7624.121203,4367.215058
1713.935057,-13023.623466,13175.665768,-592.164754
1713.935374,-4443.353888,10807.006753,-1998.556043
1713.935692,6205.373534,7846.182985,5033.400406
1713.936009,11874.480219,-444.123565,16284.530724
1713.936326,18386.291952,-2368.659014,23464.528361
1713.936643,25664.199183,-6217.729913,26203.290347
1713.936961,32865.496864,-2664.741391,30126.381839
1713.937278,40143.404095,-2294.638420,35603.905810
1713.937595,39224.089498,-3997.112087,20503.704593
1713.937912,48264.016374,-148.041188,10955.047942
1713.938230,56154.800003,7179.997637,1406.391290
1713.938547,54545.999458,15692.365970,-10066.800811
1713.938864,57457.162350,16062.468941,-7105.977043
1713.939182,56691.066852,24204.734303,-5329.482782
1713.939499,49259.940521,19689.478057,-4293.194464
1713.939816,41215.937792,14063.912898,5773.606348
1713.940133,29418.067123,13027.624579,7179.997637
1713.940451,19841.873398,16580.613101,-148.041188
1713.940768,17390.367805,20725.766376,-7624.121203
1713.941085,10495.508323,18135.045579,-14137.933492
1713.941402,3753.867940,-1258.350101,-2738.761985
1713.941720,-7431.126331,-19171.333898,6365.771101
1713.942037,-17160.539155,-22058.137072,17320.819043
1713.942354,-30413.991271,-25685.146187,17320.819043
1713.942671,-43207.786087,-27165.558071,16580.613101
1713.942989,-50102.645569,-25167.002028,30496.484810
1713.943306,-52171.103414,-9992.780217,28423.908173
1713.943623,-55924.971354,12657.521608,-1776.494261
1713.943940,-49413.159621,24426.796086,-15692.365970
1713.944258,-39377.308597,13101.645173,-1184.329507
1713.944575,-35470.221557,-6809.894666,6513.812290
1713.944892,-35393.612008,-18949.272115,11769.274478
1713.945209,-40986.109143,-17838.963202,14952.160028
1713.945527,-38151.555800,-15396.283594,17320.819043
1713.945844,-29264.848024,-13841.851115,16136.489536
1713.946161,-22446.598091,-5921.647536,13619.789333
1713.946478,-16088.005458,2590.720797,9030.512492
1713.946796,-16624.272307,-148.041188,4959.379811
1713.947113,-13253.452115,-9400.615463,12657.521608
1713.947430,-8963.317327,-18283.086767,19467.416275
1713.947747,-8120.612279,-20503.704593,18061.024985
1713.948065,-6281.983084,-28127.825796,11843.295072
1713.948382,-153.219100,-30718.546593,18357.107362
1713.948699,3524.039291,-33383.287984,20799.786970
1713.949016,15245.300410,-28201.846390,21688.034101
1713.949334,27732.657028,-15692.365970,19393.395680
1713.949651,37538.679402,-3108.864956,13545.768739
1713.949968,36006.488406,-2738.761985,17320.819043
1713.950285,35929.878856,-592.164754,14582.057057
1713.950603,41675.595091,2368.659014,11029.068536
1713.950920,50485.693318,4737.318029,16358.551318
1713.951237,53703.294410,6809.894666,11843.295072
1713.951555,60061.887043,16358.551318,9992.780217
1713.951872,63279.488135,25018.960840,4737.318029
1713.952189,65730.993728,32124.937883,814.226536
1713.952506,58453.086497,29460.196492,-8364.327145
1713.952824,48876.892772,32717.102636,-24574.837274
1713.953141,33248.544613,29386.175897,-34641.638086
1713.953458,17620.196454,19319.375086,-36714.214723
1713.953775,3983.696590,3701.029710,-28275.866984
1713.954093,-612.876398,-8512.368333,2146.597232
1713.954410,-16624.272307,-17912.983796,-1850.514855
1713.954727,-36389.536155,-26055.249158,8956.491898
1713.955044,-48570.454573,-32495.040854,24870.919651
1713.955362,-63126.269035,-25759.166782,22428.240043
1713.955679,-63739.145434,-26869.475695,32495.040854
1713.955996,-59142.572446,-19689.478057,28794.011144
1713.956314,-54622.609007,-9104.533087,22428.240043
1713.956631,-36772.583904,5477.523971,23538.548956
1713.956948,-25051.322785,23242.466579,18209.066173
1713.957266,-16777.491406,25759.166782,6143.709319
1713.957583,-10189.070123,21836.075289,1332.370696
1713.957901,-5898.935335,35529.885216,-9770.718434
1713.958218,1608.800546,33679.370361,-814.226536
1713.958535,8044.002729,16580.613101,666.185348
1713.958853,17466.977354,9252.574275,13101.645173
1713.959170,22369.988542,3256.906145,26277.310941
1713.959488,25970.637382,16950.716072,20133.601622
1713.959805,27732.657028,6957.935855,20503.704593
1713.960122,23442.522239,4885.359217,25685.146187
1713.960440,23059.474490,8956.491898,23242.466579
1713.960757,25587.589633,9992.780217,3108.864956
1713.961075,31180.086769,7846.182985,-1480.411884
1713.961392,39990.184996,4737.318029,-518.144159
1713.961710,45659.291681,9104.533087,592.164754
1713.962027,51634.836565,9992.780217,8364.327145
1713.962344,45506.072581,8808.450710,14063.912898
1713.962662,32405.839565,9474.636058,15988.448347
1713.962979,16317.834107,19097.313304,21614.013506
1713.963297,9269.755526,28719.990550,2368.659014
1713.963614,536.266849,30718.546593,-4145.153275
1713.963931,-383.047749,23168.445985,-2368.659014
1713.964249,-4673.182538,12657.521608,13175.665768
1713.964566,-9499.584175,1110.308913,19615.457463
1713.964884,-15628.348159,-7846.182985,18653.189738
1713.965201,-25817.418283,-14952.160028,26203.290347
1713.965518,-33708.201912,-21465.972318,34197.514520
1713.965836,-39224.089498,-15840.407159,35974.008781
1713.966153,-45659.291681,-3404.947333,17912.983796
1713.966471,-48034.187725,8512.368333,8290.306550
1713.966788,-42901.347888,13693.809927,4959.379811
1713.967106,-39224.089498,10510.924376,7105.977043
1713.967423,-37768.508051,4589.276840,5107.421000
1713.967740,-48340.625924,1850.514855,-5699.585753
1713.968058,-50485.693318,-10584.944971,15174.221811
1713.968375,-44586.757984,-20725.766376,27239.578666
1713.968693,-35776.659757,-11325.150913,19985.560434
1713.969010,-28192.314326,-15840.407159,7476.080014
1713.969327,-21527.283494,-16654.633695,15692.365970
1713.969645,-12487.356617,-28794.011144,23686.590144
1713.969962,-5132.839837,-21243.910535,18949.272115
1713.970280,-6435.202183,-24130.713709,10807.006753
1713.970597,-2221.676944,-26055.249158,13767.830521
1713.970914,-2451.505594,-25981.228564,8956.491898
1713.971232,1685.410096,-27535.661042,15396.283594
1713.971549,6128.763984,-29682.258274,12065.356855
1713.971867,15015.471761,-23686.590144,4959.379811
1713.972184,29571.286223,-29386.175897,15470.304188
1713.972502,35623.440657,-33087.205607,25463.084405
1713.972819,36619.364804,-27831.743419,17320.819043
1713.973136,38841.041749,-18505.148550,11917.315666
1713.973454,43897.272035,-6143.709319,5921.647536
1713.973771,52400.932063,-3775.050304,3552.988522
1713.974089,61057.811191,-444.123565,8438.347739
1713.974406,63892.364533,5329.482782,4663.297435
1713.974723,64198.802732,16062.468941,-962.267725
1713.975041,63509.316784,22576.281231,-814.226536
1713.975358,63739.145434,27017.516883,-4145.153275
1713.975676,57763.600549,36418.132346,-28275.866984
1713.975993,49413.159621,37602.461854,-38120.606013
1713.976310,35393.612008,29238.134709,-45596.686027
1713.976628,24898.103685,13767.830521,-33901.432144
1713.976945,12410.747068,5551.544565,-28571.949361
1713.977263,689.485948,-4071.132681,-27165.558071
1713.977580,-6128.763984,-16950.716072,-5625.565159
1713.977898,-27656.047478,-33457.308578,3256.906145
1713.978215,-42135.252390,-39526.997303,24870.919651
1713.978532,-56461.238203,-33013.185013,16580.613101
1713.978850,-65041.507780,-24870.919651,26573.393318
1713.979167,-60291.715693,-31014.628970,38046.585419
1713.979485,-55695.142705,-7328.038826,28275.866984
1713.979802,-46655.215828,7402.059420,29682.258274
1713.980119,-35853.269306,25167.002028,14063.912898
1713.980437,-32022.791816,22354.219448,-5107.421000
1713.980754,-25357.760984,17172.777854,-1480.411884
1713.981072,-17620.196454,21095.869347,-2738.761985
1713.981389,-11568.042020,20503.704593,-7179.997637
1713.981706,-12793.794817,15248.242405,-6587.832884
1713.982024,-5362.668486,1628.453072,13989.892304
1713.982341,-6818.249932,518.144159,16432.571912
1713.982659,-1991.848295,2738.761985,28423.908173
1713.982976,689.485948,-6587.832884,42339.779882
1713.983294,-1455.581446,-13915.871710,38342.667796
1713.983611,1991.848295,-12435.459826,30052.361245
1713.983928,9806.022374,-6957.935855,40563.285622
1713.984246,16394.443657,4219.173869,32198.958477
1713.984563,30950.258119,17024.736666,12139.377449
1713.984881,43667.443386,34493.596897,740.205942
1713.985198,49719.597820,40785.347404,1850.514855
1713.985515,56614.457302,37084.317694,2590.720797
1713.985833,56461.238203,36344.111752,-2220.617826
1713.986150,48953.502322,31310.711347,8956.491898
1713.986468,42058.642840,30792.567187,13841.851115
1713.986785,35623.440657,35529.885216,10362.883188
1713.987102,34704.126059,38490.708984,4441.235652
1713.987420,28805.190725,29312.155303,-4663.297435
1713.987737,16930.710506,15840.407159,6513.812290
1713.988055,7354.516781,370.102971,19319.375086
1713.988372,-8503.660028,-2738.761985,16580.613101
1713.988690,-25664.199183,-7624.121203,16432.571912
1713.989007,-34704.126059,-11029.068536,28275.866984
1713.989324,-43514.224286,-12509.480420,33013.185013
1713.989642,-49489.769171,-7698.141797,21021.848753
1713.989959,-51711.446115,370.102971,10658.965565
1713.990277,-53703.294410,8956.491898,962.267725
1713.990594,-47727.749525,-1480.411884,21317.931130
1713.990911,-49030.111872,-15914.427753,26277.310941
1713.991229,-46348.777629,-23686.590144,40711.326810
1713.991546,-44739.977083,-15766.386565,38342.667796
1713.991864,-43897.272035,3404.947333,24278.754898
1713.992181,-28345.533426,2738.761985,15100.201217
1713.992498,-15015.471761,5255.462188,4441.235652
1713.992816,-2987.772442,814.226536,9474.636058
1713.993133,-612.876398,-1776.494261,4589.276840
1713.993451,2145.067394,-15248.242405,1480.411884
1713.993768,8656.879127,-26721.434506,12731.542202
1713.994086,8963.317327,-26869.475695,12287.418637
1713.994403,5056.230287,-30126.381839,10436.903782
1713.994720,8427.050478,-39452.976709,17542.880825
1713.995038,16624.272307,-38120.606013,18505.148550
1713.995355,22446.598091,-37158.338288,14285.974681
1713.995673,22063.550342,-26351.331535,11177.109724
1713.995990,31869.572717,-10362.883188,14730.098246
1713.996307,35470.221557,4367.215058,-6143.709319
1713.996625,43590.833836,3478.967927,-9104.533087
1713.996942,45735.901231,-5625.565159,1554.432478
1713.997260,52477.541613,-4441.235652,2738.761985
1713.997577,63585.926334,592.164754,1850.514855
1713.997894,65730.993728,15544.324782,-7994.224174
1713.998212,65041.507780,27683.702231,-13471.748144
1713.998529,65654.384179,35011.741057,-18949.272115
1713.998847,50715.521968,37750.503042,-36862.255912
1713.999164,30030.943522,25907.207970,-35085.761651
1713.999482,16854.100956,14063.912898,-28571.949361
1713.999799,8197.221829,11177.109724,-29756.278868
1714.000116,0.000000,-10732.986159,-21836.075289
1714.000434,-8273.831378,-25167.002028,6365.771101
1714.000751,-31256.696318,-37084.317694,-1184.329507
1714.001069,-45276.243932,-35899.988187,12361.439231
1714.001386,-60674.763442,-37898.544230,16062.468941
1714.001703,-65884.212828,-34715.658680,19467.416275
1714.002021,-56844.285952,-35529.885216,32050.917289
1714.002338,-59985.277493,-16580.613101,19393.395680
1714.002656,-51405.007916,-13027.624579,25759.166782
1714.002973,-42135.252390,-4441.235652,29164.114115
1714.003290,-36772.583904,3108.864956,18801.230927
1714.003608,-24591.665486,8956.491898,2886.803174
1714.003925,-17926.634653,15248.242405,-6809.894666
1714.004243,-4443.353888,8734.430116,5699.585753
1714.004560,-536.266849,10510.924376,888.247130
1714.004878,9116.536426,7105.977043,9844.739029
1714.005195,20761.187996,4737.318029,19837.519246
1714.005512,33018.715964,11991.336260,22354.219448
1714.005830,30873.648569,13323.706956,20577.725188
1714.006147,25434.370534,9474.636058,21688.034101
1714.006465,25510.980083,6291.750507,12139.377449
1714.006782,23825.569988,3849.070898,7179.997637
1714.007099,30030.943522,-518.144159,13323.706956
1714.007417,29647.895773,1184.329507,10510.924376
1714.007734,36083.097956,9696.697840,6809.894666
1714.008052,44127.100685,16802.674883,16580.613101
1714.008369,39300.699047,15544.324782,27017.516883
1714.008686,26966.561530,16950.716072,21762.054695
1714.009004,21220.845295,33901.432144,11547.212695
1714.009321,20301.530697,49667.818708,-2072.576638
1714.009639,10572.117872,51000.189404,-16580.613101
1714.009956,14019.547613,33383.287984,-7698.141797
1714.010274,3370.820191,23390.507767,-5403.503377
1714.010591,-1378.971896,2368.659014,12213.398043
1714.010908,-16394.443657,-14804.118840,22946.384202
1714.011226,-32329.230016,-20503.704593,33309.267390
1714.011543,-42365.081039,-21688.034101,37824.523636
1714.011861,-47574.530426,-11251.130318,42709.882853
1714.012178,-50792.131517,-3182.885551,40785.347404
1714.012495,-53396.856211,7920.203579,21317.931130
1714.012813,-44893.196183,9548.656652,19763.498651
1714.013130,-36312.926605,5995.668130,12065.356855
1714.013448,-29111.628924,-2812.782580,28275.866984
1714.013765,-28345.533426,1184.329507,25389.063811
1714.014082,-29494.676673,7624.121203,10066.800811
1714.014400,-19458.825649,10436.903782,8882.471304
1714.014717,-13789.718964,11843.295072,0.000000
1714.015035,-7890.783629,3034.844362,666.185348
1714.015352,-6435.202183,814.226536,11103.089130
1714.015670,-9806.022374,-19467.416275,12805.562797
1714.015987,-4136.915689,-25092.981434,21317.931130
1714.016304,-689.485948,-22058.137072,12805.562797
1714.016622,-2834.553343,-28423.908173,23168.445985
1714.016939,842.705048,-46188.850781,31532.773129
1714.017257,9039.926876,-38342.667796,18653.189738
1714.017574,10189.070123,-32124.937883,16506.592507
1714.017891,17313.758255,-29312.155303,18949.272115
1714.018209,25817.418283,-13249.686362,9400.615463
1714.018526,31869.572717,-7402.059420,6143.709319
1714.018844,30184.162621,2886.803174,3923.091493
1714.019161,32559.058665,6735.874072,-2812.782580
1714.019478,41292.547342,10658.965565,-8882.471304
1714.019796,49642.988270,7179.997637,-740.205942
1714.020113,58376.476948,5995.668130,6291.750507
1714.020431,61287.639840,13989.892304,-5181.441594
1714.020748,65501.165079,24352.775492,-7550.100608
1714.021066,66190.651027,27461.640448,-11991.336260
1714.021383,63509.316784,29608.237680,-24426.796086
1714.021700,49030.111872,28942.052332,-37306.379477
1714.022018,37845.117601,26055.249158,-46336.891969
1714.022335,22676.426741,18209.066173,-40637.306216
1714.022653,11414.822920,3701.029710,-26573.393318
1714.022970,4366.744339,-7772.162391,-3775.050304
1714.023287,-17620.196454,-23316.487173,-10658.965565
1714.023605,-38764.432199,-33679.370361,-3108.864956
1714.023922,-55158.875856,-38786.791361,9696.697840
1714.024240,-65730.993728,-32717.102636,21169.889941
1714.024557,-61670.687589,-31532.773129,18949.272115
1714.024874,-52247.712964,-17616.901420,18357.107362
1714.025192,-53550.075310,-12583.501014,24648.857869
1714.025509,-43973.881585,-7476.080014,42339.779882
1714.025827,-39377.308597,6809.894666,23612.569550
1714.026144,-33861.421012,740.205942,16210.510130
1714.026462,-25587.589633,7550.100608,12435.459826
1714.026779,-19841.873398,13249.686362,-740.205942
1714.027096,-14785.643111,8808.450710,3552.988522
1714.027414,-12334.137518,740.205942,9696.697840
1714.027731,-4826.401637,7624.121203,10955.047942
1714.028049,-3064.381992,11991.336260,8808.450710
1714.028366,7354.516781,5551.544565,31088.649564
1714.028683,9193.145976,-8142.265362,31236.690752
1714.029001,5286.058936,-22502.260637,26351.331535
1714.029318,6741.640382,-36418.132346,38194.626607
1714.029636,11414.822920,-23390.507767,35381.844028
1714.029953,16547.662757,-9770.718434,21539.992912
1714.030270,30797.039020,9696.697840,16210.510130
1714.030588,43284.395637,20059.581028,16136.489536
1714.030905,46731.825378,22354.219448,13471.748144
1714.031223,44969.805733,26647.413912,14656.077652
1714.031540,44663.367533,30052.361245,19985.560434
1714.031858,40449.842294,40045.141462,6809.894666
1714.032175,45735.901231,43672.150578,-3108.864956
1714.032492,38228.165350,54035.033766,-18801.230927
1714.032810,30720.429470,43154.006419,-25833.187376
1714.033127,21910.331243,21021.848753,-13471.748144
1714.033445,16471.053207,814.226536,9622.677246
1714.033762,-1685.410096,-7476.080014,10288.862594
1714.034079,-18156.463303,-17912.983796,24426.796086
1714.034397,-34167.859211,-22280.198854,32272.979071
1714.034714,-46118.948980,-15544.324782,39526.997303
1714.035032,-53703.294410,-11917.315666,40193.182651
1714.035349,-51711.446115,-3775.050304,23316.487173
1714.035666,-45429.463031,1702.473667,12805.562797
1714.035984,-39453.918147,1332.370696,21836.075289
1714.036301,-32788.887314,-4219.173869,25981.228564
1714.036619,-31486.524968,3108.864956,21465.972318
1714.036936,-22216.769442,16506.592507,9178.553681
1714.037254,-17466.977354,24056.693115,-5181.441594
1714.037571,-12410.747068,11695.253884,-2738.761985
1714.037888,-2068.457845,5551.544565,7402.059420
1714.038206,153.219100,1184.329507,4219.173869
1714.038523,7354.516781,-10214.842000,6735.874072
1714.038841,12717.185267,-20577.725188,21095.869347
1714.039158,19995.092498,-17246.798449,20799.786970
1714.039475,27426.218828,-13989.892304,21688.034101
1714.039793,19995.092498,-20577.725188,22576.281231
1714.040110,20531.359346,-21836.075289,8956.491898
1714.040428,26966.561530,-14285.974681,7031.956449
1714.040745,32405.839565,-4885.359217,814.226536
1714.041062,39300.699047,3923.091493,-16580.613101
1714.041380,43897.272035,12953.603985,-14952.160028
1714.041697,40909.499593,13545.768739,-8956.491898
1714.042015,44050.491135,8956.491898,1702.473667
1714.042332,39147.479948,16062.468941,-444.123565
1714.042650,29418.067123,22132.157666,-1258.350101
1714.042967,29188.238474,22872.363608,-8734.430116
1714.043284,24132.008187,27387.619854,-27535.661042
1714.043602,17543.586904,17764.942608,-18431.127956
1714.043919,7354.516781,-11769.274478,-7994.224174
1714.044237,-2451.505594,-18579.169144,-2738.761985
1714.044554,-2681.334243,-24722.878463,13619.789333
1714.044871,-16624.272307,-25092.981434,11325.150913
1714.045189,-34704.126059,-22354.219448,-2442.679609
1714.045506,-48034.187725,-18949.272115,18949.272115
1714.045824,-58836.134246,-20503.704593,26499.372724
1714.046141,-56997.505051,-5329.482782,7254.018232
1714.046458,-53473.465760,5551.544565,-6365.771101
1714.046776,-36083.097956,370.102971,11843.295072
1714.047093,-27962.485677,-7698.141797,13767.830521
1714.047411,-27885.876127,-8290.306550,20873.807564
1714.047728,-26966.561530,-7994.224174,15026.180623
1714.048046,-25970.637382,-2220.617826,-666.185348
1714.048363,-18386.291952,2442.679609,7105.977043
1714.048680,-12870.404366,2294.638420,11843.295072
1714.048998,-9116.536426,1036.288319,9104.533087
1714.049315,-12257.527968,-7550.100608,9918.759623
1714.049633,-3677.258390,-6217.729913,21317.931130
1714.049950,-6818.249932,-7105.977043,21910.095883
1714.050267,-9193.145976,-15840.407159,14508.036463
1714.050585,-9269.755526,-28645.969955,17838.963202
1714.050902,-14249.376263,-37158.338288,14285.974681
1714.051220,-15551.738609,-44782.459491,27165.558071
1714.051537,-12180.918418,-33827.411549,28794.011144
1714.051854,-5898.935335,-11103.089130,6957.935855
1714.052172,-689.485948,-2886.803174,12361.439231
1714.052489,76.609550,-6069.688724,25241.022622
1714.052807,-4673.182538,-16950.716072,31606.793723
1714.053124,-1532.190996,-18653.189738,27461.640448
1714.053442,4213.525239,-18505.148550,40637.306216
1714.053759,24285.227287,-14359.995275,50334.004056
1714.054076,37768.508051,5847.626942,35159.782245
1714.054394,52324.322513,16728.654289,30496.484810
1714.054711,51864.665215,26055.249158,18801.230927
1714.055029,61977.125788,36418.132346,17246.798449
1714.055346,62973.049936,43079.985824,-7772.162391
1714.055663,63892.364533,47595.242071,-25315.043216
1714.055981,58759.524697,41081.429781,-28349.887579
1714.056298,55541.923605,27165.558071,-21243.910535
1714.056616,43284.395637,12435.459826,-23760.610738
1714.056933,38917.651298,-2368.659014,-19319.375086
1714.057250,23289.303139,-2812.782580,-8808.450710
1714.057568,2528.115143,-1332.370696,-11547.212695
1714.057885,-15168.690860,-4293.194464,-10510.924376
1714.058203,-28958.409824,-11547.212695,2516.700203
1714.058520,-44280.319784,-18209.066173,370.102971
1714.058837,-49030.111872,-18801.230927,7846.182985
1714.059155,-55924.971354,-10214.842000,8882.471304
1714.059472,-55005.656756,-10362.883188,17320.819043
1714.059790,-45965.729880,-11473.192101,24204.734303
1714.060107,-45812.510780,-7550.100608,27757.722825
1714.060424,-41139.328243,-7476.080014,34567.617491
1714.060742,-38381.384450,-3034.844362,41747.615129
1714.061059,-23442.522239,6069.688724,36936.276506
1714.061376,-20301.530697,19689.478057,10658.965565
1714.061694,-5745.716235,30792.567187,18653.189738
1714.062011,-5362.668486,39971.120868,-9030.512492
1714.062328,7124.688131,33605.349767,-19097.313304
1714.062646,11184.994271,23908.651927,-7402.059420
1714.062963,12257.527968,13545.768739,-9992.780217
1714.063281,12027.699319,-5033.400406,-21465.972318
1714.063598,-1991.848295,-19837.519246,-9696.697840
1714.063915,229.828649,-37380.400071,24500.816680
1714.064233,-11721.261119,-35529.885216,15618.345376
1714.064550,-13789.718964,-40193.182651,15248.242405
1714.064867,-14402.595362,-47225.139100,26055.249158
1714.065185,-15245.300410,-45152.562462,35085.761651
1714.065502,-6511.811733,-38564.729578,38786.791361
1714.065820,-3524.039291,-19467.416275,24278.754898
1714.066137,10342.289223,-2442.679609,29978.340651
1714.066454,13483.280765,23834.631332,9104.533087
1714.066772,19995.092498,44634.418303,-5329.482782
1714.067089,22829.645840,57810.084070,-21762.054695
1714.067406,29801.114872,53368.848418,-22946.384202
1714.067724,34167.859211,32717.102636,-19467.416275
1714.068041,36312.926605,23168.445985,-3256.906145
1714.068359,38304.774900,9400.615463,5921.647536
1714.068676,25510.980083,-7994.224174,10066.800811
1714.068993,17160.539155,-24352.775492,22872.363608
1714.069311,10035.851024,-31088.649564,61141.010809
1714.069628,3217.601092,-23316.487173,45078.541868
1714.069945,2987.772442,-9696.697840,10955.047942
1714.070263,5975.544884,12139.377449,25685.146187
1714.070580,7354.516781,23538.548956,17320.819043
1714.070898,7507.735880,24574.837274,-7328.038826
1714.071215,15398.519510,27165.558071,-11473.192101
1714.071532,3677.258390,17394.839637,-22798.343014
1714.071850,4903.011187,-3627.009116,-28053.805202
1714.072167,9116.536426,-8068.244768,-23464.528361
1714.072484,5286.058936,-14063.912898,-222.061783
1714.072802,3677.258390,-25018.960840,17024.736666
1714.073119,-5822.325785,-16654.633695,15692.365970
1714.073437,-6052.154434,-2590.720797,21539.992912
1714.073754,-3447.429741,3478.967927,21465.972318
1714.074071,-1302.362347,-1554.432478,19763.498651
1714.074389,-2068.457845,-814.226536,25018.960840
1714.074706,1378.971896,5625.565159,29016.072926
1714.075023,306.438199,12879.583391,13989.892304
1714.075341,6588.421283,15544.324782,13101.645173
1714.075658,11874.480219,18727.210333,11029.068536
1714.075976,8044.002729,18357.107362,-7402.059420
1714.076293,12334.137518,20577.725188,-9400.615463
1714.076610,6818.249932,14952.160028,2960.823768
1714.076928,2221.676944,4071.132681,14878.139434
1714.077245,-4749.792088,3404.947333,9474.636058
1714.077562,-9039.926876,7550.100608,11991.336260
1714.077880,-12487.356617,1110.308913,12953.603985
1714.078197,-7737.564530,-11917.315666,14211.954086
1714.078515,-9806.022374,-11843.295072,15026.180623
1714.078832,-6358.592633,-4663.297435,19023.292709
1714.079149,2987.772442,-6365.771101,22724.322419
1714.079467,3983.696590,-4663.297435,18727.210333
1714.079784,4749.792088,-2960.823768,23834.631332
1714.080101,-995.924147,8660.409521,15322.262999
1714.080419,-1072.533697,14434.015869,5403.503377
1714.080736,4213.525239,19171.333898,2664.741391
1714.081054,8350.440928,25833.187376,1776.494261
1714.081371,9806.022374,28127.825796,-10584.944971
1714.081688,7967.393179,25241.022622,-17320.819043
1714.082006,3140.991542,5995.668130,1924.535449
1714.082323,-5439.278036,-17542.880825,18801.230927
1714.082640,-15245.300410,-22798.343014,17838.963202
1714.082958,-18233.072852,-14804.118840,15618.345376
1714.083275,-18079.853753,-12213.398043,20651.745782
1714.083593,-14938.862211,-11991.336260,24130.713709
1714.083910,-13176.842566,-9474.636058,21391.951724
1714.084227,-10801.946522,-6291.750507,15544.324782
1714.084545,-7660.954980,-5255.462188,16802.674883
1714.084862,-6588.421283,-2516.700203,13989.892304
1714.085179,-2145.067394,2442.679609,10732.986159
1714.085497,3600.648841,8438.347739,4959.379811
1714.085814,8580.269578,15692.365970,222.061783
1714.086131,12410.747068,16950.716072,-296.082377
1714.086449,17313.758255,17764.942608,-7105.977043
1714.086766,23212.693589,15766.386565,-11843.295072
1714.087084,27502.828378,10214.842000,-7846.182985
1714.087401,24515.055936,1480.411884,-3404.947333
1714.087718,17696.806004,-9844.739029,3034.844362
1714.088036,11568.042020,-14656.077652,9992.780217
1714.088353,9959.241474,-9030.512492,12805.562797
1714.088670,6741.640382,-6291.750507,10362.883188
1714.088988,4903.011187,-9326.594869,11029.068536
1714.089305,1915.238745,-6291.750507,11029.068536
1714.089623,4826.401637,-814.226536,13619.789333
1714.089940,7584.345430,-740.205942,11695.253884
1714.090257,8197.221829,814.226536,10807.006753
1714.090575,8044.002729,2516.700203,8290.306550
1714.090892,10801.946522,6143.709319,5477.523971
1714.091209,13713.109414,11547.212695,2664.741391
1714.091527,15092.081311,10584.944971,2738.761985
1714.091844,17850.025103,9030.512492,4885.359217
1714.092162,17390.367805,13915.871710,1110.308913
1714.092479,14785.643111,11991.336260,2516.700203
1714.092796,7814.174080,1776.494261,6217.729913
1714.093114,2298.286494,-10658.965565,13323.706956
1714.093431,-3140.991542,-10510.924376,15026.180623
1714.093748,-7354.516781,-8290.306550,14211.954086
1714.094066,-7584.345430,-4737.318029,16580.613101
1714.094383,-10572.117872,-5773.606348,14878.139434
1714.094701,-9269.755526,-3552.988522,15618.345376
1714.095018,-10112.460574,2368.659014,13471.748144
1714.095335,-12027.699319,2960.823768,13545.768739
1714.095653,-13483.280765,6291.750507,11251.130318
1714.095970,-13636.499864,7105.977043,9770.718434
1714.096287,-10035.851024,7772.162391,12953.603985
1714.096605,-7277.907231,6957.935855,14285.974681
1714.096922,-4136.915689,6809.894666,14063.912898
1714.097240,-1378.971896,10436.903782,10436.903782
1714.097557,2757.943793,11399.171507,9030.512492
1714.097874,4443.353888,10584.944971,7846.182985
1714.098192,4596.572988,5551.544565,7476.080014
1714.098509,2834.553343,2886.803174,7920.203579
1714.098826,1991.848295,2812.782580,7105.977043
1714.099144,1608.800546,444.123565,9104.533087
1714.099461,2221.676944,666.185348,10881.027347
1714.099779,2068.457845,2368.659014,9696.697840
1714.100096,-612.876398,5773.606348,8142.265362
1714.100413,-3294.210641,5625.565159,8364.327145
1714.100731,-4443.353888,4589.276840,11769.274478
1714.101048,-4366.744339,3478.967927,12879.583391
1714.101365,-842.705048,4367.215058,15766.386565
1714.101683,2221.676944,6957.935855,14211.954086
1714.102000,6818.249932,7402.059420,13545.768739
1714.102318,12487.356617,6587.832884,13767.830521
1714.102635,16700.881856,5773.606348,11917.315666
1714.102952,19228.997000,6883.915261,10732.986159
1714.103270,20531.359346,8438.347739,7476.080014
1714.103587,19152.387450,8290.306550,4071.132681
1714.103904,18539.511052,6069.688724,4959.379811
1714.104222,15781.567259,3182.885551,8586.388927
1714.104539,12257.527968,1850.514855,9252.574275
1714.104857,8656.879127,-296.082377,9030.512492
1714.105174,6052.154434,-1776.494261,9474.636058
1714.105491,2145.067394,-5181.441594,10584.944971
1714.105809,0.000000,-6957.935855,13693.809927
1714.106126,-2911.162892,-6809.894666,13545.768739
1714.106443,-4060.306139,-6069.688724,13027.624579
1714.106761,-3907.087040,-5551.544565,12435.459826
1714.107078,-2911.162892,-4293.194464,13397.727550
1714.107396,-3524.039291,-2368.659014,12361.439231
1714.107713,-2451.505594,222.061783,11547.212695
1714.108030,-1991.848295,3923.091493,8882.471304
1714.108348,-1455.581446,5847.626942,7328.038826
1714.108665,-306.438199,5847.626942,5921.647536
1714.108982,459.657299,7031.956449,3330.926739
1714.109300,1608.800546,2664.741391,2886.803174
1714.109617,1838.629195,-74.020594,4737.318029
1714.109934,2145.067394,-666.185348,5847.626942
1714.110252,1608.800546,-296.082377,5181.441594
1714.110569,689.485948,814.226536,5847.626942
1714.110887,-1762.019645,-1406.391290,6069.688724
1714.111204,-3983.696590,-1184.329507,7550.100608
1714.111521,-4060.306139,-0.000000,9178.553681
1714.111839,-4060.306139,2368.659014,7328.038826
1714.112156,-1991.848295,3627.009116,7031.956449
1714.112473,306.438199,3404.947333,7328.038826
1714.112791,1685.410096,3478.967927,5107.421000
1714.113108,3447.429741,2738.761985,5625.565159
1714.113426,4903.011187,2738.761985,7550.100608
1714.113743,6665.030833,4219.173869,8364.327145
1714.114060,9346.365076,4737.318029,8586.388927
1714.114378,8886.707777,5181.441594,8068.244768
1714.114695,8580.269578,4811.338623,8512.368333
1714.115012,8503.660028,3775.050304,8734.430116
1714.115330,7814.174080,1924.535449,11177.109724
1714.115647,7048.078582,370.102971,13323.706956
1714.115965,5439.278036,2442.679609,10955.047942
1714.116282,5669.106685,4441.235652,6513.812290
1714.116599,5362.668486,3404.947333,7328.038826
1714.116917,4596.572988,-1184.329507,9400.615463
1714.117234,3217.601092,-3997.112087,11029.068536
1714.117551,1608.800546,-3923.091493,12065.356855
1714.117869,612.876398,-2886.803174,13767.830521
1714.118186,-459.657299,-1998.556043,14211.954086
1714.118504,-306.438199,-370.102971,14878.139434
1714.118821,-229.828649,1184.329507,15396.283594
1714.119138,-1149.143247,2516.700203,14211.954086
1714.119456,-536.266849,3701.029710,11473.192101
1714.119773,1685.410096,5107.421000,9474.636058
1714.120090,2374.896044,4737.318029,8290.306550
1714.120408,2604.724693,2960.823768,10362.883188
1714.120725,1149.143247,962.267725,12139.377449
1714.121043,919.314598,1850.514855,11843.295072
1714.121360,842.705048,4515.256246,9178.553681
1714.121677,2145.067394,6513.812290,8660.409521
1714.121995,3294.210641,7105.977043,8142.265362
1714.122312,3140.991542,7105.977043,7031.956449
1714.122629,2298.286494,6291.750507,5329.482782
1714.122947,1991.848295,5847.626942,7105.977043
1714.123264,2987.772442,6069.688724,8660.409521
1714.123582,2757.943793,5995.668130,6957.935855
1714.123899,3140.991542,6809.894666,5403.503377
1714.124216,3294.210641,6365.771101,6291.750507
1714.124534,4213.525239,6809.894666,6661.853478
1714.124851,4903.011187,7772.162391,7031.956449
1714.125168,5515.887586,7994.224174,8290.306550
1714.125486,4366.744339,7994.224174,7328.038826
1714.125803,4519.963438,6513.812290,8068.244768
1714.126121,3907.087040,4293.194464,10214.842000
1714.126438,4903.011187,3404.947333,10288.862594
1714.126755,6511.811733,3775.050304,9844.739029
1714.127073,7737.564530,4737.318029,9918.759623
1714.127390,8503.660028,4737.318029,9918.759623
1714.127707,8810.098227,4959.379811,9992.780217
1714.128025,8044.002729,5107.421000,9326.594869
1714.128342,7967.393179,4811.338623,8512.368333
1714.128660,7048.078582,3923.091493,7402.059420
1714.128977,6205.373534,2368.659014,7846.182985
1714.129294,5515.887586,2072.576638,8660.409521
1714.129612,4826.401637,592.164754,9844.739029
1714.129929,3447.429741,-1776.494261,13397.727550
1714.130246,2681.334243,-3330.926739,16210.510130
1714.130564,1608.800546,-2442.679609,16580.613101
1714.130881,1302.362347,-740.205942,15692.365970
1714.131199,1838.629195,1924.535449,14656.077652
1714.131516,2528.115143,4145.153275,13397.727550
1714.131833,3370.820191,6439.791695,10288.862594
1714.132151,4443.353888,7846.182985,9770.718434
1714.132468,4366.744339,8808.450710,7772.162391
1714.132785,5056.230287,8438.347739,6439.791695
1714.133103,5286.058936,6587.832884,4145.153275
1714.133420,4519.963438,4959.379811,2442.679609
1714.133737,2911.162892,-0.000000,4959.379811
1714.134055,1072.533697,-3701.029710,9252.574275
1714.134372,-612.876398,-4737.318029,11029.068536
1714.134690,-1225.752797,-4219.173869,11103.089130
1714.135007,-1455.581446,-2590.720797,10955.047942
1714.135324,-2298.286494,-1998.556043,11029.068536
1714.135642,-1302.362347,-370.102971,10807.006753
1714.135959,-1685.410096,1628.453072,9548.656652
1714.136276,-1455.581446,3404.947333,9474.636058
1714.136594,-459.657299,6143.709319,7254.018232
1714.136911,1838.629195,7698.141797,6069.688724
1714.137229,2451.505594,7328.038826,3701.029710
1714.137546,3600.648841,4515.256246,4811.338623
1714.137863,3830.477490,1628.453072,5477.523971
1714.138181,4060.306139,-592.164754,6587.832884
1714.138498,3753.867940,-2294.638420,8068.244768
1714.138815,2911.162892,-3108.864956,10807.006753
1714.139133,2987.772442,-3330.926739,12583.501014
1714.139450,1455.581446,-2146.597232,12361.439231
1714.139768,1225.752797,-666.185348,12139.377449
1714.140085,2451.505594,814.226536,11843.295072
1714.140402,2298.286494,3701.029710,9548.656652
1714.140720,2834.553343,3627.009116,8290.306550
1714.141037,2145.067394,2516.700203,7698.141797
1714.141354,2374.896044,-0.000000,9696.697840
1714.141672,2834.553343,-2294.638420,9918.759623
1714.141989,2757.943793,-3478.967927,8512.368333
1714.142307,3830.477490,-4219.173869,9844.739029
1714.142624,3677.258390,-4145.153275,11473.192101
1714.142941,3677.258390,-3478.967927,12287.418637
1714.143259,3140.991542,-2220.617826,12657.521608
1714.143576,2451.505594,-0.000000,10955.047942
1714.143893,3064.381992,3775.050304,8586.388927
1714.144211,3447.429741,4737.318029,6217.729913
1714.144528,3600.648841,5329.482782,4811.338623
1714.144846,3140.991542,4441.235652,5847.626942
1714.145163,2298.286494,4219.173869,6143.709319
1714.145480,2681.334243,2960.823768,7920.203579
1714.145798,2451.505594,2072.576638,8660.409521
1714.146115,1838.629195,1258.350101,8364.327145
1714.146432,1455.581446,814.226536,8660.409521
1714.146750,1608.800546,2368.659014,9474.636058
1714.147067,3140.991542,4737.318029,9474.636058
1714.147385,4749.792088,7328.038826,6143.709319
1714.147702,5439.278036,7846.182985,5921.647536
1714.148019,5669.106685,6661.853478,6957.935855
1714.148337,6358.592633,6587.832884,7328.038826
1714.148654,5975.544884,7254.018232,6809.894666
1714.148971,7048.078582,7476.080014,7254.018232
1714.149289,6818.249932,8068.244768,6217.729913
1714.149606,5975.544884,8216.285956,7328.038826
1714.149924,4903.011187,5181.441594,8364.327145
1714.150241,3140.991542,2368.659014,11325.150913
1714.150558,1532.190996,1332.370696,12361.439231
1714.150876,1532.190996,1702.473667,12435.459826
1714.151193,2068.457845,2960.823768,11843.295072
1714.151510,1302.362347,2294.638420,12731.542202
1714.151828,2145.067394,814.226536,13397.727550
1714.152145,1608.800546,1480.411884,12435.459826
1714.152463,2145.067394,1924.535449,13101.645173
1714.152780,2681.334243,2146.597232,13693.809927
1714.153097,3140.991542,3997.112087,12435.459826
1714.153415,4136.915689,5329.482782,10881.027347
1714.153732,3140.991542,4959.379811,9992.780217
1714.154049,3064.381992,3923.091493,11251.130318
1714.154367,3753.867940,3775.050304,10658.965565
1714.154684,3983.696590,3108.864956,9400.615463
1714.155002,4060.306139,2368.659014,9400.615463
1714.155319,3217.601092,1258.350101,10288.862594
1714.155636,2528.115143,-0.000000,11029.068536
1714.155954,2068.457845,-0.000000,11251.130318
1714.156271,689.485948,518.144159,10881.027347
1714.156588,689.485948,1554.432478,11325.150913
1714.156905,1302.362347,3552.988522,9844.739029
1714.157223,1072.533697,4589.276840,9104.533087
1714.157540,383.047749,4589.276840,9474.636058
1714.157857,995.924147,5921.647536,9548.656652
1714.158175,459.657299,6365.771101,6809.894666
1714.158492,1685.410096,6291.750507,6365.771101
1714.158809,1991.848295,4663.297435,6735.874072
1714.159126,2451.505594,3108.864956,6587.832884
1714.159444,2757.943793,1406.391290,7105.977043
1714.159761,2451.505594,888.247130,7698.141797
1714.160078,2604.724693,-370.102971,8216.285956
1714.160395,2911.162892,-1332.370696,8586.388927
1714.160713,2298.286494,-962.267725,8660.409521
1714.161030,1991.848295,-1554.432478,10214.842000
1714.161347,1532.190996,-148.041188,10658.965565
1714.161665,2145.067394,888.247130,10362.883188
1714.161982,3064.381992,1998.556043,10658.965565
1714.162299,3064.381992,3256.906145,9770.718434
1714.162616,4903.011187,2368.659014,8956.491898
1714.162934,4366.744339,1036.288319,7254.018232
1714.163251,4903.011187,-1110.308913,7846.182985
1714.163568,5209.449386,-2368.659014,8290.306550
1714.163886,5515.887586,-2590.720797,8586.388927
1714.164203,5745.716235,-3478.967927,10362.883188
1714.164520,4903.011187,-4145.153275,12287.418637
1714.164837,4366.744339,-3182.885551,13545.768739
1714.165155,4366.744339,-1258.350101,12879.583391
1714.165472,4366.744339,1258.350101,11325.150913
1714.165789,5132.839837,4219.173869,9918.759623
1714.166106,5669.106685,6439.791695,7550.100608
1714.166424,5362.668486,7105.977043,5773.606348
1714.166741,5056.230287,5551.544565,5033.400406
1714.167058,4290.134789,3182.885551,4959.379811
1714.167376,1532.190996,518.144159,4811.338623
1714.167693,919.314598,-1554.432478,6513.812290
1714.168010,-1455.581446,-3849.070898,9474.636058
1714.168327,-2834.553343,-5329.482782,12065.356855
1714.168645,-3370.820191,-5033.400406,14285.974681
1714.168962,-3753.867940,-2812.782580,14285.974681
1714.169279,-2451.505594,-148.041188,13027.624579
1714.169596,-459.657299,2886.803174,10955.047942
1714.169914,1532.190996,7105.977043,8068.244768
1714.170231,3447.429741,10140.821405,5329.482782
1714.170548,4673.182538,12139.377449,2220.617826
1714.170866,4826.401637,11621.233289,518.144159
1714.171183,4979.620737,8734.430116,1628.453072
1714.171500,3753.867940,5033.400406,3034.844362
1714.171817,2068.457845,2664.741391,4663.297435
1714.172135,842.705048,-1184.329507,7105.977043
1714.172452,0.000000,-4441.235652,9622.677246
1714.172769,-919.314598,-6957.935855,13397.727550
1714.173086,-1608.800546,-5921.647536,14582.057057
1714.173404,-1455.581446,-3330.926739,13841.851115
1714.173721,-766.095498,814.226536,13101.645173
1714.174038,919.314598,4219.173869,13323.706956
1714.174356,1991.848295,7624.121203,10732.986159
1714.174673,2528.115143,10288.862594,7994.224174
1714.174990,2451.505594,11029.068536,6439.791695
1714.175307,2528.115143,10288.862594,5921.647536
1714.175625,2757.943793,6735.874072,6365.771101
1714.175942,2221.676944,3034.844362,8290.306550
1714.176259,1378.971896,-1628.453072,9770.718434
1714.176576,306.438199,-5255.462188,11843.295072
1714.176894,-383.047749,-9104.533087,14434.015869
1714.177211,-689.485948,-10362.883188,16580.613101
1714.177528,-1225.752797,-8290.306550,16876.695478
1714.177846,-766.095498,-4219.173869,15840.407159
1714.178163,-1532.190996,-962.267725,14804.118840
1714.178480,-1915.238745,2812.782580,11991.336260
1714.178797,-995.924147,6143.709319,9696.697840
1714.179115,0.000000,7920.203579,7698.141797
1714.179432,842.705048,7698.141797,6365.771101
1714.179749,842.705048,4811.338623,7179.997637
1714.180067,1072.533697,2812.782580,6957.935855
1714.180384,1838.629195,-1776.494261,8438.347739
1714.180701,1455.581446,-6291.750507,10881.027347
1714.181018,919.314598,-9770.718434,13027.624579
1714.181336,-153.219100,-10658.965565,13101.645173
1714.181653,0.000000,-9474.636058,13323.706956
1714.181970,153.219100,-5329.482782,13249.686362
1714.182287,919.314598,-2294.638420,12361.439231
1714.182605,306.438199,2294.638420,9400.615463
1714.182922,1149.143247,6069.688724,7698.141797
1714.183239,612.876398,8512.368333,4663.297435
1714.183557,2068.457845,8142.265362,4959.379811
1714.183874,2757.943793,7179.997637,4293.194464
1714.184191,2451.505594,4145.153275,4515.256246
1714.184508,1685.410096,444.123565,5551.544565
1714.184826,1915.238745,-3701.029710,7550.100608
1714.185143,1838.629195,-7920.203579,9474.636058
1714.185460,383.047749,-10140.821405,11251.130318
1714.185777,-153.219100,-11029.068536,12583.501014
1714.186095,-995.924147,-8142.265362,12213.398043
1714.186412,153.219100,-5255.462188,11621.233289
1714.186729,689.485948,-2146.597232,11621.233289
1714.187047,153.219100,1702.473667,8808.450710
1714.187364,2221.676944,4663.297435,8586.388927
1714.187681,1608.800546,7476.080014,4737.318029
1714.187998,2987.772442,7179.997637,5773.606348
1714.188316,3370.820191,5625.565159,5329.482782
1714.188633,2451.505594,2812.782580,4367.215058
1714.188950,2528.115143,-592.164754,5847.626942
1714.189267,1532.190996,-3330.926739,7254.018232
1714.189585,612.876398,-7105.977043,9696.697840
1714.189902,0.000000,-8142.265362,10288.862594
1714.190219,-612.876398,-7254.018232,10658.965565
1714.190537,-1532.190996,-5329.482782,10658.965565
1714.190854,-1378.971896,-3404.947333,10140.821405
1714.191171,-1838.629195,-444.123565,9030.512492
1714.191488,-2145.067394,2220.617826,8808.450710
1714.191806,-2681.334243,4219.173869,8808.450710
1714.192123,-2451.505594,5699.585753,8364.327145
1714.192440,-1838.629195,6809.894666,8290.306550
1714.192758,-1455.581446,5995.668130,8512.368333
1714.193075,-1378.971896,4737.318029,9252.574275
1714.193392,-1302.362347,3849.070898,9252.574275
1714.193709,0.000000,2294.638420,9326.594869
1714.194027,383.047749,-0.000000,8734.430116
1714.194344,1072.533697,-2146.597232,8512.368333
1714.194661,1149.143247,-3404.947333,8882.471304
1714.194978,1378.971896,-3701.029710,9400.615463
1714.195296,1455.581446,-2294.638420,9400.615463
1714.195613,459.657299,-666.185348,10881.027347
1714.195930,153.219100,666.185348,11473.192101
1714.196248,-1149.143247,2738.761985,11991.336260
1714.196565,-1608.800546,4219.173869,11843.295072
1714.196882,-1072.533697,4589.276840,11695.253884
1714.197199,0.000000,5551.544565,10732.986159
1714.197517,1378.971896,5107.421000,9918.759623
1714.197834,2757.943793,4293.194464,10214.842000
1714.198151,3983.696590,2220.617826,10436.903782
1714.198468,5439.278036,-518.144159,10214.842000
1714.198786,5822.325785,-1480.411884,9770.718434
1714.199103,5745.716235,-2590.720797,10584.944971
1714.199420,5669.106685,-2220.617826,10658.965565
1714.199738,4903.011187,-814.226536,9548.656652
1714.200055,3753.867940,518.144159,10066.800811
1714.200372,2145.067394,1480.411884,11103.089130
1714.200689,1072.533697,1776.494261,10955.047942
1714.201007,0.000000,2072.576638,11473.192101
1714.201324,-766.095498,1554.432478,12361.439231
1714.201641,153.219100,814.226536,13841.851115
1714.201958,842.705048,2516.700203,11917.315666
1714.202276,2145.067394,2812.782580,12139.377449
1714.202593,3447.429741,2590.720797,11103.089130
1714.202910,3677.258390,2886.803174,8660.409521
1714.203228,4213.525239,2516.700203,6513.812290
1714.203545,3524.039291,2294.638420,4663.297435
1714.203862,2834.553343,1036.288319,4663.297435
1714.204179,1455.581446,-1480.411884,5477.523971
1714.204497,-153.219100,-4293.194464,7254.018232
1714.204814,-2068.457845,-6217.729913,9844.739029
1714.205131,-3677.258390,-7105.977043,12435.459826
1714.205449,-4903.011187,-5625.565159,12731.542202
1714.205766,-5515.887586,-4515.256246,13175.665768
1714.206083,-5515.887586,-2072.576638,12361.439231
1714.206400,-4213.525239,222.061783,12065.356855
1714.206718,-3217.601092,2590.720797,8438.347739
1714.207035,-1991.848295,3552.988522,8586.388927
1714.207352,-995.924147,3997.112087,6735.874072
1714.207669,459.657299,3034.844362,5181.441594
1714.207987,1072.533697,444.123565,3701.029710
1714.208304,1378.971896,-3034.844362,4959.379811
1714.208621,536.266849,-5403.503377,5921.647536
1714.208939,306.438199,-6957.935855,7402.059420
1714.209256,-229.828649,-7476.080014,7698.141797
1714.209573,-1455.581446,-6957.935855,10881.027347
1714.209890,-1455.581446,-6735.874072,13471.748144
1714.210208,-2528.115143,-4219.173869,12805.562797
1714.210525,-1915.238745,-1776.494261,13101.645173
1714.210842,-995.924147,1924.535449,13545.768739
1714.211159,383.047749,5551.544565,9474.636058
1714.211477,3370.820191,7476.080014,8068.244768
1714.211794,5669.106685,7994.224174,7328.038826
1714.212111,6665.030833,7328.038826,4737.318029
1714.212429,7431.126331,6217.729913,1406.391290
1714.212746,7277.907231,2738.761985,1332.370696
1714.213063,6358.592633,-2812.782580,2886.803174
1714.213380,4213.525239,-7179.997637,6143.709319
1714.213698,1762.019645,-10288.862594,9104.533087
1714.214015,-919.314598,-11991.336260,13027.624579
1714.214332,-2145.067394,-10584.944971,16284.530724
1714.214649,-3064.381992,-7476.080014,16654.633695
1714.214967,-3140.991542,-3404.947333,16358.551318
1714.215284,-1608.800546,1258.350101,14211.954086
1714.215601,-1149.143247,5847.626942,11325.150913
1714.215919,1072.533697,10288.862594,7994.224174
1714.216236,3907.087040,11843.295072,7254.018232
1714.216553,5132.839837,12287.418637,4811.338623
1714.216870,6128.763984,10881.027347,3108.864956
1714.217188,5745.716235,8882.471304,666.185348
1714.217505,4903.011187,2368.659014,2294.638420
1714.217822,3217.601092,-3552.988522,4737.318029
1714.218140,0.000000,-9252.574275,8364.327145
1714.218457,-2298.286494,-10584.944971,12361.439231
1714.218774,-4979.620737,-10658.965565,14582.057057
1714.219091,-5362.668486,-9770.718434,18949.272115
1714.219409,-6281.983084,-6809.894666,21021.848753
1714.219726,-6588.421283,-518.144159,19319.375086
1714.220043,-4366.744339,6365.771101,15988.448347
1714.220360,-2374.896044,12731.542202,12139.377449
1714.220678,1225.752797,16654.633695,10362.883188
1714.220995,4673.182538,19319.375086,5329.482782
1714.221312,6665.030833,19393.395680,148.041188
1714.221630,7584.345430,16432.571912,-3256.906145
1714.221947,7584.345430,7624.121203,-1554.432478
1714.222264,6741.640382,-1184.329507,1258.350101
1714.222581,3447.429741,-9474.636058,5033.400406
1714.222899,536.266849,-15174.221811,12879.583391
1714.223216,-3524.039291,-16136.489536,15766.386565
1714.223533,-4596.572988,-16802.674883,21317.931130
1714.223850,-5362.668486,-11917.315666,23686.590144
1714.224168,-5132.839837,-5921.647536,24722.878463
1714.224485,-4366.744339,2220.617826,17912.983796
1714.224802,-1378.971896,10288.862594,13989.892304
1714.225120,2068.457845,15988.448347,8882.471304
1714.225437,6588.421283,18949.272115,7031.956449
1714.225754,7890.783629,20503.704593,-1702.473667
1714.226071,9652.803275,19171.333898,-6217.729913
1714.226389,9652.803275,13175.665768,-6957.935855
1714.226706,8733.488677,1110.308913,-962.267725
1714.227023,5209.449386,-9252.574275,3256.906145
1714.227340,153.219100,-17098.757260,9030.512492
1714.227658,-3983.696590,-20799.786970,17098.757260
1714.227975,-6052.154434,-21688.034101,23908.651927
1714.228292,-7124.688131,-17468.860231,22132.157666
1714.228610,-6588.421283,-13471.748144,28053.805202
1714.228927,-7737.564530,-4885.359217,23760.610738
1714.229244,-5056.230287,3997.112087,15470.304188
1714.229561,-1915.238745,13175.665768,7105.977043
1714.229879,2757.943793,15396.283594,7031.956449
1714.230196,5056.230287,16728.654289,2146.597232
1714.230513,5592.497135,16728.654289,-5255.462188
1714.230831,8273.831378,14211.954086,-8808.450710
1714.231148,6894.859482,5329.482782,-8216.285956
1714.231465,6435.202183,-8290.306550,1184.329507
1714.231782,2298.286494,-16580.613101,6661.853478
1714.232100,-2451.505594,-20725.766376,11917.315666
1714.232417,-5592.497135,-23242.466579,19319.375086
1714.232734,-5209.449386,-20799.786970,21169.889941
1714.233051,-4596.572988,-16506.592507,25833.187376
1714.233369,-4979.620737,-8808.450710,24722.878463
1714.233686,-5362.668486,1554.432478,16210.510130
1714.234003,-306.438199,9474.636058,10510.924376
1714.234321,1915.238745,14804.118840,5255.462188
1714.234638,6741.640382,16506.592507,6291.750507
1714.234955,7431.126331,20503.704593,-3849.070898
1714.235272,9346.365076,19097.313304,-9326.594869
1714.235590,10725.336972,13101.645173,-10658.965565
1714.235907,9652.803275,3256.906145,-5995.668130
1714.236224,6741.640382,-6143.709319,1850.514855
1714.236541,1149.143247,-13027.624579,6735.874072
1714.236859,-2451.505594,-18505.148550,12879.583391
1714.237176,-5592.497135,-20133.601622,19171.333898
1714.237493,-6435.202183,-19319.375086,25092.981434
1714.237811,-6818.249932,-14063.912898,27905.764013
1714.238128,-6971.469032,-4811.338623,23686.590144
1714.238445,-4596.572988,4293.194464,16580.613101
1714.238762,-1762.019645,12139.377449,9252.574275
1714.239080,3217.601092,15322.262999,11621.233289
1714.239397,6128.763984,19319.375086,8068.244768
1714.239714,6741.640382,23168.445985,-4071.132681
1714.240031,10112.460574,21984.116477,-9844.739029
1714.240349,9576.193725,18357.107362,-12065.356855
1714.240666,10035.851024,5477.523971,-3256.906145
1714.240983,7354.516781,-5255.462188,3404.947333
1714.241301,919.314598,-12805.562797,6809.894666
1714.241618,-4519.963438,-19837.519246,16210.510130
1714.241935,-5822.325785,-24574.837274,26055.249158
1714.242252,-8886.707777,-22650.301825,28349.887579
1714.242570,-8350.440928,-14878.139434,30718.546593
1714.242887,-10342.289223,-2886.803174,24944.940245
1714.243204,-7277.907231,4885.359217,17098.757260
1714.243522,-1685.410096,14730.098246,10140.821405
1714.243839,2834.553343,20873.807564,9400.615463
1714.244156,5669.106685,23390.507767,962.267725
1714.244473,6281.983084,23908.651927,-7031.956449
1714.244791,10801.946522,21465.972318,-7624.121203
1714.245108,9806.022374,14137.933492,-9918.759623
1714.245425,11184.994271,518.144159,-740.205942
1714.245742,4673.182538,-8660.409521,5699.585753
1714.246060,153.219100,-17024.736666,11843.295072
1714.246377,-4060.306139,-23538.548956,21095.869347
1714.246694,-6894.859482,-24870.919651,26277.310941
1714.247012,-5592.497135,-20799.786970,31976.896694
1714.247329,-6358.592633,-10214.842000,28423.908173
1714.247646,-5745.716235,740.205942,19689.478057
1714.247963,-1838.629195,9400.615463,12435.459826
1714.248281,1608.800546,15692.365970,10436.903782
1714.248598,7737.564530,18061.024985,10066.800811
1714.248915,8427.050478,23760.610738,-1702.473667
1714.249232,9576.193725,23908.651927,-8438.347739
1714.249550,10035.851024,19467.416275,-12805.562797
1714.249867,8427.050478,7772.162391,-8142.265362
1714.250184,7277.907231,-4441.235652,1258.350101
1714.250502,1149.143247,-12065.356855,5921.647536
1714.250819,-4290.134789,-19911.539840,11251.130318
1714.251136,-7048.078582,-26055.249158,21539.992912
1714.251453,-6128.763984,-28127.825796,31606.793723
1714.251771,-8044.002729,-20799.786970,28423.908173
1714.252088,-7737.564530,-10955.047942,27091.537477
1714.252405,-6971.469032,1850.514855,18579.169144
1714.252722,-2298.286494,9622.677246,8290.306550
1714.253040,1225.752797,15248.242405,3923.091493
1714.253357,4903.011187,15470.304188,10362.883188
1714.253674,3600.648841,21465.972318,-1036.288319
1714.253992,4979.620737,23020.404796,-10436.903782
1714.254309,7737.564530,19319.375086,-13693.809927
1714.254626,7660.954980,7698.141797,-5699.585753
1714.254943,5056.230287,-5995.668130,740.205942
1714.255261,-919.314598,-15322.262999,2442.679609
1714.255578,-5898.935335,-24056.693115,13545.768739
1714.255895,-8120.612279,-30570.505405,25981.228564
1714.256213,-7048.078582,-28645.969955,28571.949361
1714.256530,-5056.230287,-20059.581028,27609.681637
