#time,accel_x,accel_y,accel_z
1041.200163,383.047749,444.123565,9326.594869
1041.200482,689.485948,222.061783,9252.574275
1041.200800,459.657299,370.102971,9400.615463
1041.201119,383.047749,444.123565,9252.574275
1041.201438,153.219100,518.144159,9400.615463
1041.201757,459.657299,296.082377,9400.615463
1041.202076,459.657299,666.185348,9252.574275
1041.202395,459.657299,370.102971,9326.594869
1041.202714,459.657299,370.102971,9178.553681
1041.203032,536.266849,222.061783,9104.533087
1041.203351,536.266849,148.041188,9178.553681
1041.203670,459.657299,148.041188,9252.574275
1041.203989,459.657299,370.102971,9252.574275
1041.204308,459.657299,370.102971,9030.512492
1041.204627,306.438199,444.123565,9474.636058
1041.204946,459.657299,518.144159,9030.512492
1041.205264,383.047749,370.102971,9252.574275
1041.205583,536.266849,518.144159,9326.594869
1041.205902,689.485948,222.061783,9178.553681
1041.206221,306.438199,148.041188,9252.574275
1041.206540,459.657299,296.082377,9326.594869
1041.206859,459.657299,296.082377,9178.553681
1041.207178,459.657299,444.123565,9178.553681
1041.207496,842.705048,296.082377,9326.594869
1041.207815,229.828649,222.061783,9326.594869
1041.208134,459.657299,518.144159,9252.574275
1041.208453,459.657299,296.082377,9178.553681
1041.208772,536.266849,-74.020594,9104.533087
1041.209091,306.438199,370.102971,9178.553681
1041.209410,306.438199,518.144159,9252.574275
1041.209728,306.438199,296.082377,9178.553681
1041.210047,536.266849,370.102971,9178.553681
1041.210366,383.047749,370.102971,9252.574275
1041.210685,612.876398,370.102971,9252.574275
1041.211004,383.047749,444.123565,9326.594869
1041.211323,383.047749,444.123565,9326.594869
1041.211642,383.047749,444.123565,9326.594869
1041.211960,919.314598,296.082377,9400.615463
1041.212279,459.657299,370.102971,9400.615463
1041.212598,459.657299,370.102971,9252.574275
1041.212917,306.438199,444.123565,9326.594869
1041.213236,459.657299,592.164754,9548.656652
1041.213555,459.657299,370.102971,9252.574275
1041.213874,383.047749,592.164754,9326.594869
1041.214192,383.047749,518.144159,9326.594869
1041.214511,689.485948,518.144159,9252.574275
1041.214830,995.924147,222.061783,9326.594869
1041.215149,459.657299,296.082377,9252.574275
1041.215468,229.828649,222.061783,9326.594869
1041.215787,383.047749,222.061783,9326.594869
1041.216106,383.047749,370.102971,9252.574275
1041.216424,689.485948,370.102971,9622.677246
1041.216743,459.657299,370.102971,9252.574275
1041.217062,383.047749,370.102971,9252.574275
1041.217381,536.266849,444.123565,9252.574275
1041.217700,229.828649,444.123565,9400.615463
1041.218019,536.266849,222.061783,9400.615463
1041.218338,689.485948,518.144159,9252.574275
1041.218656,536.266849,444.123565,9622.677246
1041.218975,459.657299,444.123565,9252.574275
1041.219294,536.266849,148.041188,9252.574275
1041.219613,459.657299,518.144159,9326.594869
1041.219932,536.266849,296.082377,9252.574275
1041.220251,536.266849,296.082377,9326.594869
1041.220570,229.828649,370.102971,9104.533087
1041.220888,383.047749,148.041188,8956.491898
1041.221207,153.219100,-74.020594,8808.450710
1041.221526,536.266849,-0.000000,8808.450710
1041.221845,0.000000,-148.041188,9178.553681
1041.222164,76.609550,-296.082377,9252.574275
1041.222483,0.000000,-518.144159,9252.574275
1041.222802,0.000000,-740.205942,9326.594869
1041.223120,-229.828649,-740.205942,8956.491898
1041.223439,-229.828649,-814.226536,8586.388927
1041.223758,-459.657299,-814.226536,8364.327145
1041.224077,-995.924147,-888.247130,8512.368333
1041.224396,-689.485948,-1036.288319,8808.450710
1041.224715,-1455.581446,-1554.432478,8734.430116
1041.225034,-1302.362347,-1406.391290,9030.512492
1041.225352,-1455.581446,-1258.350101,8586.388927
1041.225671,-1762.019645,-1258.350101,8808.450710
1041.225990,-1685.410096,-1110.308913,8364.327145
1041.226309,-1991.848295,-814.226536,7772.162391
1041.226628,-1991.848295,-962.267725,7550.100608
1041.226947,-1762.019645,-1258.350101,7846.182985
1041.227266,-1991.848295,-1628.453072,8290.306550
1041.227584,-2145.067394,-2294.638420,8512.368333
1041.227903,-2068.457845,-2294.638420,8808.450710
1041.228222,-2145.067394,-2368.659014,8956.491898
1041.228541,-2221.676944,-2516.700203,9178.553681
1041.228860,-2068.457845,-2146.597232,8882.471304
1041.229179,-1991.848295,-1702.473667,8882.471304
1041.229498,-2528.115143,-1332.370696,8290.306550
1041.229816,-1532.190996,-2072.576638,7994.224174
1041.230135,-2528.115143,-2368.659014,8364.327145
1041.230454,-2911.162892,-3404.947333,8882.471304
1041.230773,-3447.429741,-4071.132681,9770.718434
1041.231092,-3753.867940,-4663.297435,10510.924376
1041.231411,-3524.039291,-4515.256246,11251.130318
1041.231730,-3983.696590,-4293.194464,11621.233289
1041.232048,-3830.477490,-3849.070898,11473.192101
1041.232367,-3370.820191,-3034.844362,11473.192101
1041.232686,-2757.943793,-2590.720797,11251.130318
1041.233005,-2604.724693,-2442.679609,10732.986159
1041.233324,-2451.505594,-2368.659014,10362.883188
1041.233643,-2451.505594,-2442.679609,9992.780217
1041.233962,-2451.505594,-2590.720797,10140.821405
1041.234280,-2374.896044,-2960.823768,9992.780217
1041.234599,-2834.553343,-3552.988522,9918.759623
1041.234918,-3064.381992,-3775.050304,10066.800811
1041.235237,-3524.039291,-4293.194464,10807.006753
1041.235556,-3907.087040,-4219.173869,11399.171507
1041.235875,-4290.134789,-3997.112087,11917.315666
1041.236194,-4903.011187,-3552.988522,11843.295072
1041.236512,-5132.839837,-3404.947333,11695.253884
1041.236831,-5362.668486,-2886.803174,11325.150913
1041.237150,-5056.230287,-2664.741391,10436.903782
1041.237469,-4749.792088,-2590.720797,10362.883188
1041.237788,-3983.696590,-3330.926739,11029.068536
1041.238107,-3294.210641,-3404.947333,11177.109724
1041.238426,-2145.067394,-2960.823768,11029.068536
1041.238744,-612.876398,-1628.453072,10140.821405
1041.239063,229.828649,-296.082377,8808.450710
1041.239382,1378.971896,666.185348,7476.080014
1041.239701,1685.410096,1628.453072,5773.606348
1041.240020,1991.848295,1406.391290,4885.359217
1041.240339,1838.629195,222.061783,5403.503377
1041.240658,1072.533697,-888.247130,6735.874072
1041.240976,229.828649,-2368.659014,7698.141797
1041.241295,-229.828649,-2738.761985,8956.491898
1041.241614,-383.047749,-2738.761985,9770.718434
1041.241933,0.000000,-2220.617826,10807.006753
1041.242252,153.219100,-814.226536,9844.739029
1041.242571,842.705048,888.247130,8586.388927
1041.242890,1608.800546,1554.432478,8512.368333
1041.243208,2145.067394,2220.617826,7105.977043
1041.243527,2604.724693,1702.473667,6365.771101
1041.243846,2221.676944,1628.453072,5329.482782
1041.244165,1455.581446,666.185348,5403.503377
1041.244484,612.876398,-370.102971,5403.503377
1041.244803,76.609550,-1110.308913,6217.729913
1041.245122,-1149.143247,-2516.700203,8660.409521
1041.245440,-2528.115143,-2960.823768,9918.759623
1041.245759,-3524.039291,-2442.679609,10955.047942
1041.246078,-3677.258390,-1628.453072,11325.150913
1041.246397,-3677.258390,-814.226536,10881.027347
1041.246716,-4903.011187,-592.164754,10658.965565
1041.247035,-4826.401637,-740.205942,10658.965565
1041.247354,-5209.449386,-1258.350101,9622.677246
1041.247672,-4673.182538,-1184.329507,9178.553681
1041.247991,-4673.182538,-1184.329507,9474.636058
1041.248310,-4673.182538,-1998.556043,9104.533087
1041.248629,-4213.525239,-3034.844362,9400.615463
1041.248948,-3830.477490,-3330.926739,10436.903782
1041.249267,-3677.258390,-2960.823768,10584.944971
1041.249585,-3140.991542,-2146.597232,10436.903782
1041.249904,-2757.943793,-1110.308913,10066.800811
1041.250223,-2681.334243,-1258.350101,10510.924376
1041.250542,-2911.162892,-1480.411884,10510.924376
1041.250861,-3217.601092,-2738.761985,9622.677246
1041.251180,-3600.648841,-2294.638420,9696.697840
1041.251499,-3753.867940,-3256.906145,9992.780217
1041.251817,-2911.162892,-5107.421000,11991.336260
1041.252136,-3294.210641,-5477.523971,12509.480420
1041.252455,-1991.848295,-4737.318029,12879.583391
1041.252774,-612.876398,-3775.050304,12213.398043
1041.253093,689.485948,-2368.659014,11473.192101
1041.253412,2834.553343,-814.226536,9770.718434
1041.253731,3907.087040,666.185348,8438.347739
1041.254049,3677.258390,888.247130,6291.750507
1041.254368,3370.820191,-148.041188,6217.729913
1041.254687,2451.505594,-1702.473667,7402.059420
1041.255006,2068.457845,-3108.864956,9104.533087
1041.255325,919.314598,-3775.050304,9474.636058
1041.255644,0.000000,-4145.153275,10214.842000
1041.255963,-842.705048,-3923.091493,11473.192101
1041.256281,-1378.971896,-3182.885551,11473.192101
1041.256600,-1685.410096,-1998.556043,9992.780217
1041.256919,-2298.286494,-1332.370696,8882.471304
1041.257238,-2528.115143,-1554.432478,8734.430116
1041.257557,-2681.334243,-1998.556043,8438.347739
1041.257876,-2757.943793,-2664.741391,8364.327145
1041.258195,-2911.162892,-3256.906145,8216.285956
1041.258513,-2757.943793,-2886.803174,9696.697840
1041.258832,-2451.505594,-1702.473667,9992.780217
1041.259151,-1072.533697,-222.061783,9400.615463
1041.259470,76.609550,1110.308913,8956.491898
1041.259789,536.266849,1850.514855,8438.347739
1041.260108,2068.457845,3108.864956,7105.977043
1041.260427,2834.553343,3997.112087,4441.235652
1041.260745,2757.943793,3330.926739,3997.112087
1041.261064,2145.067394,1554.432478,4293.194464
1041.261383,919.314598,-518.144159,4737.318029
1041.261702,-459.657299,-2146.597232,5699.585753
1041.262021,-1225.752797,-3108.864956,8142.265362
1041.262340,-1762.019645,-2960.823768,10140.821405
1041.262659,-1149.143247,-1998.556043,11325.150913
1041.262977,-1455.581446,-1110.308913,12435.459826
1041.263296,-1532.190996,-0.000000,12435.459826
1041.263615,-153.219100,2072.576638,11473.192101
1041.263934,1455.581446,3701.029710,9474.636058
1041.264253,2451.505594,4811.338623,7698.141797
1041.264572,2757.943793,3552.988522,7624.121203
1041.264891,2987.772442,1998.556043,7179.997637
1041.265209,3524.039291,888.247130,6587.832884
1041.265528,2987.772442,-0.000000,6587.832884
1041.265847,2528.115143,-740.205942,8290.306550
1041.266166,1455.581446,-666.185348,9252.574275
1041.266485,1072.533697,-0.000000,8882.471304
1041.266804,-229.828649,-148.041188,9548.656652
1041.267123,-1072.533697,-888.247130,11473.192101
1041.267441,-1455.581446,-1480.411884,12953.603985
1041.267760,-2451.505594,-1776.494261,12583.501014
1041.268079,-3370.820191,-1998.556043,13915.871710
1041.268398,-2834.553343,-1406.391290,14730.098246
1041.268717,-1838.629195,370.102971,12805.562797
1041.269036,-612.876398,1480.411884,10584.944971
1041.269355,229.828649,1924.535449,9844.739029
1041.269673,1762.019645,3404.947333,9548.656652
1041.269992,3140.991542,4145.153275,7402.059420
1041.270311,3524.039291,4367.215058,6069.688724
1041.270630,2911.162892,2738.761985,6735.874072
1041.270949,1991.848295,1776.494261,7105.977043
1041.271268,536.266849,370.102971,7105.977043
1041.271586,-1378.971896,-1258.350101,8364.327145
1041.271905,-3064.381992,-2960.823768,11399.171507
1041.272224,-3524.039291,-2516.700203,13471.748144
1041.272543,-3983.696590,-1924.535449,14359.995275
1041.272862,-4060.306139,-1258.350101,14804.118840
1041.273180,-3064.381992,-518.144159,15100.201217
1041.273499,-1685.410096,740.205942,13619.789333
1041.273818,383.047749,2812.782580,10066.800811
1041.274137,2374.896044,3330.926739,7920.203579
1041.274456,3753.867940,2368.659014,7105.977043
1041.274775,5209.449386,1776.494261,5255.462188
1041.275093,5669.106685,740.205942,4145.153275
1041.275412,4903.011187,-148.041188,4811.338623
1041.275731,4366.744339,-518.144159,5625.565159
1041.276050,2987.772442,-592.164754,5551.544565
1041.276369,1225.752797,-814.226536,7550.100608
1041.276687,-689.485948,-1554.432478,9770.718434
1041.277006,-2145.067394,-2220.617826,12435.459826
1041.277325,-2604.724693,-2072.576638,13249.686362
1041.277644,-2757.943793,-1628.453072,13545.768739
1041.277963,-2451.505594,-1554.432478,14211.954086
1041.278282,-842.705048,-1184.329507,12509.480420
1041.278600,766.095498,-444.123565,9696.697840
1041.278919,2068.457845,666.185348,7179.997637
1041.279238,3217.601092,592.164754,7105.977043
1041.279557,4596.572988,1332.370696,5181.441594
1041.279876,5209.449386,2294.638420,3404.947333
1041.280194,4903.011187,2442.679609,3849.070898
1041.280513,4060.306139,1998.556043,4811.338623
1041.280832,2451.505594,370.102971,5181.441594
1041.281151,689.485948,-370.102971,5625.565159
1041.281470,-1225.752797,-1998.556043,8364.327145
1041.281788,-3753.867940,-4589.276840,11621.233289
1041.282107,-4596.572988,-4441.235652,12805.562797
1041.282426,-5209.449386,-3997.112087,13471.748144
1041.282745,-4979.620737,-3034.844362,13397.727550
1041.283064,-3753.867940,-1554.432478,13175.665768
1041.283383,-1838.629195,1258.350101,10362.883188
1041.283701,229.828649,2812.782580,7105.977043
1041.284020,1455.581446,2590.720797,7105.977043
1041.284339,2604.724693,2590.720797,6513.812290
1041.284658,2834.553343,2516.700203,4441.235652
1041.284977,3370.820191,2072.576638,4145.153275
1041.285295,2681.334243,-370.102971,6291.750507
1041.285614,1302.362347,-1036.288319,7402.059420
1041.285933,229.828649,-592.164754,7624.121203
1041.286252,-995.924147,-1406.391290,9992.780217
1041.286571,-2757.943793,-1924.535449,12731.542202
1041.286889,-2757.943793,-2368.659014,14211.954086
1041.287208,-2987.772442,-1998.556043,14137.933492
1041.287527,-2911.162892,-1184.329507,14434.015869
1041.287846,-1915.238745,-148.041188,13767.830521
1041.288165,0.000000,1110.308913,11177.109724
1041.288484,1991.848295,2664.741391,8068.244768
1041.288802,3600.648841,3923.091493,7031.956449
1041.289121,4826.401637,3627.009116,6439.791695
1041.289440,5439.278036,3478.967927,4811.338623
1041.289759,5822.325785,3552.988522,4441.235652
1041.290078,4826.401637,3404.947333,5625.565159
1041.290396,3447.429741,2146.597232,7476.080014
1041.290715,2145.067394,1702.473667,8660.409521
1041.291034,76.609550,2220.617826,9474.636058
1041.291353,-1072.533697,1036.288319,12657.521608
1041.291672,-2451.505594,592.164754,13841.851115
1041.291991,-2068.457845,-222.061783,14434.015869
1041.292309,-2145.067394,-0.000000,14211.954086
1041.292628,-1838.629195,1258.350101,13545.768739
1041.292947,459.657299,1776.494261,11473.192101
1041.293266,1685.410096,4293.194464,8142.265362
1041.293585,3064.381992,4663.297435,7031.956449
1041.293903,4060.306139,4219.173869,6217.729913
1041.294222,4749.792088,4589.276840,5329.482782
1041.294541,5056.230287,4737.318029,4737.318029
1041.294860,3983.696590,4367.215058,4885.359217
1041.295179,2221.676944,3108.864956,6365.771101
1041.295497,306.438199,1628.453072,8438.347739
1041.295816,-1991.848295,370.102971,9474.636058
1041.296135,-3983.696590,-740.205942,12139.377449
1041.296454,-4749.792088,-1184.329507,14804.118840
1041.296773,-5286.058936,-1554.432478,15692.365970
1041.297092,-4903.011187,-1776.494261,16062.468941
1041.297410,-4213.525239,-666.185348,15840.407159
1041.297729,-1991.848295,518.144159,13989.892304
1041.298048,0.000000,1258.350101,10214.842000
1041.298367,2451.505594,2960.823768,7920.203579
1041.298686,4290.134789,3182.885551,6883.915261
1041.299004,5669.106685,3404.947333,5551.544565
1041.299323,6588.421283,2368.659014,3182.885551
1041.299642,5669.106685,1184.329507,3330.926739
1041.299961,4060.306139,222.061783,5329.482782
1041.300280,2374.896044,-1258.350101,7179.997637
1041.300598,153.219100,-1406.391290,7994.224174
1041.300917,-2528.115143,-2294.638420,10436.903782
1041.301236,-3677.258390,-3108.864956,13841.851115
1041.301555,-4673.182538,-4071.132681,15248.242405
1041.301874,-3907.087040,-3923.091493,15618.345376
1041.302193,-3524.039291,-3256.906145,16062.468941
1041.302511,-1685.410096,-1776.494261,14359.995275
1041.302830,1225.752797,-148.041188,11177.109724
1041.303149,3524.039291,1776.494261,8068.244768
1041.303468,5669.106685,2516.700203,6365.771101
1041.303787,7814.174080,3404.947333,4071.132681
1041.304105,8580.269578,3404.947333,1258.350101
1041.304424,9193.145976,3108.864956,1332.370696
1041.304743,7584.345430,1776.494261,2146.597232
1041.305062,4749.792088,370.102971,3108.864956
1041.305381,2528.115143,-1110.308913,4885.359217
1041.305700,-766.095498,-2146.597232,7105.977043
1041.306018,-3140.991542,-3552.988522,10362.883188
1041.306337,-5056.230287,-4663.297435,12879.583391
1041.306656,-6435.202183,-4589.276840,14137.933492
1041.306975,-6435.202183,-3552.988522,15026.180623
1041.307294,-5592.497135,-1702.473667,14730.098246
1041.307612,-3217.601092,592.164754,12879.583391
1041.307931,-689.485948,2590.720797,10066.800811
1041.308250,1838.629195,3997.112087,7476.080014
1041.308569,3983.696590,5477.523971,5329.482782
1041.308888,6052.154434,6513.812290,2960.823768
1041.309206,6894.859482,6661.853478,740.205942
1041.309525,6971.469032,5255.462188,1850.514855
1041.309844,4979.620737,3108.864956,2812.782580
1041.310163,3217.601092,1628.453072,3701.029710
1041.310482,689.485948,-0.000000,6291.750507
1041.310801,-1838.629195,-1554.432478,10066.800811
1041.311119,-4136.915689,-2590.720797,13175.665768
1041.311438,-5669.106685,-2294.638420,14211.954086
1041.311757,-6511.811733,-1776.494261,15470.304188
1041.312076,-6511.811733,-1332.370696,16062.468941
1041.312395,-3983.696590,740.205942,15396.283594
1041.312713,-1838.629195,2960.823768,12065.356855
1041.313032,229.828649,4367.215058,9696.697840
1041.313351,2757.943793,4737.318029,9622.677246
1041.313670,4749.792088,5329.482782,7105.977043
1041.313989,6665.030833,5921.647536,4219.173869
1041.314308,7124.688131,5477.523971,4737.318029
1041.314626,6128.763984,4219.173869,6513.812290
1041.314945,4979.620737,2960.823768,6439.791695
1041.315264,3677.258390,2146.597232,8142.265362
1041.315583,383.047749,296.082377,10881.027347
1041.315902,-1762.019645,-1480.411884,13619.789333
1041.316220,-3447.429741,-2590.720797,15100.201217
1041.316539,-4443.353888,-2664.741391,16284.530724
1041.316858,-4903.011187,-2072.576638,17616.901420
1041.317177,-4519.963438,-1332.370696,16136.489536
1041.317496,-2145.067394,296.082377,13471.748144
1041.317814,-383.047749,1554.432478,10881.027347
1041.318133,1685.410096,2738.761985,9252.574275
1041.318452,3983.696590,3627.009116,7179.997637
1041.318771,5439.278036,4071.132681,4885.359217
1041.319090,5669.106685,3627.009116,4367.215058
1041.319409,4979.620737,2072.576638,6439.791695
1041.319727,3294.210641,1036.288319,6661.853478
1041.320046,1532.190996,444.123565,7772.162391
1041.320365,-766.095498,296.082377,10140.821405
1041.320684,-2451.505594,-1406.391290,12583.501014
1041.321003,-4136.915689,-2220.617826,13915.871710
1041.321321,-4443.353888,-2664.741391,14582.057057
1041.321640,-4903.011187,-1924.535449,14582.057057
1041.321959,-3983.696590,-962.267725,13767.830521
1041.322278,-1838.629195,-222.061783,11843.295072
1041.322597,76.609550,814.226536,8882.471304
1041.322915,1991.848295,1406.391290,5699.585753
1041.323234,3983.696590,1258.350101,4515.256246
1041.323553,5669.106685,1554.432478,3404.947333
1041.323872,5975.544884,2368.659014,1036.288319
1041.324191,5439.278036,2146.597232,1702.473667
1041.324510,4060.306139,1480.411884,4071.132681
1041.324828,2298.286494,370.102971,5255.462188
1041.325147,-153.219100,-814.226536,6883.915261
1041.325466,-2221.676944,-2146.597232,10510.924376
1041.325785,-3524.039291,-3997.112087,13693.809927
1041.326104,-4749.792088,-4367.215058,14211.954086
1041.326422,-4826.401637,-4811.338623,15248.242405
1041.326741,-3983.696590,-4441.235652,15618.345376
1041.327060,-1685.410096,-2146.597232,12731.542202
1041.327379,1532.190996,-222.061783,9104.533087
1041.327698,3677.258390,1258.350101,5921.647536
1041.328017,5898.935335,1924.535449,4145.153275
1041.328335,7354.516781,3404.947333,1480.411884
1041.328654,8503.660028,2664.741391,370.102971
1041.328973,7354.516781,1258.350101,148.041188
1041.329292,5132.839837,1110.308913,2442.679609
1041.329611,2911.162892,-518.144159,4293.194464
1041.329929,-306.438199,-814.226536,6439.791695
1041.330248,-2834.553343,-3552.988522,10436.903782
1041.330567,-5056.230287,-4737.318029,13397.727550
1041.330886,-6665.030833,-5033.400406,17024.736666
1041.331205,-6665.030833,-4885.359217,17690.922014
1041.331523,-6511.811733,-3478.967927,17024.736666
1041.331842,-3753.867940,-1850.514855,16876.695478
1041.332161,-1378.971896,740.205942,12953.603985
1041.332480,766.095498,3923.091493,7254.018232
1041.332799,3907.087040,3997.112087,7698.141797
1041.333118,6435.202183,4367.215058,5477.523971
1041.333436,7354.516781,5699.585753,1554.432478
1041.333755,7737.564530,4663.297435,1332.370696
1041.334074,5822.325785,2738.761985,3404.947333
1041.334393,4060.306139,1406.391290,4737.318029
1041.334712,1762.019645,-0.000000,5551.544565
1041.335030,-1915.238745,-1258.350101,9104.533087
1041.335349,-4826.401637,-3182.885551,13619.789333
1041.335668,-6818.249932,-3552.988522,15914.427753
1041.335987,-7890.783629,-3404.947333,18209.066173
1041.336306,-7660.954980,-2294.638420,18727.210333
1041.336624,-7124.688131,-370.102971,18357.107362
1041.336943,-4443.353888,1036.288319,15914.427753
1041.337262,-1455.581446,3849.070898,12509.480420
1041.337581,1455.581446,5255.462188,10288.862594
1041.337900,4366.744339,5699.585753,7328.038826
1041.338219,6741.640382,5847.626942,4589.276840
1041.338537,8044.002729,4885.359217,3034.844362
1041.338856,8044.002729,4293.194464,3404.947333
1041.339175,6358.592633,2590.720797,3552.988522
1041.339494,4749.792088,1480.411884,4663.297435
1041.339813,1378.971896,296.082377,7402.059420
1041.340131,-1685.410096,-1406.391290,10436.903782
1041.340450,-4136.915689,-3849.070898,13619.789333
1041.340769,-6435.202183,-3775.050304,15544.324782
1041.341088,-7354.516781,-3775.050304,16580.613101
1041.341407,-7584.345430,-2738.761985,16284.530724
1041.341726,-5056.230287,-74.020594,15248.242405
1041.342044,-2451.505594,1110.308913,12805.562797
1041.342363,383.047749,2368.659014,9474.636058
1041.342682,3217.601092,2664.741391,8512.368333
1041.343001,5132.839837,3627.009116,6291.750507
1041.343320,7277.907231,3997.112087,1850.514855
1041.343638,7967.393179,3256.906145,2812.782580
1041.343957,7431.126331,1924.535449,4885.359217
1041.344276,5362.668486,1332.370696,2960.823768
1041.344595,2911.162892,222.061783,4737.318029
1041.344914,689.485948,-2072.576638,9030.512492
1041.345232,-2068.457845,-2738.761985,11547.212695
1041.345551,-4290.134789,-4663.297435,13397.727550
1041.345870,-6205.373534,-5255.462188,14137.933492
1041.346189,-7124.688131,-5181.441594,15914.427753
1041.346508,-5822.325785,-4145.153275,14656.077652
1041.346827,-3907.087040,-2664.741391,11843.295072
1041.347145,-1685.410096,-1184.329507,9326.594869
1041.347464,842.705048,296.082377,7402.059420
1041.347783,2681.334243,592.164754,5551.544565
1041.348102,5362.668486,1036.288319,3627.009116
1041.348421,4290.134789,1110.308913,2516.700203
1041.348739,4136.915689,1036.288319,3627.009116
1041.349058,3447.429741,370.102971,3923.091493
1041.349377,2374.896044,518.144159,5403.503377
1041.349696,919.314598,-1480.411884,8142.265362
1041.350015,-1915.238745,-2886.803174,10732.986159
1041.350333,-3907.087040,-4885.359217,12731.542202
1041.350652,-4519.963438,-4737.318029,13989.892304
1041.350971,-4673.182538,-4589.276840,15396.283594
1041.351290,-3753.867940,-4515.256246,14952.160028
1041.351609,-1838.629195,-2812.782580,12583.501014
1041.351928,0.000000,-148.041188,9548.656652
1041.352246,2451.505594,1776.494261,7698.141797
1041.352565,4596.572988,3404.947333,4293.194464
1041.352884,6894.859482,3256.906145,2146.597232
1041.353203,6818.249932,3330.926739,1998.556043
1041.353522,6358.592633,2368.659014,3256.906145
1041.353840,4826.401637,1480.411884,3775.050304
1041.354159,3294.210641,1480.411884,5699.585753
1041.354478,1302.362347,962.267725,8142.265362
1041.354797,-995.924147,-444.123565,10584.944971
1041.355116,-3524.039291,-2368.659014,13471.748144
1041.355435,-4673.182538,-2886.803174,15692.365970
1041.355753,-4903.011187,-2664.741391,16580.613101
1041.356072,-4366.744339,-1776.494261,16580.613101
1041.356391,-2987.772442,518.144159,14656.077652
1041.356710,-766.095498,1924.535449,11251.130318
1041.357029,1149.143247,3182.885551,9030.512492
1041.357347,3294.210641,3775.050304,6883.915261
1041.357666,5362.668486,3923.091493,4293.194464
1041.357985,5669.106685,4293.194464,2812.782580
1041.358304,5286.058936,3182.885551,3775.050304
1041.358623,4366.744339,2294.638420,4737.318029
1041.358941,2068.457845,1628.453072,5551.544565
1041.359260,-229.828649,-0.000000,8290.306550
1041.359579,-3294.210641,-1184.329507,11621.233289
1041.359898,-5056.230287,-2368.659014,14656.077652
1041.360217,-6511.811733,-2146.597232,16210.510130
1041.360536,-7354.516781,-1776.494261,17690.922014
1041.360854,-6971.469032,-1480.411884,18505.148550
1041.361173,-5056.230287,-74.020594,16950.716072
1041.361492,-2604.724693,1924.535449,13101.645173
1041.361811,383.047749,3108.864956,9770.718434
1041.362130,2911.162892,3997.112087,8068.244768
1041.362448,5286.058936,3627.009116,5847.626942
1041.362767,6894.859482,3034.844362,3701.029710
1041.363086,6511.811733,2664.741391,4219.173869
1041.363405,6128.763984,1184.329507,4441.235652
1041.363724,5132.839837,1110.308913,4071.132681
1041.364042,2834.553343,592.164754,5551.544565
1041.364361,-459.657299,-1184.329507,8956.491898
1041.364680,-3677.258390,-2886.803174,12213.398043
1041.364999,-5209.449386,-3108.864956,14434.015869
1041.365317,-6358.592633,-3701.029710,16210.510130
1041.365636,-6281.983084,-3404.947333,17246.798449
1041.365955,-4749.792088,-2664.741391,16876.695478
1041.366274,-2068.457845,-444.123565,13619.789333
1041.366592,689.485948,518.144159,10658.965565
1041.366911,3370.820191,1776.494261,8068.244768
1041.367230,5975.544884,2516.700203,5107.421000
1041.367549,7660.954980,3256.906145,1924.535449
1041.367868,8350.440928,2960.823768,888.247130
1041.368186,8120.612279,2368.659014,1702.473667
1041.368505,6052.154434,1554.432478,1924.535449
1041.368824,3524.039291,666.185348,3108.864956
1041.369143,536.266849,-1332.370696,6809.894666
1041.369461,-2681.334243,-3256.906145,10658.965565
1041.369780,-5056.230287,-4515.256246,13101.645173
1041.370099,-6818.249932,-5033.400406,14582.057057
1041.370418,-7507.735880,-4219.173869,15618.345376
1041.370736,-6358.592633,-2738.761985,15914.427753
1041.371055,-3294.210641,-1036.288319,13545.768739
1041.371374,-1149.143247,1036.288319,10510.924376
1041.371693,842.705048,1850.514855,8142.265362
1041.372012,3753.867940,2886.803174,6217.729913
1041.372330,5745.716235,2886.803174,2738.761985
1041.372649,6665.030833,3552.988522,1702.473667
1041.372968,6665.030833,3034.844362,1998.556043
1041.373287,6205.373534,2738.761985,2590.720797
1041.373605,3907.087040,1850.514855,2886.803174
1041.373924,1915.238745,-148.041188,6143.709319
1041.374243,-612.876398,-1554.432478,9252.574275
1041.374562,-3217.601092,-2886.803174,12065.356855
1041.374880,-4903.011187,-3701.029710,13619.789333
1041.375199,-5515.887586,-4145.153275,16062.468941
1041.375518,-5515.887586,-3182.885551,16284.530724
1041.375837,-4060.306139,-1184.329507,14878.139434
1041.376156,-1532.190996,1184.329507,11991.336260
1041.376474,995.924147,2960.823768,9844.739029
1041.376793,4060.306139,3997.112087,8068.244768
1041.377112,6205.373534,4293.194464,5625.565159
1041.377431,7277.907231,4959.379811,4071.132681
1041.377749,7737.564530,3627.009116,3404.947333
1041.378068,6818.249932,3330.926739,4293.194464
1041.378387,5822.325785,2294.638420,4737.318029
1041.378706,3140.991542,1332.370696,7105.977043
1041.379025,0.000000,-888.247130,10214.842000
1041.379343,-2221.676944,-2294.638420,13619.789333
1041.379662,-4213.525239,-3552.988522,15026.180623
1041.379981,-5362.668486,-2368.659014,16136.489536
1041.380300,-6128.763984,-2220.617826,16950.716072
1041.380618,-4749.792088,-814.226536,16284.530724
1041.380937,-2221.676944,1184.329507,13323.706956
1041.381256,-689.485948,2516.700203,10584.944971
1041.381575,1608.800546,3404.947333,9178.553681
1041.381893,3830.477490,3552.988522,6661.853478
1041.382212,5439.278036,4589.276840,4663.297435
1041.382531,5592.497135,4367.215058,4367.215058
1041.382850,4979.620737,3552.988522,4589.276840
1041.383169,4136.915689,3034.844362,5255.462188
1041.383487,2145.067394,2590.720797,6513.812290
1041.383806,-153.219100,888.247130,9474.636058
1041.384125,-2221.676944,-666.185348,13027.624579
1041.384444,-4673.182538,-1924.535449,14508.036463
1041.384762,-5745.716235,-2220.617826,15396.283594
1041.385081,-6281.983084,-2294.638420,16432.571912
1041.385400,-5209.449386,-1258.350101,15692.365970
1041.385719,-3294.210641,296.082377,12731.542202
1041.386037,-766.095498,2072.576638,9770.718434
1041.386356,1762.019645,3034.844362,8068.244768
1041.386675,4290.134789,3404.947333,6069.688724
1041.386994,6435.202183,4145.153275,3256.906145
1041.387313,7354.516781,3997.112087,2590.720797
1041.387631,6588.421283,3701.029710,2664.741391
1041.387950,5745.716235,2590.720797,3404.947333
1041.388269,3753.867940,1628.453072,4959.379811
1041.388588,1149.143247,-0.000000,7550.100608
1041.388906,-1225.752797,-962.267725,10510.924376
1041.389225,-3064.381992,-2146.597232,13027.624579
1041.389544,-4596.572988,-3108.864956,15248.242405
1041.389863,-4903.011187,-2886.803174,16062.468941
1041.390181,-4290.134789,-2516.700203,16210.510130
1041.390500,-2451.505594,-1110.308913,14211.954086
1041.390819,0.000000,296.082377,10955.047942
1041.391138,2451.505594,1850.514855,8882.471304
1041.391457,4903.011187,2146.597232,6587.832884
1041.391775,6971.469032,3182.885551,3701.029710
1041.392094,8197.221829,3478.967927,814.226536
1041.392413,8427.050478,3182.885551,888.247130
1041.392732,6818.249932,2442.679609,1628.453072
1041.393050,5439.278036,1702.473667,3108.864956
1041.393369,2068.457845,296.082377,4441.235652
1041.393688,-383.047749,-1776.494261,9548.656652
1041.394007,-3983.696590,-2960.823768,12139.377449
1041.394325,-5515.887586,-3256.906145,13989.892304
1041.394644,-6665.030833,-3923.091493,16580.613101
1041.394963,-6588.421283,-3108.864956,16802.674883
1041.395282,-5132.839837,-2146.597232,16580.613101
1041.395601,-3524.039291,962.267725,12805.562797
1041.395919,-536.266849,2442.679609,10288.862594
1041.396238,1685.410096,3552.988522,7476.080014
1041.396557,4596.572988,4219.173869,5921.647536
1041.396876,6205.373534,4737.318029,2590.720797
1041.397194,6588.421283,3997.112087,2072.576638
1041.397513,6281.983084,3256.906145,3034.844362
1041.397832,4903.011187,2368.659014,3330.926739
1041.398151,3294.210641,1110.308913,4515.256246
1041.398469,153.219100,-666.185348,7698.141797
1041.398788,-2374.896044,-3404.947333,11843.295072
1041.399107,-4749.792088,-3923.091493,14063.912898
1041.399426,-6205.373534,-3404.947333,16062.468941
1041.399745,-6894.859482,-2886.803174,17172.777854
1041.400063,-6128.763984,-1036.288319,17246.798449
1041.400382,-3447.429741,1480.411884,14582.057057
1041.400701,-612.876398,2368.659014,11917.315666
1041.401020,1685.410096,3404.947333,9918.759623
1041.401338,4673.182538,3923.091493,7476.080014
1041.401657,6741.640382,4145.153275,4441.235652
1041.401976,8273.831378,3627.009116,3849.070898
1041.402295,8197.221829,2812.782580,4071.132681
1041.402613,6971.469032,2072.576638,4515.256246
1041.402932,5056.230287,1554.432478,4885.359217
1041.403251,2451.505594,370.102971,7772.162391
1041.403570,0.000000,-1628.453072,10955.047942
1041.403889,-2834.553343,-2294.638420,12435.459826
1041.404207,-4596.572988,-2590.720797,14656.077652
1041.404526,-5975.544884,-2886.803174,16062.468941
1041.404845,-5898.935335,-2516.700203,16580.613101
1041.405164,-4366.744339,-1184.329507,14952.160028
1041.405482,-2298.286494,1406.391290,11843.295072
1041.405801,-229.828649,2442.679609,9474.636058
1041.406120,2221.676944,2812.782580,7624.121203
1041.406439,4060.306139,3256.906145,5107.421000
1041.406758,4903.011187,3775.050304,3478.967927
1041.407076,4443.353888,4071.132681,3627.009116
1041.407395,4213.525239,3404.947333,4219.173869
1041.407714,2987.772442,2220.617826,4811.338623
1041.408033,1072.533697,814.226536,7031.956449
1041.408351,-2068.457845,-1110.308913,10140.821405
1041.408670,-3907.087040,-2590.720797,12509.480420
1041.408989,-5515.887586,-3330.926739,13767.830521
1041.409308,-5898.935335,-3552.988522,15470.304188
1041.409626,-6052.154434,-2664.741391,15692.365970
1041.409945,-4136.915689,-1776.494261,14063.912898
1041.410264,-1915.238745,-296.082377,10807.006753
1041.410583,536.266849,1628.453072,8512.368333
1041.410902,2757.943793,2294.638420,6587.832884
1041.411220,4903.011187,3034.844362,4441.235652
1041.411539,5975.544884,2812.782580,2812.782580
1041.411858,6128.763984,2664.741391,2738.761985
1041.412177,5515.887586,2516.700203,3627.009116
1041.412495,4366.744339,1776.494261,4515.256246
1041.412814,2068.457845,666.185348,5329.482782
1041.413133,76.609550,-148.041188,8882.471304
1041.413452,-2221.676944,-2220.617826,11991.336260
1041.413770,-3830.477490,-3256.906145,14211.954086
1041.414089,-4366.744339,-3701.029710,14878.139434
1041.414408,-4366.744339,-3034.844362,15840.407159
1041.414727,-3294.210641,-2220.617826,15026.180623
1041.415046,-1378.971896,-296.082377,11547.212695
1041.415364,612.876398,1258.350101,8882.471304
1041.415683,3600.648841,2516.700203,7254.018232
1041.416002,5362.668486,3330.926739,4885.359217
1041.416321,7124.688131,3923.091493,2220.617826
1041.416639,7277.907231,3256.906145,2146.597232
1041.416958,6588.421283,3108.864956,2886.803174
1041.417277,4290.134789,1998.556043,3849.070898
1041.417596,2298.286494,444.123565,5773.606348
1041.417914,-383.047749,-222.061783,9474.636058
1041.418233,-3294.210641,-2072.576638,12657.521608
1041.418552,-4903.011187,-2886.803174,14878.139434
1041.418871,-5898.935335,-3775.050304,16580.613101
1041.419190,-6511.811733,-2664.741391,17172.777854
1041.419508,-5745.716235,-1406.391290,16654.633695
1041.419827,-3677.258390,148.041188,14137.933492
1041.420146,-1302.362347,1554.432478,11029.068536
1041.420465,1149.143247,2812.782580,9474.636058
1041.420783,3370.820191,2738.761985,6957.935855
1041.421102,5362.668486,3256.906145,4367.215058
1041.421421,6665.030833,2886.803174,3552.988522
1041.421740,6128.763984,2072.576638,3701.029710
1041.422058,5669.106685,1184.329507,3997.112087
1041.422377,3370.820191,74.020594,4959.379811
1041.422696,995.924147,-888.247130,7920.203579
1041.423015,-1915.238745,-2220.617826,11177.109724
1041.423334,-3907.087040,-2738.761985,13397.727550
1041.423652,-5132.839837,-3108.864956,15174.221811
1041.423971,-6435.202183,-3404.947333,17172.777854
1041.424290,-6052.154434,-2738.761985,17764.942608
1041.424609,-4136.915689,-1184.329507,16136.489536
1041.424927,-2298.286494,1258.350101,12731.542202
1041.425246,459.657299,2590.720797,9770.718434
1041.425565,3600.648841,3404.947333,8290.306550
1041.425884,5975.544884,4293.194464,5033.400406
1041.426202,7890.783629,3997.112087,2812.782580
1041.426521,7660.954980,3478.967927,2368.659014
1041.426840,7124.688131,2960.823768,2738.761985
1041.427159,5669.106685,1850.514855,2960.823768
1041.427478,2757.943793,-0.000000,5477.523971
1041.427796,-383.047749,-1924.535449,8808.450710
1041.428115,-3064.381992,-3478.967927,11769.274478
1041.428434,-5439.278036,-4737.318029,13841.851115
1041.428753,-7124.688131,-4293.194464,15100.201217
1041.429071,-7354.516781,-3552.988522,16580.613101
1041.429390,-5822.325785,-2072.576638,15618.345376
1041.429709,-3753.867940,-0.000000,12657.521608
1041.430028,-1378.971896,1110.308913,10584.944971
1041.430346,1149.143247,2516.700203,8882.471304
1041.430665,3753.867940,2664.741391,5403.503377
1041.430984,4979.620737,3256.906145,2812.782580
1041.431303,6435.202183,3330.926739,2368.659014
1041.431622,6052.154434,2220.617826,2886.803174
1041.431940,4903.011187,1628.453072,2294.638420
1041.432259,3600.648841,370.102971,4589.276840
1041.432578,536.266849,-1332.370696,7402.059420
1041.432897,-2068.457845,-2516.700203,9696.697840
1041.433215,-3830.477490,-3701.029710,12435.459826
1041.433534,-5745.716235,-3997.112087,14434.015869
1041.433853,-6741.640382,-4737.318029,15692.365970
1041.434172,-6281.983084,-3701.029710,15914.427753
1041.434491,-4290.134789,-1406.391290,14211.954086
1041.434809,-2221.676944,296.082377,10881.027347
1041.435128,536.266849,2146.597232,9548.656652
1041.435447,3217.601092,2738.761985,6883.915261
1041.435766,5439.278036,3404.947333,4293.194464
1041.436084,6588.421283,3849.070898,2812.782580
1041.436403,7201.297681,3552.988522,2960.823768
1041.436722,6358.592633,2516.700203,3182.885551
1041.437041,4673.182538,1850.514855,4737.318029
1041.437359,2374.896044,-148.041188,7550.100608
1041.437678,-383.047749,-1554.432478,10510.924376
1041.437997,-2451.505594,-2738.761985,12953.603985
1041.438316,-4060.306139,-3034.844362,14804.118840
1041.438635,-4903.011187,-3330.926739,15840.407159
1041.438953,-5209.449386,-2368.659014,15988.448347
1041.439272,-3983.696590,-740.205942,14285.974681
1041.439591,-1608.800546,1036.288319,11769.274478
1041.439910,459.657299,1776.494261,9252.574275
1041.440228,2451.505594,2072.576638,7772.162391
1041.440547,4443.353888,3108.864956,5551.544565
1041.440866,5669.106685,3330.926739,3627.009116
1041.441185,5362.668486,3182.885551,3923.091493
1041.441503,5056.230287,2738.761985,4737.318029
1041.441822,4060.306139,2146.597232,5033.400406
1041.442141,1455.581446,1258.350101,7105.977043
1041.442460,-919.314598,-296.082377,10436.903782
1041.442779,-3140.991542,-2294.638420,13471.748144
1041.443097,-4903.011187,-2516.700203,15026.180623
1041.443416,-5745.716235,-3256.906145,16728.654289
1041.443735,-6052.154434,-2812.782580,17098.757260
1041.444054,-4826.401637,-1628.453072,15692.365970
1041.444372,-2374.896044,444.123565,12435.459826
1041.444691,-459.657299,1258.350101,9992.780217
1041.445010,1762.019645,2146.597232,8068.244768
1041.445329,4443.353888,2516.700203,5477.523971
1041.445647,6128.763984,2738.761985,3256.906145
1041.445966,6511.811733,2220.617826,2368.659014
1041.446285,6281.983084,2294.638420,3552.988522
1041.446604,4979.620737,1332.370696,4145.153275
1041.446923,3370.820191,296.082377,6069.688724
1041.447241,0.000000,-518.144159,9474.636058
1041.447560,-1991.848295,-1628.453072,12435.459826
1041.447879,-2757.943793,-2146.597232,14508.036463
1041.448198,-4136.915689,-2072.576638,15470.304188
1041.448516,-4749.792088,-2368.659014,16284.530724
1041.448835,-3447.429741,-1702.473667,15322.262999
1041.449154,-1302.362347,-0.000000,13545.768739
1041.449473,995.924147,1332.370696,10214.842000
1041.449791,3217.601092,2072.576638,8512.368333
1041.450110,4903.011187,2072.576638,5995.668130
1041.450429,7354.516781,3034.844362,3182.885551
1041.450748,7584.345430,2590.720797,1998.556043
1041.451067,7584.345430,2812.782580,2220.617826
1041.451385,5745.716235,2368.659014,2590.720797
1041.451704,4136.915689,1850.514855,4071.132681
1041.452023,1149.143247,222.061783,7105.977043
1041.452342,-1991.848295,-2220.617826,10362.883188
1041.452660,-4290.134789,-3330.926739,12731.542202
1041.452979,-5975.544884,-3775.050304,14730.098246
1041.453298,-6971.469032,-4145.153275,16284.530724
1041.453617,-6281.983084,-3182.885551,16580.613101
1041.453935,-5209.449386,-1554.432478,14656.077652
1041.454254,-2528.115143,296.082377,11547.212695
1041.454573,-612.876398,1702.473667,9252.574275
1041.454892,2604.724693,2368.659014,7254.018232
1041.455211,4519.963438,3108.864956,4293.194464
1041.455529,5669.106685,3775.050304,2590.720797
1041.455848,5745.716235,2886.803174,2960.823768
1041.456167,4673.182538,2146.597232,2812.782580
1041.456486,2987.772442,1110.308913,3923.091493
1041.456804,536.266849,-370.102971,6439.791695
1041.457123,-1991.848295,-1998.556043,9474.636058
1041.457442,-4060.306139,-2960.823768,12509.480420
1041.457761,-5439.278036,-3034.844362,13915.871710
1041.458079,-6588.421283,-3256.906145,15544.324782
1041.458398,-6281.983084,-2738.761985,16432.571912
1041.458717,-4903.011187,-1628.453072,15396.283594
1041.459036,-2528.115143,222.061783,12583.501014
1041.459355,-306.438199,1628.453072,10436.903782
1041.459673,2604.724693,3182.885551,8586.388927
1041.459992,5362.668486,4441.235652,6291.750507
1041.460311,7277.907231,4589.276840,3182.885551
1041.460630,7967.393179,4663.297435,3182.885551
1041.460948,7890.783629,4071.132681,3330.926739
1041.461267,6971.469032,2960.823768,2960.823768
1041.461586,4673.182538,1332.370696,4885.359217
1041.461905,1685.410096,-444.123565,8734.430116
1041.462224,-459.657299,-2294.638420,11917.315666
1041.462542,-2834.553343,-2812.782580,13767.830521
1041.462861,-4519.963438,-3330.926739,15470.304188
1041.463180,-5439.278036,-2516.700203,16210.510130
1041.463499,-4366.744339,-1702.473667,16210.510130
1041.463817,-2451.505594,-74.020594,13545.768739
1041.464136,-383.047749,1554.432478,11177.109724
1041.464455,1455.581446,3330.926739,8956.491898
1041.464774,4136.915689,3923.091493,7105.977043
1041.465093,5745.716235,4367.215058,4441.235652
1041.465412,6741.640382,4071.132681,3997.112087
1041.465730,6511.811733,3256.906145,4367.215058
1041.466049,5439.278036,2960.823768,3775.050304
1041.466368,4213.525239,1998.556043,5477.523971
1041.466687,1302.362347,740.205942,8438.347739
1041.467006,-1762.019645,-962.267725,11251.130318
1041.467325,-3064.381992,-2368.659014,13471.748144
1041.467644,-5515.887586,-2664.741391,14878.139434
1041.467963,-6205.373534,-2368.659014,15544.324782
1041.468282,-6205.373534,-1776.494261,15470.304188
1041.468601,-4366.744339,-370.102971,13915.871710
1041.468920,-2757.943793,1184.329507,10584.944971
1041.469239,-536.266849,2072.576638,9326.594869
1041.469558,1608.800546,1924.535449,7846.182985
1041.469877,3983.696590,2886.803174,5477.523971
1041.470196,5132.839837,3478.967927,3552.988522
1041.470515,5362.668486,2812.782580,3775.050304
1041.470834,4979.620737,2516.700203,4367.215058
1041.471152,3907.087040,1702.473667,4515.256246
1041.471471,1915.238745,740.205942,7402.059420
1041.471790,-459.657299,-814.226536,10288.862594
1041.472109,-2068.457845,-2072.576638,12509.480420
1041.472428,-3370.820191,-2368.659014,13545.768739
1041.472747,-4443.353888,-2886.803174,15544.324782
1041.473066,-4213.525239,-3256.906145,15544.324782
1041.473385,-2834.553343,-1628.453072,13767.830521
1041.473704,-612.876398,-0.000000,11103.089130
1041.474023,1225.752797,1406.391290,9178.553681
1041.474342,3753.867940,1406.391290,7328.038826
1041.474661,5592.497135,2146.597232,4737.318029
1041.474980,6894.859482,2368.659014,2886.803174
1041.475299,6894.859482,1850.514855,3034.844362
1041.475618,6205.373534,2072.576638,3997.112087
1041.475937,4749.792088,1628.453072,4293.194464
1041.476256,2528.115143,814.226536,6069.688724
1041.476574,-459.657299,-444.123565,9770.718434
1041.476893,-2604.724693,-1998.556043,12213.398043
1041.477212,-3830.477490,-2738.761985,13767.830521
1041.477531,-5056.230287,-2220.617826,15026.180623
1041.477850,-5132.839837,-2146.597232,15766.386565
1041.478169,-3830.477490,-1258.350101,14434.015869
1041.478488,-2374.896044,-296.082377,11399.171507
1041.478807,-306.438199,1184.329507,9178.553681
1041.479126,1762.019645,1628.453072,7550.100608
1041.479445,3370.820191,1998.556043,5181.441594
1041.479764,5056.230287,3256.906145,2812.782580
1041.480083,5362.668486,3478.967927,2590.720797
1041.480402,4979.620737,3108.864956,2960.823768
1041.480721,3677.258390,2368.659014,3330.926739
1041.481040,1685.410096,1184.329507,4589.276840
1041.481359,-1072.533697,-222.061783,7994.224174
1041.481678,-2987.772442,-1924.535449,11621.233289
1041.481997,-4903.011187,-2442.679609,13101.645173
1041.482315,-5822.325785,-2220.617826,14952.160028
1041.482634,-6052.154434,-1998.556043,16654.633695
1041.482953,-4979.620737,-740.205942,16358.551318
1041.483272,-2757.943793,1258.350101,13249.686362
1041.483591,-766.095498,2886.803174,11029.068536
1041.483910,1838.629195,3701.029710,9400.615463
1041.484229,4213.525239,3849.070898,7031.956449
1041.484548,6052.154434,4293.194464,4663.297435
1041.484867,6818.249932,3923.091493,3849.070898
1041.485186,7124.688131,3627.009116,3552.988522
1041.485505,6281.983084,3108.864956,3849.070898
1041.485824,4749.792088,1702.473667,5033.400406
1041.486143,1685.410096,-222.061783,8216.285956
1041.486462,-1149.143247,-2442.679609,11325.150913
1041.486781,-3294.210641,-2886.803174,14137.933492
1041.487100,-4673.182538,-3256.906145,15840.407159
1041.487419,-5975.544884,-3256.906145,17098.757260
1041.487737,-5745.716235,-2516.700203,17468.860231
1041.488056,-4443.353888,-888.247130,15248.242405
1041.488375,-2451.505594,1332.370696,12139.377449
1041.488694,383.047749,2590.720797,10140.821405
1041.489013,2604.724693,3182.885551,8438.347739
1041.489332,4596.572988,2664.741391,5699.585753
1041.489651,6052.154434,4219.173869,3701.029710
1041.489970,6511.811733,3552.988522,4367.215058
1041.490289,6128.763984,2220.617826,4441.235652
1041.490608,4596.572988,1406.391290,4293.194464
1041.490927,1991.848295,740.205942,6661.853478
1041.491246,-766.095498,-1258.350101,9474.636058
1041.491565,-3217.601092,-2220.617826,11547.212695
1041.491884,-4749.792088,-2442.679609,13545.768739
1041.492203,-6128.763984,-2590.720797,14434.015869
1041.492522,-6281.983084,-2442.679609,15396.283594
1041.492841,-5515.887586,-1406.391290,14285.974681
1041.493159,-3294.210641,444.123565,11843.295072
1041.493478,-1455.581446,1850.514855,9474.636058
1041.493797,766.095498,1998.556043,8882.471304
1041.494116,3677.258390,2442.679609,6291.750507
1041.494435,5592.497135,3330.926739,3849.070898
1041.494754,6741.640382,3701.029710,3330.926739
1041.495073,6818.249932,2886.803174,3478.967927
1041.495392,6052.154434,1480.411884,3552.988522
1041.495711,4519.963438,1702.473667,4811.338623
1041.496030,1991.848295,-0.000000,7698.141797
1041.496349,-153.219100,-2368.659014,10214.842000
1041.496668,-1991.848295,-2812.782580,12139.377449
1041.496987,-3217.601092,-3701.029710,13545.768739
1041.497306,-4443.353888,-3404.947333,14359.995275
1041.497625,-3447.429741,-2664.741391,14508.036463
1041.497944,-1838.629195,-1036.288319,12213.398043
1041.498263,-383.047749,-222.061783,9844.739029
1041.498581,1838.629195,1258.350101,9474.636058
1041.498900,4366.744339,1998.556043,7105.977043
1041.499219,5669.106685,2220.617826,4589.276840
1041.499538,6665.030833,2812.782580,3627.009116
1041.499857,6894.859482,2072.576638,4441.235652
1041.500176,5439.278036,1332.370696,4367.215058
1041.500495,3524.039291,888.247130,4959.379811
1041.500814,1072.533697,-0.000000,7994.224174
1041.501133,-1225.752797,-1702.473667,10510.924376
1041.501452,-3217.601092,-2960.823768,12583.501014
1041.501771,-4903.011187,-3701.029710,14211.954086
1041.502090,-6205.373534,-3923.091493,15544.324782
1041.502409,-5745.716235,-2442.679609,15766.386565
1041.502728,-4213.525239,-1036.288319,13767.830521
1041.503047,-2374.896044,962.267725,11029.068536
1041.503366,-536.266849,1702.473667,9622.677246
1041.503685,1225.752797,2368.659014,7624.121203
1041.504003,3140.991542,3108.864956,4811.338623
1041.504322,4290.134789,3256.906145,3849.070898
1041.504641,4673.182538,3478.967927,4219.173869
1041.504960,4136.915689,2368.659014,4071.132681
1041.505279,2528.115143,1406.391290,4737.318029
1041.505598,383.047749,222.061783,7550.100608
1041.505917,-1455.581446,-1406.391290,11399.171507
1041.506236,-3753.867940,-2368.659014,13101.645173
1041.506555,-4979.620737,-2442.679609,14582.057057
1041.506874,-5975.544884,-2442.679609,15840.407159
1041.507193,-5592.497135,-2220.617826,16654.633695
1041.507512,-3830.477490,-888.247130,14952.160028
1041.507831,-2145.067394,740.205942,11843.295072
1041.508150,-306.438199,1406.391290,10288.862594
1041.508469,2068.457845,2072.576638,8660.409521
1041.508788,4443.353888,3034.844362,5847.626942
1041.509107,6052.154434,3404.947333,3552.988522
1041.509425,6665.030833,3182.885551,3552.988522
1041.509744,6358.592633,2590.720797,3627.009116
1041.510063,5362.668486,2072.576638,3775.050304
1041.510382,3294.210641,592.164754,5921.647536
1041.510701,766.095498,-1110.308913,9474.636058
1041.511020,-1838.629195,-2738.761985,12065.356855
1041.511339,-3370.820191,-3034.844362,13989.892304
1041.511658,-4443.353888,-2886.803174,15766.386565
1041.511977,-4749.792088,-1998.556043,16358.551318
1041.512296,-3677.258390,-888.247130,15322.262999
1041.512615,-1225.752797,740.205942,12509.480420
1041.512934,0.000000,2146.597232,9770.718434
1041.513253,2221.676944,2812.782580,8216.285956
1041.513572,4519.963438,3330.926739,5847.626942
1041.513891,6128.763984,3923.091493,3256.906145
1041.514210,7048.078582,3997.112087,2886.803174
1041.514529,6281.983084,2664.741391,3182.885551
1041.514847,5132.839837,1998.556043,3552.988522
1041.515166,2987.772442,1036.288319,4737.318029
1041.515485,76.609550,-518.144159,7550.100608
1041.515804,-2374.896044,-2368.659014,10881.027347
1041.516123,-4673.182538,-3108.864956,13397.727550
1041.516442,-6281.983084,-3775.050304,15174.221811
1041.516761,-7048.078582,-3034.844362,15692.365970
1041.517080,-6358.592633,-2590.720797,15840.407159
1041.517399,-4366.744339,-814.226536,13175.665768
1041.517718,-2451.505594,-0.000000,10732.986159
1041.518037,0.000000,1332.370696,9696.697840
1041.518356,2604.724693,1924.535449,7476.080014
1041.518675,4596.572988,2368.659014,4441.235652
1041.518994,6052.154434,2516.700203,3627.009116
1041.519313,6741.640382,2368.659014,3849.070898
1041.519632,5745.716235,1850.514855,3256.906145
1041.519951,4060.306139,666.185348,3923.091493
1041.520269,1838.629195,-444.123565,6809.894666
1041.520588,-766.095498,-2220.617826,9770.718434
1041.520907,-2911.162892,-3330.926739,12287.418637
1041.521226,-4366.744339,-3478.967927,14211.954086
1041.521545,-5209.449386,-3627.009116,15618.345376
1041.521864,-5056.230287,-2590.720797,15988.448347
1041.522183,-3677.258390,-1332.370696,14656.077652
1041.522502,-1302.362347,-444.123565,11843.295072
1041.522821,383.047749,518.144159,10362.883188
1041.523140,2911.162892,1406.391290,8808.450710
1041.523459,5132.839837,2590.720797,5477.523971
1041.523778,6818.249932,3034.844362,3404.947333
1041.524097,7507.735880,3256.906145,3627.009116
1041.524416,7201.297681,2442.679609,3404.947333
1041.524735,5822.325785,1998.556043,3256.906145
1041.525054,3677.258390,1036.288319,5625.565159
1041.525373,766.095498,-962.267725,9104.533087
1041.525691,-1532.190996,-2368.659014,11547.212695
1041.526010,-3753.867940,-3034.844362,13027.624579
1041.526329,-5592.497135,-3404.947333,15174.221811
1041.526648,-5898.935335,-3108.864956,16284.530724
1041.526967,-4903.011187,-1480.411884,14730.098246
1041.527286,-3217.601092,-296.082377,12657.521608
1041.527605,-1762.019645,1184.329507,10955.047942
1041.527924,689.485948,2072.576638,9770.718434
1041.528243,2528.115143,2960.823768,6291.750507
1041.528562,4596.572988,2960.823768,4367.215058
1041.528881,5286.058936,3478.967927,4515.256246
1041.529200,5515.887586,3256.906145,3997.112087
1041.529519,4673.182538,2294.638420,3330.926739
1041.529838,2834.553343,518.144159,5255.462188
1041.530157,612.876398,-1036.288319,8290.306550
1041.530476,-2451.505594,-2368.659014,10881.027347
1041.530795,-3524.039291,-2664.741391,12879.583391
1041.531113,-5056.230287,-2442.679609,14359.995275
1041.531432,-5975.544884,-2368.659014,15544.324782
1041.531751,-5439.278036,-1184.329507,15322.262999
1041.532070,-3677.258390,148.041188,13323.706956
1041.532389,-1838.629195,1480.411884,11029.068536
1041.532708,459.657299,2516.700203,9696.697840
1041.533027,2834.553343,2738.761985,7550.100608
1041.533346,4903.011187,3627.009116,4885.359217
1041.533665,5975.544884,3775.050304,4071.132681
1041.533984,6281.983084,2960.823768,4367.215058
1041.534303,5975.544884,2664.741391,4071.132681
1041.534622,5132.839837,1702.473667,4589.276840
1041.534941,2757.943793,-0.000000,7550.100608
1041.535260,229.828649,-1258.350101,10510.924376
1041.535579,-1685.410096,-1998.556043,12435.459826
1041.535898,-2681.334243,-2294.638420,13175.665768
1041.536217,-4060.306139,-1998.556043,14434.015869
1041.536535,-4136.915689,-962.267725,14582.057057
1041.536854,-2451.505594,-0.000000,12657.521608
1041.537173,-919.314598,592.164754,10584.944971
1041.537492,229.828649,1184.329507,9770.718434
1041.537811,2221.676944,1998.556043,8216.285956
1041.538130,4136.915689,2590.720797,5625.565159
1041.538449,4903.011187,3256.906145,4367.215058
1041.538768,5362.668486,3108.864956,4737.318029
1041.539087,4673.182538,2738.761985,4441.235652
1041.539406,3370.820191,2072.576638,4959.379811
1041.539725,1532.190996,962.267725,7105.977043
1041.540044,-1149.143247,-666.185348,10288.862594
1041.540363,-2911.162892,-1998.556043,12879.583391
1041.540682,-4443.353888,-2664.741391,14211.954086
1041.541001,-5209.449386,-3034.844362,15544.324782
1041.541320,-5362.668486,-2516.700203,15470.304188
1041.541639,-4366.744339,-1850.514855,14063.912898
1041.541957,-2451.505594,-0.000000,11473.192101
1041.542276,-229.828649,740.205942,9918.759623
1041.542595,2068.457845,962.267725,8364.327145
1041.542914,4290.134789,2294.638420,5477.523971
1041.543233,6052.154434,2960.823768,3997.112087
1041.543552,5975.544884,2812.782580,3849.070898
1041.543871,5975.544884,2294.638420,3552.988522
1041.544190,4903.011187,1332.370696,4367.215058
1041.544509,2911.162892,518.144159,6217.729913
1041.544828,612.876398,-370.102971,8956.491898
1041.545147,-1762.019645,-1776.494261,11621.233289
1041.545466,-2987.772442,-2220.617826,13693.809927
1041.545785,-3907.087040,-2294.638420,15100.201217
1041.546104,-4136.915689,-2368.659014,16136.489536
1041.546423,-3447.429741,-1702.473667,15470.304188
1041.546742,-1685.410096,-370.102971,13027.624579
1041.547061,383.047749,962.267725,10510.924376
1041.547379,2298.286494,1702.473667,8808.450710
1041.547698,4366.744339,1998.556043,7031.956449
1041.548017,6511.811733,3108.864956,3849.070898
1041.548336,7277.907231,3627.009116,2442.679609
1041.548655,6665.030833,3330.926739,2590.720797
1041.548974,5898.935335,2738.761985,2738.761985
1041.549293,3524.039291,1332.370696,3775.050304
1041.549612,1532.190996,-888.247130,7254.018232
1041.549931,-1991.848295,-2294.638420,10510.924376
1041.550250,-3753.867940,-3182.885551,12509.480420
1041.550569,-5209.449386,-3775.050304,14508.036463
1041.550888,-5822.325785,-3552.988522,16580.613101
1041.551207,-5898.935335,-2368.659014,16506.592507
1041.551526,-4213.525239,-296.082377,14211.954086
1041.551845,-2221.676944,1110.308913,11991.336260
1041.552164,-153.219100,2368.659014,10066.800811
1041.552483,2757.943793,2886.803174,8142.265362
1041.552801,4903.011187,3775.050304,5033.400406
1041.553120,6052.154434,4145.153275,3478.967927
1041.553439,6281.983084,3330.926739,3182.885551
1041.553758,6358.592633,2590.720797,3108.864956
1041.554077,5362.668486,1628.453072,3701.029710
1041.554396,2451.505594,370.102971,5773.606348
1041.554715,153.219100,-1332.370696,8882.471304
1041.555034,-2145.067394,-1776.494261,11103.089130
1041.555353,-3370.820191,-2220.617826,13841.851115
1041.555672,-5439.278036,-2220.617826,15100.201217
1041.555991,-6128.763984,-1480.411884,15840.407159
1041.556310,-4979.620737,-74.020594,14359.995275
1041.556629,-3217.601092,1332.370696,12805.562797
1041.556948,-1991.848295,1406.391290,11103.089130
1041.557267,536.266849,2516.700203,10288.862594
1041.557586,2834.553343,2960.823768,7105.977043
1041.557905,4903.011187,3775.050304,5181.441594
1041.558223,5745.716235,3330.926739,4811.338623
1041.558542,6128.763984,3404.947333,4663.297435
1041.558861,5132.839837,2516.700203,3775.050304
1041.559180,4060.306139,1554.432478,5403.503377
1041.559499,1532.190996,-74.020594,8438.347739
1041.559818,-306.438199,-1702.473667,10732.986159
1041.560137,-2757.943793,-2590.720797,12731.542202
1041.560456,-4136.915689,-2886.803174,14508.036463
1041.560775,-5515.887586,-2812.782580,15248.242405
1041.561094,-4903.011187,-1628.453072,15100.201217
1041.561413,-4060.306139,-222.061783,12879.583391
1041.561732,-1762.019645,1406.391290,11103.089130
1041.562051,229.828649,2368.659014,9992.780217
1041.562370,2528.115143,2960.823768,7846.182985
1041.562689,4443.353888,3034.844362,5477.523971
1041.563008,5132.839837,3701.029710,4811.338623
1041.563327,5209.449386,2368.659014,4959.379811
1041.563645,4903.011187,2368.659014,4663.297435
1041.563964,3677.258390,1776.494261,5477.523971
1041.564283,1991.848295,370.102971,8142.265362
1041.564602,153.219100,-1184.329507,10807.006753
1041.564921,-1608.800546,-1850.514855,12361.439231
1041.565240,-2757.943793,-1850.514855,13175.665768
1041.565559,-3600.648841,-1628.453072,14211.954086
1041.565878,-3064.381992,-1332.370696,13545.768739
1041.566197,-1915.238745,-296.082377,12139.377449
1041.566516,-766.095498,888.247130,9770.718434
1041.566835,459.657299,1628.453072,8660.409521
1041.567154,2451.505594,1554.432478,7254.018232
1041.567473,4213.525239,2368.659014,5033.400406
1041.567792,4519.963438,2368.659014,3849.070898
1041.568111,4443.353888,1924.535449,5107.421000
1041.568430,3217.601092,888.247130,4959.379811
1041.568749,2681.334243,666.185348,5625.565159
1041.569068,1225.752797,-74.020594,8586.388927
1041.569387,-1685.410096,-962.267725,11103.089130
1041.569706,-2604.724693,-2146.597232,12213.398043
1041.570025,-3524.039291,-1998.556043,13471.748144
1041.570344,-3677.258390,-2368.659014,14804.118840
1041.570663,-3447.429741,-1776.494261,14359.995275
1041.570982,-2221.676944,-666.185348,12657.521608
1041.571301,-306.438199,666.185348,10362.883188
1041.571620,1532.190996,1480.411884,8660.409521
1041.571939,2987.772442,1332.370696,7031.956449
1041.572258,4903.011187,2220.617826,4959.379811
1041.572577,5209.449386,2960.823768,2738.761985
1041.572896,5286.058936,2738.761985,3775.050304
1041.573215,4366.744339,2368.659014,4293.194464
1041.573534,3294.210641,1406.391290,4663.297435
1041.573853,459.657299,-74.020594,7031.956449
1041.574172,-1991.848295,-1998.556043,11251.130318
1041.574491,-3447.429741,-3256.906145,13767.830521
1041.574810,-4519.963438,-2738.761985,14434.015869
1041.575129,-5056.230287,-2738.761985,16062.468941
1041.575448,-4903.011187,-1776.494261,17098.757260
1041.575767,-2604.724693,-0.000000,13915.871710
1041.576086,-536.266849,1554.432478,11177.109724
1041.576405,2374.896044,1628.453072,10288.862594
1041.576724,3830.477490,2590.720797,7698.141797
1041.577043,6358.592633,3108.864956,4293.194464
1041.577362,7354.516781,2812.782580,3034.844362
1041.577681,7277.907231,2442.679609,3330.926739
1041.578000,6665.030833,1480.411884,2738.761985
1041.578319,4826.401637,666.185348,3108.864956
1041.578638,2451.505594,370.102971,4737.318029
1041.578957,-306.438199,-888.247130,8216.285956
1041.579276,-3447.429741,-1702.473667,10510.924376
1041.579595,-5592.497135,-2664.741391,13397.727550
1041.579914,-7354.516781,-3256.906145,14804.118840
1041.580233,-8120.612279,-2516.700203,16432.571912
1041.580552,-7354.516781,-1332.370696,15988.448347
1041.580871,-4903.011187,814.226536,13619.789333
1041.581190,-3447.429741,2590.720797,11843.295072
1041.581509,-459.657299,3108.864956,10584.944971
1041.581828,2451.505594,4219.173869,7772.162391
1041.582147,4749.792088,4737.318029,4515.256246
1041.582466,6358.592633,4885.359217,3552.988522
1041.582785,6741.640382,4515.256246,3627.009116
1041.583104,6128.763984,2886.803174,2960.823768
1041.583423,4903.011187,1924.535449,3627.009116
1041.583742,2451.505594,370.102971,6217.729913
1041.584061,0.000000,-1850.514855,9992.780217
1041.584380,-2145.067394,-3182.885551,11473.192101
1041.584699,-4290.134789,-2960.823768,13915.871710
1041.585018,-5898.935335,-2812.782580,15766.386565
1041.585337,-6435.202183,-1554.432478,15248.242405
1041.585656,-4749.792088,-962.267725,14582.057057
1041.585975,-2681.334243,-148.041188,13471.748144
1041.586294,-1302.362347,1406.391290,12139.377449
1041.586613,1685.410096,2072.576638,10214.842000
1041.586932,4060.306139,2664.741391,7550.100608
1041.587251,6205.373534,2294.638420,6587.832884
1041.587570,6818.249932,1554.432478,5773.606348
1041.587889,6511.811733,2146.597232,4441.235652
1041.588208,5362.668486,1480.411884,4071.132681
1041.588527,4673.182538,592.164754,6069.688724
1041.588846,2068.457845,-518.144159,8734.430116
1041.589165,-689.485948,-1998.556043,10140.821405
1041.589484,-3064.381992,-3108.864956,11917.315666
1041.589803,-5362.668486,-3034.844362,14211.954086
1041.590122,-5898.935335,-3701.029710,15396.283594
1041.590441,-5515.887586,-2960.823768,13915.871710
1041.590760,-4443.353888,-1850.514855,13545.768739
1041.591079,-3217.601092,-518.144159,11917.315666
1041.591398,-1532.190996,592.164754,10881.027347
1041.591717,2221.676944,2442.679609,7698.141797
1041.592036,4366.744339,3775.050304,5255.462188
1041.592355,5132.839837,4145.153275,4145.153275
1041.592674,6435.202183,3849.070898,3701.029710
1041.592993,6052.154434,2960.823768,3775.050304
1041.593312,4903.011187,2368.659014,4293.194464
1041.593631,2604.724693,1036.288319,6587.832884
1041.593950,306.438199,-370.102971,8586.388927
1041.594269,-842.705048,-1628.453072,9918.759623
1041.594588,-3294.210641,-2516.700203,11843.295072
1041.594907,-3753.867940,-3627.009116,14063.912898
1041.595226,-4213.525239,-2738.761985,14137.933492
1041.595545,-3524.039291,-518.144159,12287.418637
1041.595864,-1838.629195,222.061783,10584.944971
1041.596183,-153.219100,814.226536,9918.759623
1041.596502,1762.019645,962.267725,8660.409521
1041.596821,2834.553343,1924.535449,4885.359217
1041.597140,4136.915689,2442.679609,3923.091493
1041.597459,4903.011187,2664.741391,4145.153275
1041.597778,4979.620737,2590.720797,3997.112087
1041.598097,3524.039291,1554.432478,3849.070898
1041.598416,1532.190996,-148.041188,6809.894666
1041.598735,0.000000,-1628.453072,10140.821405
1041.599054,-1608.800546,-2664.741391,11991.336260
1041.599373,-3217.601092,-2368.659014,13471.748144
1041.599692,-4673.182538,-1480.411884,15026.180623
1041.600011,-4903.011187,-1480.411884,15618.345376
1041.600330,-4060.306139,-888.247130,13619.789333
1041.600649,-2221.676944,-518.144159,12509.480420
1041.600968,-919.314598,518.144159,11103.089130
1041.601286,919.314598,1480.411884,8734.430116
1041.601605,3447.429741,1998.556043,5995.668130
1041.601924,4903.011187,2294.638420,4737.318029
1041.602243,5592.497135,2220.617826,4811.338623
1041.602562,5209.449386,1924.535449,4071.132681
1041.602881,4596.572988,1628.453072,4071.132681
1041.603200,2987.772442,296.082377,6439.791695
1041.603519,153.219100,-444.123565,9178.553681
1041.603838,-1532.190996,-1702.473667,11769.274478
1041.604157,-3600.648841,-2294.638420,13989.892304
1041.604476,-4903.011187,-2516.700203,15840.407159
1041.604795,-5132.839837,-1776.494261,16506.592507
1041.605114,-4136.915689,-518.144159,14804.118840
1041.605433,-2528.115143,444.123565,13175.665768
1041.605752,-1378.971896,1406.391290,11769.274478
1041.606071,1149.143247,1998.556043,9696.697840
1041.606390,3447.429741,1776.494261,6809.894666
1041.606709,4596.572988,2294.638420,5329.482782
1041.607028,5898.935335,2442.679609,4959.379811
1041.607347,5745.716235,2146.597232,3182.885551
1041.607666,5592.497135,1924.535449,2368.659014
1041.607985,3753.867940,740.205942,4663.297435
1041.608304,1072.533697,-740.205942,7846.182985
1041.608623,-1149.143247,-1924.535449,9844.739029
1041.608942,-3600.648841,-1406.391290,11695.253884
1041.609261,-4826.401637,-1702.473667,14656.077652
1041.609580,-6052.154434,-1776.494261,15618.345376
1041.609899,-5209.449386,-444.123565,15396.283594
1041.610218,-4443.353888,222.061783,13619.789333
1041.610537,-2681.334243,814.226536,12361.439231
1041.610856,-536.266849,1480.411884,10584.944971
1041.611175,2374.896044,2294.638420,7920.203579
1041.611494,4749.792088,2294.638420,5477.523971
1041.611813,6281.983084,2812.782580,4145.153275
1041.612132,6894.859482,2738.761985,3330.926739
1041.612451,7201.297681,2590.720797,2220.617826
1041.612770,5439.278036,1850.514855,2738.761985
1041.613089,3370.820191,592.164754,5625.565159
1041.613408,612.876398,-1258.350101,8216.285956
1041.613727,-2298.286494,-1332.370696,9696.697840
1041.614046,-3294.210641,-2368.659014,12509.480420
1041.614365,-5898.935335,-2664.741391,14211.954086
1041.614684,-6128.763984,-2738.761985,14804.118840
1041.615003,-5286.058936,-1776.494261,14137.933492
1041.615322,-3907.087040,-74.020594,12139.377449
1041.615641,-2451.505594,518.144159,11917.315666
1041.615960,153.219100,1628.453072,9622.677246
1041.616279,2834.553343,2220.617826,7402.059420
1041.616598,4673.182538,2368.659014,5847.626942
1041.616917,5286.058936,2516.700203,5329.482782
1041.617236,6511.811733,2146.597232,4737.318029
1041.617555,6511.811733,1554.432478,3849.070898
1041.617874,4443.353888,740.205942,5403.503377
1041.618193,2757.943793,-1258.350101,8438.347739
1041.618512,995.924147,-1776.494261,9474.636058
1041.618831,0.000000,-2220.617826,11103.089130
1041.619150,-2221.676944,-2516.700203,12731.542202
1041.619469,-3064.381992,-1924.535449,14211.954086
1041.619788,-2834.553343,-1924.535449,13175.665768
1041.620107,-2374.896044,-592.164754,11769.274478
1041.620426,-1532.190996,-962.267725,11991.336260
1041.620745,0.000000,-444.123565,11029.068536
1041.621064,2068.457845,888.247130,7920.203579
1041.621383,2987.772442,1332.370696,6217.729913
1041.621702,4060.306139,2072.576638,6661.853478
1041.622021,4366.744339,2368.659014,5403.503377
1041.622340,4366.744339,2590.720797,4367.215058
1041.622659,2834.553343,1998.556043,5699.585753
1041.622978,1302.362347,1110.308913,8734.430116
1041.623297,-306.438199,74.020594,10288.862594
1041.623616,-1608.800546,-370.102971,11251.130318
1041.623935,-3294.210641,-1258.350101,13175.665768
1041.624254,-3907.087040,-1332.370696,14508.036463
1041.624573,-3830.477490,-740.205942,13323.706956
1041.624892,-2987.772442,222.061783,11399.171507
1041.625211,-1991.848295,962.267725,10584.944971
1041.625530,-536.266849,1258.350101,9770.718434
1041.625849,1225.752797,2368.659014,7254.018232
1041.626168,2757.943793,2294.638420,5847.626942
1041.626487,3217.601092,2516.700203,5699.585753
1041.626806,3217.601092,2294.638420,5625.565159
1041.627125,3140.991542,1850.514855,5255.462188
1041.627444,2298.286494,1184.329507,6291.750507
1041.627763,229.828649,296.082377,9178.553681
1041.628082,-919.314598,-296.082377,10732.986159
1041.628401,-1915.238745,-1036.288319,11695.253884
1041.628720,-2145.067394,-1628.453072,13693.809927
1041.629039,-3370.820191,-2146.597232,14582.057057
1041.629358,-2451.505594,-1406.391290,14211.954086
1041.629677,-1072.533697,-222.061783,12509.480420
1041.629996,76.609550,962.267725,10807.006753
1041.630315,1532.190996,1036.288319,9696.697840
1041.630634,3370.820191,1924.535449,7772.162391
1041.630953,5056.230287,2590.720797,5329.482782
1041.631272,5745.716235,2442.679609,4737.318029
1041.631591,5362.668486,2442.679609,4589.276840
1041.631910,5362.668486,2146.597232,4367.215058
1041.632229,3677.258390,1406.391290,4737.318029
1041.632548,1378.971896,-74.020594,7994.224174
1041.632867,-842.705048,-1924.535449,10732.986159
1041.633186,-2451.505594,-2220.617826,12361.439231
1041.633505,-3830.477490,-2516.700203,13841.851115
1041.633824,-4979.620737,-2072.576638,15396.283594
1041.634143,-4213.525239,-1110.308913,15322.262999
1041.634462,-3064.381992,222.061783,13101.645173
1041.634781,-2068.457845,1184.329507,11399.171507
1041.635100,0.000000,2368.659014,10436.903782
1041.635419,2604.724693,2442.679609,7920.203579
1041.635738,4136.915689,3034.844362,4737.318029
1041.636057,4979.620737,3478.967927,3627.009116
1041.636376,5898.935335,2812.782580,3849.070898
1041.636695,4979.620737,2294.638420,2886.803174
1041.637014,4136.915689,814.226536,3182.885551
1041.637333,1685.410096,-74.020594,5773.606348
1041.637652,-842.705048,-1628.453072,9474.636058
1041.637971,-2911.162892,-2220.617826,10881.027347
1041.638290,-4826.401637,-2294.638420,12805.562797
1041.638609,-5592.497135,-2516.700203,15840.407159
1041.638928,-6052.154434,-2368.659014,16062.468941
1041.639247,-4749.792088,-814.226536,14359.995275
1041.639566,-3140.991542,-0.000000,12657.521608
1041.639884,-1225.752797,1036.288319,11177.109724
1041.640203,1608.800546,2072.576638,9178.553681
1041.640522,4213.525239,2516.700203,6217.729913
1041.640841,5745.716235,3404.947333,3627.009116
1041.641160,7354.516781,2590.720797,3478.967927
1041.641479,7584.345430,2220.617826,2664.741391
1041.641798,6818.249932,1554.432478,2294.638420
1041.642117,4903.011187,444.123565,4219.173869
1041.642436,1991.848295,-1258.350101,7105.977043
1041.642755,0.000000,-2960.823768,10288.862594
1041.643074,-2528.115143,-2812.782580,11547.212695
1041.643393,-3907.087040,-2960.823768,14211.954086
1041.643712,-5669.106685,-3034.844362,15322.262999
1041.644031,-4903.011187,-1776.494261,15026.180623
1041.644350,-3217.601092,222.061783,13545.768739
1041.644669,-1302.362347,1702.473667,11695.253884
1041.644988,842.705048,2220.617826,10658.965565
1041.645307,3677.258390,3108.864956,8438.347739
1041.645626,5822.325785,3849.070898,5625.565159
1041.645945,6741.640382,3923.091493,3997.112087
1041.646264,7201.297681,3404.947333,4219.173869
1041.646583,7124.688131,2886.803174,3701.029710
1041.646902,5286.058936,1924.535449,4441.235652
1041.647221,2681.334243,666.185348,7254.018232
1041.647540,383.047749,-518.144159,9400.615463
1041.647859,-2221.676944,-1480.411884,11473.192101
1041.648178,-3983.696590,-2220.617826,13841.851115
1041.648497,-6128.763984,-2664.741391,16136.489536
1041.648816,-6205.373534,-1776.494261,16062.468941
1041.649135,-5515.887586,-740.205942,14211.954086
1041.649454,-3907.087040,444.123565,12879.583391
1041.649773,-2068.457845,518.144159,12287.418637
1041.650092,0.000000,1480.411884,9474.636058
1041.650411,1838.629195,2146.597232,6883.915261
1041.650730,3447.429741,2368.659014,6291.750507
1041.651049,4366.744339,2812.782580,5921.647536
1041.651368,4826.401637,2516.700203,4885.359217
1041.651687,3907.087040,2368.659014,4737.318029
1041.652006,1915.238745,1480.411884,7550.100608
1041.652325,0.000000,-74.020594,9696.697840
1041.652644,-1685.410096,-1332.370696,10881.027347
1041.652963,-3447.429741,-1850.514855,13249.686362
1041.653282,-5286.058936,-2294.638420,15100.201217
1041.653601,-5745.716235,-2294.638420,15100.201217
1041.653920,-4903.011187,-1554.432478,13471.748144
1041.654239,-3370.820191,-518.144159,12509.480420
1041.654558,-2145.067394,740.205942,10732.986159
1041.654877,459.657299,1554.432478,9252.574275
1041.655196,2757.943793,2664.741391,6587.832884
1041.655515,4749.792088,3182.885551,5107.421000
1041.655834,4903.011187,2812.782580,4589.276840
1041.656153,5669.106685,3256.906145,3849.070898
1041.656472,5286.058936,2368.659014,3997.112087
1041.656791,4136.915689,1332.370696,5477.523971
1041.657110,2451.505594,-0.000000,8290.306550
1041.657429,612.876398,-962.267725,10362.883188
1041.657748,-1149.143247,-1184.329507,11621.233289
1041.658067,-2145.067394,-1110.308913,13101.645173
1041.658386,-2757.943793,-1036.288319,13323.706956
1041.658705,-2298.286494,-370.102971,12435.459826
1041.659024,-1378.971896,444.123565,10955.047942
1041.659343,-536.266849,666.185348,9622.677246
1041.659662,995.924147,518.144159,8586.388927
1041.659981,2681.334243,888.247130,6883.915261
1041.660300,3907.087040,1480.411884,4811.338623
1041.660619,4366.744339,1776.494261,4959.379811
1041.660938,4903.011187,1554.432478,4885.359217
1041.661257,4290.134789,1554.432478,4071.132681
1041.661576,3370.820191,1702.473667,4737.318029
1041.661895,1915.238745,-0.000000,7772.162391
1041.662214,-1072.533697,-740.205942,9992.780217
1041.662533,-2681.334243,-1332.370696,11621.233289
1041.662852,-4213.525239,-2146.597232,13693.809927
1041.663171,-4903.011187,-2368.659014,15396.283594
1041.663490,-4903.011187,-1850.514855,14730.098246
1041.663809,-3524.039291,-666.185348,12583.501014
1041.664128,-2145.067394,-74.020594,11473.192101
1041.664447,-383.047749,740.205942,10140.821405
1041.664766,2145.067394,1110.308913,8438.347739
1041.665085,3983.696590,2368.659014,5625.565159
1041.665404,4903.011187,2664.741391,4589.276840
1041.665723,4979.620737,2738.761985,4589.276840
1041.666042,5056.230287,2368.659014,3923.091493
1041.666361,3907.087040,1850.514855,4441.235652
1041.666680,1608.800546,666.185348,7105.977043
1041.666998,-842.705048,-888.247130,9622.677246
1041.667317,-2145.067394,-1702.473667,11843.295072
1041.667636,-3447.429741,-2368.659014,13545.768739
1041.667955,-4519.963438,-2664.741391,15396.283594
1041.668274,-4749.792088,-2220.617826,15692.365970
1041.668593,-3447.429741,-740.205942,14211.954086
1041.668912,-1915.238745,222.061783,12361.439231
1041.669231,-383.047749,1036.288319,11621.233289
1041.669550,2298.286494,1850.514855,9622.677246
1041.669869,4366.744339,2590.720797,6587.832884
1041.670188,5745.716235,2738.761985,4959.379811
1041.670507,6052.154434,2220.617826,4885.359217
1041.670825,6205.373534,1776.494261,3997.112087
1041.671144,5056.230287,1184.329507,3478.967927
1041.671463,3294.210641,222.061783,5773.606348
1041.671782,612.876398,-1110.308913,8956.491898
1041.672101,-1378.971896,-2146.597232,10140.821405
1041.672420,-2987.772442,-3034.844362,12583.501014
1041.672739,-4749.792088,-3552.988522,15174.221811
1041.673058,-5898.935335,-3108.864956,15766.386565
1041.673377,-4979.620737,-1628.453072,15100.201217
1041.673696,-4136.915689,-0.000000,13767.830521
1041.674015,-2451.505594,592.164754,12583.501014
1041.674334,-612.876398,2072.576638,10510.924376
1041.674652,2374.896044,3404.947333,7846.182985
1041.674971,3983.696590,3108.864956,4737.318029
1041.675290,5132.839837,3404.947333,4589.276840
1041.675609,6052.154434,3330.926739,3997.112087
1041.675928,5439.278036,2516.700203,2442.679609
1041.676247,4290.134789,1184.329507,3923.091493
1041.676566,1762.019645,-666.185348,7105.977043
1041.676885,76.609550,-2368.659014,9474.636058
1041.677204,-1915.238745,-2812.782580,11177.109724
1041.677523,-4136.915689,-2812.782580,12953.603985
1041.677842,-5362.668486,-2368.659014,14359.995275
1041.678161,-5439.278036,-1406.391290,13471.748144
1041.678479,-4136.915689,-148.041188,11843.295072
1041.678798,-2757.943793,740.205942,11399.171507
1041.679117,-919.314598,1924.535449,9918.759623
1041.679436,1302.362347,2812.782580,7772.162391
1041.679755,3217.601092,3034.844362,5773.606348
1041.680074,4826.401637,2960.823768,5625.565159
1041.680393,5515.887586,2812.782580,5255.462188
1041.680712,5592.497135,2738.761985,3701.029710
1041.681031,4903.011187,1924.535449,3997.112087
1041.681350,3217.601092,444.123565,6957.935855
1041.681669,1685.410096,-1332.370696,9548.656652
1041.681988,-306.438199,-2294.638420,10436.903782
1041.682307,-2451.505594,-1998.556043,11843.295072
1041.682625,-3294.210641,-2368.659014,14137.933492
1041.682944,-3294.210641,-2146.597232,14137.933492
1041.683263,-2834.553343,-740.205942,12509.480420
1041.683582,-2451.505594,148.041188,11695.253884
1041.683901,-995.924147,592.164754,10881.027347
1041.684220,766.095498,1036.288319,8882.471304
1041.684539,2757.943793,2072.576638,7031.956449
1041.684858,3524.039291,2220.617826,6143.709319
1041.685177,3983.696590,1924.535449,6365.771101
1041.685496,4060.306139,1776.494261,5477.523971
1041.685815,3830.477490,1924.535449,5477.523971
1041.686134,1915.238745,1406.391290,7698.141797
1041.686452,383.047749,518.144159,10510.924376
1041.686771,-1149.143247,-1036.288319,11769.274478
1041.687090,-2298.286494,-1406.391290,13027.624579
1041.687409,-3677.258390,-1480.411884,14211.954086
1041.687728,-3983.696590,-1332.370696,15100.201217
1041.688047,-2834.553343,-814.226536,13249.686362
1041.688366,-1762.019645,-0.000000,11399.171507
1041.688685,-459.657299,592.164754,10288.862594
1041.689004,2068.457845,1036.288319,8808.450710
1041.689323,3753.867940,1554.432478,6661.853478
1041.689642,4366.744339,1776.494261,5033.400406
1041.689961,4826.401637,2220.617826,4959.379811
1041.690279,4749.792088,1776.494261,5403.503377
1041.690598,4213.525239,1702.473667,5181.441594
1041.690917,2298.286494,666.185348,6957.935855
1041.691236,306.438199,-148.041188,9844.739029
1041.691555,-1455.581446,-814.226536,11621.233289
1041.691874,-2604.724693,-888.247130,12731.542202
1041.692193,-3294.210641,-1480.411884,14508.036463
1041.692512,-3447.429741,-814.226536,15618.345376
1041.692831,-2451.505594,-148.041188,13767.830521
1041.693150,-1225.752797,148.041188,11991.336260
1041.693469,842.705048,296.082377,10658.965565
1041.693788,2298.286494,962.267725,8808.450710
1041.694106,4673.182538,1554.432478,6069.688724
1041.694425,5822.325785,1998.556043,4293.194464
1041.694744,5975.544884,1998.556043,3997.112087
1041.695063,5898.935335,1554.432478,4145.153275
1041.695382,4749.792088,1258.350101,3330.926739
1041.695701,3294.210641,592.164754,4737.318029
1041.696020,229.828649,-962.267725,7846.182985
1041.696339,-2298.286494,-2072.576638,10955.047942
1041.696658,-3983.696590,-3256.906145,12583.501014
1041.696977,-5669.106685,-2664.741391,14137.933492
1041.697296,-6128.763984,-2220.617826,15470.304188
1041.697615,-5286.058936,-1036.288319,15174.221811
1041.697933,-3370.820191,-0.000000,13027.624579
1041.698252,-2068.457845,1036.288319,10955.047942
1041.698571,76.609550,1924.535449,9844.739029
1041.698890,2604.724693,2368.659014,7550.100608
1041.699209,4596.572988,2664.741391,4515.256246
1041.699528,5822.325785,2368.659014,4071.132681
1041.699847,6205.373534,1850.514855,4071.132681
1041.700166,5822.325785,1406.391290,2664.741391
1041.700485,4519.963438,1184.329507,2886.803174
1041.700804,2298.286494,-296.082377,5551.544565
1041.701123,-306.438199,-1628.453072,8068.244768
1041.701442,-2221.676944,-2442.679609,10214.842000
1041.701760,-4060.306139,-2442.679609,12213.398043
1041.702079,-5286.058936,-2368.659014,14804.118840
1041.702398,-5209.449386,-1628.453072,15174.221811
1041.702717,-5056.230287,-814.226536,14582.057057
1041.703036,-3140.991542,666.185348,12361.439231
1041.703355,-1762.019645,740.205942,12065.356855
1041.703674,842.705048,2072.576638,10362.883188
1041.703993,3830.477490,2886.803174,7920.203579
1041.704312,5132.839837,4441.235652,5477.523971
1041.704631,6281.983084,3701.029710,5329.482782
1041.704950,6971.469032,3701.029710,4811.338623
1041.705269,6128.763984,3034.844362,3849.070898
1041.705587,4596.572988,1406.391290,4737.318029
1041.705906,2221.676944,-370.102971,8364.327145
1041.706225,612.876398,-1628.453072,10140.821405
1041.706544,-1532.190996,-2664.741391,11695.253884
1041.706863,-3447.429741,-2812.782580,14211.954086
1041.707182,-4366.744339,-2738.761985,15248.242405
1041.707501,-4366.744339,-1480.411884,13619.789333
1041.707820,-2911.162892,-296.082377,12657.521608
1041.708139,-1915.238745,888.247130,12213.398043
1041.708458,229.828649,1850.514855,11621.233289
1041.708777,2068.457845,2590.720797,8734.430116
1041.709096,3447.429741,2442.679609,7328.038826
1041.709414,3983.696590,3108.864956,6957.935855
1041.709733,4903.011187,2886.803174,6439.791695
1041.710052,4826.401637,2960.823768,4959.379811
1041.710371,3907.087040,2368.659014,5255.462188
1041.710690,1685.410096,1184.329507,7772.162391
1041.711009,76.609550,-592.164754,9548.656652
1041.711328,-1225.752797,-1258.350101,11251.130318
1041.711647,-2681.334243,-2220.617826,12657.521608
1041.711966,-4136.915689,-2146.597232,13915.871710
1041.712285,-3677.258390,-1628.453072,13175.665768
1041.712604,-2911.162892,-370.102971,11399.171507
1041.712923,-2221.676944,222.061783,10732.986159
1041.713241,-995.924147,1480.411884,9992.780217
1041.713560,1455.581446,2516.700203,7994.224174
1041.713879,3600.648841,3108.864956,5847.626942
1041.714198,4366.744339,3330.926739,5551.544565
1041.714517,4903.011187,2516.700203,5773.606348
1041.714836,4826.401637,2960.823768,4441.235652
1041.715155,3600.648841,2442.679609,4737.318029
1041.715474,2528.115143,1184.329507,7624.121203
1041.715793,229.828649,-222.061783,9548.656652
1041.716112,-995.924147,-1850.514855,10807.006753
1041.716431,-2528.115143,-2072.576638,12583.501014
1041.716750,-3294.210641,-2442.679609,14359.995275
1041.717068,-3064.381992,-2294.638420,13471.748144
1041.717387,-2451.505594,-1036.288319,11399.171507
1041.717706,-1608.800546,-666.185348,10658.965565
1041.718025,76.609550,-0.000000,9770.718434
1041.718344,1915.238745,888.247130,7476.080014
1041.718663,3753.867940,1480.411884,5477.523971
1041.718982,4060.306139,1628.453072,4737.318029
1041.719301,4519.963438,1184.329507,4959.379811
1041.719620,4366.744339,888.247130,4515.256246
1041.719939,3294.210641,518.144159,4885.359217
1041.720258,2145.067394,-370.102971,7254.018232
1041.720577,-612.876398,-1184.329507,9844.739029
1041.720895,-2145.067394,-2146.597232,11843.295072
1041.721214,-3600.648841,-2664.741391,13767.830521
1041.721533,-4443.353888,-2664.741391,15322.262999
1041.721852,-4290.134789,-2220.617826,15618.345376
1041.722171,-3140.991542,-814.226536,13841.851115
1041.722490,-2145.067394,-0.000000,11695.253884
1041.722809,-459.657299,1184.329507,10066.800811
1041.723128,1685.410096,1554.432478,8734.430116
1041.723447,3983.696590,1924.535449,5625.565159
1041.723766,4979.620737,2442.679609,3478.967927
1041.724085,5745.716235,2220.617826,3775.050304
1041.724404,5439.278036,1850.514855,3701.029710
1041.724722,4596.572988,1258.350101,3034.844362
1041.725041,2681.334243,518.144159,4885.359217
1041.725360,306.438199,-888.247130,8808.450710
1041.725679,-1762.019645,-1554.432478,11103.089130
1041.725998,-3217.601092,-1850.514855,13323.706956
1041.726317,-4903.011187,-1776.494261,14952.160028
1041.726636,-5439.278036,-888.247130,15766.386565
1041.726955,-4749.792088,-370.102971,15026.180623
1041.727274,-2911.162892,1554.432478,12583.501014
1041.727593,-1149.143247,2442.679609,10807.006753
1041.727912,1225.752797,3552.988522,9326.594869
1041.728231,3677.258390,3997.112087,6883.915261
1041.728549,5209.449386,4071.132681,4145.153275
1041.728868,6128.763984,3182.885551,3849.070898
1041.729187,5975.544884,2368.659014,4367.215058
1041.729506,6358.592633,1998.556043,3478.967927
1041.729825,3983.696590,1036.288319,4071.132681
1041.730144,1532.190996,-0.000000,7846.182985
1041.730463,-842.705048,-1110.308913,10288.862594
1041.730782,-2834.553343,-1332.370696,11177.109724
1041.731101,-4673.182538,-1184.329507,14063.912898
1041.731420,-5898.935335,-1480.411884,15618.345376
1041.731739,-5822.325785,-666.185348,15026.180623
1041.732058,-4673.182538,814.226536,13841.851115
1041.732376,-3447.429741,1258.350101,12805.562797
1041.732695,-1838.629195,1332.370696,12213.398043
1041.733014,919.314598,2960.823768,9844.739029
1041.733333,3370.820191,3627.009116,7105.977043
1041.733652,4903.011187,3256.906145,6069.688724
1041.733971,5286.058936,2368.659014,6439.791695
1041.734290,6358.592633,2146.597232,5403.503377
1041.734609,5286.058936,2072.576638,3923.091493
1041.734928,3294.210641,740.205942,6217.729913
1041.735247,1455.581446,-1184.329507,9474.636058
1041.735566,-842.705048,-1480.411884,10288.862594
1041.735885,-2298.286494,-2294.638420,11547.212695
1041.736203,-4290.134789,-1776.494261,13841.851115
1041.736522,-4749.792088,-1554.432478,14508.036463
1041.736841,-3907.087040,-1258.350101,12805.562797
1041.737160,-2451.505594,-518.144159,11991.336260
1041.737479,-1991.848295,-370.102971,12139.377449
1041.737798,536.266849,814.226536,10732.986159
1041.738117,2604.724693,1776.494261,8142.265362
1041.738436,4673.182538,1998.556043,6513.812290
1041.738755,4903.011187,2294.638420,6365.771101
1041.739074,5592.497135,2368.659014,5625.565159
1041.739393,5286.058936,2146.597232,3923.091493
1041.739712,3983.696590,1702.473667,5255.462188
1041.740030,2221.676944,-0.000000,8068.244768
1041.740349,536.266849,-1184.329507,9104.533087
1041.740668,-1532.190996,-2072.576638,10140.821405
1041.740987,-2834.553343,-2886.803174,12805.562797
1041.741306,-4366.744339,-3256.906145,14137.933492
1041.741625,-3447.429741,-2146.597232,12583.501014
1041.741944,-2911.162892,-666.185348,10881.027347
1041.742263,-1991.848295,-518.144159,10658.965565
1041.742582,-306.438199,296.082377,9178.553681
1041.742901,1915.238745,1258.350101,6957.935855
1041.743220,2834.553343,1776.494261,5329.482782
1041.743539,3447.429741,2146.597232,5255.462188
1041.743857,3524.039291,1924.535449,5181.441594
1041.744176,2911.162892,2072.576638,4515.256246
1041.744495,2298.286494,1776.494261,5181.441594
1041.744814,229.828649,296.082377,8290.306550
1041.745133,-919.314598,-666.185348,9918.759623
1041.745452,-2145.067394,-1184.329507,10732.986159
1041.745771,-2987.772442,-1924.535449,12583.501014
1041.746090,-3830.477490,-2220.617826,14285.974681
1041.746409,-3524.039291,-1628.453072,13101.645173
1041.746728,-2298.286494,-370.102971,11029.068536
1041.747047,-995.924147,296.082377,10288.862594
1041.747366,306.438199,222.061783,9474.636058
1041.747684,1915.238745,1554.432478,7328.038826
1041.748003,3677.258390,2664.741391,5551.544565
1041.748322,4749.792088,2516.700203,4811.338623
1041.748641,4903.011187,2590.720797,4959.379811
1041.748960,4213.525239,2072.576638,4885.359217
1041.749279,2987.772442,1554.432478,5329.482782
1041.749598,995.924147,740.205942,8142.265362
1041.749917,-536.266849,-370.102971,11251.130318
1041.750236,-2068.457845,-888.247130,12139.377449
1041.750555,-2757.943793,-1628.453072,14137.933492
1041.750874,-4060.306139,-1702.473667,15618.345376
1041.751193,-3524.039291,-962.267725,15988.448347
1041.751511,-2221.676944,-370.102971,13545.768739
1041.751830,-842.705048,296.082377,12065.356855
1041.752149,229.828649,666.185348,10584.944971
1041.752468,2068.457845,1628.453072,8290.306550
1041.752787,4290.134789,2368.659014,5699.585753
1041.753106,4903.011187,2960.823768,4737.318029
1041.753425,5592.497135,2368.659014,4219.173869
1041.753744,5592.497135,1924.535449,3775.050304
1041.754063,4136.915689,1406.391290,4737.318029
1041.754382,1838.629195,444.123565,7031.956449
1041.754701,-766.095498,-962.267725,9770.718434
1041.755020,-3217.601092,-1628.453072,11769.274478
1041.755338,-4749.792088,-1850.514855,14434.015869
1041.755657,-5822.325785,-1554.432478,15988.448347
1041.755976,-5898.935335,-814.226536,16580.613101
1041.756295,-5132.839837,370.102971,14952.160028
1041.756614,-3294.210641,1628.453072,12435.459826
1041.756933,-1838.629195,2072.576638,10955.047942
1041.757252,1072.533697,2812.782580,9622.677246
1041.757571,2604.724693,3404.947333,6735.874072
1041.757890,4213.525239,3108.864956,4441.235652
1041.758209,5286.058936,3182.885551,3627.009116
1041.758528,5975.544884,2516.700203,3701.029710
1041.758847,5822.325785,2072.576638,2368.659014
1041.759165,3983.696590,814.226536,3997.112087
1041.759484,1762.019645,-1258.350101,7846.182985
1041.759803,-842.705048,-2960.823768,9474.636058
1041.760122,-2528.115143,-2960.823768,11547.212695
1041.760441,-4290.134789,-2590.720797,14063.912898
1041.760760,-5515.887586,-2368.659014,15248.242405
1041.761079,-5056.230287,-1110.308913,15174.221811
1041.761398,-3370.820191,740.205942,13397.727550
1041.761717,-1378.971896,1110.308913,11843.295072
1041.762036,536.266849,1332.370696,10732.986159
1041.762355,3140.991542,1554.432478,8142.265362
1041.762674,5209.449386,1998.556043,5847.626942
1041.762992,6358.592633,1998.556043,4737.318029
1041.763311,6741.640382,1850.514855,4589.276840
1041.763630,7048.078582,1332.370696,3256.906145
1041.763949,5745.716235,962.267725,3775.050304
1041.764268,4136.915689,-0.000000,5699.585753
1041.764587,2145.067394,-1480.411884,8216.285956
1041.764906,0.000000,-2442.679609,10066.800811
1041.765225,-2298.286494,-3108.864956,12139.377449
1041.765544,-4366.744339,-3552.988522,14211.954086
1041.765863,-5132.839837,-2812.782580,14656.077652
1041.766182,-3983.696590,-1036.288319,13027.624579
1041.766501,-2604.724693,-0.000000,11991.336260
1041.766819,-1072.533697,962.267725,10881.027347
1041.767138,842.705048,1554.432478,9030.512492
1041.767457,2451.505594,2220.617826,6587.832884
1041.767776,3600.648841,2368.659014,5477.523971
1041.768098,3830.477490,2072.576638,5329.482782
1041.768416,4213.525239,1924.535449,4959.379811
1041.768735,3064.381992,1776.494261,4589.276840
1041.769054,1378.971896,888.247130,6439.791695
1041.769373,0.000000,-444.123565,9178.553681
1041.769692,-2068.457845,-1258.350101,10214.842000
1041.770011,-3294.210641,-2368.659014,11843.295072
1041.770330,-4903.011187,-2146.597232,13175.665768
1041.770649,-5209.449386,-1480.411884,14063.912898
1041.770968,-3907.087040,-1258.350101,12879.583391
1041.771287,-3064.381992,-296.082377,11917.315666
1041.771606,-1838.629195,370.102971,11695.253884
1041.771925,229.828649,1332.370696,9474.636058
1041.772244,2451.505594,2442.679609,7105.977043
1041.772562,3524.039291,2220.617826,5847.626942
1041.772881,4136.915689,2072.576638,6291.750507
1041.773200,4060.306139,2368.659014,5847.626942
1041.773519,4213.525239,2146.597232,4737.318029
1041.773838,2911.162892,1480.411884,6587.832884
1041.774157,1608.800546,518.144159,9770.718434
1041.774476,76.609550,-962.267725,11399.171507
1041.774795,-1302.362347,-888.247130,11769.274478
1041.775114,-2221.676944,-1776.494261,13915.871710
1041.775433,-2604.724693,-1554.432478,14656.077652
1041.775752,-1762.019645,-1184.329507,13249.686362
1041.776071,-1072.533697,-740.205942,11547.212695
1041.776390,76.609550,592.164754,10288.862594
1041.776708,1532.190996,1702.473667,9252.574275
1041.777027,3983.696590,2590.720797,6217.729913
1041.777346,4749.792088,2590.720797,5329.482782
1041.777665,5362.668486,2146.597232,5403.503377
1041.777984,4826.401637,2220.617826,5329.482782
1041.778303,4366.744339,2220.617826,4811.338623
1041.778622,2987.772442,1628.453072,6217.729913
1041.778941,612.876398,962.267725,8660.409521
1041.779260,-919.314598,-740.205942,10584.944971
1041.779579,-2451.505594,-814.226536,11695.253884
1041.779898,-3753.867940,-1332.370696,13767.830521
1041.780217,-4443.353888,-1258.350101,14359.995275
1041.780536,-3907.087040,-666.185348,13915.871710
1041.780854,-2911.162892,-370.102971,11843.295072
1041.781173,-2068.457845,-148.041188,10881.027347
1041.781492,-689.485948,666.185348,9696.697840
1041.781811,1532.190996,1850.514855,7328.038826
1041.782130,3064.381992,2812.782580,4811.338623
1041.782449,4443.353888,3256.906145,4515.256246
1041.782768,4060.306139,2664.741391,4367.215058
1041.783087,4136.915689,2220.617826,3775.050304
1041.783406,2911.162892,740.205942,5255.462188
1041.783725,919.314598,-444.123565,8068.244768
1041.784044,-995.924147,-814.226536,10066.800811
1041.784363,-2528.115143,-1850.514855,12213.398043
1041.784682,-4060.306139,-2294.638420,13989.892304
1041.785000,-4366.744339,-2294.638420,15026.180623
1041.785319,-4213.525239,-518.144159,14878.139434
1041.785638,-2604.724693,-0.000000,13249.686362
1041.785957,-612.876398,444.123565,11621.233289
1041.786276,612.876398,740.205942,10436.903782
1041.786595,2604.724693,592.164754,8882.471304
1041.786914,4673.182538,1110.308913,5921.647536
1041.787233,5822.325785,1702.473667,5107.421000
1041.787552,5975.544884,1850.514855,4515.256246
1041.787871,6281.983084,2368.659014,3775.050304
1041.788190,5515.887586,1924.535449,3478.967927
1041.788509,4213.525239,592.164754,5403.503377
1041.788828,1225.752797,-814.226536,8882.471304
1041.789146,-1149.143247,-1702.473667,10881.027347
1041.789465,-2834.553343,-2516.700203,12879.583391
1041.789784,-4290.134789,-3701.029710,15248.242405
1041.790103,-4903.011187,-2590.720797,16506.592507
1041.790422,-3753.867940,-1480.411884,14434.015869
1041.790741,-1991.848295,444.123565,12805.562797
1041.791060,-459.657299,1036.288319,11917.315666
1041.791379,1455.581446,2072.576638,8808.450710
1041.791698,4136.915689,3034.844362,6217.729913
1041.792017,5362.668486,3330.926739,4219.173869
1041.792336,5592.497135,2812.782580,3997.112087
1041.792655,5592.497135,2146.597232,3404.947333
1041.792974,4673.182538,1850.514855,3256.906145
1041.793292,2987.772442,888.247130,4737.318029
1041.793611,459.657299,-814.226536,7698.141797
1041.793930,-1915.238745,-2368.659014,10066.800811
1041.794249,-3370.820191,-2960.823768,12657.521608
1041.794568,-5745.716235,-2960.823768,14211.954086
1041.794887,-6358.592633,-2368.659014,15544.324782
1041.795206,-6128.763984,-1480.411884,15026.180623
1041.795525,-4673.182538,592.164754,13249.686362
1041.795844,-2681.334243,1258.350101,12287.418637
1041.796163,-766.095498,2368.659014,10584.944971
1041.796482,1762.019645,3108.864956,7772.162391
1041.796801,3677.258390,3478.967927,5107.421000
1041.797120,4519.963438,3404.947333,4959.379811
1041.797438,5132.839837,3182.885551,5255.462188
1041.797757,5669.106685,2516.700203,4219.173869
1041.798076,4443.353888,1258.350101,4737.318029
1041.798395,2145.067394,-0.000000,7624.121203
1041.798714,306.438199,-1702.473667,10140.821405
1041.799033,-1378.971896,-2368.659014,11251.130318
1041.799352,-3294.210641,-3256.906145,13693.809927
1041.799671,-4443.353888,-3182.885551,15322.262999
1041.799990,-3677.258390,-2294.638420,14582.057057
1041.800309,-3140.991542,-740.205942,13471.748144
1041.800628,-1685.410096,1036.288319,11991.336260
1041.800947,0.000000,1924.535449,11029.068536
1041.801266,2298.286494,3256.906145,8512.368333
1041.801584,4826.401637,3627.009116,6587.832884
1041.801903,5669.106685,3404.947333,5551.544565
1041.802222,6358.592633,3923.091493,4737.318029
1041.802541,6894.859482,3182.885551,4589.276840
1041.802860,6052.154434,2220.617826,4441.235652
1041.803179,4673.182538,444.123565,7031.956449
1041.803498,1762.019645,-888.247130,9030.512492
1041.803817,0.000000,-1480.411884,10732.986159
1041.804136,-2374.896044,-1776.494261,11991.336260
1041.804455,-3753.867940,-1776.494261,13841.851115
1041.804774,-4213.525239,-1184.329507,13989.892304
1041.805093,-3677.258390,-222.061783,12435.459826
1041.805412,-3524.039291,-0.000000,11843.295072
1041.805730,-2298.286494,666.185348,10881.027347
1041.806049,-842.705048,1110.308913,9400.615463
1041.806368,1149.143247,2072.576638,6883.915261
1041.806687,2451.505594,2072.576638,5255.462188
1041.807006,3064.381992,2294.638420,5403.503377
1041.807325,3600.648841,2146.597232,5033.400406
1041.807644,3524.039291,1554.432478,4441.235652
1041.807963,2068.457845,1332.370696,5847.626942
1041.808282,0.000000,-74.020594,8882.471304
1041.808601,-1991.848295,-1406.391290,11103.089130
1041.808920,-3447.429741,-1702.473667,11843.295072
1041.809239,-4366.744339,-2220.617826,13693.809927
1041.809558,-4903.011187,-2368.659014,14434.015869
1041.809876,-4213.525239,-1406.391290,13249.686362
1041.810195,-2604.724693,-888.247130,10732.986159
1041.810514,-1302.362347,-0.000000,10214.842000
1041.810833,1302.362347,962.267725,9104.533087
1041.811152,3830.477490,1702.473667,6217.729913
1041.811471,5362.668486,2294.638420,4367.215058
1041.811790,6435.202183,2738.761985,4589.276840
1041.812109,6818.249932,2886.803174,4737.318029
1041.812428,6588.421283,2220.617826,3552.988522
1041.812747,5132.839837,1628.453072,4811.338623
1041.813066,2911.162892,740.205942,7698.141797
1041.813385,842.705048,-518.144159,9770.718434
1041.813704,-612.876398,-1184.329507,11843.295072
1041.814022,-2451.505594,-2072.576638,13471.748144
1041.814341,-3217.601092,-2072.576638,15248.242405
1041.814660,-3217.601092,-1258.350101,15026.180623
1041.814979,-2068.457845,-444.123565,13397.727550
1041.815298,-1149.143247,-592.164754,12213.398043
1041.815617,153.219100,370.102971,10732.986159
1041.815936,2528.115143,444.123565,8660.409521
1041.816255,4060.306139,962.267725,5699.585753
1041.816574,5132.839837,1628.453072,5107.421000
1041.816893,5209.449386,1554.432478,5181.441594
1041.817212,4826.401637,2146.597232,3775.050304
1041.817531,3447.429741,814.226536,4293.194464
1041.817850,1378.971896,-370.102971,8216.285956
1041.818168,-1685.410096,-888.247130,9400.615463
1041.818487,-2911.162892,-1776.494261,11399.171507
1041.818806,-5515.887586,-1480.411884,13397.727550
1041.819125,-5822.325785,-2294.638420,15988.448347
1041.819444,-6818.249932,-1850.514855,14656.077652
1041.819763,-5515.887586,-518.144159,14063.912898
1041.820082,-4673.182538,-74.020594,13175.665768
1041.820401,-3064.381992,740.205942,11177.109724
1041.820720,-306.438199,1924.535449,9844.739029
1041.821039,1838.629195,2368.659014,6957.935855
1041.821358,3217.601092,2738.761985,5329.482782
1041.821677,4136.915689,2886.803174,5329.482782
1041.821996,4979.620737,2812.782580,4145.153275
1041.822314,5132.839837,3478.967927,2812.782580
1041.822633,3983.696590,2072.576638,4515.256246
1041.822952,1915.238745,222.061783,8068.244768
1041.823271,0.000000,-1036.288319,10066.800811
1041.823590,-1532.190996,-1554.432478,11177.109724
1041.823909,-2528.115143,-1998.556043,14211.954086
1041.824228,-3677.258390,-1554.432478,14878.139434
1041.824547,-2911.162892,-296.082377,13397.727550
1041.824866,-1685.410096,666.185348,11991.336260
1041.825185,-459.657299,1036.288319,11547.212695
1041.825504,1302.362347,1628.453072,10214.842000
1041.825823,3600.648841,2220.617826,7031.956449
1041.826142,4903.011187,2442.679609,5699.585753
1041.826460,5439.278036,2368.659014,5551.544565
1041.826779,5669.106685,2146.597232,4885.359217
1041.827098,5209.449386,1850.514855,3997.112087
1041.827417,3907.087040,592.164754,4885.359217
1041.827736,1838.629195,-444.123565,8216.285956
1041.828055,76.609550,-1258.350101,9770.718434
1041.828374,-2068.457845,-2220.617826,11177.109724
1041.828693,-3524.039291,-3034.844362,13545.768739
1041.829012,-4903.011187,-2664.741391,14508.036463
1041.829331,-4443.353888,-1998.556043,13989.892304
1041.829650,-3753.867940,-148.041188,12287.418637
1041.829969,-2451.505594,1036.288319,11399.171507
1041.830288,-919.314598,1776.494261,9622.677246
1041.830606,766.095498,2294.638420,7624.121203
1041.830925,2681.334243,2590.720797,5995.668130
1041.831244,3217.601092,2886.803174,5033.400406
1041.831563,3524.039291,2738.761985,5255.462188
1041.831882,3677.258390,2368.659014,4515.256246
1041.832201,1915.238745,1554.432478,5329.482782
1041.832520,459.657299,296.082377,7994.224174
1041.832839,-995.924147,-666.185348,10066.800811
1041.833158,-2298.286494,-1924.535449,11103.089130
1041.833477,-3064.381992,-2664.741391,12953.603985
1041.833796,-4290.134789,-2516.700203,14878.139434
1041.834115,-4366.744339,-1628.453072,14137.933492
1041.834434,-3140.991542,-74.020594,11843.295072
1041.834752,-1838.629195,444.123565,11177.109724
1041.835071,153.219100,1702.473667,10140.821405
1041.835390,2681.334243,2590.720797,7254.018232
1041.835709,4903.011187,2590.720797,5847.626942
1041.836028,5898.935335,2294.638420,5403.503377
1041.836347,6511.811733,1776.494261,5255.462188
1041.836666,5975.544884,1776.494261,4219.173869
1041.836985,5286.058936,1036.288319,5181.441594
1041.837304,2757.943793,-0.000000,7328.038826
1041.837623,995.924147,-0.000000,9474.636058
1041.837942,-919.314598,-1184.329507,10807.006753
1041.838261,-2298.286494,-2072.576638,13027.624579
1041.838580,-3140.991542,-3552.988522,15766.386565
1041.838898,-3753.867940,-3108.864956,15766.386565
1041.839217,-2757.943793,-1850.514855,13545.768739
1041.839536,-1149.143247,-666.185348,11547.212695
1041.839855,0.000000,-74.020594,10584.944971
1041.840174,2451.505594,666.185348,9326.594869
1041.840493,4443.353888,2294.638420,5921.647536
1041.840812,4903.011187,3034.844362,3552.988522
1041.841131,5822.325785,2812.782580,4515.256246
1041.841450,5515.887586,3256.906145,3849.070898
1041.841769,4366.744339,2590.720797,3108.864956
1041.842088,1991.848295,666.185348,5477.523971
1041.842407,-995.924147,-518.144159,9030.512492
1041.842726,-2911.162892,-1776.494261,11251.130318
1041.843044,-4366.744339,-2368.659014,12805.562797
1041.843363,-6358.592633,-2220.617826,15470.304188
1041.843682,-6205.373534,-1480.411884,16210.510130
1041.844001,-5439.278036,-666.185348,14359.995275
1041.844320,-4136.915689,-370.102971,12879.583391
1041.844639,-2834.553343,518.144159,11473.192101
1041.844958,-383.047749,1998.556043,9474.636058
1041.845277,1991.848295,2738.761985,6217.729913
1041.845596,3907.087040,3034.844362,4663.297435
1041.845915,4903.011187,2516.700203,4367.215058
1041.846234,5745.716235,2442.679609,3552.988522
1041.846553,5132.839837,1998.556043,2960.823768
1041.846872,3600.648841,1184.329507,3923.091493
1041.847190,1762.019645,-148.041188,7550.100608
1041.847509,-306.438199,-1554.432478,10066.800811
1041.847828,-2451.505594,-1998.556043,11843.295072
1041.848147,-4136.915689,-2812.782580,14137.933492
1041.848466,-5362.668486,-2886.803174,15692.365970
1041.848785,-4826.401637,-1998.556043,14878.139434
1041.849104,-3447.429741,-592.164754,13545.768739
1041.849423,-2374.896044,-0.000000,12583.501014
1041.849742,-459.657299,740.205942,11399.171507
1041.850061,2451.505594,2072.576638,8660.409521
1041.850380,4826.401637,2812.782580,5995.668130
1041.850699,5975.544884,3108.864956,5773.606348
1041.851018,6665.030833,2664.741391,4737.318029
1041.851336,6894.859482,3034.844362,3108.864956
1041.851655,6358.592633,2146.597232,3627.009116
1041.851974,3753.867940,518.144159,6365.771101
1041.852293,1302.362347,-1110.308913,9030.512492
1041.852612,-383.047749,-2146.597232,9918.759623
1041.852931,-2911.162892,-2442.679609,11991.336260
1041.853250,-4290.134789,-2368.659014,14508.036463
1041.853569,-4903.011187,-1702.473667,14656.077652
1041.853888,-4366.744339,-222.061783,13397.727550
1041.854207,-3524.039291,222.061783,12583.501014
1041.854526,-2145.067394,740.205942,11917.315666
1041.854845,-229.828649,1776.494261,9992.780217
1041.855164,2298.286494,2886.803174,7402.059420
1041.855482,3524.039291,3182.885551,5625.565159
1041.855801,4443.353888,3034.844362,5403.503377
1041.856120,5132.839837,2664.741391,4737.318029
1041.856439,4366.744339,1850.514855,4219.173869
1041.856758,3294.210641,888.247130,5699.585753
1041.857077,1072.533697,-148.041188,8142.265362
1041.857396,0.000000,-1332.370696,9844.739029
1041.857715,-2221.676944,-2220.617826,11251.130318
1041.858034,-3830.477490,-2368.659014,13989.892304
1041.858353,-4366.744339,-2294.638420,14656.077652
1041.858672,-3983.696590,-1332.370696,13323.706956
1041.858991,-2681.334243,-370.102971,11991.336260
1041.859310,-1302.362347,-0.000000,11251.130318
1041.859628,229.828649,740.205942,9918.759623
1041.859947,2987.772442,1850.514855,7402.059420
1041.860266,4826.401637,2516.700203,5625.565159
1041.860585,5592.497135,2442.679609,5329.482782
1041.860904,5669.106685,2812.782580,4959.379811
1041.861223,5669.106685,2886.803174,4959.379811
1041.861542,4290.134789,2220.617826,5477.523971
1041.861861,2374.896044,1036.288319,7994.224174
1041.862180,536.266849,-148.041188,10436.903782
1041.862499,-689.485948,-1332.370696,11399.171507
1041.862818,-2451.505594,-2516.700203,13545.768739
1041.863137,-3294.210641,-2442.679609,14434.015869
1041.863456,-2681.334243,-1406.391290,14063.912898
1041.863774,-2145.067394,-888.247130,12065.356855
1041.864093,-1302.362347,-0.000000,11103.089130
1041.864412,536.266849,1110.308913,9696.697840
1041.864731,2374.896044,1776.494261,7328.038826
1041.865050,3294.210641,2590.720797,5255.462188
1041.865369,3983.696590,1776.494261,5403.503377
1041.865688,3753.867940,1776.494261,5181.441594
1041.866007,3217.601092,1480.411884,5181.441594
1041.866326,1915.238745,444.123565,5995.668130
1041.866645,-383.047749,-148.041188,8438.347739
1041.866964,-2221.676944,-814.226536,11177.109724
1041.867283,-3294.210641,-1110.308913,12213.398043
1041.867602,-4366.744339,-1850.514855,13323.706956
1041.867920,-4979.620737,-2072.576638,15544.324782
1041.868239,-4519.963438,-1776.494261,14582.057057
1041.868558,-3447.429741,-1258.350101,12805.562797
1041.868877,-2068.457845,-518.144159,11621.233289
1041.869196,-612.876398,518.144159,10362.883188
1041.869515,2374.896044,1480.411884,8068.244768
1041.869834,4136.915689,2368.659014,5403.503377
1041.870153,5439.278036,2368.659014,4737.318029
1041.870472,6052.154434,2294.638420,4367.215058
1041.870791,6052.154434,2368.659014,3627.009116
1041.871110,5286.058936,1554.432478,3775.050304
1041.871429,3294.210641,222.061783,5921.647536
1041.871748,536.266849,-888.247130,8882.471304
1041.872067,-689.485948,-1480.411884,10658.965565
1041.872385,-1838.629195,-2146.597232,12657.521608
1041.872704,-4060.306139,-2368.659014,15100.201217
1041.873023,-4136.915689,-1628.453072,15396.283594
1041.873342,-3140.991542,-148.041188,13841.851115
1041.873661,-1838.629195,370.102971,12213.398043
1041.873980,-306.438199,1036.288319,11103.089130
1041.874299,2068.457845,2146.597232,8734.430116
1041.874618,4749.792088,3034.844362,5329.482782
1041.874937,6052.154434,3182.885551,3478.967927
1041.875256,6971.469032,3256.906145,3552.988522
1041.875575,6818.249932,3552.988522,2442.679609
1041.875894,5745.716235,2960.823768,1628.453072
1041.876213,3370.820191,1628.453072,4071.132681
1041.876532,1149.143247,-296.082377,8142.265362
1041.876851,-1685.410096,-888.247130,10140.821405
1041.877170,-3907.087040,-1480.411884,11843.295072
1041.877488,-5745.716235,-2516.700203,14285.974681
1041.877807,-6818.249932,-2146.597232,16136.489536
1041.878126,-6281.983084,-1184.329507,15396.283594
1041.878445,-4903.011187,-0.000000,13471.748144
1041.878764,-3677.258390,518.144159,13027.624579
1041.879083,-1378.971896,1702.473667,11473.192101
1041.879402,1608.800546,2368.659014,8142.265362
1041.879721,3064.381992,2812.782580,6069.688724
1041.880040,4673.182538,2294.638420,5847.626942
1041.880359,5056.230287,3256.906145,4441.235652
1041.880678,5975.544884,2072.576638,3701.029710
1041.880997,4826.401637,1036.288319,4737.318029
1041.881316,2834.553343,-444.123565,8290.306550
1041.881635,1072.533697,-2072.576638,9844.739029
1041.881954,-689.485948,-2368.659014,11029.068536
1041.882273,-2834.553343,-3849.070898,14137.933492
1041.882591,-4596.572988,-3256.906145,16284.530724
1041.882910,-4673.182538,-1850.514855,15544.324782
1041.883229,-3677.258390,-1036.288319,14211.954086
1041.883548,-2528.115143,222.061783,13471.748144
1041.883867,-536.266849,1184.329507,12065.356855
1041.884186,2221.676944,2072.576638,9326.594869
1041.884505,4136.915689,2812.782580,6883.915261
1041.884824,5362.668486,2960.823768,6069.688724
1041.885143,6435.202183,2960.823768,4959.379811
1041.885462,6741.640382,2664.741391,4219.173869
1041.885781,6511.811733,2146.597232,4367.215058
1041.886100,4213.525239,962.267725,6439.791695
1041.886419,2068.457845,-962.267725,9030.512492
1041.886738,153.219100,-1480.411884,10066.800811
1041.887057,-1915.238745,-2368.659014,11917.315666
1041.887376,-3217.601092,-2738.761985,13841.851115
1041.887694,-3830.477490,-1998.556043,14211.954086
1041.888013,-3524.039291,-518.144159,12509.480420
1041.888332,-2911.162892,1110.308913,11103.089130
1041.888651,-1302.362347,1406.391290,10140.821405
1041.888970,306.438199,1924.535449,7698.141797
1041.889289,2221.676944,2368.659014,5773.606348
1041.889608,2681.334243,2738.761985,4663.297435
1041.889927,3370.820191,2146.597232,5033.400406
1041.890246,3600.648841,2146.597232,4737.318029
1041.890565,2451.505594,1776.494261,4737.318029
1041.890884,919.314598,444.123565,6883.915261
1041.891203,-919.314598,-444.123565,9400.615463
1041.891522,-2298.286494,-1702.473667,10510.924376
1041.891841,-3294.210641,-2072.576638,11917.315666
1041.892160,-4826.401637,-2294.638420,13693.809927
1041.892479,-4903.011187,-2146.597232,14063.912898
1041.892797,-4136.915689,-1406.391290,12657.521608
1041.893116,-2604.724693,-592.164754,11325.150913
1041.893435,-919.314598,-0.000000,10510.924376
1041.893754,612.876398,1480.411884,8734.430116
1041.894073,3217.601092,1776.494261,6069.688724
1041.894392,4673.182538,1702.473667,5107.421000
1041.894711,5362.668486,2072.576638,4885.359217
1041.895030,6128.763984,2220.617826,4293.194464
1041.895349,5286.058936,1776.494261,3997.112087
1041.895668,3524.039291,1110.308913,5773.606348
1041.895987,1302.362347,296.082377,8808.450710
1041.896306,-383.047749,-1110.308913,11029.068536
1041.896625,-2451.505594,-1850.514855,13619.789333
1041.896944,-4060.306139,-3108.864956,15544.324782
1041.897263,-4290.134789,-2590.720797,16432.571912
1041.897582,-3294.210641,-1258.350101,14878.139434
1041.897900,-2145.067394,-222.061783,12583.501014
1041.898219,-306.438199,740.205942,10584.944971
1041.898538,2145.067394,1998.556043,9400.615463
1041.898857,4290.134789,2442.679609,6587.832884
1041.899176,5822.325785,2294.638420,4663.297435
1041.899495,6205.373534,2072.576638,4515.256246
1041.899814,6358.592633,2146.597232,4367.215058
1041.900133,5132.839837,1554.432478,4145.153275
1041.900452,3140.991542,1110.308913,5181.441594
1041.900771,1225.752797,-0.000000,8142.265362
1041.901090,-1225.752797,-296.082377,10436.903782
1041.901409,-3294.210641,-1258.350101,11917.315666
1041.901728,-5286.058936,-2146.597232,14211.954086
1041.902047,-6435.202183,-2294.638420,16062.468941
1041.902366,-5975.544884,-1480.411884,16210.510130
1041.902685,-4903.011187,-74.020594,13545.768739
1041.903004,-3677.258390,666.185348,11769.274478
1041.903322,-1915.238745,1702.473667,10881.027347
1041.903641,612.876398,3034.844362,7920.203579
1041.903960,3217.601092,3923.091493,5107.421000
1041.904279,4290.134789,3627.009116,4293.194464
1041.904598,5439.278036,3552.988522,4145.153275
1041.904917,5515.887586,3478.967927,3182.885551
1041.905236,4903.011187,2516.700203,3256.906145
1041.905555,2451.505594,888.247130,6143.709319
1041.905874,306.438199,-518.144159,9104.533087
1041.906193,-2068.457845,-1480.411884,11029.068536
1041.906512,-3370.820191,-1702.473667,12953.603985
1041.906831,-4979.620737,-2220.617826,15100.201217
1041.907150,-5209.449386,-1554.432478,15766.386565
1041.907469,-4290.134789,-370.102971,14211.954086
1041.907788,-2298.286494,740.205942,12953.603985
1041.908107,-536.266849,1258.350101,11695.253884
1041.908425,2298.286494,1924.535449,9622.677246
1041.908744,4519.963438,2146.597232,7105.977043
1041.909063,6281.983084,2368.659014,6143.709319
1041.909382,6894.859482,1998.556043,4959.379811
1041.909701,7507.735880,2368.659014,4219.173869
1041.910020,7431.126331,1924.535449,3330.926739
1041.910339,5592.497135,1332.370696,4959.379811
1041.910658,2987.772442,-370.102971,7550.100608
1041.910977,995.924147,-1628.453072,9474.636058
1041.911296,-1072.533697,-2516.700203,11251.130318
1041.911615,-3370.820191,-3552.988522,14211.954086
1041.911934,-4443.353888,-3182.885551,15544.324782
1041.912253,-4749.792088,-2146.597232,13989.892304
1041.912572,-3294.210641,-814.226536,12805.562797
1041.912891,-2374.896044,-444.123565,11991.336260
1041.913210,-383.047749,740.205942,10658.965565
1041.913528,995.924147,1628.453072,7846.182985
1041.913847,2451.505594,2146.597232,6217.729913
1041.914166,3370.820191,2368.659014,5403.503377
1041.914485,3830.477490,2738.761985,4367.215058
1041.914804,3983.696590,2590.720797,3330.926739
1041.915123,2757.943793,1258.350101,4811.338623
1041.915442,766.095498,-222.061783,6439.791695
1041.915761,-766.095498,-1480.411884,8956.491898
1041.916080,-2757.943793,-2368.659014,10214.842000
1041.916399,-4213.525239,-2960.823768,12361.439231
1041.916718,-5515.887586,-3478.967927,14434.015869
1041.917037,-5515.887586,-2220.617826,13989.892304
1041.917356,-4673.182538,-814.226536,12065.356855
1041.917675,-4136.915689,592.164754,11621.233289
1041.917994,-1915.238745,962.267725,10807.006753
1041.918313,459.657299,1628.453072,8586.388927
1041.918631,2221.676944,2516.700203,6069.688724
1041.918950,2987.772442,2368.659014,5773.606348
1041.919269,4060.306139,2146.597232,6217.729913
1041.919588,4290.134789,2368.659014,4811.338623
1041.919907,3524.039291,1406.391290,5181.441594
1041.920226,2604.724693,518.144159,7254.018232
1041.920545,1072.533697,-518.144159,9696.697840
1041.920864,153.219100,-1628.453072,10658.965565
1041.921183,-1532.190996,-2368.659014,13249.686362
1041.921502,-1991.848295,-2368.659014,14582.057057
1041.921821,-2374.896044,-1480.411884,13841.851115
1041.922140,-1455.581446,-444.123565,12731.542202
1041.922459,-306.438199,222.061783,11251.130318
1041.922778,1838.629195,1480.411884,10510.924376
1041.923097,3370.820191,2146.597232,8660.409521
1041.923416,4979.620737,3034.844362,6587.832884
1041.923734,5822.325785,2738.761985,4959.379811
1041.924053,6358.592633,3256.906145,4885.359217
1041.924372,5592.497135,3552.988522,4663.297435
1041.924691,4826.401637,2738.761985,4367.215058
1041.925010,2757.943793,1332.370696,5773.606348
1041.925329,-536.266849,-296.082377,9696.697840
1041.925648,-2528.115143,-888.247130,11843.295072
1041.925967,-4596.572988,-1480.411884,13693.809927
1041.926286,-5975.544884,-1776.494261,15100.201217
1041.926605,-6128.763984,-1998.556043,16062.468941
1041.926924,-4903.011187,-962.267725,14582.057057
1041.927243,-3983.696590,740.205942,12287.418637
1041.927562,-2451.505594,1480.411884,9918.759623
1041.927881,76.609550,2664.741391,8142.265362
1041.928200,2604.724693,3478.967927,5921.647536
1041.928519,4060.306139,3701.029710,3923.091493
1041.928837,4443.353888,2886.803174,3849.070898
1041.929156,4213.525239,2220.617826,3849.070898
1041.929475,3600.648841,1480.411884,4071.132681
1041.929794,1532.190996,518.144159,5329.482782
1041.930113,-689.485948,-1406.391290,9104.533087
1041.930432,-2987.772442,-2886.803174,12065.356855
1041.930751,-4519.963438,-3552.988522,13841.851115
1041.931070,-5515.887586,-3552.988522,15692.365970
1041.931389,-5898.935335,-2590.720797,16358.551318
1041.931708,-5132.839837,-1184.329507,15322.262999
1041.932027,-2757.943793,-814.226536,13841.851115
1041.932346,-1072.533697,518.144159,11769.274478
1041.932665,1685.410096,1332.370696,9622.677246
1041.932984,4826.401637,2220.617826,7105.977043
1041.933303,7507.735880,2738.761985,4811.338623
1041.933622,9422.974625,2294.638420,2812.782580
1041.933940,9882.631924,2368.659014,2738.761985
1041.934259,9499.584175,1480.411884,2220.617826
1041.934578,7277.907231,1036.288319,2368.659014
1041.934897,4673.182538,-740.205942,5551.544565
1041.935216,1455.581446,-2072.576638,9622.677246
1041.935535,-1608.800546,-2738.761985,11621.233289
1041.935854,-3907.087040,-2960.823768,13027.624579
1041.936173,-5362.668486,-2960.823768,15544.324782
1041.936492,-5592.497135,-2146.597232,15692.365970
1041.936811,-4443.353888,-740.205942,13027.624579
1041.937130,-3140.991542,-0.000000,11695.253884
1041.937449,-1149.143247,666.185348,10510.924376
1041.937768,1455.581446,2368.659014,7994.224174
1041.938087,3907.087040,3997.112087,4663.297435
1041.938406,5362.668486,3627.009116,3627.009116
1041.938725,6358.592633,3478.967927,3404.947333
1041.939043,6205.373534,3330.926739,2812.782580
1041.939362,5592.497135,2294.638420,2886.803174
1041.939681,2911.162892,666.185348,5625.565159
1041.940000,0.000000,-1480.411884,8512.368333
1041.940319,-2528.115143,-2368.659014,10658.965565
1041.940638,-4903.011187,-2960.823768,12509.480420
1041.940957,-6511.811733,-2812.782580,15174.221811
1041.941276,-7431.126331,-1406.391290,15026.180623
1041.941595,-6205.373534,-518.144159,13915.871710
1041.941914,-5286.058936,-0.000000,13249.686362
1041.942233,-4136.915689,370.102971,12805.562797
1041.942552,-1608.800546,592.164754,11103.089130
1041.942871,1225.752797,1554.432478,8956.491898
1041.943190,3447.429741,1702.473667,7994.224174
1041.943509,5132.839837,1776.494261,6809.894666
1041.943828,6435.202183,2368.659014,5773.606348
1041.944146,6741.640382,2368.659014,4737.318029
1041.944465,5975.544884,1480.411884,4737.318029
1041.944784,4366.744339,370.102971,8290.306550
1041.945103,1838.629195,-592.164754,9474.636058
1041.945422,0.000000,-666.185348,10881.027347
1041.945741,-2145.067394,-1776.494261,13249.686362
1041.946060,-3140.991542,-1776.494261,15174.221811
1041.946379,-3600.648841,-1850.514855,14359.995275
1041.946698,-3140.991542,-888.247130,13101.645173
1041.947017,-2681.334243,-592.164754,13323.706956
1041.947336,-689.485948,518.144159,11843.295072
1041.947655,1762.019645,1628.453072,8956.491898
1041.947974,3370.820191,2590.720797,7031.956449
1041.948293,4979.620737,3256.906145,5995.668130
1041.948612,4979.620737,3775.050304,5181.441594
1041.948931,5132.839837,3849.070898,4219.173869
1041.949249,4749.792088,2886.803174,4737.318029
1041.949568,2451.505594,2072.576638,6661.853478
1041.949887,459.657299,666.185348,8882.471304
1041.950206,-1302.362347,-962.267725,10288.862594
1041.950525,-2528.115143,-2146.597232,12435.459826
1041.950844,-4060.306139,-2294.638420,13767.830521
1041.951163,-4213.525239,-1850.514855,13545.768739
1041.951482,-3447.429741,-666.185348,11917.315666
1041.951801,-2681.334243,-222.061783,10955.047942
1041.952120,-1532.190996,-0.000000,10362.883188
1041.952439,153.219100,1332.370696,8216.285956
1041.952758,2298.286494,2368.659014,6143.709319
1041.953077,3140.991542,2442.679609,5403.503377
1041.953396,3677.258390,2812.782580,5033.400406
1041.953715,4136.915689,2812.782580,4219.173869
1041.954034,3447.429741,2368.659014,4071.132681
1041.954352,1838.629195,592.164754,7105.977043
1041.954671,153.219100,-518.144159,9474.636058
1041.954990,-995.924147,-888.247130,10807.006753
1041.955309,-1915.238745,-1480.411884,12435.459826
1041.955628,-2604.724693,-1998.556043,14359.995275
1041.955947,-2834.553343,-1776.494261,14285.974681
1041.956266,-2068.457845,-1258.350101,12731.542202
1041.956585,-612.876398,-518.144159,11473.192101
1041.956904,536.266849,-0.000000,9992.780217
1041.957223,2604.724693,1332.370696,8512.368333
1041.957542,4749.792088,2220.617826,6217.729913
1041.957861,6128.763984,2516.700203,4441.235652
1041.958180,6358.592633,2368.659014,4293.194464
1041.958499,6588.421283,2590.720797,3997.112087
1041.958818,5975.544884,1776.494261,3997.112087
1041.959137,3907.087040,592.164754,5773.606348
1041.959455,842.705048,-666.185348,9474.636058
1041.959774,-995.924147,-1850.514855,11621.233289
1041.960093,-2604.724693,-2664.741391,13175.665768
1041.960412,-3983.696590,-2738.761985,15322.262999
1041.960731,-4366.744339,-2442.679609,16284.530724
1041.961050,-3677.258390,-1924.535449,14656.077652
1041.961369,-2987.772442,-666.185348,12213.398043
1041.961688,-1991.848295,-222.061783,11547.212695
1041.962007,153.219100,740.205942,9474.636058
1041.962326,2528.115143,2368.659014,6439.791695
1041.962645,4136.915689,2516.700203,4441.235652
1041.962964,4673.182538,2738.761985,4145.153275
1041.963283,4673.182538,2368.659014,3627.009116
1041.963602,4060.306139,1628.453072,3108.864956
1041.963921,2374.896044,518.144159,4885.359217
1041.964240,-536.266849,-888.247130,7994.224174
1041.964558,-2834.553343,-1924.535449,10807.006753
1041.964877,-4826.401637,-2368.659014,12879.583391
1041.965196,-6052.154434,-3256.906145,15174.221811
1041.965515,-7201.297681,-2738.761985,16654.633695
1041.965834,-6818.249932,-1184.329507,15766.386565
1041.966153,-5669.106685,444.123565,13323.706956
1041.966472,-2911.162892,1184.329507,12435.459826
1041.966791,-766.095498,1924.535449,10510.924376
1041.967110,2681.334243,2738.761985,8068.244768
1041.967429,5056.230287,3404.947333,4441.235652
1041.967748,6358.592633,3478.967927,4367.215058
1041.968067,7814.174080,3182.885551,3701.029710
1041.968386,7814.174080,2738.761985,2368.659014
1041.968705,6665.030833,1850.514855,3256.906145
1041.969023,4749.792088,-0.000000,6439.791695
1041.969342,1915.238745,-888.247130,8956.491898
1041.969661,229.828649,-1850.514855,11399.171507
1041.969980,-2221.676944,-2516.700203,13397.727550
1041.970299,-3677.258390,-2368.659014,15174.221811
1041.970618,-3983.696590,-1406.391290,15544.324782
1041.970937,-3140.991542,-148.041188,13619.789333
1041.971255,-1838.629195,740.205942,12657.521608
1041.971574,459.657299,1924.535449,11547.212695
1041.971893,1991.848295,2368.659014,9474.636058
1041.972212,3830.477490,2812.782580,6661.853478
1041.972531,5286.058936,2738.761985,5181.441594
1041.972850,5362.668486,3034.844362,5033.400406
1041.973169,5822.325785,2442.679609,3849.070898
1041.973487,5132.839837,2294.638420,3923.091493
1041.973806,3600.648841,1036.288319,5551.544565
1041.974125,536.266849,-148.041188,7328.038826
1041.974444,-1225.752797,-1406.391290,9992.780217
1041.974763,-3447.429741,-2072.576638,11251.130318
1041.975082,-4979.620737,-2738.761985,13767.830521
1041.975400,-6052.154434,-1998.556043,13915.871710
1041.975719,-5822.325785,-888.247130,13619.789333
1041.976038,-4826.401637,-296.082377,12139.377449
1041.976357,-3677.258390,370.102971,11325.150913
1041.976676,-2145.067394,1258.350101,10584.944971
1041.976995,689.485948,2368.659014,7772.162391
1041.977314,2604.724693,2368.659014,6439.791695
1041.977632,3830.477490,2516.700203,6735.874072
1041.977951,4136.915689,2590.720797,5403.503377
1041.978270,4060.306139,2368.659014,4367.215058
1041.978589,3370.820191,1850.514855,5847.626942
1041.978908,1915.238745,222.061783,8438.347739
1041.979227,76.609550,-296.082377,9326.594869
1041.979545,-1149.143247,-1184.329507,10732.986159
1041.979864,-2604.724693,-2294.638420,12953.603985
1041.980183,-2757.943793,-2738.761985,14211.954086
1041.980502,-2451.505594,-1998.556043,13619.789333
1041.980821,-1762.019645,-666.185348,12065.356855
1041.981140,-842.705048,-370.102971,11843.295072
1041.981459,842.705048,592.164754,10066.800811
1041.981777,3140.991542,666.185348,8438.347739
1041.982096,4903.011187,1850.514855,6513.812290
1041.982415,5439.278036,1776.494261,6143.709319
1041.982734,5822.325785,2220.617826,5255.462188
