#time,accel_x,accel_y,accel_z
1706.722153,766.095498,296.082377,9474.636058
1706.722471,842.705048,-0.000000,9326.594869
1706.722788,842.705048,-0.000000,9696.697840
1706.723105,842.705048,296.082377,9474.636058
1706.723422,612.876398,296.082377,9400.615463
1706.723739,766.095498,370.102971,9400.615463
1706.724056,842.705048,296.082377,9474.636058
1706.724373,612.876398,148.041188,9400.615463
1706.724691,842.705048,296.082377,9474.636058
1706.725008,612.876398,148.041188,9474.636058
1706.725325,612.876398,296.082377,9326.594869
1706.725642,383.047749,-222.061783,9104.533087
1706.725959,919.314598,296.082377,9548.656652
1706.726276,459.657299,222.061783,9326.594869
1706.726593,842.705048,222.061783,9400.615463
1706.726911,612.876398,-0.000000,9400.615463
1706.727228,1378.971896,592.164754,9474.636058
1706.727545,612.876398,-0.000000,9474.636058
1706.727862,842.705048,222.061783,9474.636058
1706.728179,536.266849,222.061783,9400.615463
1706.728496,689.485948,370.102971,9474.636058
1706.728813,1072.533697,296.082377,9474.636058
1706.729130,1149.143247,518.144159,9474.636058
1706.729448,459.657299,148.041188,9326.594869
1706.729765,766.095498,222.061783,9252.574275
1706.730082,689.485948,222.061783,9474.636058
1706.730399,995.924147,222.061783,9844.739029
1706.730716,612.876398,222.061783,9474.636058
1706.731033,536.266849,-0.000000,9474.636058
1706.731350,536.266849,148.041188,9474.636058
1706.731668,842.705048,370.102971,9474.636058
1706.731985,1072.533697,148.041188,9548.656652
1706.732302,689.485948,-0.000000,9400.615463
1706.732619,842.705048,370.102971,9178.553681
1706.732936,842.705048,148.041188,9252.574275
1706.733253,766.095498,148.041188,9326.594869
1706.733570,842.705048,148.041188,9548.656652
1706.733887,689.485948,296.082377,9474.636058
1706.734205,766.095498,296.082377,9474.636058
1706.734522,766.095498,148.041188,9474.636058
1706.734839,766.095498,518.144159,9474.636058
1706.735156,842.705048,370.102971,9400.615463
1706.735473,995.924147,222.061783,9474.636058
1706.735790,766.095498,296.082377,9474.636058
1706.736107,766.095498,222.061783,9474.636058
1706.736425,229.828649,-0.000000,9474.636058
1706.736742,842.705048,148.041188,9474.636058
1706.737059,766.095498,-0.000000,9252.574275
1706.737376,919.314598,296.082377,9400.615463
1706.737693,536.266849,296.082377,9474.636058
1706.738010,383.047749,-222.061783,9326.594869
1706.738327,689.485948,148.041188,9474.636058
1706.738645,612.876398,222.061783,9474.636058
1706.738962,842.705048,-0.000000,9400.615463
1706.739279,842.705048,-0.000000,9400.615463
1706.739596,995.924147,148.041188,9326.594869
1706.739913,842.705048,-0.000000,9400.615463
1706.740230,766.095498,-0.000000,9474.636058
1706.740547,689.485948,222.061783,9326.594869
1706.740864,995.924147,-0.000000,9770.718434
1706.741182,536.266849,296.082377,9474.636058
1706.741499,995.924147,518.144159,9326.594869
1706.741816,536.266849,-0.000000,9474.636058
1706.742133,842.705048,296.082377,9474.636058
1706.742450,612.876398,-0.000000,9622.677246
1706.742767,536.266849,74.020594,9400.615463
1706.743084,536.266849,-0.000000,9030.512492
1706.743402,536.266849,-148.041188,9252.574275
1706.743719,153.219100,-370.102971,9474.636058
1706.744036,0.000000,-592.164754,9474.636058
1706.744353,306.438199,-518.144159,9326.594869
1706.744670,-459.657299,-740.205942,9400.615463
1706.744987,-383.047749,-666.185348,9474.636058
1706.745304,-459.657299,-814.226536,9400.615463
1706.745622,-383.047749,-444.123565,9104.533087
1706.745939,-689.485948,-592.164754,8882.471304
1706.746256,-612.876398,-666.185348,8734.430116
1706.746573,-919.314598,-962.267725,8808.450710
1706.746890,-536.266849,-1554.432478,8882.471304
1706.747207,-1225.752797,-1480.411884,9326.594869
1706.747524,-995.924147,-1628.453072,9474.636058
1706.747841,-536.266849,-1554.432478,8956.491898
1706.748159,-766.095498,-1036.288319,8808.450710
1706.748476,0.000000,-740.205942,8438.347739
1706.748793,-689.485948,-370.102971,7846.182985
1706.749110,-459.657299,-518.144159,7624.121203
1706.749427,-766.095498,-962.267725,7402.059420
1706.749744,-689.485948,-1628.453072,7920.203579
1706.750061,-842.705048,-2220.617826,8660.409521
1706.750379,-1149.143247,-2442.679609,9474.636058
1706.750696,-1608.800546,-2812.782580,9622.677246
1706.751013,-1608.800546,-2220.617826,9844.739029
1706.751330,-1762.019645,-1924.535449,9400.615463
1706.751647,-1378.971896,-1258.350101,9104.533087
1706.751964,-1762.019645,-962.267725,8882.471304
1706.752281,-1915.238745,-1480.411884,8660.409521
1706.752599,-2221.676944,-2146.597232,8734.430116
1706.752916,-2298.286494,-3034.844362,9474.636058
1706.753233,-2757.943793,-4071.132681,10288.862594
1706.753550,-3370.820191,-4515.256246,11029.068536
1706.753867,-3830.477490,-4441.235652,11177.109724
1706.754184,-3907.087040,-4441.235652,11621.233289
1706.754501,-3983.696590,-4219.173869,10807.006753
1706.754818,-4060.306139,-3775.050304,11103.089130
1706.755136,-3447.429741,-3849.070898,10807.006753
1706.755453,-3830.477490,-3997.112087,10288.862594
1706.755770,-3217.601092,-4219.173869,10584.944971
1706.756087,-3983.696590,-4367.215058,10362.883188
1706.756404,-4136.915689,-4071.132681,10510.924376
1706.756721,-4213.525239,-4515.256246,10362.883188
1706.757038,-4596.572988,-4145.153275,10807.006753
1706.757356,-4596.572988,-4145.153275,11251.130318
1706.757673,-4136.915689,-4145.153275,11621.233289
1706.757990,-3983.696590,-4145.153275,12065.356855
1706.758307,-3600.648841,-3997.112087,11917.315666
1706.758624,-3294.210641,-3552.988522,11473.192101
1706.758941,-2451.505594,-2590.720797,10214.842000
1706.759258,-2451.505594,-2442.679609,9918.759623
1706.759575,-2068.457845,-2072.576638,9474.636058
1706.759893,-1685.410096,-2072.576638,9178.553681
1706.760210,-1608.800546,-2590.720797,9252.574275
1706.760527,-1608.800546,-3256.906145,10436.903782
1706.760844,-1378.971896,-4145.153275,10881.027347
1706.761161,-1302.362347,-3923.091493,11103.089130
1706.761478,-383.047749,-3552.988522,10584.944971
1706.761795,76.609550,-2590.720797,9474.636058
1706.762113,1225.752797,-1628.453072,8660.409521
1706.762430,2068.457845,-1036.288319,7476.080014
1706.762747,2374.896044,-814.226536,7105.977043
1706.763064,2451.505594,-1184.329507,6883.915261
1706.763381,1685.410096,-1628.453072,7254.018232
1706.763698,1225.752797,-2516.700203,7550.100608
1706.764015,536.266849,-2812.782580,8290.306550
1706.764333,-306.438199,-3034.844362,8290.306550
1706.764650,-919.314598,-2812.782580,8438.347739
1706.764967,-842.705048,-2738.761985,8438.347739
1706.765284,-1072.533697,-2368.659014,8808.450710
1706.765601,-1149.143247,-2294.638420,8660.409521
1706.765918,-919.314598,-2220.617826,8808.450710
1706.766235,-1225.752797,-1480.411884,8586.388927
1706.766552,0.000000,-814.226536,8660.409521
1706.766870,-383.047749,-0.000000,8142.265362
1706.767187,76.609550,296.082377,8068.244768
1706.767504,229.828649,518.144159,8438.347739
1706.767821,536.266849,592.164754,8142.265362
1706.768138,383.047749,666.185348,7994.224174
1706.768455,689.485948,1110.308913,7624.121203
1706.768772,1072.533697,814.226536,7772.162391
1706.769090,1072.533697,148.041188,7698.141797
1706.769407,919.314598,-222.061783,8364.327145
1706.769724,306.438199,-370.102971,8734.430116
1706.770041,-229.828649,-0.000000,9178.553681
1706.770358,-459.657299,740.205942,9474.636058
1706.770675,-1991.848295,888.247130,9844.739029
1706.770992,-2681.334243,666.185348,9992.780217
1706.771310,-3753.867940,148.041188,10214.842000
1706.771627,-4826.401637,-0.000000,9918.759623
1706.771944,-5132.839837,148.041188,10066.800811
1706.772261,-5515.887586,-518.144159,10658.965565
1706.772578,-5362.668486,-1110.308913,11547.212695
1706.772895,-6205.373534,-1702.473667,12065.356855
1706.773212,-6435.202183,-1850.514855,12731.542202
1706.773529,-5669.106685,-1480.411884,12805.562797
1706.773847,-5209.449386,-1036.288319,12583.501014
1706.774164,-4979.620737,-666.185348,12213.398043
1706.774481,-4366.744339,-148.041188,11621.233289
1706.774798,-3600.648841,-0.000000,10881.027347
1706.775115,-2757.943793,-592.164754,10362.883188
1706.775432,-1532.190996,-1184.329507,10140.821405
1706.775749,-1455.581446,-2220.617826,10584.944971
1706.776067,-1225.752797,-2590.720797,11029.068536
1706.776384,-1225.752797,-3182.885551,10436.903782
1706.776701,-1302.362347,-3552.988522,10807.006753
1706.777018,-306.438199,-3182.885551,10881.027347
1706.777335,-1378.971896,-3256.906145,10510.924376
1706.777652,-1532.190996,-3404.947333,10584.944971
1706.777969,-1915.238745,-3478.967927,10881.027347
1706.778286,-1915.238745,-3256.906145,11177.109724
1706.778604,-1532.190996,-3552.988522,11917.315666
1706.778921,-1225.752797,-4071.132681,12065.356855
1706.779238,-1532.190996,-4515.256246,12065.356855
1706.779555,-1149.143247,-4515.256246,12509.480420
1706.779872,-612.876398,-4219.173869,12657.521608
1706.780189,842.705048,-3775.050304,11251.130318
1706.780506,1991.848295,-3256.906145,9992.780217
1706.780824,2911.162892,-3108.864956,9178.553681
1706.781141,3294.210641,-3108.864956,8586.388927
1706.781458,3907.087040,-3404.947333,7254.018232
1706.781775,4213.525239,-3775.050304,6291.750507
1706.782092,3370.820191,-3701.029710,6217.729913
1706.782409,2528.115143,-3478.967927,5625.565159
1706.782726,1302.362347,-3627.009116,5403.503377
1706.783044,612.876398,-3775.050304,7105.977043
1706.783361,-383.047749,-4663.297435,8438.347739
1706.783678,-1532.190996,-4737.318029,8734.430116
1706.783995,-2374.896044,-4589.276840,8882.471304
1706.784318,-2681.334243,-4885.359217,9918.759623
1706.784635,-2604.724693,-4071.132681,10436.903782
1706.784953,-2604.724693,-3182.885551,9178.553681
1706.785270,-1915.238745,-2072.576638,8882.471304
1706.785587,-1302.362347,-1406.391290,7920.203579
1706.785904,-536.266849,-1406.391290,6587.832884
1706.786222,-919.314598,-1776.494261,5773.606348
1706.786539,-842.705048,-2368.659014,5625.565159
1706.786856,-1225.752797,-2960.823768,5033.400406
1706.787173,-2145.067394,-3478.967927,4737.318029
1706.787491,-2757.943793,-4071.132681,5477.523971
1706.787808,-4213.525239,-4885.359217,6217.729913
1706.788125,-5132.839837,-5181.441594,7846.182985
1706.788442,-5439.278036,-4885.359217,9770.718434
1706.788760,-5439.278036,-4145.153275,9104.533087
1706.789077,-6128.763984,-4515.256246,9844.739029
1706.789394,-5515.887586,-3997.112087,11621.233289
1706.789711,-5132.839837,-1998.556043,11547.212695
1706.790029,-3294.210641,-1184.329507,9696.697840
1706.790346,-1991.848295,-518.144159,9770.718434
1706.790663,-842.705048,444.123565,9474.636058
1706.790980,0.000000,888.247130,7254.018232
1706.791298,536.266849,-0.000000,6143.709319
1706.791615,-229.828649,-1554.432478,7550.100608
1706.791932,-766.095498,-2220.617826,8808.450710
1706.792249,-1378.971896,-1850.514855,7920.203579
1706.792567,-1762.019645,-2516.700203,9474.636058
1706.792884,-2451.505594,-2960.823768,11103.089130
1706.793201,-2681.334243,-2590.720797,12361.439231
1706.793518,-1991.848295,-2664.741391,12805.562797
1706.793836,-2604.724693,-1332.370696,13471.748144
1706.794153,-1915.238745,518.144159,13323.706956
1706.794470,-842.705048,1998.556043,11917.315666
1706.794787,536.266849,2664.741391,10510.924376
1706.795105,1072.533697,2516.700203,9770.718434
1706.795422,1302.362347,1332.370696,9252.574275
1706.795739,1991.848295,370.102971,9252.574275
1706.796056,1455.581446,-518.144159,9622.677246
1706.796374,536.266849,-1628.453072,10066.800811
1706.796691,0.000000,-2368.659014,10584.944971
1706.797008,-1762.019645,-2368.659014,10362.883188
1706.797325,-2145.067394,-2664.741391,12583.501014
1706.797643,-3370.820191,-2368.659014,12509.480420
1706.797960,-3447.429741,-592.164754,11695.253884
1706.798277,-2834.553343,-444.123565,12509.480420
1706.798594,-2528.115143,-0.000000,13915.871710
1706.798912,-2451.505594,-296.082377,13249.686362
1706.799229,-1225.752797,-148.041188,12509.480420
1706.799546,-229.828649,-0.000000,11621.233289
1706.799863,919.314598,296.082377,10807.006753
1706.800180,2068.457845,-0.000000,9918.759623
1706.800498,2528.115143,-1184.329507,8438.347739
1706.800815,2374.896044,-592.164754,7402.059420
1706.801132,1685.410096,-444.123565,7031.956449
1706.801449,1225.752797,-962.267725,6957.935855
1706.801767,153.219100,-1480.411884,8068.244768
1706.802084,-1302.362347,-2146.597232,9992.780217
1706.802401,-2681.334243,-2220.617826,10881.027347
1706.802718,-3447.429741,-2812.782580,12065.356855
1706.803036,-3753.867940,-2220.617826,12583.501014
1706.803353,-3370.820191,-1480.411884,13175.665768
1706.803670,-2834.553343,-740.205942,11917.315666
1706.803987,-2681.334243,-1036.288319,10066.800811
1706.804305,-1378.971896,-666.185348,9400.615463
1706.804622,229.828649,-814.226536,7920.203579
1706.804939,1608.800546,-962.267725,6587.832884
1706.805256,2604.724693,-1850.514855,5921.647536
1706.805574,2757.943793,-2812.782580,6883.915261
1706.805891,2757.943793,-2664.741391,6661.853478
1706.806208,3217.601092,-2072.576638,6365.771101
1706.806525,2757.943793,-1776.494261,6513.812290
1706.806843,3217.601092,-2220.617826,7846.182985
1706.807160,2834.553343,-1406.391290,7328.038826
1706.807477,1762.019645,592.164754,6365.771101
1706.807794,1685.410096,-222.061783,8068.244768
1706.808112,1455.581446,-296.082377,8142.265362
1706.808429,1991.848295,-814.226536,8512.368333
1706.808746,1532.190996,-962.267725,8956.491898
1706.809063,2451.505594,-222.061783,8438.347739
1706.809381,2757.943793,-518.144159,8290.306550
1706.809698,4290.134789,-592.164754,8438.347739
1706.810015,4290.134789,222.061783,7031.956449
1706.810332,4060.306139,888.247130,6217.729913
1706.810650,4290.134789,814.226536,6587.832884
1706.810967,3447.429741,1036.288319,6365.771101
1706.811284,3983.696590,296.082377,7179.997637
1706.811601,2528.115143,-0.000000,8882.471304
1706.811919,1302.362347,444.123565,9474.636058
1706.812236,0.000000,962.267725,10362.883188
1706.812553,0.000000,1332.370696,10436.903782
1706.812870,306.438199,1850.514855,10436.903782
1706.813188,536.266849,1480.411884,10066.800811
1706.813505,1149.143247,1554.432478,9326.594869
1706.813822,1762.019645,2294.638420,7254.018232
1706.814139,2681.334243,1998.556043,7772.162391
1706.814457,1991.848295,740.205942,7846.182985
1706.814774,1762.019645,-74.020594,9400.615463
1706.815091,0.000000,444.123565,9548.656652
1706.815408,-689.485948,592.164754,10288.862594
1706.815726,-995.924147,1184.329507,11695.253884
1706.816043,-1072.533697,1332.370696,11843.295072
1706.816360,-1608.800546,2664.741391,12065.356855
1706.816677,-1838.629195,2664.741391,11769.274478
1706.816995,-1838.629195,3108.864956,11325.150913
1706.817312,-1838.629195,3182.885551,11473.192101
1706.817629,-842.705048,2960.823768,10807.006753
1706.817946,-995.924147,2590.720797,9622.677246
1706.818263,-1225.752797,1924.535449,9696.697840
1706.818581,-995.924147,-0.000000,11029.068536
1706.818898,-1991.848295,814.226536,10732.986159
1706.819215,-1225.752797,-0.000000,11843.295072
1706.819532,-2681.334243,814.226536,10732.986159
1706.819850,-2298.286494,1110.308913,11325.150913
1706.820167,-1915.238745,1850.514855,10510.924376
1706.820484,-689.485948,2368.659014,11399.171507
1706.820801,153.219100,2220.617826,11843.295072
1706.821119,229.828649,2664.741391,12065.356855
1706.821436,536.266849,2960.823768,11399.171507
1706.821753,1225.752797,2664.741391,11843.295072
1706.822070,919.314598,2294.638420,11177.109724
1706.822388,1991.848295,1036.288319,10362.883188
1706.822705,1532.190996,1628.453072,9030.512492
1706.823022,1762.019645,2072.576638,8586.388927
1706.823339,2451.505594,1036.288319,8956.491898
1706.823657,2451.505594,-0.000000,8956.491898
1706.823974,2757.943793,-1110.308913,10732.986159
1706.824291,2145.067394,-1184.329507,9400.615463
1706.824608,2374.896044,-814.226536,9326.594869
1706.824926,2757.943793,-1258.350101,10140.821405
1706.825243,2681.334243,-74.020594,9918.759623
1706.825560,3370.820191,1036.288319,9918.759623
1706.825877,3370.820191,1998.556043,9104.533087
1706.826195,3140.991542,1776.494261,7920.203579
1706.826512,4136.915689,1110.308913,8956.491898
1706.826829,3370.820191,-222.061783,7105.977043
1706.827146,2604.724693,-666.185348,7846.182985
1706.827464,3830.477490,-1184.329507,8068.244768
1706.827781,2451.505594,-962.267725,7402.059420
1706.828098,3064.381992,-3330.926739,9326.594869
1706.828415,2451.505594,-2294.638420,8660.409521
1706.828733,1762.019645,-1702.473667,7105.977043
1706.829050,2451.505594,-1036.288319,7772.162391
1706.829367,1532.190996,-962.267725,7698.141797
1706.829684,1072.533697,-666.185348,7254.018232
1706.830002,1608.800546,-222.061783,7846.182985
1706.830319,612.876398,-370.102971,8068.244768
1706.830636,919.314598,-888.247130,9178.553681
1706.830953,306.438199,-1110.308913,9474.636058
1706.831271,459.657299,-740.205942,8364.327145
1706.831588,1685.410096,-740.205942,7920.203579
1706.831905,1762.019645,-888.247130,7624.121203
1706.832222,1762.019645,-1406.391290,6661.853478
1706.832540,842.705048,-1702.473667,6587.832884
1706.832857,76.609550,-1702.473667,6439.791695
1706.833174,-306.438199,-1110.308913,6957.935855
1706.833491,-1991.848295,-1110.308913,7254.018232
1706.833809,-2604.724693,-1702.473667,9326.594869
1706.834126,-3524.039291,-1998.556043,10288.862594
1706.834443,-3294.210641,-1406.391290,11843.295072
1706.834760,-2757.943793,-0.000000,11621.233289
1706.835078,-1685.410096,1110.308913,10362.883188
1706.835395,-689.485948,2146.597232,9400.615463
1706.835712,536.266849,1998.556043,8364.327145
1706.836029,1762.019645,2146.597232,7772.162391
1706.836346,2298.286494,2146.597232,6735.874072
1706.836664,1991.848295,2146.597232,7254.018232
1706.836981,1838.629195,1702.473667,7846.182985
1706.837298,919.314598,1332.370696,8364.327145
1706.837615,-459.657299,-222.061783,9844.739029
1706.837933,-1072.533697,-74.020594,11991.336260
1706.838250,-2145.067394,1406.391290,10881.027347
1706.838567,-1225.752797,1998.556043,11473.192101
1706.838884,-306.438199,3330.926739,11251.130318
1706.839202,536.266849,3330.926739,11769.274478
1706.839519,1302.362347,2812.782580,11991.336260
1706.839836,1762.019645,3034.844362,11621.233289
1706.840153,2451.505594,3997.112087,11325.150913
1706.840471,4136.915689,4145.153275,10732.986159
1706.840788,4290.134789,4589.276840,9252.574275
1706.841105,4290.134789,3923.091493,9178.553681
1706.841422,3907.087040,3552.988522,8586.388927
1706.841740,3753.867940,3108.864956,8364.327145
1706.842057,2911.162892,2146.597232,8586.388927
1706.842374,2757.943793,962.267725,9992.780217
1706.842691,1302.362347,222.061783,10288.862594
1706.843009,76.609550,370.102971,11621.233289
1706.843326,-689.485948,296.082377,13989.892304
1706.843643,-842.705048,666.185348,13471.748144
1706.843960,-536.266849,1702.473667,13397.727550
1706.844278,-459.657299,4071.132681,11843.295072
1706.844595,229.828649,3849.070898,12065.356855
1706.844912,689.485948,3997.112087,10214.842000
1706.845229,1838.629195,3552.988522,9400.615463
1706.845547,2604.724693,2368.659014,9326.594869
1706.845864,2451.505594,1554.432478,8290.306550
1706.846181,1838.629195,370.102971,7772.162391
1706.846498,1762.019645,-962.267725,9178.553681
1706.846816,766.095498,-1258.350101,9918.759623
1706.847133,612.876398,-1702.473667,10140.821405
1706.847450,-1225.752797,-962.267725,9548.656652
1706.847767,-2221.676944,-1036.288319,10881.027347
1706.848085,-2374.896044,-296.082377,10732.986159
1706.848402,-2757.943793,518.144159,10288.862594
1706.848719,-2374.896044,-370.102971,10510.924376
1706.849036,-2451.505594,-148.041188,10362.883188
1706.849354,-995.924147,444.123565,10807.006753
1706.849671,229.828649,-0.000000,10658.965565
1706.849988,766.095498,-74.020594,7994.224174
1706.850305,2068.457845,-1184.329507,9252.574275
1706.850623,1455.581446,-518.144159,7476.080014
1706.850940,2451.505594,-2146.597232,7105.977043
1706.851257,1455.581446,-2368.659014,5995.668130
1706.851574,1225.752797,-3256.906145,6513.812290
1706.851892,0.000000,-3404.947333,6809.894666
1706.852209,0.000000,-4811.338623,8882.471304
1706.852526,-1608.800546,-5107.421000,10510.924376
1706.852843,-1685.410096,-3849.070898,10881.027347
1706.853160,-1762.019645,-2960.823768,10510.924376
1706.853478,-766.095498,-1258.350101,10066.800811
1706.853795,536.266849,-666.185348,11103.089130
1706.854112,1838.629195,740.205942,7476.080014
1706.854429,3524.039291,888.247130,7105.977043
1706.854747,4136.915689,1554.432478,4737.318029
1706.855064,5209.449386,-0.000000,5773.606348
1706.855381,5286.058936,-888.247130,5625.565159
1706.855698,3830.477490,-2442.679609,6735.874072
1706.856016,3217.601092,-1480.411884,5773.606348
1706.856333,1532.190996,-1258.350101,6217.729913
1706.856650,1225.752797,-1850.514855,7550.100608
1706.856967,-229.828649,-2664.741391,9030.512492
1706.857285,-459.657299,-1998.556043,10658.965565
1706.857602,-153.219100,-2960.823768,11695.253884
1706.857919,-842.705048,-740.205942,11177.109724
1706.858236,1455.581446,-814.226536,13027.624579
1706.858554,1302.362347,3182.885551,9474.636058
1706.858871,2757.943793,2368.659014,8068.244768
1706.859188,3140.991542,3404.947333,8068.244768
1706.859505,3983.696590,2442.679609,7476.080014
1706.859823,4673.182538,2960.823768,6513.812290
1706.860140,4519.963438,2294.638420,4737.318029
1706.860457,4213.525239,296.082377,6587.832884
1706.860774,2834.553343,-1332.370696,7846.182985
1706.861092,1838.629195,-2294.638420,9104.533087
1706.861409,-459.657299,-1850.514855,9844.739029
1706.861726,-536.266849,-2516.700203,13323.706956
1706.862043,-689.485948,-148.041188,12583.501014
1706.862361,-1915.238745,1554.432478,13693.809927
1706.862678,-689.485948,3923.091493,11325.150913
1706.862995,-1225.752797,3108.864956,11843.295072
1706.863312,-1455.581446,6291.750507,10955.047942
1706.863630,689.485948,3478.967927,9770.718434
1706.863947,-689.485948,6291.750507,7105.977043
1706.864264,1838.629195,1776.494261,11843.295072
1706.864581,919.314598,3701.029710,7846.182985
1706.864899,1225.752797,2738.761985,7105.977043
1706.865216,689.485948,1406.391290,7772.162391
1706.865533,-1685.410096,-2294.638420,10214.842000
1706.865850,-2145.067394,-3108.864956,15174.221811
1706.866168,-2757.943793,-4293.194464,12805.562797
1706.866485,-3677.258390,-1628.453072,12583.501014
1706.866802,-3600.648841,2368.659014,11473.192101
1706.867119,-1991.848295,3034.844362,12953.603985
1706.867437,-2068.457845,4219.173869,9844.739029
1706.867754,-2068.457845,3701.029710,11695.253884
1706.868071,-2528.115143,2220.617826,11621.233289
1706.868388,-1072.533697,2146.597232,12065.356855
1706.868706,1378.971896,2072.576638,9992.780217
1706.869023,1838.629195,370.102971,9770.718434
1706.869340,1225.752797,592.164754,7254.018232
1706.869657,2604.724693,-1406.391290,7772.162391
1706.869975,1915.238745,-2590.720797,8882.471304
1706.870292,1455.581446,-4663.297435,11029.068536
1706.870609,153.219100,-4589.276840,9474.636058
1706.870926,-612.876398,-4293.194464,10881.027347
1706.871243,-306.438199,-2516.700203,12879.583391
1706.871561,-1149.143247,-1480.411884,13027.624579
1706.871878,0.000000,1406.391290,13471.748144
1706.872195,842.705048,2886.803174,10584.944971
1706.872512,1455.581446,4885.359217,9104.533087
1706.872830,3524.039291,3256.906145,8364.327145
1706.873147,3447.429741,3108.864956,5699.585753
1706.873464,4596.572988,-1332.370696,6661.853478
1706.873781,3524.039291,-1998.556043,5625.565159
1706.874099,2528.115143,-4515.256246,6957.935855
1706.874416,1915.238745,-4959.379811,8586.388927
1706.874733,0.000000,-5107.421000,9326.594869
1706.875050,-536.266849,-4737.318029,8956.491898
1706.875368,-1685.410096,-4145.153275,9474.636058
1706.875685,-1225.752797,-3034.844362,9548.656652
1706.876002,-612.876398,-1332.370696,9400.615463
1706.876319,1608.800546,-1628.453072,11251.130318
1706.876637,2298.286494,444.123565,10066.800811
1706.876954,2068.457845,2220.617826,8290.306550
1706.877271,3140.991542,5033.400406,6661.853478
1706.877588,3524.039291,3256.906145,4515.256246
1706.877906,3447.429741,1628.453072,5477.523971
1706.878223,3294.210641,-814.226536,5107.421000
1706.878540,2528.115143,-1628.453072,4219.173869
1706.878857,1455.581446,-2590.720797,3627.009116
1706.879175,1378.971896,-5181.441594,8364.327145
1706.879492,-919.314598,-6735.874072,7476.080014
1706.879809,-3140.991542,-5921.647536,8216.285956
1706.880126,-3677.258390,-5625.565159,11103.089130
1706.880444,-3677.258390,-4219.173869,13915.871710
1706.880761,-1532.190996,-0.000000,12213.398043
1706.881078,-383.047749,2072.576638,13619.789333
1706.881395,76.609550,4663.297435,10510.924376
1706.881713,1225.752797,6883.915261,8290.306550
1706.882030,2528.115143,7402.059420,4959.379811
1706.882347,3140.991542,4663.297435,5551.544565
1706.882664,3064.381992,3404.947333,3701.029710
1706.882982,4213.525239,1110.308913,4441.235652
1706.883299,1685.410096,-1554.432478,3627.009116
1706.883616,1072.533697,-3997.112087,8734.430116
1706.883933,-1378.971896,-7550.100608,11843.295072
1706.884251,-3294.210641,-6735.874072,13545.768739
1706.884568,-3753.867940,-7105.977043,16654.633695
1706.884885,-5515.887586,-3404.947333,13471.748144
1706.885202,-4443.353888,-888.247130,14804.118840
1706.885520,-1225.752797,2664.741391,14878.139434
1706.885837,-153.219100,5477.523971,12731.542202
1706.886154,2757.943793,8290.306550,12657.521608
1706.886471,3983.696590,9030.512492,9030.512492
1706.886789,5669.106685,8142.265362,6661.853478
1706.887106,6511.811733,7550.100608,6439.791695
1706.887423,6435.202183,4441.235652,4737.318029
1706.887741,5898.935335,1554.432478,3775.050304
1706.888058,3524.039291,-1110.308913,4737.318029
1706.888375,1838.629195,-3849.070898,9918.759623
1706.888693,-459.657299,-7550.100608,11695.253884
1706.889010,-2834.553343,-7179.997637,15470.304188
1706.889327,-4903.011187,-7476.080014,17838.963202
1706.889644,-7431.126331,-3627.009116,17468.860231
1706.889962,-4519.963438,740.205942,16506.592507
1706.890279,-2528.115143,3404.947333,18579.169144
1706.890596,306.438199,8290.306550,14211.954086
1706.890914,4673.182538,11029.068536,12213.398043
1706.891231,4826.401637,13841.851115,3552.988522
1706.891548,7737.564530,9844.739029,4515.256246
1706.891866,7124.688131,7772.162391,1406.391290
1706.892183,7048.078582,1184.329507,3701.029710
1706.892500,4213.525239,-2516.700203,3849.070898
1706.892818,2221.676944,-7624.121203,7328.038826
1706.893135,-1532.190996,-9400.615463,11399.171507
1706.893452,-1991.848295,-10881.027347,15470.304188
1706.893769,-5362.668486,-8734.430116,14878.139434
1706.894087,-6128.763984,-5181.441594,13841.851115
1706.894404,-6358.592633,-1110.308913,14359.995275
1706.894721,-5056.230287,1110.308913,14730.098246
1706.895039,-2145.067394,3552.988522,17246.798449
1706.895356,1455.581446,9178.553681,13027.624579
1706.895673,3907.087040,12361.439231,5403.503377
1706.895991,6894.859482,12583.501014,222.061783
1706.896308,7890.783629,6661.853478,1998.556043
1706.896625,7584.345430,3997.112087,1924.535449
1706.896942,5209.449386,-1702.473667,888.247130
1706.897260,3447.429741,-5699.585753,3182.885551
1706.897577,1378.971896,-9622.677246,7105.977043
1706.897894,-306.438199,-11399.171507,10066.800811
1706.898212,-4596.572988,-10362.883188,10214.842000
1706.898529,-5132.839837,-8068.244768,11399.171507
1706.898846,-7967.393179,-5107.421000,12953.603985
1706.899164,-7431.126331,-2664.741391,15988.448347
1706.899481,-4596.572988,518.144159,19689.478057
1706.899798,-2911.162892,5773.606348,14211.954086
1706.900115,2145.067394,10288.862594,13471.748144
1706.900433,4366.744339,15322.262999,2590.720797
1706.900750,8963.317327,11843.295072,370.102971
1706.901067,9422.974625,7550.100608,-2590.720797
1706.901385,9193.145976,1702.473667,0.000000
1706.901702,6741.640382,-1554.432478,-888.247130
1706.902019,5898.935335,-5255.462188,666.185348
1706.902337,3140.991542,-10288.862594,5773.606348
1706.902654,-536.266849,-13027.624579,11547.212695
1706.902971,-4136.915689,-10658.965565,10955.047942
1706.903288,-6588.421283,-6883.915261,12287.418637
1706.903606,-9193.145976,-4071.132681,15544.324782
1706.903923,-8197.221829,-2590.720797,19615.457463
1706.904240,-4519.963438,444.123565,21317.931130
1706.904558,-2911.162892,8808.450710,16802.674883
1706.904875,1685.410096,10955.047942,14137.933492
1706.905192,4290.134789,13545.768739,5107.421000
1706.905510,10725.336972,10436.903782,2664.741391
1706.905827,10265.679673,8586.388927,-518.144159
1706.906144,11031.775171,4441.235652,740.205942
1706.906462,8503.660028,1332.370696,-1184.329507
1706.906779,7507.735880,-4441.235652,962.267725
1706.907096,5592.497135,-12509.480420,9030.512492
1706.907413,0.000000,-13027.624579,12065.356855
1706.907731,-3524.039291,-10955.047942,12879.583391
1706.908048,-7354.516781,-6513.812290,12139.377449
1706.908365,-9806.022374,-4071.132681,19393.395680
1706.908683,-8963.317327,-2960.823768,24426.796086
1706.909000,-6511.811733,2368.659014,24426.796086
1706.909317,-5132.839837,5995.668130,21762.054695
1706.909635,-536.266849,13323.706956,15544.324782
1706.909952,4060.306139,18579.169144,5107.421000
1706.910269,11951.089769,18431.127956,518.144159
1706.910586,9499.584175,10955.047942,-1554.432478
1706.910904,9346.365076,4367.215058,814.226536
1706.911221,8963.317327,296.082377,-444.123565
1706.911538,5898.935335,-5921.647536,2072.576638
1706.911856,4136.915689,-15914.427753,13989.892304
1706.912173,-2298.286494,-12731.542202,13841.851115
1706.912490,-3217.601092,-6439.791695,10732.986159
1706.912808,-8044.002729,-4293.194464,13027.624579
1706.913125,-10955.165621,-4515.256246,18875.251521
1706.913442,-9959.241474,-3552.988522,22650.301825
1706.913759,-6818.249932,5033.400406,20133.601622
1706.914077,-2987.772442,8364.327145,20503.704593
1706.914394,-1072.533697,16802.674883,10288.862594
1706.914711,5132.839837,18283.086767,2664.741391
1706.915029,11491.432470,15544.324782,-2664.741391
1706.915346,8580.269578,7254.018232,-1628.453072
1706.915663,9346.365076,-74.020594,3478.967927
1706.915981,8044.002729,-518.144159,-3478.967927
1706.916298,5669.106685,-5921.647536,148.041188
1706.916615,4519.963438,-16284.530724,15396.283594
1706.916933,-995.924147,-13249.686362,13323.706956
1706.917250,-2987.772442,-6735.874072,5477.523971
1706.917567,-7354.516781,-6809.894666,12953.603985
1706.917884,-11108.384721,-4737.318029,19615.457463
1706.918202,-8580.269578,-3256.906145,22798.343014
1706.918519,-4673.182538,5995.668130,18061.024985
1706.918836,-1378.971896,8882.471304,19911.539840
1706.919154,-1072.533697,13323.706956,9326.594869
1706.919471,6511.811733,17838.963202,1332.370696
1706.919788,14785.643111,14285.974681,-4737.318029
1706.920106,9806.022374,7031.956449,-9400.615463
1706.920423,11721.261119,-2664.741391,1924.535449
1706.920740,8656.879127,-5107.421000,-3997.112087
1706.921057,7048.078582,-8956.491898,-296.082377
1706.921375,5822.325785,-17912.983796,15692.365970
1706.921692,-1072.533697,-15026.180623,9992.780217
1706.922009,-2451.505594,-7105.977043,6587.832884
1706.922327,-8044.002729,-3552.988522,10584.944971
1706.922644,-11874.480219,-6291.750507,18061.024985
1706.922961,-8963.317327,-5403.503377,24352.775492
1706.923279,-4366.744339,4367.215058,20355.663405
1706.923596,-1991.848295,6291.750507,21021.848753
1706.923913,-2681.334243,13693.809927,9252.574275
1706.924230,3524.039291,16950.716072,2220.617826
1706.924548,13330.061665,13471.748144,-1258.350101
1706.924865,9269.755526,7624.121203,-4589.276840
1706.925182,10035.851024,-1332.370696,1924.535449
1706.925500,9729.412825,-1924.535449,-4663.297435
1706.925817,7737.564530,-7476.080014,0.000000
1706.926134,6435.202183,-18061.024985,14434.015869
1706.926452,-3524.039291,-16950.716072,8586.388927
1706.926769,-5209.449386,-6439.791695,5995.668130
1706.927086,-11031.775171,-3997.112087,13175.665768
1706.927404,-12717.185267,-7031.956449,22132.157666
1706.927721,-12334.137518,-7476.080014,27683.702231
1706.928038,-9346.365076,3701.029710,22946.384202
1706.928355,-5056.230287,4515.256246,26499.372724
1706.928673,-4366.744339,11621.233289,12065.356855
1706.928990,1072.533697,16876.695478,3034.844362
1706.929307,10035.851024,16728.654289,-1998.556043
1706.929625,10495.508323,10362.883188,-3701.029710
1706.929942,10648.727422,296.082377,1480.411884
1706.930259,10035.851024,-2960.823768,-3404.947333
1706.930577,8886.707777,-4293.194464,-740.205942
1706.930894,6818.249932,-14878.139434,14285.974681
1706.931211,0.000000,-18727.210333,12879.583391
1706.931528,-4749.792088,-8956.491898,8512.368333
1706.931846,-9882.631924,-6661.853478,12657.521608
1706.932163,-13636.499864,-6143.709319,18949.272115
1706.932480,-10878.556072,-7328.038826,24500.816680
1706.932798,-7354.516781,-296.082377,24870.919651
1706.933115,-4060.306139,5033.400406,25167.002028
1706.933432,0.000000,11103.089130,19763.498651
1706.933750,1685.410096,20873.807564,3627.009116
1706.934067,12793.794817,19393.395680,-1850.514855
1706.934384,14325.985813,16432.571912,-8216.285956
1706.934701,12947.013916,6957.935855,-3775.050304
1706.935019,13866.328514,-740.205942,-1332.370696
1706.935336,9269.755526,-5477.523971,-8808.450710
1706.935653,9729.412825,-13841.851115,11547.212695
1706.935971,4749.792088,-17690.922014,16580.613101
1706.936288,-3830.477490,-8660.409521,5033.400406
1706.936605,-9576.193725,-9696.697840,9548.656652
1706.936923,-12563.966167,-12287.418637,27535.661042
1706.937240,-14709.033562,-7105.977043,24648.857869
1706.937557,-7890.783629,1554.432478,25167.002028
1706.937875,-5439.278036,7402.059420,23316.487173
1706.938192,1378.971896,11843.295072,21021.848753
1706.938509,1685.410096,20799.786970,888.247130
1706.938826,9269.755526,22280.198854,-4367.215058
1706.939144,12257.527968,17172.777854,-6661.853478
1706.939461,9652.803275,7254.018232,-6735.874072
1706.939778,11797.870669,-0.000000,-1628.453072
1706.940096,6358.592633,-3108.864956,-6809.894666
1706.940413,6971.469032,-16432.571912,13915.871710
1706.940730,3447.429741,-19837.519246,16654.633695
1706.941048,-2604.724693,-12583.501014,6513.812290
1706.941365,-6971.469032,-9622.677246,10436.903782
1706.941682,-17620.196454,-9474.636058,18801.230927
1706.941999,-13483.280765,-11917.315666,24796.899057
1706.942317,-11491.432470,-0.000000,20429.683999
1706.942634,-6358.592633,3256.906145,26055.249158
1706.942951,-2911.162892,8956.491898,19985.560434
1706.943269,-766.095498,26721.434506,222.061783
1706.943586,10878.556072,24648.857869,-2368.659014
1706.943903,9193.145976,18135.045579,-8660.409521
1706.944221,10112.460574,7179.997637,-2886.803174
1706.944538,9422.974625,-1406.391290,-2294.638420
1706.944855,9576.193725,-4959.379811,-6661.853478
1706.945172,8044.002729,-15470.304188,9178.553681
1706.945490,3370.820191,-20207.622217,17912.983796
1706.945807,-536.266849,-15692.365970,8734.430116
1706.946124,-5362.668486,-11843.295072,14434.015869
1706.946442,-16930.710506,-9992.780217,21688.034101
1706.946759,-15858.176809,-7105.977043,25463.084405
1706.947076,-9346.365076,-2516.700203,21984.116477
1706.947394,-6971.469032,5477.523971,21095.869347
1706.947711,-306.438199,8142.265362,25092.981434
1706.948028,-229.828649,25463.084405,2590.720797
1706.948346,10648.727422,23760.610738,-4441.235652
1706.948663,13789.718964,18653.189738,-6143.709319
1706.948980,10878.556072,7550.100608,-4959.379811
1706.949297,11491.432470,-444.123565,1628.453072
1706.949615,10265.679673,-5551.544565,-4219.173869
1706.949932,8810.098227,-14137.933492,8364.327145
1706.950249,5439.278036,-21984.116477,20429.683999
1706.950567,1838.629195,-15026.180623,11695.253884
1706.950884,-4290.134789,-5477.523971,10510.924376
1706.951201,-11414.822920,-11473.192101,21095.869347
1706.951519,-14709.033562,-7105.977043,21984.116477
1706.951836,-7814.174080,-5477.523971,26499.372724
1706.952153,-8044.002729,7550.100608,17394.839637
1706.952470,-153.219100,8438.347739,21539.992912
1706.952788,919.314598,22354.219448,8068.244768
1706.953105,6588.421283,22798.343014,-1332.370696
1706.953422,12027.699319,19023.292709,-6513.812290
1706.953740,9729.412825,9400.615463,-7624.121203
1706.954057,10189.070123,-1480.411884,222.061783
1706.954374,7584.345430,-8808.450710,-2812.782580
1706.954692,5822.325785,-14730.098246,6883.915261
1706.955009,3294.210641,-20207.622217,18061.024985
1706.955326,1378.971896,-16654.633695,12435.459826
1706.955643,-4213.525239,-8068.244768,12879.583391
1706.955961,-14096.157163,-7031.956449,17764.942608
1706.956278,-13253.452115,-4367.215058,22798.343014
1706.956595,-9959.241474,-3404.947333,20873.807564
1706.956913,-7201.297681,5477.523971,21539.992912
1706.957230,-2757.943793,8216.285956,21465.972318
1706.957547,-3907.087040,23834.631332,4737.318029
1706.957865,7967.393179,24648.857869,-1924.535449
1706.958182,10955.165621,17320.819043,-6365.771101
1706.958499,7277.907231,7846.182985,-7994.224174
1706.958817,9806.022374,-2368.659014,1924.535449
1706.959134,7737.564530,-6291.750507,-3552.988522
1706.959451,8733.488677,-16284.530724,8290.306550
1706.959768,3294.210641,-23316.487173,18357.107362
1706.960086,229.828649,-16062.468941,9252.574275
1706.960403,-2681.334243,-7179.997637,8808.450710
1706.960720,-8810.098227,-7994.224174,17246.798449
1706.961038,-11721.261119,-7328.038826,20133.601622
1706.961355,-6818.249932,-4515.256246,24426.796086
1706.961672,-7354.516781,8734.430116,19245.354492
1706.961990,229.828649,13323.706956,16506.592507
1706.962307,-383.047749,17468.860231,8734.430116
1706.962624,4903.011187,21984.116477,-2960.823768
1706.962941,12487.356617,19171.333898,-8142.265362
1706.963259,9039.926876,11399.171507,-11621.233289
1706.963576,11491.432470,-2886.803174,-888.247130
1706.963893,6205.373534,-8734.430116,444.123565
1706.964211,5286.058936,-16580.613101,10881.027347
1706.964528,-459.657299,-24500.816680,19023.292709
1706.964845,-3753.867940,-21317.931130,19541.436869
1706.965163,-4213.525239,-9474.636058,17468.860231
1706.965480,-8427.050478,-4737.318029,18875.251521
1706.965797,-8733.488677,296.082377,14211.954086
1706.966114,-3217.601092,1924.535449,21021.848753
1706.966432,-3907.087040,13101.645173,14211.954086
1706.966749,842.705048,13841.851115,13175.665768
1706.967066,612.876398,21391.951724,-370.102971
1706.967384,8120.612279,20799.786970,-6661.853478
1706.967701,12257.527968,14137.933492,-5699.585753
1706.968018,6894.859482,1776.494261,-5921.647536
1706.968336,6894.859482,-7772.162391,4367.215058
1706.968653,5439.278036,-13027.624579,12583.501014
1706.968970,3753.867940,-20947.828159,18579.169144
1706.969288,383.047749,-19245.354492,17838.963202
1706.969605,612.876398,-11843.295072,17246.798449
1706.969922,2374.896044,-2072.576638,12213.398043
1706.970239,-1302.362347,1554.432478,13249.686362
1706.970557,-3140.991542,8660.409521,9844.739029
1706.970874,-766.095498,11177.109724,17246.798449
1706.971191,842.705048,17098.757260,11769.274478
1706.971509,766.095498,15914.427753,8364.327145
1706.971826,-4519.963438,14285.974681,-1554.432478
1706.972143,-612.876398,9696.697840,1406.391290
1706.972461,2374.896044,4293.194464,222.061783
1706.972778,-383.047749,-3701.029710,0.000000
1706.973095,-229.828649,-16802.674883,14730.098246
1706.973412,-1532.190996,-21317.931130,23094.425390
1706.973730,-4596.572988,-19985.560434,20355.663405
1706.974047,-3830.477490,-16358.551318,20281.642811
1706.974364,-2911.162892,-10066.800811,19541.436869
1706.974682,-1302.362347,5921.647536,6883.915261
1706.974999,995.924147,15396.283594,5847.626942
1706.975316,-306.438199,16876.695478,-740.205942
1706.975634,-612.876398,12435.459826,4959.379811
1706.975951,0.000000,10436.903782,10288.862594
1706.976268,-1991.848295,6957.935855,7846.182985
1706.976585,0.000000,3404.947333,2812.782580
1706.976903,-2834.553343,2072.576638,3849.070898
1706.977220,2681.334243,-5921.647536,12657.521608
1706.977537,4136.915689,-12509.480420,16210.510130
1706.977855,2834.553343,-15766.386565,19467.416275
1706.978172,3294.210641,-16210.510130,26055.249158
1706.978489,2987.772442,-592.164754,10881.027347
1706.978807,9499.584175,6143.709319,8882.471304
1706.979124,6128.763984,5551.544565,1924.535449
1706.979441,5822.325785,10510.924376,-4811.338623
1706.979758,2757.943793,14137.933492,-5033.400406
1706.980076,2374.896044,10658.965565,-6661.853478
1706.980393,459.657299,-1110.308913,9770.718434
1706.980710,-2374.896044,-7254.018232,19985.560434
1706.981028,-5056.230287,-7476.080014,17468.860231
1706.981345,-5745.716235,-6735.874072,17024.736666
1706.981662,-6052.154434,-6883.915261,19097.313304
1706.981980,-1762.019645,-6735.874072,15618.345376
1706.982297,2987.772442,-592.164754,11251.130318
1706.982614,6205.373534,4071.132681,9548.656652
1706.982932,7201.297681,1702.473667,11843.295072
1706.983249,9346.365076,3997.112087,5477.523971
1706.983566,7584.345430,5921.647536,-2442.679609
1706.983883,4443.353888,3923.091493,-666.185348
1706.984201,2604.724693,1036.288319,-1406.391290
1706.984518,-1915.238745,-1850.514855,740.205942
1706.984835,-4443.353888,-3923.091493,3552.988522
1706.985153,-6435.202183,-3923.091493,5995.668130
1706.985470,-5745.716235,-9326.594869,20281.642811
1706.985787,-2834.553343,-14211.954086,25537.104999
1706.986104,-6511.811733,-10140.821405,22872.363608
1706.986422,-9116.536426,-1480.411884,15322.262999
1706.986739,-766.095498,3108.864956,19837.519246
1706.987056,3983.696590,11103.089130,10140.821405
1706.987373,11951.089769,11399.171507,11917.315666
1706.987691,10418.898773,15248.242405,-148.041188
1706.988008,13023.623466,17616.901420,1850.514855
1706.988325,14709.033562,12287.418637,-6439.791695
1706.988643,10955.165621,2442.679609,-6069.688724
1706.988960,6588.421283,-5625.565159,-4589.276840
1706.989277,2221.676944,-6069.688724,1702.473667
1706.989594,-1072.533697,-7031.956449,4515.256246
1706.989912,-4290.134789,-8364.327145,5107.421000
1706.990229,-8810.098227,-11621.233289,19171.333898
1706.990546,-9652.803275,-8660.409521,27979.784608
1706.990863,-8810.098227,-4663.297435,24722.878463
1706.991181,-12257.527968,-1628.453072,17320.819043
1706.991498,-10035.851024,-2146.597232,22946.384202
1706.991815,-4366.744339,10584.944971,15174.221811
1706.992133,5362.668486,18875.251521,7920.203579
1706.992450,7584.345430,15766.386565,4071.132681
1706.992767,6894.859482,11325.150913,2664.741391
1706.993084,9346.365076,11621.233289,-1554.432478
1706.993402,11108.384721,9548.656652,-4737.318029
1706.993719,12180.918418,-3552.988522,3404.947333
1706.994036,5592.497135,-10214.842000,7476.080014
1706.994353,2221.676944,-8512.368333,5773.606348
1706.994671,1455.581446,-4885.359217,4145.153275
1706.994988,-4826.401637,-3997.112087,7994.224174
1706.995305,-6971.469032,-9992.780217,20281.642811
1706.995623,-9729.412825,-5033.400406,19911.539840
1706.995940,-12793.794817,-444.123565,15618.345376
1706.996257,-13636.499864,-1554.432478,22058.137072
1706.996574,-11721.261119,-74.020594,23242.466579
1706.996892,-2987.772442,8512.368333,16728.654289
1706.997209,2451.505594,9770.718434,12287.418637
1706.997526,4366.744339,9696.697840,10510.924376
1706.997843,7967.393179,5699.585753,7105.977043
1706.998161,14555.814462,6957.935855,2886.803174
1706.998478,17926.634653,4515.256246,3256.906145
1706.998795,15858.176809,-1406.391290,2442.679609
1706.999113,12793.794817,-5477.523971,6735.874072
1706.999430,10342.289223,-1036.288319,3034.844362
1706.999747,6435.202183,-296.082377,3701.029710
1707.000064,306.438199,-1184.329507,4737.318029
1707.000382,-3983.696590,-2738.761985,9030.512492
1707.000699,-8503.660028,-1110.308913,7105.977043
1707.001016,-12334.137518,-3108.864956,10288.862594
1707.001333,-12487.356617,-12435.459826,23686.590144
1707.001651,-12717.185267,-11695.253884,27017.516883
1707.001968,-7507.735880,-5255.462188,24130.713709
1707.002285,-4443.353888,4811.338623,11769.274478
1707.002603,-383.047749,5847.626942,11029.068536
1707.002920,4213.525239,4441.235652,9474.636058
1707.003237,8197.221829,5033.400406,5995.668130
1707.003554,12410.747068,7772.162391,1258.350101
1707.003872,11414.822920,5699.585753,-592.164754
1707.004189,11414.822920,1184.329507,1258.350101
1707.004506,9346.365076,-74.020594,814.226536
1707.004824,6511.811733,296.082377,740.205942
1707.005141,1608.800546,-3775.050304,2442.679609
1707.005458,-7967.393179,-5995.668130,4367.215058
1707.005775,-9959.241474,-8660.409521,10881.027347
1707.006093,-12563.966167,-5551.544565,13027.624579
1707.006410,-13253.452115,-7698.141797,16950.716072
1707.006727,-13483.280765,-11917.315666,22502.260637
1707.007044,-11568.042020,-8438.347739,24500.816680
1707.007362,-4596.572988,962.267725,17616.901420
1707.007679,306.438199,7772.162391,10881.027347
1707.007996,6665.030833,5181.441594,11251.130318
1707.008314,9576.193725,5921.647536,9178.553681
1707.008631,14555.814462,9030.512492,5477.523971
1707.008948,15398.519510,14285.974681,-5403.503377
1707.009265,18539.511052,7254.018232,-3330.926739
1707.009583,17773.415554,3923.091493,1110.308913
1707.009900,15475.129060,1258.350101,-1110.308913
1707.010217,7737.564530,370.102971,-4885.359217
1707.010534,0.000000,-5181.441594,-814.226536
1707.010852,-5745.716235,-9770.718434,9474.636058
1707.011169,-11414.822920,-7476.080014,8660.409521
1707.011486,-14938.862211,-7624.121203,14508.036463
1707.011804,-17083.929605,-11769.274478,22798.343014
1707.012121,-17237.148705,-12065.356855,27683.702231
1707.012438,-11721.261119,-6735.874072,25537.104999
1707.012755,-6052.154434,6069.688724,20725.766376
1707.013073,76.609550,7994.224174,15988.448347
1707.013390,1608.800546,10658.965565,6883.915261
1707.013707,9346.365076,11991.336260,8364.327145
1707.014024,9576.193725,18357.107362,-666.185348
1707.014342,16088.005458,16580.613101,-6883.915261
1707.014659,18079.853753,6735.874072,-444.123565
1707.014976,16700.881856,-222.061783,5403.503377
1707.015294,12257.527968,-0.000000,3627.009116
1707.015611,5209.449386,-2294.638420,-1850.514855
1707.015928,-2298.286494,-7402.059420,7550.100608
1707.016245,-3907.087040,-11547.212695,13323.706956
1707.016563,-12180.918418,-2886.803174,5773.606348
1707.016880,-14709.033562,-8068.244768,14656.077652
1707.017197,-17850.025103,-7254.018232,19763.498651
1707.017514,-14709.033562,-6957.935855,28794.011144
1707.017832,-9269.755526,-0.000000,23242.466579
1707.018149,-7124.688131,4737.318029,17246.798449
1707.018466,-4519.963438,2516.700203,18357.107362
1707.018784,-766.095498,4663.297435,17468.860231
1707.019101,5592.497135,12139.377449,8882.471304
1707.019418,12334.137518,14878.139434,1480.411884
1707.019735,19228.997000,10510.924376,444.123565
1707.020053,19995.092498,3627.009116,4737.318029
1707.020370,18079.853753,1332.370696,1554.432478
1707.020687,12027.699319,-2664.741391,666.185348
1707.021004,7354.516781,-4959.379811,7254.018232
1707.021322,4596.572988,-8438.347739,7624.121203
1707.021639,-3370.820191,-2960.823768,1776.494261
1707.021956,-9576.193725,-5995.668130,6809.894666
1707.022274,-13023.623466,-7476.080014,17690.922014
1707.022591,-12717.185267,-8882.471304,21465.972318
1707.022908,-9959.241474,-6735.874072,23686.590144
1707.023225,-7354.516781,518.144159,18357.107362
1707.023543,-2681.334243,4219.173869,17024.736666
1707.023860,-2145.067394,2220.617826,11843.295072
1707.024177,3370.820191,-1258.350101,16950.716072
1707.024494,3447.429741,10066.800811,2516.700203
1707.024812,13713.109414,13101.645173,370.102971
1707.025129,15092.081311,10658.965565,-3701.029710
1707.025446,17160.539155,-2294.638420,8660.409521
1707.025764,13559.890315,-1332.370696,6069.688724
1707.026081,7814.174080,-2886.803174,518.144159
1707.026398,2604.724693,-1998.556043,2590.720797
1707.026715,459.657299,-3330.926739,5477.523971
1707.027033,-6511.811733,592.164754,-3701.029710
1707.027350,-9806.022374,-4959.379811,4811.338623
1707.027667,-16164.615008,-5699.585753,10510.924376
1707.027984,-14096.157163,-7698.141797,23242.466579
1707.028302,-10648.727422,-6661.853478,22280.198854
1707.028619,-7431.126331,-2664.741391,16210.510130
1707.028936,-5898.935335,-2368.659014,13471.748144
1707.029254,-5056.230287,-1850.514855,15914.427753
1707.029571,2987.772442,-2812.782580,14359.995275
1707.029888,5439.278036,8734.430116,4367.215058
1707.030205,16164.615008,13841.851115,-1702.473667
1707.030523,20301.530697,12435.459826,-2368.659014
1707.030840,21910.331243,5921.647536,3108.864956
1707.031157,16624.272307,3034.844362,1554.432478
1707.031474,9116.536426,-296.082377,-296.082377
1707.031792,5132.839837,-1850.514855,4959.379811
1707.032109,-689.485948,-1258.350101,2146.597232
1707.032426,-6052.154434,-1110.308913,74.020594
1707.032744,-10725.336972,-7105.977043,7698.141797
1707.033061,-16394.443657,-9548.656652,12287.418637
1707.033378,-17543.586904,-9918.759623,21688.034101
1707.033695,-14096.157163,-9696.697840,26203.290347
1707.034013,-12563.966167,-4515.256246,20059.581028
1707.034330,-7584.345430,-2960.823768,18135.045579
1707.034647,-8044.002729,-4441.235652,19541.436869
1707.034965,-1532.190996,666.185348,18357.107362
1707.035282,3447.429741,11029.068536,7846.182985
1707.035599,13866.328514,17542.880825,0.000000
1707.035916,17237.148705,10510.924376,2886.803174
1707.036234,19535.435199,5255.462188,6883.915261
1707.036551,15934.786358,2368.659014,5329.482782
1707.036868,12180.918418,-444.123565,518.144159
1707.037185,8810.098227,-2294.638420,7550.100608
1707.037503,5132.839837,-1554.432478,4959.379811
1707.037820,-4060.306139,2960.823768,-5403.503377
1707.038137,-6358.592633,-5107.421000,5329.482782
1707.038455,-12027.699319,-5625.565159,10881.027347
1707.038772,-13330.061665,-8660.409521,18357.107362
1707.039089,-13023.623466,-7254.018232,19097.313304
1707.039406,-12793.794817,-8586.388927,19689.478057
1707.039724,-11108.384721,-9474.636058,22280.198854
1707.040041,-11568.042020,-11547.212695,28571.949361
1707.040358,-6741.640382,-2294.638420,24278.754898
1707.040675,0.000000,13397.727550,10807.006753
1707.040993,11031.775171,21539.992912,3997.112087
1707.041310,16547.662757,17987.004391,5921.647536
1707.041627,20991.016645,10066.800811,7254.018232
1707.041945,18309.682402,9548.656652,1776.494261
1707.042262,17466.977354,2146.597232,0.000000
1707.042579,13176.842566,-1184.329507,888.247130
1707.042896,15092.081311,-2960.823768,7550.100608
1707.043214,8273.831378,-0.000000,-6143.709319
1707.043531,-1149.143247,-5699.585753,-4515.256246
1707.043848,-8427.050478,-7105.977043,6661.853478
1707.044165,-13023.623466,-7105.977043,13027.624579
1707.044483,-12793.794817,-4959.379811,15100.201217
1707.044800,-13100.233016,-7031.956449,17246.798449
1707.045117,-14019.547613,-11843.295072,22502.260637
1707.045435,-14172.766713,-12361.439231,25092.981434
1707.045752,-7354.516781,-3404.947333,23094.425390
1707.046069,-3600.648841,6513.812290,16432.571912
1707.046386,6665.030833,16358.551318,7698.141797
1707.046704,12180.918418,18653.189738,4737.318029
1707.047021,15321.909960,12509.480420,6217.729913
1707.047338,15245.300410,7624.121203,6809.894666
1707.047655,14479.204912,3701.029710,148.041188
1707.047973,11414.822920,-518.144159,-1554.432478
1707.048290,12104.308868,-74.020594,3552.988522
1707.048607,6818.249932,2664.741391,-4885.359217
1707.048925,-306.438199,-3627.009116,-6291.750507
1707.049242,-5669.106685,-5995.668130,-1332.370696
1707.049559,-12257.527968,-8956.491898,9696.697840
1707.049876,-12717.185267,-9178.553681,17542.880825
1707.050194,-14325.985813,-5551.544565,12657.521608
1707.050511,-13636.499864,-9474.636058,20059.581028
1707.050828,-15628.348159,-14582.057057,24426.796086
1707.051145,-11568.042020,-7476.080014,26943.496289
1707.051463,-8197.221829,4219.173869,18727.210333
1707.051780,2221.676944,18209.066173,7698.141797
1707.052097,11644.651570,20133.601622,6069.688724
1707.052415,16547.662757,16580.613101,6143.709319
1707.052732,15398.519510,10362.883188,4515.256246
1707.053049,17466.977354,4885.359217,6069.688724
1707.053366,13713.109414,-0.000000,1036.288319
1707.053684,15092.081311,-1924.535449,6217.729913
1707.054001,12410.747068,3552.988522,-1776.494261
1707.054318,6894.859482,2368.659014,-8956.491898
1707.054635,995.924147,-3627.009116,-1776.494261
1707.054953,-7048.078582,-8512.368333,5773.606348
1707.055270,-13636.499864,-10955.047942,13249.686362
1707.055587,-14938.862211,-7772.162391,12953.603985
1707.055905,-15092.081311,-8216.285956,18949.272115
1707.056222,-16088.005458,-15174.221811,24278.754898
1707.056539,-13253.452115,-13619.789333,29312.155303
1707.056856,-7507.735880,-7105.977043,27313.599260
1707.057174,-2681.334243,9030.512492,17320.819043
1707.057491,7890.783629,16802.674883,12731.542202
1707.057808,13330.061665,17320.819043,9474.636058
1707.058125,17313.758255,13471.748144,9548.656652
1707.058443,18386.291952,9474.636058,7328.038826
1707.058760,17696.806004,7031.956449,1998.556043
1707.059077,18922.558801,2960.823768,6143.709319
1707.059395,19688.654299,3627.009116,7105.977043
1707.059712,14709.033562,8068.244768,-4441.235652
1707.060029,9806.022374,3775.050304,-9770.718434
1707.060346,689.485948,1332.370696,-8956.491898
1707.060664,-7584.345430,-8290.306550,4071.132681
1707.060981,-12257.527968,-11843.295072,10955.047942
1707.061298,-16777.491406,-8438.347739,4515.256246
1707.061615,-18386.291952,-13323.706956,18283.086767
1707.061933,-22753.036291,-26277.310941,28275.866984
1707.062250,-24821.494135,-24426.796086,27461.640448
1707.062567,-21067.626195,-14582.057057,37010.297100
1707.062885,-14096.157163,2442.679609,29534.217086
1707.063202,-3140.991542,17690.922014,17024.736666
1707.063519,8197.221829,23168.445985,15914.427753
1707.063836,13866.328514,20503.704593,12065.356855
1707.064154,17390.367805,20207.622217,4071.132681
1707.064471,20148.311597,16876.695478,-4589.276840
1707.064788,22599.817191,11325.150913,9548.656652
1707.065106,28498.752526,7402.059420,4663.297435
1707.065423,30184.162621,13471.748144,-13693.809927
1707.065740,23212.693589,7328.038826,-15692.365970
1707.066057,10801.946522,-3701.029710,-14434.015869
1707.066375,-612.876398,-17616.901420,-3701.029710
1707.066692,-10265.679673,-12953.603985,-370.102971
1707.067009,-16547.662757,-7031.956449,-592.164754
1707.067326,-20607.968896,-10584.944971,8438.347739
1707.067644,-23595.741338,-21984.116477,14211.954086
1707.067961,-29647.895773,-28719.990550,27017.516883
1707.068278,-29877.724422,-29978.340651,35974.008781
1707.068596,-26123.856482,-18727.210333,33457.308578
1707.068913,-13253.452115,-4737.318029,32717.102636
1707.069230,-4979.620737,13693.809927,29904.320057
1707.069547,306.438199,19985.560434,18135.045579
1707.069865,5592.497135,22132.157666,10584.944971
1707.070182,10418.898773,20429.683999,10288.862594
1707.070499,21374.064394,22650.301825,4219.173869
1707.070816,25281.151434,27535.661042,-296.082377
1707.071134,36236.317055,28645.969955,2960.823768
1707.071451,34627.516510,20577.725188,-15174.221811
1707.071768,30720.429470,3330.926739,-19097.313304
1707.072086,18233.072852,-10955.047942,-13471.748144
1707.072403,0.000000,-14137.933492,-17172.777854
1707.072720,1149.143247,-18949.272115,5921.647536
1707.073037,-12717.185267,-13471.748144,740.205942
1707.073355,-15168.690860,-16802.674883,9474.636058
1707.073672,-24055.398637,-25092.981434,19467.416275
1707.073989,-31869.572717,-33901.432144,26055.249158
1707.074306,-35010.564259,-35974.008781,36714.214723
1707.074624,-28575.362075,-26203.290347,37454.420665
1707.074941,-18462.901502,-10881.027347,32569.061448
1707.075258,-2987.772442,14434.015869,20651.745782
1707.075576,8273.831378,26129.269753,10658.965565
1707.075893,9806.022374,23464.528361,15470.304188
1707.076210,16011.395908,21836.075289,8290.306550
1707.076527,24515.055936,33901.432144,-148.041188
1707.076845,26889.951980,34863.699868,-4145.153275
1707.077162,28728.581175,35085.761651,-1406.391290
1707.077479,35240.392908,23612.569550,-9696.697840
1707.077796,26583.513781,10881.027347,-14063.912898
1707.078114,19228.997000,-7550.100608,-9992.780217
1707.078431,3217.601092,-3923.091493,-20651.745782
1707.078748,-2145.067394,-19393.395680,21614.013506
1707.079066,-5209.449386,-26129.269753,22576.281231
1707.079383,-14249.376263,-27165.558071,12139.377449
1707.079700,-19841.873398,-30792.567187,31680.814318
1707.080017,-31103.477219,-32865.143825,28349.887579
1707.080335,-27885.876127,-33087.205607,27387.619854
1707.080652,-23289.303139,-13545.768739,24500.816680
1707.080969,-15551.738609,-1258.350101,20947.828159
1707.081286,-1149.143247,24796.899057,3849.070898
1707.081604,8044.002729,34937.720462,-5995.668130
1707.081921,18309.682402,23760.610738,8808.450710
1707.082238,18309.682402,12213.398043,4441.235652
1707.082556,21757.112143,25759.166782,-5403.503377
1707.082873,19918.482948,22280.198854,-5625.565159
1707.083190,17620.196454,10732.986159,4885.359217
1707.083507,14632.424012,9622.677246,-3108.864956
1707.083825,7814.174080,3997.112087,-5995.668130
1707.084142,-7507.735880,-7105.977043,19023.292709
1707.084459,-6818.249932,-11325.150913,26203.290347
1707.084776,-10342.289223,-16210.510130,21317.931130
1707.085094,-11031.775171,-15322.262999,32569.061448
1707.085411,-18309.682402,-19615.457463,19837.519246
1707.085728,-16471.053207,-15470.304188,15396.283594
1707.086046,-14249.376263,-12657.521608,10955.047942
1707.086363,-6435.202183,-5699.585753,14211.954086
1707.086680,0.000000,16580.613101,-1850.514855
1707.086998,9193.145976,36492.152941,-15470.304188
1707.087315,16241.224558,20059.581028,-5551.544565
1707.087632,11261.603821,3404.947333,6587.832884
1707.087949,10035.851024,-814.226536,16580.613101
1707.088267,7354.516781,-1036.288319,6069.688724
1707.088584,5056.230287,-222.061783,-518.144159
1707.088901,5056.230287,-4959.379811,14582.057057
1707.089219,2604.724693,-3923.091493,18579.169144
1707.089536,-995.924147,-2516.700203,11473.192101
1707.089853,-5898.935335,-2812.782580,14063.912898
1707.090170,-7048.078582,-5403.503377,25018.960840
1707.090488,-3600.648841,-0.000000,23686.590144
1707.090805,-4136.915689,8734.430116,7698.141797
1707.091122,-4903.011187,9696.697840,-1406.391290
1707.091440,-2681.334243,1628.453072,3552.988522
1707.091757,-1532.190996,-4071.132681,9992.780217
1707.092074,4136.915689,-1406.391290,4293.194464
1707.092392,5592.497135,8808.450710,-7772.162391
1707.092709,7354.516781,-518.144159,10584.944971
1707.093026,7431.126331,-10658.965565,19615.457463
1707.093343,3524.039291,-11473.192101,15174.221811
1707.093661,-689.485948,-11547.212695,9918.759623
1707.093978,-3064.381992,-8956.491898,9474.636058
1707.094295,-4136.915689,-2960.823768,8956.491898
1707.094613,-2451.505594,-666.185348,13101.645173
1707.094930,-2757.943793,2146.597232,11917.315666
1707.095247,-4673.182538,1924.535449,8956.491898
1707.095565,-2528.115143,2516.700203,12287.418637
1707.095882,0.000000,1258.350101,17246.798449
1707.096199,2145.067394,10584.944971,5847.626942
1707.096516,5975.544884,7624.121203,74.020594
1707.096834,6511.811733,1110.308913,7031.956449
1707.097151,6128.763984,-1406.391290,8290.306550
1707.097468,8044.002729,7550.100608,2886.803174
1707.097786,9806.022374,1332.370696,2590.720797
1707.098103,6128.763984,-9918.759623,14730.098246
1707.098420,3140.991542,-12731.542202,18357.107362
1707.098737,-1302.362347,-7031.956449,12435.459826
1707.099055,-766.095498,-3923.091493,10140.821405
1707.099372,-3294.210641,-6883.915261,10140.821405
1707.099689,-5132.839837,-1998.556043,8142.265362
1707.100007,-2451.505594,3627.009116,9474.636058
1707.100324,-4826.401637,7772.162391,2812.782580
1707.100641,-2451.505594,4145.153275,9326.594869
1707.100959,1455.581446,4959.379811,14878.139434
1707.101276,4213.525239,8290.306550,10807.006753
1707.101593,4290.134789,12287.418637,3034.844362
1707.101910,5745.716235,3330.926739,8882.471304
1707.102228,3600.648841,-4145.153275,9918.759623
1707.102545,6281.983084,-888.247130,7031.956449
1707.102862,5515.887586,8586.388927,-4367.215058
1707.103180,5132.839837,2072.576638,1702.473667
1707.103497,4979.620737,-9252.574275,14508.036463
1707.103814,-1302.362347,-9326.594869,12879.583391
1707.104132,-6971.469032,-4885.359217,9400.615463
1707.104449,-9652.803275,-3701.029710,12139.377449
1707.104766,-12180.918418,-3330.926739,14285.974681
1707.105083,-10035.851024,-222.061783,7920.203579
1707.105401,-8656.879127,2146.597232,11843.295072
1707.105718,-9499.584175,1998.556043,9622.677246
1707.106035,-8197.221829,2072.576638,11843.295072
1707.106353,383.047749,1406.391290,22576.281231
1707.106670,5515.887586,8660.409521,8882.471304
1707.106987,4979.620737,9992.780217,6661.853478
1707.107305,8886.707777,5921.647536,13841.851115
1707.107622,6128.763984,4589.276840,4293.194464
1707.107939,12487.356617,10066.800811,222.061783
1707.108256,15245.300410,10436.903782,-3923.091493
1707.108574,11644.651570,-888.247130,6365.771101
1707.108891,13866.328514,-10510.924376,15544.324782
1707.109208,5669.106685,-7031.956449,15396.283594
1707.109526,-153.219100,-7105.977043,11251.130318
1707.109843,-6128.763984,-4811.338623,12139.377449
1707.110160,-4903.011187,-3552.988522,13767.830521
1707.110477,-8580.269578,888.247130,6587.832884
1707.110795,-9116.536426,1406.391290,9770.718434
1707.111112,-10035.851024,666.185348,9326.594869
1707.111429,-4596.572988,518.144159,17098.757260
1707.111747,2911.162892,-2368.659014,23390.507767
1707.112064,1991.848295,666.185348,16358.551318
1707.112381,2145.067394,1850.514855,14137.933492
1707.112699,4136.915689,3330.926739,9548.656652
1707.113016,8427.050478,3701.029710,5921.647536
1707.113333,12563.966167,8364.327145,2368.659014
1707.113650,12410.747068,9918.759623,-2442.679609
1707.113968,11108.384721,370.102971,1406.391290
1707.114285,7584.345430,-8660.409521,12657.521608
1707.114602,1378.971896,-13249.686362,19689.478057
1707.114920,-1532.190996,-7920.203579,9696.697840
1707.115237,-7814.174080,-3034.844362,4737.318029
1707.115554,-7584.345430,-7994.224174,7105.977043
1707.115872,-12257.527968,-4663.297435,6439.791695
1707.116189,-13253.452115,-1628.453072,5255.462188
1707.116506,-13713.109414,-814.226536,7920.203579
1707.116823,-11261.603821,-1850.514855,16136.489536
1707.117141,-6511.811733,-6957.935855,25611.125593
1707.117458,-8733.488677,-6513.812290,16728.654289
1707.117775,-3524.039291,-1998.556043,14952.160028
1707.118093,1149.143247,3923.091493,17912.983796
1707.118410,6435.202183,7994.224174,9474.636058
1707.118727,14019.547613,11177.109724,222.061783
1707.119045,16394.443657,13841.851115,-2812.782580
1707.119362,16011.395908,10881.027347,2146.597232
1707.119679,18309.682402,-518.144159,2886.803174
1707.119996,13100.233016,-5255.462188,4441.235652
1707.120314,7124.688131,-5773.606348,3256.906145
1707.120631,2757.943793,-1702.473667,4959.379811
1707.120948,-612.876398,-1998.556043,1850.514855
1707.121266,-3140.991542,-5107.421000,6069.688724
1707.121583,-8733.488677,-4663.297435,3256.906145
1707.121900,-11951.089769,-2664.741391,1924.535449
1707.122217,-9193.145976,-7031.956449,14582.057057
1707.122535,-7967.393179,-9474.636058,22650.301825
1707.122852,-5439.278036,-8142.265362,19837.519246
1707.123169,-2681.334243,-2738.761985,14878.139434
1707.123487,-1225.752797,3182.885551,15174.221811
1707.123804,3830.477490,6809.894666,16284.530724
1707.124121,8656.879127,13175.665768,5403.503377
1707.124439,11951.089769,20281.642811,-5921.647536
1707.124756,13483.280765,20651.745782,-3775.050304
1707.125073,11568.042020,9252.574275,3849.070898
1707.125390,7967.393179,-5773.606348,6883.915261
1707.125708,2604.724693,-9770.718434,9918.759623
1707.126025,-2451.505594,-7994.224174,9252.574275
1707.126342,-3447.429741,-7550.100608,7328.038826
1707.126660,-4060.306139,-8956.491898,10807.006753
1707.126977,-7967.393179,-5255.462188,6735.874072
1707.127294,-12257.527968,-2590.720797,2368.659014
1707.127612,-11874.480219,-4367.215058,13323.706956
1707.127929,-9422.974625,-6735.874072,22724.322419
1707.128246,-8120.612279,-4293.194464,19097.313304
1707.128563,-4443.353888,-2368.659014,20725.766376
1707.128881,-1072.533697,3478.967927,17024.736666
1707.129198,3217.601092,11769.274478,11695.253884
1707.129515,11491.432470,15988.448347,6809.894666
1707.129833,13713.109414,19985.560434,-4663.297435
1707.130150,16700.881856,18875.251521,-1184.329507
1707.130467,16547.662757,13545.768739,3256.906145
1707.130784,11721.261119,-0.000000,4737.318029
1707.131102,7507.735880,-9696.697840,15248.242405
1707.131419,459.657299,-10362.883188,14582.057057
1707.131736,-1838.629195,-6661.853478,10436.903782
1707.132054,-3370.820191,-4959.379811,9474.636058
1707.132371,-5362.668486,-8882.471304,12583.501014
1707.132688,-12563.966167,-6883.915261,6513.812290
1707.133006,-12793.794817,-1998.556043,10510.924376
1707.133323,-9652.803275,-3182.885551,20133.601622
1707.133640,-6665.030833,-1406.391290,17987.004391
1707.133957,-1762.019645,-1184.329507,19541.436869
1707.134275,-842.705048,2442.679609,15988.448347
1707.134592,3217.601092,8660.409521,12953.603985
1707.134909,9806.022374,12731.542202,11177.109724
1707.135227,12104.308868,17542.880825,0.000000
1707.135544,14555.814462,16654.633695,-3997.112087
1707.135861,14402.595362,13989.892304,1036.288319
1707.136179,11108.384721,-2590.720797,6365.771101
1707.136496,7354.516781,-14063.912898,16876.695478
1707.136813,1378.971896,-13027.624579,11991.336260
1707.137130,-1608.800546,-9326.594869,9474.636058
1707.137448,-3064.381992,-5329.482782,8438.347739
1707.137765,-5822.325785,-4515.256246,8586.388927
1707.138082,-11874.480219,-4959.379811,5107.421000
1707.138400,-15858.176809,2294.638420,2442.679609
1707.138717,-13023.623466,-2220.617826,18431.127956
1707.139034,-11721.261119,1110.308913,9400.615463
1707.139352,-7048.078582,-2738.761985,17172.777854
1707.139669,-5669.106685,-9696.697840,19097.313304
1707.139986,-4979.620737,-4885.359217,20799.786970
1707.140303,3524.039291,3701.029710,16210.510130
1707.140621,7048.078582,14063.912898,8290.306550
1707.140938,12870.404366,13471.748144,148.041188
1707.141255,15781.567259,14137.933492,3478.967927
1707.141573,15781.567259,7920.203579,2738.761985
1707.141890,16011.395908,2516.700203,2516.700203
1707.142207,12410.747068,-3478.967927,2886.803174
1707.142524,7814.174080,-8660.409521,11177.109724
1707.142842,5745.716235,-6661.853478,8586.388927
1707.143159,2068.457845,518.144159,1036.288319
1707.143476,-3524.039291,-3256.906145,0.000000
1707.143794,-8656.879127,-2368.659014,-1702.473667
1707.144111,-9652.803275,-4959.379811,6957.935855
1707.144428,-9652.803275,-3923.091493,10955.047942
1707.144746,-9882.631924,-3256.906145,10510.924376
1707.145063,-7354.516781,-12361.439231,20873.807564
1707.145380,-10112.460574,-16728.654289,25167.002028
1707.145697,-2221.676944,-8216.285956,28497.928767
1707.146015,-383.047749,9474.636058,14211.954086
1707.146332,6281.983084,14508.036463,5699.585753
1707.146649,9806.022374,14730.098246,4811.338623
1707.146967,11797.870669,18505.148550,3701.029710
1707.147284,12870.404366,11547.212695,1110.308913
1707.147601,10495.508323,5181.441594,-592.164754
1707.147919,5286.058936,-9696.697840,4515.256246
1707.148236,1302.362347,-12509.480420,13915.871710
1707.148553,2068.457845,-7328.038826,11473.192101
1707.148870,-229.828649,-2812.782580,2294.638420
1707.149188,-4443.353888,-4145.153275,1184.329507
1707.149505,-7660.954980,-6735.874072,4737.318029
1707.149822,-10112.460574,-4959.379811,9770.718434
1707.150140,-10495.508323,-2590.720797,8660.409521
1707.150457,-8273.831378,-5551.544565,12879.583391
1707.150774,-8580.269578,-11251.130318,20799.786970
1707.151092,-2987.772442,-13619.789333,30274.423028
1707.151409,-1608.800546,888.247130,19763.498651
1707.151726,2987.772442,16506.592507,9844.739029
1707.152043,11338.213370,17542.880825,6439.791695
1707.152361,13483.280765,17394.839637,6661.853478
1707.152678,17390.367805,18727.210333,2664.741391
1707.152995,14555.814462,16580.613101,-2220.617826
1707.153313,13023.623466,2442.679609,-296.082377
1707.153630,7737.564530,-12657.521608,11991.336260
1707.153947,5132.839837,-12065.356855,19467.416275
1707.154264,6205.373534,-1554.432478,6957.935855
1707.154582,1685.410096,3627.009116,-4145.153275
1707.154899,-2068.457845,-6069.688724,4663.297435
1707.155216,-7967.393179,-12065.356855,12435.459826
1707.155534,-10112.460574,-3849.070898,8956.491898
1707.155851,-9576.193725,-1036.288319,10214.842000
1707.156168,-8120.612279,-6587.832884,17987.004391
1707.156486,-6358.592633,-9400.615463,24056.693115
1707.156803,-2298.286494,-2368.659014,24500.816680
1707.157120,-995.924147,12213.398043,9474.636058
1707.157437,4826.401637,16358.551318,7105.977043
1707.157755,5745.716235,14508.036463,6587.832884
1707.158072,8733.488677,16284.530724,6069.688724
1707.158389,9806.022374,16580.613101,-1480.411884
1707.158707,4749.792088,7698.141797,-296.082377
1707.159024,1302.362347,-11621.233289,12583.501014
1707.159341,-2451.505594,-16432.571912,21688.034101
1707.159659,-2068.457845,-9030.512492,12213.398043
1707.159976,-2145.067394,-222.061783,3997.112087
1707.160293,-7584.345430,-2146.597232,74.020594
1707.160610,-9806.022374,-8586.388927,8882.471304
1707.160928,-12257.527968,-7402.059420,10510.924376
1707.161245,-13100.233016,518.144159,9474.636058
1707.161562,-12410.747068,2220.617826,6143.709319
1707.161880,-6818.249932,-4145.153275,21539.992912
1707.162197,-229.828649,-10066.800811,27535.661042
1707.162514,-1072.533697,2368.659014,20207.622217
1707.162832,1225.752797,11695.253884,7994.224174
1707.163149,9959.241474,15618.345376,5699.585753
1707.163466,12257.527968,16728.654289,4737.318029
1707.163783,19841.873398,11103.089130,7031.956449
1707.164101,12717.185267,9770.718434,-5551.544565
1707.164418,12563.966167,2812.782580,1998.556043
1707.164735,10725.336972,-12287.418637,12213.398043
1707.165053,7660.954980,-14730.098246,21095.869347
1707.165370,8580.269578,-8734.430116,12139.377449
1707.165687,2068.457845,4663.297435,-2220.617826
1707.166004,-3140.991542,592.164754,-4293.194464
1707.166322,-5209.449386,-6957.935855,5773.606348
1707.166639,-7201.297681,-6143.709319,8882.471304
1707.166956,-7048.078582,740.205942,5181.441594
1707.167274,-5975.544884,-2738.761985,11251.130318
1707.167591,-3830.477490,-13101.645173,25537.104999
1707.167908,-2911.162892,-13619.789333,29386.175897
1707.168226,-1149.143247,666.185348,19763.498651
1707.168543,2681.334243,12731.542202,8142.265362
1707.168860,6665.030833,15248.242405,6217.729913
1707.169177,10648.727422,14211.954086,7624.121203
1707.169495,14096.157163,14211.954086,-2072.576638
1707.169812,10801.946522,10214.842000,-5181.441594
1707.170129,8580.269578,-4737.318029,4737.318029
1707.170447,3294.210641,-16358.551318,15322.262999
1707.170764,3753.867940,-14063.912898,15174.221811
1707.171081,3447.429741,-2886.803174,4737.318029
1707.171399,-2528.115143,-1702.473667,-2368.659014
1707.171716,-6435.202183,-4071.132681,1406.391290
1707.172033,-9729.412825,-8660.409521,7772.162391
1707.172350,-11951.089769,-2294.638420,7254.018232
1707.172668,-12947.013916,2146.597232,6439.791695
1707.172985,-12870.404366,-2146.597232,12583.501014
1707.173302,-8273.831378,-10288.862594,23242.466579
1707.173620,-5822.325785,-13175.665768,29164.114115
1707.173937,-6435.202183,-1702.473667,19763.498651
1707.174254,-2068.457845,12361.439231,12287.418637
1707.174571,4979.620737,16284.530724,10362.883188
1707.174889,9039.926876,16136.489536,9918.759623
1707.175206,13789.718964,12657.521608,3701.029710
1707.175523,9729.412825,14582.057057,-3108.864956
1707.175841,8580.269578,1998.556043,1184.329507
1707.176158,9346.365076,-11621.233289,14211.954086
1707.176475,8656.879127,-9178.553681,17468.860231
1707.176793,9116.536426,-1110.308913,5181.441594
1707.177110,1915.238745,4589.276840,-4663.297435
1707.177427,-3064.381992,-4959.379811,2072.576638
1707.177744,-6971.469032,-12361.439231,8290.306550
1707.178062,-9193.145976,-1998.556043,5847.626942
1707.178379,-9806.022374,1702.473667,2738.761985
1707.178696,-9576.193725,-3701.029710,13175.665768
1707.179014,-5822.325785,-16654.633695,28497.928767
1707.179331,-4979.620737,-14434.015869,31236.690752
1707.179648,-5822.325785,-1998.556043,22354.219448
1707.179966,153.219100,12731.542202,17320.819043
1707.180283,5515.887586,16358.551318,10658.965565
1707.180600,9959.241474,23168.445985,3627.009116
1707.180917,14402.595362,22206.178260,-3775.050304
1707.181235,9882.631924,17542.880825,-8808.450710
1707.181552,7507.735880,-1998.556043,1702.473667
1707.181869,8120.612279,-16728.654289,14359.995275
1707.182187,2911.162892,-10658.965565,9918.759623
1707.182504,4979.620737,-3923.091493,4589.276840
1707.182821,-2451.505594,-4293.194464,5625.565159
1707.183139,-8350.440928,-10881.027347,5329.482782
1707.183456,-11031.775171,-11695.253884,9918.759623
1707.183773,-12640.575717,-5255.462188,11991.336260
1707.184090,-12717.185267,-1036.288319,13767.830521
1707.184408,-8044.002729,-74.020594,14211.954086
1707.184725,-995.924147,-6143.709319,27091.537477
1707.185042,5439.278036,-3552.988522,27017.516883
1707.185360,2374.896044,4885.359217,14211.954086
1707.185677,4903.011187,18283.086767,5033.400406
1707.185994,17160.539155,23760.610738,-444.123565
1707.186311,14402.595362,27905.764013,-9770.718434
1707.186629,19535.435199,11547.212695,-3701.029710
1707.186946,7967.393179,2812.782580,-4441.235652
1707.187264,3370.820191,-7624.121203,9992.780217
1707.187581,5898.935335,-22354.219448,18653.189738
1707.187898,536.266849,-15914.427753,16580.613101
1707.188216,2374.896044,-10362.883188,14211.954086
1707.188533,-5132.839837,-2738.761985,4515.256246
1707.188851,-11644.651570,-6661.853478,5255.462188
1707.189168,-10878.556072,-9030.512492,12361.439231
1707.189486,-9959.241474,-4219.173869,11991.336260
1707.189803,-5515.887586,5107.421000,11473.192101
1707.190120,-1838.629195,4589.276840,12657.521608
1707.190438,2145.067394,-2516.700203,20281.642811
1707.190755,3677.258390,-3034.844362,18579.169144
1707.191073,2451.505594,8142.265362,11547.212695
1707.191390,6971.469032,21021.848753,2812.782580
1707.191708,13253.452115,20133.601622,-2220.617826
1707.192025,12640.575717,13175.665768,-4663.297435
1707.192342,10342.289223,4589.276840,-740.205942
1707.192660,3600.648841,-1702.473667,4737.318029
1707.192977,0.000000,-12287.418637,14211.954086
1707.193295,-4136.915689,-19763.498651,15914.427753
1707.193612,-9039.926876,-15322.262999,16580.613101
1707.193930,-9576.193725,-10362.883188,13175.665768
1707.194247,-16930.710506,-4959.379811,9104.533087
1707.194565,-18233.072852,-5107.421000,10955.047942
1707.194882,-12563.966167,-5847.626942,19023.292709
1707.195199,-10189.070123,3108.864956,11621.233289
1707.195517,-3140.991542,7031.956449,16580.613101
1707.195834,-612.876398,8512.368333,10140.821405
1707.196152,7507.735880,5181.441594,12287.418637
1707.196469,13176.842566,-0.000000,13841.851115
1707.196787,9422.974625,11177.109724,8956.491898
1707.197104,14785.643111,21095.869347,740.205942
1707.197421,22906.255390,20281.642811,-8734.430116
1707.197739,16471.053207,7698.141797,-3997.112087
1707.198056,12947.013916,-10510.924376,12213.398043
1707.198374,2681.334243,-5995.668130,5329.482782
1707.198691,0.000000,-4737.318029,6217.729913
1707.199009,-459.657299,-16136.489536,15174.221811
1707.199326,-4749.792088,-21021.848753,24796.899057
1707.199643,-6511.811733,-10362.883188,15988.448347
1707.199961,-11031.775171,1850.514855,5551.544565
1707.200278,-14172.766713,666.185348,8734.430116
1707.200596,-6128.763984,-1554.432478,14508.036463
1707.200913,-1915.238745,6661.853478,12583.501014
1707.201231,1762.019645,9030.512492,10955.047942
1707.201548,612.876398,6291.750507,8956.491898
1707.201865,5286.058936,-1480.411884,16654.633695
1707.202183,11414.822920,-1406.391290,14285.974681
1707.202500,10955.165621,7772.162391,10362.883188
1707.202818,12487.356617,16950.716072,888.247130
1707.203135,15704.957709,13767.830521,-5699.585753
1707.203453,11951.089769,2072.576638,-2220.617826
1707.203770,6511.811733,-5551.544565,3404.947333
1707.204088,-1149.143247,-5995.668130,6069.688724
1707.204405,-4749.792088,-9178.553681,6809.894666
1707.204722,-9116.536426,-15914.427753,11251.130318
1707.205040,-15475.129060,-17912.983796,18727.210333
1707.205357,-16317.834107,-11991.336260,15174.221811
1707.205675,-20301.530697,-6809.894666,12213.398043
1707.205992,-13866.328514,-7846.182985,20503.704593
1707.206310,-13789.718964,-1110.308913,6883.915261
1707.206627,-6971.469032,1924.535449,18653.189738
1707.206944,-2145.067394,2738.761985,20873.807564
1707.207262,1685.410096,10807.006753,10955.047942
1707.207579,14325.985813,12879.583391,9326.594869
1707.207897,16624.272307,12287.418637,1110.308913
1707.208214,15168.690860,16876.695478,-370.102971
1707.208532,15704.957709,20059.581028,0.000000
1707.208849,17160.539155,14952.160028,-9252.574275
1707.209166,12257.527968,2886.803174,-6439.791695
1707.209484,2221.676944,-11399.171507,7550.100608
1707.209801,-6741.640382,-16950.716072,14804.118840
1707.210119,-7354.516781,-13693.809927,13989.892304
1707.210436,-10572.117872,-15026.180623,11547.212695
1707.210754,-12487.356617,-19689.478057,23686.590144
1707.211071,-11874.480219,-16506.592507,24574.837274
1707.211389,-12257.527968,-4293.194464,15840.407159
1707.211706,-9652.803275,2072.576638,12731.542202
1707.212023,-3064.381992,8512.368333,10658.965565
1707.212341,4749.792088,10955.047942,13767.830521
1707.212658,11108.384721,13545.768739,12065.356855
1707.212976,15168.690860,19541.436869,2368.659014
1707.213293,15168.690860,20577.725188,-5625.565159
1707.213611,22216.769442,14582.057057,-1702.473667
1707.213928,20454.749797,8660.409521,2664.741391
1707.214245,17160.539155,3923.091493,3404.947333
1707.214563,9576.193725,-962.267725,1850.514855
1707.214880,1149.143247,-4071.132681,3108.864956
1707.215198,-4979.620737,-15692.365970,10510.924376
1707.215515,-11491.432470,-15322.262999,18653.189738
1707.215833,-17160.539155,-12953.603985,16506.592507
1707.216150,-20301.530697,-11769.274478,15396.283594
1707.216467,-19535.435199,-21243.910535,25092.981434
1707.216785,-20914.407095,-15322.262999,22280.198854
1707.217102,-13023.623466,-7031.956449,27091.537477
1707.217420,-6741.640382,7698.141797,17987.004391
1707.217737,612.876398,10955.047942,10658.965565
1707.218055,6971.469032,13693.809927,12583.501014
1707.218372,13559.890315,25315.043216,-1110.308913
1707.218690,19535.435199,24204.734303,-444.123565
1707.219007,25817.418283,20429.683999,-5995.668130
1707.219324,26966.561530,17912.983796,-5921.647536
1707.219642,22369.988542,2146.597232,-4367.215058
1707.219959,12180.918418,-3182.885551,2294.638420
1707.220277,5592.497135,-5699.585753,8068.244768
1707.220594,-5132.839837,-14508.036463,7994.224174
1707.220912,-11797.870669,-18135.045579,11843.295072
1707.221229,-14479.204912,-16210.510130,23168.445985
1707.221546,-19612.044749,-15026.180623,19023.292709
1707.221864,-19382.216099,-17320.819043,10584.944971
1707.222181,-17390.367805,-21317.931130,28423.908173
1707.222499,-11797.870669,-16580.613101,39304.935520
1707.222816,-4519.963438,4589.276840,13101.645173
1707.223134,4136.915689,23982.672521,3034.844362
1707.223451,7814.174080,21095.869347,2072.576638
1707.223768,9652.803275,22798.343014,2664.741391
1707.224086,16700.881856,23686.590144,-3701.029710
1707.224403,22676.426741,31310.711347,-15692.365970
1707.224721,22293.378992,18209.066173,-11177.109724
1707.225038,17850.025103,-2886.803174,1850.514855
1707.225356,8350.440928,-13841.851115,8586.388927
1707.225673,1991.848295,-11325.150913,17987.004391
1707.225990,-10418.898773,-19985.560434,14878.139434
1707.226308,-13636.499864,-16876.695478,8734.430116
1707.226625,-12487.356617,-17542.880825,26795.455100
1707.226943,-22216.769442,-14211.954086,13693.809927
1707.227260,-24591.665486,-16210.510130,8142.265362
1707.227578,-20378.140247,-19245.354492,26573.393318
1707.227895,-12104.308868,-22132.157666,38638.750172
1707.228213,-3753.867940,5625.565159,11103.089130
1707.228530,4903.011187,25759.166782,-1258.350101
1707.228847,7660.954980,25463.084405,-2368.659014
1707.229165,14249.376263,17394.839637,6439.791695
1707.229482,17007.320056,24278.754898,-6661.853478
1707.229800,25281.151434,29830.299463,-14137.933492
1707.230117,28498.752526,19245.354492,-10362.883188
1707.230435,20071.702048,2886.803174,-3108.864956
1707.230752,9422.974625,-16432.571912,5625.565159
1707.231069,3830.477490,-18357.107362,31014.628970
1707.231387,-9039.926876,-17098.757260,14656.077652
1707.231704,-14249.376263,-15248.242405,7254.018232
1707.232022,-10878.556072,-16950.716072,32198.958477
1707.232339,-16011.395908,-14434.015869,23834.631332
1707.232657,-17773.415554,-14137.933492,12213.398043
1707.232974,-10189.070123,-15618.345376,25315.043216
1707.233291,-7431.126331,-7920.203579,26425.352129
1707.233609,1455.581446,13915.871710,8364.327145
1707.233926,8886.707777,29460.196492,-9992.780217
1707.234244,8350.440928,22354.219448,1258.350101
1707.234561,13253.452115,17468.860231,-9622.677246
1707.234879,21603.893044,24870.919651,-14952.160028
1707.235196,20837.797546,20059.581028,-15100.201217
1707.235514,15781.567259,-2294.638420,-444.123565
1707.235831,10725.336972,-16432.571912,10658.965565
1707.236148,-995.924147,-13323.706956,16210.510130
1707.236466,-6818.249932,-19541.436869,32643.082042
1707.236783,-16394.443657,-22206.178260,21095.869347
1707.237101,-14019.547613,-22428.240043,24278.754898
1707.237418,-13406.671215,-10140.821405,24130.713709
1707.237736,-15475.129060,1184.329507,13619.789333
1707.238053,-11874.480219,1776.494261,11843.295072
1707.238370,-7124.688131,2368.659014,22206.178260
1707.238688,-2298.286494,15470.304188,3552.988522
1707.239005,3907.087040,27757.722825,-11029.068536
1707.239323,6741.640382,19171.333898,-11473.192101
1707.239640,3677.258390,3182.885551,-1036.288319
1707.239958,9652.803275,5033.400406,3627.009116
1707.240275,7354.516781,14730.098246,-12065.356855
1707.240592,10418.898773,-1776.494261,14063.912898
1707.240910,7048.078582,-18875.251521,29756.278868
1707.241227,383.047749,-16062.468941,22872.363608
1707.241545,1072.533697,-12435.459826,24130.713709
1707.241862,-5745.716235,-7994.224174,19023.292709
1707.242180,-4596.572988,-14804.118840,23168.445985
1707.242497,-2068.457845,2516.700203,18949.272115
1707.242815,995.924147,11399.171507,10510.924376
1707.243132,-1149.143247,22872.363608,-5773.606348
1707.243449,2451.505594,16580.613101,2146.597232
1707.243767,7124.688131,12953.603985,-1184.329507
1707.244084,5898.935335,14582.057057,-13175.665768
1707.244402,7584.345430,2590.720797,-6069.688724
1707.244719,1072.533697,-10288.862594,1110.308913
1707.245037,459.657299,-15988.448347,14211.954086
1707.245354,995.924147,-11473.192101,19689.478057
1707.245671,-2681.334243,-9474.636058,19985.560434
1707.245989,612.876398,-10140.821405,26277.310941
1707.246306,3217.601092,-8512.368333,31014.628970
1707.246624,4290.134789,1480.411884,24944.940245
1707.246941,5439.278036,7920.203579,16432.571912
1707.247259,4366.744339,12065.356855,5625.565159
1707.247576,7890.783629,11325.150913,8216.285956
1707.247893,9116.536426,16210.510130,1332.370696
1707.248211,6665.030833,20947.828159,-8734.430116
1707.248528,7048.078582,16432.571912,-11843.295072
1707.248846,6052.154434,8586.388927,-7846.182985
1707.249163,1762.019645,-74.020594,-7179.997637
1707.249481,-2911.162892,-6735.874072,-222.061783
1707.249798,-12947.013916,-18949.272115,10807.006753
1707.250116,-16777.491406,-28942.052332,23760.610738
1707.250433,-17696.806004,-22502.260637,27461.640448
1707.250750,-11721.261119,-17468.860231,31236.690752
1707.251068,-6052.154434,-14952.160028,33605.349767
1707.251385,-1455.581446,-5255.462188,28794.011144
1707.251703,3447.429741,4737.318029,20873.807564
1707.252020,8197.221829,14656.077652,10955.047942
1707.252338,9652.803275,17690.922014,3552.988522
1707.252655,7967.393179,18653.189738,-2664.741391
1707.252972,9806.022374,22280.198854,-10658.965565
1707.253290,11874.480219,23464.528361,-10214.842000
1707.253607,11568.042020,17690.922014,-14211.954086
1707.253925,9959.241474,8216.285956,-15026.180623
1707.254242,6818.249932,-1258.350101,-3849.070898
1707.254560,-1991.848295,-12435.459826,8216.285956
1707.254877,-12257.527968,-23390.507767,17246.798449
1707.255194,-19152.387450,-31162.670158,24870.919651
1707.255512,-17773.415554,-28423.908173,35455.864622
1707.255829,-15321.909960,-20355.663405,35974.008781
1707.256147,-11797.870669,-11917.315666,27165.558071
1707.256464,-5592.497135,-6809.894666,21317.931130
1707.256782,1532.190996,5107.421000,21465.972318
1707.257099,5362.668486,13471.748144,10140.821405
1707.257416,8273.831378,20133.601622,444.123565
1707.257734,10342.289223,23686.590144,-9770.718434
1707.258051,9959.241474,22872.363608,-15322.262999
1707.258369,10955.165621,18653.189738,-9030.512492
1707.258686,11338.213370,16210.510130,-14952.160028
1707.259004,11414.822920,6883.915261,-3775.050304
1707.259321,5439.278036,-3627.009116,5403.503377
1707.259639,-1762.019645,-13989.892304,10510.924376
1707.259956,-9039.926876,-25833.187376,20873.807564
1707.260273,-13636.499864,-29386.175897,32198.958477
1707.260591,-15628.348159,-31236.690752,37232.358883
1707.260908,-12793.794817,-20577.725188,31828.855506
1707.261226,-4749.792088,-7698.141797,27905.764013
1707.261543,3294.210641,9474.636058,13471.748144
1707.261861,10342.289223,18949.272115,740.205942
1707.262178,14479.204912,18875.251521,-7402.059420
1707.262495,13176.842566,20429.683999,-13841.851115
1707.262813,12870.404366,20207.622217,-12583.501014
1707.263130,11261.603821,14359.995275,-13027.624579
1707.263448,8886.707777,9400.615463,-6069.688724
1707.263765,4903.011187,4589.276840,4811.338623
1707.264083,306.438199,-2072.576638,11621.233289
1707.264400,-6894.859482,-10955.047942,9918.759623
1707.264717,-8273.831378,-15322.262999,20503.704593
1707.265035,-10418.898773,-19393.395680,28571.949361
1707.265352,-10035.851024,-26647.413912,34567.617491
1707.265670,-6205.373534,-20651.745782,35159.782245
1707.265987,-2451.505594,-9474.636058,30496.484810
1707.266305,4213.525239,4293.194464,20059.581028
1707.266622,11951.089769,15840.407159,2886.803174
1707.266940,16471.053207,26351.331535,-7698.141797
1707.267257,13406.671215,31458.752535,-13619.789333
1707.267574,13483.280765,26647.413912,-19837.519246
1707.267892,12487.356617,21243.910535,-21836.075289
1707.268209,9499.584175,7846.182985,-5403.503377
1707.268527,1838.629195,-5181.441594,2960.823768
1707.268844,-5669.106685,-11695.253884,10214.842000
1707.269162,-11797.870669,-17246.798449,15618.345376
1707.269479,-11261.603821,-19911.539840,25759.166782
1707.269796,-12640.575717,-20577.725188,27165.558071
1707.270114,-17696.806004,-21317.931130,25092.981434
1707.270431,-13023.623466,-24500.816680,40711.326810
1707.270749,-12180.918418,-17616.901420,37306.379477
1707.271066,-5592.497135,-4219.173869,26869.475695
1707.271384,3983.696590,11251.130318,16580.613101
1707.271701,9269.755526,27979.784608,0.000000
1707.272018,11874.480219,37824.523636,-17246.798449
1707.272336,13866.328514,33679.370361,-11029.068536
1707.272653,17696.806004,30940.608376,-15988.448347
1707.272971,18539.511052,25463.084405,-24130.713709
1707.273288,15781.567259,12509.480420,-11695.253884
1707.273606,1915.238745,-4367.215058,1406.391290
1707.273923,-7354.516781,-21465.972318,16136.489536
1707.274241,-16241.224558,-31014.628970,21317.931130
1707.274558,-14402.595362,-25241.022622,32865.143825
1707.274875,-20607.968896,-20577.725188,25611.125593
1707.275193,-19688.654299,-24796.899057,32569.061448
1707.275510,-16700.881856,-28497.928767,42339.779882
1707.275828,-12257.527968,-14804.118840,33531.329173
1707.276145,-2145.067394,-4219.173869,22650.301825
1707.276463,4290.134789,12065.356855,16358.551318
1707.276780,9422.974625,27905.764013,-3404.947333
1707.277097,11338.213370,37750.503042,-15322.262999
1707.277415,20071.702048,39971.120868,-16728.654289
1707.277732,23978.789087,35233.802839,-18505.148550
1707.278050,25204.541884,28942.052332,-21836.075289
1707.278367,22599.817191,17690.922014,-15692.365970
1707.278685,11031.775171,-2368.659014,-7846.182985
1707.279002,-995.924147,-25981.228564,15396.283594
1707.279319,-6971.469032,-35899.988187,31384.731941
1707.279637,-12563.966167,-34345.555709,33013.185013
1707.279954,-17926.634653,-32050.917289,36122.049970
1707.280272,-15398.519510,-31532.773129,40267.203245
1707.280589,-14632.424012,-23464.528361,35233.802839
1707.280907,-4060.306139,-11621.233289,30274.423028
1707.281224,-2757.943793,3478.967927,12139.377449
1707.281542,2834.553343,15544.324782,10732.986159
1707.281859,7660.954980,28571.949361,-7328.038826
1707.282176,11644.651570,38268.647201,-24796.899057
1707.282494,17160.539155,31384.731941,-16506.592507
1707.282811,17543.586904,25981.228564,-18653.189738
1707.283129,20914.407095,17172.777854,-20947.828159
1707.283446,11644.651570,9918.759623,-12731.542202
1707.283764,459.657299,-12065.356855,6513.812290
1707.284081,-4749.792088,-33235.246796,21095.869347
1707.284398,-10189.070123,-33383.287984,28053.805202
1707.284716,-11261.603821,-26277.310941,34641.638086
1707.285033,-15398.519510,-28423.908173,43154.006419
1707.285351,-12640.575717,-25537.104999,36640.194129
1707.285668,-4749.792088,-11843.295072,27165.558071
1707.285986,0.000000,9918.759623,23464.528361
1707.286303,229.828649,22058.137072,3404.947333
1707.286620,9346.365076,24352.775492,-2812.782580
1707.286938,6818.249932,32791.123231,-18505.148550
1707.287255,9499.584175,31680.814318,-20725.766376
1707.287573,10342.289223,24648.857869,-24648.857869
1707.287890,14402.595362,12213.398043,-18949.272115
1707.288208,11338.213370,-2072.576638,-4515.256246
1707.288525,-1532.190996,-8438.347739,1776.494261
1707.288842,-11108.384721,-20651.745782,12361.439231
1707.289160,-12640.575717,-28942.052332,30422.464216
1707.289477,-10725.336972,-31458.752535,41821.635723
1707.289794,-15781.567259,-25981.228564,42635.862259
1707.290112,-13253.452115,-21688.034101,40341.223839
1707.290429,-7814.174080,-12657.521608,29238.134709
1707.290746,3600.648841,2886.803174,26203.290347
1707.291064,9959.241474,17320.819043,20355.663405
1707.291381,10112.460574,29756.278868,-2590.720797
1707.291698,14862.252661,37898.544230,-19689.478057
1707.292016,12487.356617,39082.873738,-20799.786970
1707.292333,17160.539155,30348.443622,-18357.107362
1707.292650,17773.415554,23834.631332,-26425.352129
1707.292968,15245.300410,7550.100608,-15766.386565
1707.293285,4749.792088,-12879.583391,2442.679609
1707.293602,-8656.879127,-25907.207970,13323.706956
1707.293919,-13253.452115,-33605.349767,30792.567187
1707.294237,-11874.480219,-37972.564825,40711.326810
1707.294554,-13789.718964,-30792.567187,49149.674549
1707.294871,-10801.946522,-21614.013506,48705.550984
1707.295189,-7201.297681,-8660.409521,35529.885216
1707.295506,2374.896044,9178.553681,23242.466579
1707.295823,13636.499864,21984.116477,13989.892304
1707.296141,18462.901502,29682.258274,-814.226536
1707.296458,16241.224558,39082.873738,-25018.960840
1707.296775,15475.129060,38120.606013,-23612.569550
1707.297093,18386.291952,31680.814318,-23242.466579
1707.297410,21833.721693,20503.704593,-23686.590144
1707.297727,16164.615008,10584.944971,-14582.057057
1707.298045,4596.572988,-6809.894666,3256.906145
1707.298362,-8886.707777,-22576.281231,13545.768739
1707.298679,-12793.794817,-32643.082042,29386.175897
1707.298997,-12104.308868,-33383.287984,41377.512158
1707.299314,-14479.204912,-27387.619854,45226.583056
1707.299631,-7890.783629,-21095.869347,47817.303853
1707.299949,-3370.820191,-4441.235652,28794.011144
1707.300266,6665.030833,16506.592507,17542.880825
1707.300583,13253.452115,27239.578666,4293.194464
1707.300900,17620.196454,30940.608376,-7328.038826
1707.301218,12640.575717,33605.349767,-20873.807564
1707.301535,9499.584175,30570.505405,-22502.260637
1707.301852,9422.974625,25611.125593,-26351.331535
1707.302170,10189.070123,16802.674883,-17172.777854
1707.302487,8656.879127,1776.494261,-962.267725
1707.302804,-2681.334243,-11695.253884,10881.027347
1707.303122,-11261.603821,-22428.240043,19467.416275
1707.303439,-11031.775171,-27387.619854,36788.235317
1707.303756,-7660.954980,-29756.278868,41673.594535
1707.304074,-4596.572988,-22280.198854,48557.509795
1707.304391,-1302.362347,-7550.100608,39601.017897
1707.304708,2374.896044,8216.285956,21614.013506
1707.305026,11031.775171,23982.672521,5033.400406
1707.305343,18156.463303,29016.072926,-6883.915261
1707.305660,15475.129060,29756.278868,-16506.592507
1707.305978,13559.890315,24426.796086,-26055.249158
1707.306295,7967.393179,14730.098246,-26277.310941
1707.306612,4519.963438,4959.379811,-10584.944971
1707.306930,612.876398,-4219.173869,2590.720797
1707.307247,-1455.581446,-9770.718434,12065.356855
1707.307564,-10572.117872,-14804.118840,20651.745782
1707.307881,-12640.575717,-18727.210333,30052.361245
1707.308199,-10035.851024,-16506.592507,36344.111752
1707.308516,-6894.859482,-15248.242405,35899.988187
1707.308833,-1149.143247,-9326.594869,36714.214723
1707.309151,1915.238745,8068.244768,28275.866984
1707.309468,7660.954980,18579.169144,10955.047942
1707.309785,16930.710506,26351.331535,-7031.956449
1707.310103,17007.320056,23686.590144,-13397.727550
1707.310420,16777.491406,17542.880825,-14508.036463
1707.310737,12487.356617,9252.574275,-19615.457463
1707.311055,6741.640382,2368.659014,-15322.262999
1707.311372,1838.629195,-6809.894666,4367.215058
1707.311689,-3447.429741,-10658.965565,15248.242405
1707.312007,-7737.564530,-10584.944971,22502.260637
1707.312324,-10955.165621,-12065.356855,27387.619854
1707.312641,-11031.775171,-9844.739029,26943.496289
1707.312959,-9959.241474,-12805.562797,26055.249158
1707.313276,-6818.249932,-7772.162391,24130.713709
1707.313593,-306.438199,-296.082377,26351.331535
1707.313911,2834.553343,7402.059420,18727.210333
1707.314228,11951.089769,13027.624579,3108.864956
1707.314545,17850.025103,13841.851115,-4515.256246
1707.314863,14785.643111,11621.233289,-8808.450710
1707.315180,18999.168350,5107.421000,-7846.182985
1707.315497,20224.921147,7846.182985,-9474.636058
1707.315814,16164.615008,8364.327145,-6365.771101
1707.316132,12027.699319,3849.070898,5699.585753
1707.316449,3064.381992,3330.926739,11103.089130
1707.316766,-1455.581446,-2590.720797,18283.086767
1707.317084,-5745.716235,-2368.659014,18283.086767
1707.317401,-11261.603821,-3627.009116,14137.933492
1707.317718,-9269.755526,-7920.203579,17616.901420
1707.318036,-6358.592633,-11177.109724,24426.796086
1707.318353,-5286.058936,-8438.347739,23686.590144
1707.318670,-3140.991542,-7179.997637,18653.189738
1707.318988,2374.896044,-4589.276840,13619.789333
1707.319305,5132.839837,1776.494261,2960.823768
1707.319622,8197.221829,9622.677246,-3256.906145
1707.319940,12717.185267,16950.716072,-7476.080014
1707.320257,13176.842566,18357.107362,-9326.594869
1707.320574,10955.165621,17098.757260,-4663.297435
1707.320892,7507.735880,11917.315666,3552.988522
1707.321209,2681.334243,6069.688724,5995.668130
1707.321526,-1225.752797,3182.885551,8438.347739
1707.321844,-3447.429741,-4515.256246,15544.324782
1707.322161,-6511.811733,-8660.409521,17838.963202
1707.322478,-6665.030833,-10955.047942,22724.322419
1707.322795,-5132.839837,-11177.109724,26647.413912
1707.323113,-4366.744339,-6735.874072,22354.219448
1707.323430,-383.047749,-444.123565,15988.448347
1707.323747,2068.457845,6365.771101,8364.327145
1707.324065,4596.572988,11843.295072,296.082377
1707.324382,7660.954980,16728.654289,-5107.421000
1707.324699,9499.584175,18579.169144,-8808.450710
1707.325017,8733.488677,15766.386565,-7772.162391
1707.325334,6052.154434,8660.409521,888.247130
1707.325651,1915.238745,2368.659014,8956.491898
1707.325969,-689.485948,222.061783,10214.842000
1707.326286,-2145.067394,-1924.535449,15026.180623
1707.326603,-3294.210641,-6809.894666,20503.704593
1707.326921,-2911.162892,-8734.430116,25537.104999
1707.327238,-2681.334243,-5995.668130,24352.775492
1707.327555,-383.047749,-1702.473667,21095.869347
1707.327873,2528.115143,4293.194464,13841.851115
1707.328190,7201.297681,8808.450710,10140.821405
1707.328507,9806.022374,11029.068536,4145.153275
1707.328825,10955.165621,13101.645173,-1332.370696
1707.329142,12257.527968,12953.603985,-814.226536
1707.329459,10955.165621,9844.739029,148.041188
1707.329776,9269.755526,5477.523971,3034.844362
1707.330094,6511.811733,1998.556043,6883.915261
1707.330411,3140.991542,-222.061783,10066.800811
1707.330728,1072.533697,-2294.638420,11621.233289
1707.331046,919.314598,-3775.050304,15100.201217
1707.331363,0.000000,-4441.235652,18357.107362
1707.331680,-766.095498,-3997.112087,19837.519246
1707.331998,-306.438199,-1628.453072,18875.251521
1707.332315,0.000000,1258.350101,15470.304188
1707.332632,2681.334243,3256.906145,14359.995275
1707.332950,4673.182538,5033.400406,11843.295072
1707.333267,6588.421283,6365.771101,9104.533087
1707.333584,7814.174080,8586.388927,3627.009116
1707.333902,7814.174080,9030.512492,1480.411884
1707.334219,7584.345430,7328.038826,3775.050304
1707.334536,6665.030833,5995.668130,4293.194464
1707.334854,5439.278036,4885.359217,4367.215058
1707.335171,3294.210641,3256.906145,5477.523971
1707.335488,2451.505594,-888.247130,10881.027347
1707.335806,2221.676944,-3182.885551,13027.624579
1707.336123,1608.800546,-1998.556043,12435.459826
1707.336440,-689.485948,-740.205942,12065.356855
1707.336757,-1762.019645,-1702.473667,13249.686362
1707.337075,-1532.190996,-1776.494261,12731.542202
1707.337392,-1225.752797,-444.123565,11251.130318
1707.337709,-1302.362347,296.082377,10436.903782
1707.338027,-995.924147,-0.000000,10658.965565
1707.338344,229.828649,740.205942,10140.821405
1707.338661,1072.533697,3404.947333,8068.244768
1707.338979,1991.848295,6513.812290,5847.626942
1707.339296,2528.115143,7624.121203,4441.235652
1707.339613,4443.353888,7179.997637,4219.173869
1707.339931,4979.620737,6735.874072,3775.050304
1707.340248,4903.011187,6439.791695,4145.153275
1707.340565,4136.915689,4367.215058,5033.400406
1707.340883,3370.820191,1036.288319,8068.244768
1707.341200,1762.019645,-2294.638420,11547.212695
1707.341517,-383.047749,-3923.091493,12509.480420
1707.341835,-536.266849,-5403.503377,13545.768739
1707.342152,-229.828649,-5329.482782,13397.727550
1707.342469,1378.971896,-2812.782580,12361.439231
1707.342787,2298.286494,1110.308913,9400.615463
1707.343104,2834.553343,3923.091493,5773.606348
1707.343421,3140.991542,5477.523971,4441.235652
1707.343738,2911.162892,6439.791695,4219.173869
1707.344056,3140.991542,7920.203579,4293.194464
1707.344373,3447.429741,6587.832884,5551.544565
1707.344690,2987.772442,4663.297435,8068.244768
1707.345008,2298.286494,2590.720797,11177.109724
1707.345325,1991.848295,1554.432478,13027.624579
1707.345642,1685.410096,-0.000000,11769.274478
1707.345960,1991.848295,-1332.370696,12065.356855
1707.346277,3217.601092,-2072.576638,12435.459826
1707.346594,4749.792088,-888.247130,10066.800811
1707.346912,5898.935335,962.267725,8142.265362
1707.347229,7277.907231,2368.659014,7846.182985
1707.347546,6894.859482,2960.823768,7698.141797
1707.347864,5669.106685,4737.318029,5403.503377
1707.348181,3753.867940,5403.503377,5625.565159
1707.348498,1378.971896,4071.132681,6809.894666
1707.348816,-306.438199,3182.885551,8586.388927
1707.349133,-689.485948,1702.473667,11103.089130
1707.349450,-1608.800546,222.061783,11991.336260
1707.349768,-1991.848295,-1776.494261,13693.809927
1707.350085,-1991.848295,-2886.803174,15544.324782
1707.350402,-1225.752797,-2442.679609,15174.221811
1707.350720,-229.828649,-0.000000,13249.686362
1707.351037,-536.266849,2812.782580,10362.883188
1707.351354,2221.676944,4737.318029,9696.697840
1707.351671,2604.724693,7031.956449,7031.956449
1707.351989,3830.477490,6217.729913,6809.894666
1707.352306,4443.353888,5255.462188,7698.141797
1707.352623,3983.696590,3997.112087,7624.121203
1707.352941,3600.648841,1702.473667,8438.347739
1707.353258,2451.505594,-148.041188,10214.842000
1707.353575,2221.676944,-444.123565,11251.130318
1707.353893,2068.457845,-1036.288319,11991.336260
1707.354210,2298.286494,-0.000000,12065.356855
1707.354527,2834.553343,1628.453072,11843.295072
1707.354845,2068.457845,2960.823768,9474.636058
1707.355162,1991.848295,3849.070898,9030.512492
1707.355479,1302.362347,2738.761985,9178.553681
1707.355797,1072.533697,2516.700203,9474.636058
1707.356114,766.095498,1628.453072,9474.636058
1707.356431,995.924147,2220.617826,10362.883188
1707.356749,1455.581446,2146.597232,10584.944971
1707.357066,1608.800546,1110.308913,10658.965565
1707.357383,1455.581446,-74.020594,11769.274478
1707.357701,1685.410096,-0.000000,11621.233289
1707.358018,2604.724693,962.267725,11103.089130
1707.358335,2604.724693,2516.700203,9400.615463
1707.358652,4060.306139,2368.659014,9844.739029
1707.358970,3677.258390,2368.659014,9474.636058
1707.359287,3830.477490,2812.782580,8734.430116
1707.359604,4136.915689,2590.720797,9326.594869
1707.359922,4060.306139,2590.720797,9548.656652
1707.360239,4366.744339,2590.720797,8438.347739
1707.360556,3983.696590,2368.659014,7772.162391
1707.360874,3524.039291,1480.411884,8364.327145
1707.361191,2757.943793,222.061783,8882.471304
1707.361508,2604.724693,-518.144159,9474.636058
1707.361826,2834.553343,-74.020594,10658.965565
1707.362143,2681.334243,666.185348,10510.924376
1707.362460,3370.820191,1776.494261,9548.656652
1707.362778,3600.648841,2146.597232,9474.636058
1707.363095,4290.134789,2664.741391,9030.512492
1707.363412,3600.648841,3330.926739,8290.306550
1707.363730,4596.572988,4663.297435,7105.977043
1707.364047,5056.230287,5551.544565,6217.729913
1707.364364,5592.497135,5551.544565,5477.523971
1707.364682,5209.449386,4589.276840,5107.421000
1707.364999,4596.572988,3330.926739,6069.688724
1707.365316,3370.820191,1702.473667,6513.812290
1707.365633,2298.286494,666.185348,7550.100608
1707.365951,1378.971896,740.205942,8882.471304
1707.366268,459.657299,1332.370696,9622.677246
1707.366585,383.047749,1184.329507,9770.718434
1707.366903,306.438199,1776.494261,9918.759623
1707.367220,536.266849,3034.844362,9548.656652
1707.367537,919.314598,4441.235652,8216.285956
1707.367855,1378.971896,5699.585753,7105.977043
1707.368172,1838.629195,5995.668130,7105.977043
1707.368489,1838.629195,5255.462188,7772.162391
1707.368807,1838.629195,3775.050304,8142.265362
1707.369124,2451.505594,2960.823768,9178.553681
1707.369441,3140.991542,2516.700203,9400.615463
1707.369759,4213.525239,2368.659014,9326.594869
1707.370076,4979.620737,2590.720797,9178.553681
1707.370393,5745.716235,2886.803174,8734.430116
1707.370711,6052.154434,3849.070898,7846.182985
1707.371028,6205.373534,4071.132681,7698.141797
1707.371345,6588.421283,3923.091493,8512.368333
1707.371663,6435.202183,3552.988522,8956.491898
1707.371980,6205.373534,3330.926739,9474.636058
1707.372297,5898.935335,3182.885551,10362.883188
1707.372614,5975.544884,3478.967927,10881.027347
1707.372932,5745.716235,3182.885551,10881.027347
1707.373249,5745.716235,3330.926739,11251.130318
1707.373566,5975.544884,3627.009116,11029.068536
1707.373884,6818.249932,4367.215058,10584.944971
1707.374201,7201.297681,5255.462188,10288.862594
1707.374518,7354.516781,5921.647536,10066.800811
1707.374836,7354.516781,6217.729913,9178.553681
1707.375153,6741.640382,5699.585753,9104.533087
1707.375470,6052.154434,4145.153275,9178.553681
1707.375788,5209.449386,3108.864956,9548.656652
1707.376105,4443.353888,2072.576638,9770.718434
1707.376422,2911.162892,814.226536,10140.821405
1707.376740,2221.676944,-740.205942,11325.150913
1707.377057,536.266849,-740.205942,10881.027347
1707.377374,-76.609550,-740.205942,11103.089130
1707.377692,-1532.190996,-0.000000,11177.109724
1707.378009,-1455.581446,814.226536,11399.171507
1707.378326,-2221.676944,1184.329507,10807.006753
1707.378644,-2451.505594,1776.494261,9548.656652
1707.378961,-2757.943793,2146.597232,9104.533087
1707.379278,-2834.553343,1924.535449,9548.656652
1707.379596,-2068.457845,1036.288319,9474.636058
1707.379913,-2757.943793,-0.000000,9474.636058
1707.380230,-2374.896044,-1110.308913,10732.986159
1707.380547,-2298.286494,-1110.308913,10807.006753
1707.380865,-1455.581446,-1850.514855,12139.377449
1707.381182,-383.047749,-2368.659014,12583.501014
1707.381499,-383.047749,-222.061783,11177.109724
1707.381817,995.924147,1628.453072,9548.656652
1707.382134,1685.410096,3404.947333,7994.224174
1707.382451,1915.238745,3627.009116,6809.894666
1707.382769,2757.943793,3034.844362,5699.585753
1707.383086,2451.505594,3478.967927,4441.235652
1707.383403,2681.334243,1998.556043,5847.626942
1707.383721,2068.457845,-518.144159,6587.832884
1707.384038,1762.019645,-2072.576638,8290.306550
1707.384355,1685.410096,-3404.947333,10066.800811
1707.384673,1149.143247,-3404.947333,11473.192101
1707.384990,1838.629195,-2664.741391,12361.439231
1707.385307,2221.676944,-148.041188,10510.924376
1707.385625,3447.429741,2146.597232,8956.491898
1707.385942,4519.963438,4367.215058,7550.100608
1707.386259,5209.449386,4885.359217,6957.935855
1707.386577,6052.154434,5329.482782,5995.668130
1707.386894,6358.592633,5255.462188,5551.544565
1707.387211,7048.078582,4367.215058,6365.771101
1707.387529,6971.469032,3404.947333,6883.915261
1707.387846,7048.078582,2072.576638,8660.409521
1707.388163,6281.983084,1554.432478,8734.430116
1707.388481,5975.544884,1406.391290,9104.533087
1707.388798,6281.983084,2072.576638,8882.471304
1707.389116,6511.811733,2368.659014,8586.388927
1707.389433,6052.154434,2886.803174,8364.327145
1707.389751,6205.373534,2960.823768,7994.224174
1707.390068,5439.278036,3701.029710,7772.162391
1707.390385,5056.230287,3256.906145,8142.265362
1707.390703,5439.278036,3997.112087,8290.306550
1707.391020,4903.011187,4071.132681,8660.409521
1707.391338,4366.744339,3997.112087,9400.615463
1707.391655,4060.306139,3775.050304,9844.739029
1707.391972,3370.820191,3997.112087,10288.862594
1707.392290,3140.991542,3627.009116,10955.047942
1707.392607,2834.553343,4145.153275,11029.068536
1707.392925,2681.334243,4441.235652,10214.842000
1707.393242,2604.724693,4663.297435,10362.883188
1707.393559,2604.724693,4589.276840,10584.944971
1707.393877,2834.553343,4219.173869,10510.924376
1707.394194,2528.115143,4589.276840,9474.636058
1707.394512,2221.676944,3478.967927,10066.800811
1707.394829,1149.143247,2516.700203,11843.295072
1707.395147,766.095498,2590.720797,12139.377449
1707.395464,766.095498,3404.947333,11769.274478
1707.395781,-153.219100,4441.235652,11177.109724
1707.396099,1532.190996,3923.091493,12657.521608
1707.396416,995.924147,5477.523971,10732.986159
1707.396734,2298.286494,5477.523971,10510.924376
1707.397051,1991.848295,4959.379811,9474.636058
1707.397368,1991.848295,5107.421000,9252.574275
1707.397686,2834.553343,4293.194464,7846.182985
1707.398003,2451.505594,4293.194464,8068.244768
1707.398321,1608.800546,3108.864956,9178.553681
1707.398638,383.047749,1924.535449,9770.718434
1707.398955,919.314598,1998.556043,11029.068536
1707.399273,-229.828649,1110.308913,11843.295072
1707.399590,-766.095498,1554.432478,12953.603985
1707.399908,-689.485948,2072.576638,12583.501014
1707.400225,0.000000,2664.741391,11991.336260
1707.400543,1302.362347,3182.885551,11695.253884
1707.400860,1532.190996,4367.215058,10288.862594
1707.401177,3524.039291,5033.400406,7772.162391
1707.401495,3983.696590,5921.647536,6217.729913
1707.401812,4826.401637,4589.276840,5625.565159
1707.402130,4519.963438,3108.864956,6513.812290
1707.402447,4443.353888,1110.308913,7254.018232
1707.402764,3677.258390,-518.144159,8216.285956
1707.403082,2911.162892,-2220.617826,10881.027347
1707.403399,2911.162892,-2516.700203,12361.439231
1707.403717,3217.601092,-2442.679609,12583.501014
1707.404034,3600.648841,-444.123565,12657.521608
1707.404351,4596.572988,1258.350101,11843.295072
1707.404669,5286.058936,3034.844362,10362.883188
1707.404986,6435.202183,4589.276840,8512.368333
1707.405304,7584.345430,5551.544565,6365.771101
1707.405621,7048.078582,5403.503377,5699.585753
1707.405939,6894.859482,4441.235652,5329.482782
1707.406256,6435.202183,3108.864956,4811.338623
1707.406573,5592.497135,1036.288319,5699.585753
1707.406891,4903.011187,-2146.597232,7624.121203
1707.407208,3064.381992,-3256.906145,9474.636058
1707.407526,3370.820191,-4663.297435,10510.924376
1707.407843,2451.505594,-4367.215058,11769.274478
1707.408160,1762.019645,-3701.029710,11917.315666
1707.408478,2145.067394,-1258.350101,11547.212695
1707.408795,2221.676944,1998.556043,9696.697840
1707.409113,2374.896044,3552.988522,8512.368333
1707.409430,2911.162892,5921.647536,7254.018232
1707.409747,2374.896044,7105.977043,4811.338623
1707.410065,2528.115143,5847.626942,5107.421000
1707.410382,2757.943793,3775.050304,5773.606348
1707.410700,1608.800546,1924.535449,7179.997637
1707.411017,1378.971896,-814.226536,7920.203579
1707.411335,0.000000,-444.123565,7624.121203
1707.411652,1072.533697,-2294.638420,9770.718434
1707.411969,1072.533697,-1998.556043,10214.842000
1707.412287,536.266849,-1480.411884,9622.677246
1707.412604,1455.581446,-0.000000,9474.636058
1707.412922,1149.143247,1406.391290,9622.677246
1707.413239,1762.019645,2812.782580,9326.594869
1707.413556,1532.190996,2664.741391,9696.697840
1707.413874,842.705048,5403.503377,8290.306550
1707.414191,1455.581446,7550.100608,6809.894666
1707.414509,1225.752797,7920.203579,6439.791695
1707.414826,2604.724693,8290.306550,6735.874072
1707.415143,2068.457845,6883.915261,5847.626942
1707.415461,995.924147,4811.338623,5625.565159
1707.415778,919.314598,1184.329507,7994.224174
1707.416096,-612.876398,-2960.823768,10288.862594
1707.416413,-1149.143247,-6143.709319,13915.871710
1707.416731,-2374.896044,-7105.977043,16654.633695
1707.417048,-3600.648841,-5625.565159,17394.839637
1707.417365,-3524.039291,-2146.597232,16432.571912
1707.417683,-2298.286494,962.267725,15248.242405
1707.418000,-1608.800546,4515.256246,13249.686362
1707.418318,306.438199,7550.100608,10658.965565
1707.418635,1685.410096,9770.718434,7179.997637
1707.418952,3447.429741,10140.821405,5847.626942
1707.419270,4673.182538,8290.306550,6661.853478
1707.419587,4979.620737,5773.606348,5033.400406
1707.419905,4903.011187,2516.700203,4737.318029
1707.420222,2987.772442,-1776.494261,6661.853478
1707.420539,612.876398,-6957.935855,10584.944971
1707.420857,-2221.676944,-9474.636058,15322.262999
1707.421174,-4213.525239,-9474.636058,16728.654289
1707.421492,-5286.058936,-8512.368333,17690.922014
1707.421809,-6052.154434,-6217.729913,17912.983796
1707.422126,-5132.839837,-4145.153275,18579.169144
1707.422444,-3140.991542,-592.164754,16580.613101
1707.422761,-689.485948,4219.173869,12361.439231
1707.423079,2681.334243,7179.997637,10066.800811
1707.423396,5669.106685,8956.491898,7031.956449
1707.423714,7431.126331,8438.347739,4219.173869
1707.424031,6894.859482,6217.729913,1110.308913
1707.424348,6971.469032,3034.844362,1850.514855
1707.424666,5439.278036,-1184.329507,2220.617826
1707.424983,3064.381992,-4737.318029,4145.153275
1707.425301,536.266849,-8216.285956,8586.388927
1707.425618,-2221.676944,-10732.986159,12435.459826
1707.425935,-3830.477490,-11399.171507,14804.118840
1707.426253,-4903.011187,-9622.677246,16210.510130
1707.426570,-4826.401637,-8290.306550,18505.148550
1707.426888,-4060.306139,-4145.153275,17468.860231
1707.427205,-1302.362347,740.205942,14656.077652
1707.427522,1608.800546,6735.874072,9400.615463
1707.427840,4596.572988,9770.718434,5477.523971
1707.428157,6281.983084,10955.047942,1554.432478
1707.428475,7890.783629,10362.883188,-2072.576638
1707.428792,7814.174080,7994.224174,-4515.256246
1707.429110,5898.935335,4219.173869,-3701.029710
1707.429427,3753.867940,-1036.288319,1258.350101
1707.429744,1685.410096,-5329.482782,4959.379811
1707.430062,-536.266849,-8956.491898,8660.409521
1707.430379,-2987.772442,-9918.759623,10658.965565
1707.430697,-4519.963438,-11103.089130,14582.057057
1707.431014,-6052.154434,-10807.006753,16284.530724
1707.431331,-6358.592633,-8586.388927,18061.024985
1707.431649,-6128.763984,-5033.400406,18431.127956
1707.431966,-4136.915689,-0.000000,15248.242405
1707.432284,-1149.143247,5181.441594,11103.089130
1707.432601,1838.629195,9474.636058,6143.709319
1707.432918,4213.525239,11917.315666,1850.514855
1707.433236,6358.592633,12879.583391,-2516.700203
1707.433553,7660.954980,12139.377449,-5699.585753
1707.433871,8427.050478,8512.368333,-5551.544565
1707.434188,6128.763984,1554.432478,-1850.514855
1707.434506,2145.067394,-6291.750507,4737.318029
1707.434823,-1532.190996,-11547.212695,12213.398043
1707.435140,-4826.401637,-13915.871710,17542.880825
1707.435458,-7048.078582,-14285.974681,22058.137072
1707.435775,-8656.879127,-11769.274478,24796.899057
1707.436093,-8503.660028,-8068.244768,26721.434506
1707.436410,-5362.668486,-2368.659014,21762.054695
1707.436727,-2681.334243,3701.029710,19393.395680
1707.437045,2068.457845,9474.636058,11991.336260
1707.437362,6358.592633,14359.995275,3552.988522
1707.437680,11338.213370,17764.942608,-1406.391290
1707.437997,12334.137518,18579.169144,-6587.832884
1707.438314,12793.794817,13693.809927,-8956.491898
1707.438632,10342.289223,7105.977043,-6513.812290
1707.438949,6205.373534,-1036.288319,4441.235652
1707.439267,612.876398,-7550.100608,11399.171507
1707.439584,-4060.306139,-11547.212695,16210.510130
1707.439902,-7814.174080,-15470.304188,21688.034101
1707.440219,-10725.336972,-15914.427753,25537.104999
1707.440536,-10801.946522,-13545.768739,29460.196492
1707.440854,-8963.317327,-8660.409521,30496.484810
1707.441171,-4060.306139,-1480.411884,25537.104999
1707.441489,306.438199,6809.894666,16358.551318
1707.441806,5898.935335,12139.377449,10436.903782
1707.442123,9652.803275,17172.777854,814.226536
1707.442441,12717.185267,19393.395680,-4959.379811
1707.442758,13330.061665,19393.395680,-10807.006753
1707.443076,12104.308868,15692.365970,-11843.295072
1707.443393,9806.022374,7402.059420,-7624.121203
1707.443710,4366.744339,-3552.988522,-222.061783
1707.444028,-1532.190996,-10881.027347,11103.089130
1707.444345,-6128.763984,-14434.015869,16950.716072
1707.444663,-10112.460574,-18061.024985,22724.322419
1707.444980,-10801.946522,-18727.210333,29534.217086
1707.445298,-10189.070123,-15544.324782,32717.102636
1707.445615,-7507.735880,-9104.533087,30718.546593
1707.445932,-4519.963438,444.123565,20725.766376
1707.446250,766.095498,8142.265362,12731.542202
1707.446567,4673.182538,13397.727550,3701.029710
1707.446885,9576.193725,17098.757260,-2738.761985
1707.447202,10265.679673,20059.581028,-11325.150913
1707.447519,9576.193725,18061.024985,-15988.448347
1707.447837,8350.440928,10584.944971,-11547.212695
1707.448154,5056.230287,2368.659014,-7105.977043
1707.448472,1915.238745,-6735.874072,3552.988522
1707.448789,-3447.429741,-13693.809927,11991.336260
1707.449106,-7277.907231,-20133.601622,17838.963202
1707.449424,-11568.042020,-24278.754898,24574.837274
1707.449741,-11721.261119,-23390.507767,30348.443622
1707.450059,-9499.584175,-16580.613101,31902.876100
1707.450376,-8120.612279,-8512.368333,24500.816680
1707.450694,-2221.676944,592.164754,17764.942608
1707.451011,1991.848295,8956.491898,8808.450710
1707.451328,7890.783629,15470.304188,296.082377
1707.451646,12257.527968,16654.633695,-6513.812290
1707.451963,10342.289223,20725.766376,-14804.118840
1707.452281,11951.089769,14508.036463,-14804.118840
1707.452598,11491.432470,9252.574275,-14508.036463
1707.452915,8656.879127,370.102971,-7328.038826
1707.453233,3677.258390,-10807.006753,5773.606348
1707.453550,-4673.182538,-19097.313304,14730.098246
1707.453868,-9116.536426,-22798.343014,21836.075289
1707.454185,-9959.241474,-21465.972318,27387.619854
1707.454502,-10342.289223,-18653.189738,29904.320057
1707.454820,-10418.898773,-13471.748144,29534.217086
1707.455137,-7507.735880,-6809.894666,25241.022622
1707.455455,-2528.115143,4515.256246,16506.592507
1707.455772,5056.230287,13397.727550,5773.606348
1707.456090,11644.651570,15322.262999,-740.205942
1707.456407,14325.985813,18431.127956,-8142.265362
1707.456724,12027.699319,19467.416275,-14434.015869
1707.457042,12180.918418,14211.954086,-14878.139434
1707.457359,8580.269578,7328.038826,-12435.459826
1707.457677,5669.106685,-2664.741391,4737.318029
1707.457994,-1532.190996,-11769.274478,12065.356855
1707.458311,-9652.803275,-16284.530724,17320.819043
1707.458629,-13253.452115,-18579.169144,26055.249158
1707.458946,-14172.766713,-18431.127956,30274.423028
1707.459264,-11797.870669,-17616.901420,33975.452738
1707.459581,-9882.631924,-9326.594869,32124.937883
1707.459898,-5898.935335,-1406.391290,23094.425390
1707.460216,0.000000,10807.006753,11399.171507
1707.460533,8580.269578,17172.777854,6957.935855
1707.460851,12257.527968,18283.086767,0.000000
1707.461168,13176.842566,22502.260637,-10732.986159
1707.461486,9806.022374,22428.240043,-17172.777854
1707.461803,8120.612279,16580.613101,-13397.727550
1707.462120,4290.134789,6439.791695,-6143.709319
1707.462438,1685.410096,-1850.514855,7994.224174
1707.462755,-4519.963438,-9030.512492,14656.077652
1707.463073,-9499.584175,-13471.748144,20799.786970
1707.463390,-11338.213370,-19393.395680,29534.217086
1707.463707,-11414.822920,-20281.642811,35825.967593
1707.464025,-7660.954980,-14952.160028,37528.441259
1707.464342,-6052.154434,-3997.112087,29312.155303
1707.464660,-2681.334243,5847.626942,18653.189738
1707.464977,2604.724693,12879.583391,9104.533087
1707.465294,9346.365076,17172.777854,2220.617826
1707.465612,12870.404366,20725.766376,-4811.338623
1707.465929,12257.527968,22798.343014,-14063.912898
1707.466247,10035.851024,19615.457463,-14211.954086
1707.466564,8963.317327,12361.439231,-11399.171507
1707.466881,7354.516781,2220.617826,0.000000
1707.467199,2451.505594,-7328.038826,11029.068536
1707.467516,-4596.572988,-14211.954086,16506.592507
1707.467834,-8810.098227,-17690.922014,21539.992912
1707.468151,-10572.117872,-19097.313304,27165.558071
1707.468469,-9652.803275,-17987.004391,33827.411549
1707.468786,-7967.393179,-13249.686362,35677.926404
1707.469103,-6128.763984,-2442.679609,25167.002028
1707.469421,-1685.410096,5255.462188,15174.221811
1707.469738,3983.696590,11177.109724,6365.771101
1707.470056,11184.994271,12509.480420,1184.329507
1707.470373,15168.690860,17394.839637,-7105.977043
1707.470690,13559.890315,19319.375086,-14137.933492
1707.471008,13483.280765,13471.748144,-12879.583391
1707.471325,10801.946522,7772.162391,-11621.233289
1707.471643,8886.707777,-592.164754,-814.226536
1707.471960,2757.943793,-8808.450710,9474.636058
1707.472277,-4519.963438,-14063.912898,14730.098246
1707.472595,-8733.488677,-19689.478057,21762.054695
1707.472912,-10265.679673,-21095.869347,26499.372724
1707.473230,-9039.926876,-19097.313304,30052.361245
1707.473547,-8197.221829,-11991.336260,28423.908173
1707.473865,-5745.716235,-4441.235652,19393.395680
1707.474182,-1225.752797,4663.297435,9474.636058
1707.474499,5132.839837,10732.986159,3182.885551
1707.474817,10189.070123,13323.706956,-666.185348
1707.475134,13023.623466,17098.757260,-10584.944971
1707.475452,11184.994271,17616.901420,-14804.118840
1707.475769,9346.365076,11177.109724,-10436.903782
1707.476086,5975.544884,3108.864956,-6513.812290
1707.476404,1762.019645,-3849.070898,2368.659014
1707.476721,-4060.306139,-9992.780217,10881.027347
1707.477039,-9039.926876,-12953.603985,15174.221811
1707.477356,-11644.651570,-17098.757260,22354.219448
1707.477673,-13023.623466,-19837.519246,25092.981434
1707.477991,-10801.946522,-17542.880825,31902.876100
1707.478308,-9576.193725,-9992.780217,26203.290347
1707.478626,-4826.401637,-1184.329507,17690.922014
1707.478943,-383.047749,6439.791695,9252.574275
1707.479261,5362.668486,9474.636058,5921.647536
1707.479578,9806.022374,14211.954086,1850.514855
1707.479895,11108.384721,19541.436869,-9252.574275
1707.480213,11644.651570,20059.581028,-12361.439231
1707.480530,9422.974625,15396.283594,-10436.903782
1707.480848,7814.174080,6217.729913,-2886.803174
1707.481165,4290.134789,-1110.308913,4663.297435
1707.481482,76.609550,-4441.235652,11177.109724
1707.481800,-4060.306139,-9548.656652,16062.468941
1707.482117,-6894.859482,-14878.139434,22280.198854
1707.482435,-7814.174080,-18061.024985,27387.619854
1707.482752,-7814.174080,-15544.324782,30866.587781
1707.483069,-7201.297681,-7624.121203,25537.104999
1707.483387,-3140.991542,-444.123565,19393.395680
1707.483704,612.876398,6217.729913,12805.562797
1707.484022,5362.668486,10807.006753,7031.956449
1707.484339,9422.974625,16062.468941,1554.432478
1707.484657,10112.460574,20207.622217,-6513.812290
1707.484974,11721.261119,18875.251521,-6883.915261
1707.485291,10112.460574,15396.283594,-6143.709319
1707.485609,9269.755526,8956.491898,-1184.329507
1707.485926,5822.325785,2220.617826,5329.482782
1707.486244,842.705048,-2146.597232,8660.409521
1707.486561,-3064.381992,-9622.677246,14211.954086
1707.486878,-6588.421283,-14730.098246,18357.107362
