#time,accel_x,accel_y,accel_z
1428.787557,306.438199,370.102971,9178.553681
1428.787876,536.266849,444.123565,9104.533087
1428.788195,536.266849,296.082377,9252.574275
1428.788514,612.876398,370.102971,9178.553681
1428.788833,459.657299,370.102971,9252.574275
1428.789152,689.485948,518.144159,9474.636058
1428.789471,306.438199,222.061783,9252.574275
1428.789790,383.047749,444.123565,9178.553681
1428.790108,459.657299,370.102971,9252.574275
1428.790427,689.485948,222.061783,8956.491898
1428.790746,536.266849,148.041188,9252.574275
1428.791065,306.438199,370.102971,9474.636058
1428.791384,153.219100,444.123565,9252.574275
1428.791703,306.438199,370.102971,9252.574275
1428.792022,612.876398,518.144159,9252.574275
1428.792341,153.219100,148.041188,9400.615463
1428.792660,536.266849,370.102971,8956.491898
1428.792979,153.219100,444.123565,9326.594869
1428.793297,459.657299,370.102971,9400.615463
1428.793616,766.095498,296.082377,9400.615463
1428.793935,459.657299,444.123565,9326.594869
1428.794254,459.657299,518.144159,9252.574275
1428.794573,383.047749,296.082377,9104.533087
1428.794892,766.095498,-0.000000,9030.512492
1428.795211,1072.533697,-0.000000,9400.615463
1428.795530,229.828649,296.082377,9400.615463
1428.795849,612.876398,296.082377,9178.553681
1428.796168,536.266849,370.102971,9252.574275
1428.796486,536.266849,-0.000000,9252.574275
1428.796805,459.657299,370.102971,9178.553681
1428.797124,383.047749,444.123565,9326.594869
1428.797443,536.266849,370.102971,9178.553681
1428.797762,459.657299,296.082377,9178.553681
1428.798081,612.876398,296.082377,9326.594869
1428.798400,612.876398,296.082377,9474.636058
1428.798719,306.438199,370.102971,9178.553681
1428.799038,536.266849,370.102971,9104.533087
1428.799356,383.047749,222.061783,9104.533087
1428.799675,766.095498,-0.000000,9178.553681
1428.799994,383.047749,370.102971,9178.553681
1428.800313,383.047749,370.102971,9400.615463
1428.800632,459.657299,222.061783,9178.553681
1428.800951,842.705048,370.102971,9400.615463
1428.801270,383.047749,296.082377,9400.615463
1428.801589,689.485948,444.123565,9030.512492
1428.801908,229.828649,444.123565,9326.594869
1428.802227,689.485948,296.082377,9252.574275
1428.802545,919.314598,222.061783,9326.594869
1428.802864,536.266849,444.123565,9326.594869
1428.803183,536.266849,666.185348,9400.615463
1428.803502,536.266849,370.102971,9178.553681
1428.803821,306.438199,148.041188,9400.615463
1428.804140,383.047749,444.123565,9400.615463
1428.804459,689.485948,-0.000000,9252.574275
1428.804778,689.485948,518.144159,9400.615463
1428.805097,383.047749,370.102971,9400.615463
1428.805416,229.828649,370.102971,9326.594869
1428.805734,229.828649,370.102971,9474.636058
1428.806053,383.047749,444.123565,9326.594869
1428.806372,459.657299,370.102971,9104.533087
1428.806691,536.266849,370.102971,9252.574275
1428.807010,689.485948,592.164754,9252.574275
1428.807329,536.266849,518.144159,9474.636058
1428.807648,229.828649,296.082377,9252.574275
1428.807967,689.485948,370.102971,9252.574275
1428.808286,153.219100,444.123565,9252.574275
1428.808604,383.047749,518.144159,9474.636058
1428.808923,76.609550,740.205942,9178.553681
1428.809242,76.609550,888.247130,9326.594869
1428.809561,0.000000,1036.288319,9252.574275
1428.809880,0.000000,1110.308913,9474.636058
1428.810199,-153.219100,1184.329507,9252.574275
1428.810518,-383.047749,888.247130,9548.656652
1428.810837,-153.219100,1184.329507,9326.594869
1428.811156,-536.266849,1036.288319,9474.636058
1428.811475,-383.047749,888.247130,9474.636058
1428.811793,-459.657299,1110.308913,9400.615463
1428.812112,-842.705048,1184.329507,9326.594869
1428.812431,-1072.533697,1184.329507,9104.533087
1428.812750,-1378.971896,1480.411884,9104.533087
1428.813069,-1455.581446,1628.453072,8882.471304
1428.813388,-1762.019645,1998.556043,8956.491898
1428.813707,-1915.238745,2072.576638,8660.409521
1428.814026,-2068.457845,2442.679609,8512.368333
1428.814345,-2374.896044,2294.638420,8586.388927
1428.814664,-2298.286494,2072.576638,8734.430116
1428.814982,-2834.553343,2220.617826,8808.450710
1428.815301,-3064.381992,2738.761985,8882.471304
1428.815620,-3217.601092,2960.823768,9104.533087
1428.815939,-2834.553343,2886.803174,9252.574275
1428.816258,-3600.648841,2960.823768,9030.512492
1428.816577,-3370.820191,3256.906145,9252.574275
1428.816896,-3600.648841,3034.844362,9252.574275
1428.817215,-3600.648841,3108.864956,9252.574275
1428.817534,-3447.429741,2960.823768,9548.656652
1428.817852,-3830.477490,2886.803174,9696.697840
1428.818171,-3524.039291,3108.864956,9474.636058
1428.818490,-3983.696590,3034.844362,9622.677246
1428.818809,-4060.306139,3330.926739,9696.697840
1428.819128,-4213.525239,3552.988522,9548.656652
1428.819447,-3753.867940,3775.050304,9770.718434
1428.819766,-3907.087040,3775.050304,9770.718434
1428.820085,-3370.820191,3849.070898,9992.780217
1428.820404,-2834.553343,3923.091493,10066.800811
1428.820723,-2528.115143,3849.070898,9474.636058
1428.821041,-2298.286494,3997.112087,9696.697840
1428.821360,-1532.190996,4885.359217,9178.553681
1428.821679,-1455.581446,4959.379811,8882.471304
1428.821998,-1225.752797,5255.462188,8364.327145
1428.822317,-1532.190996,5329.482782,7698.141797
1428.822636,-1532.190996,5033.400406,7846.182985
1428.822955,-2374.896044,4663.297435,8068.244768
1428.823274,-2681.334243,4293.194464,8512.368333
1428.823593,-2528.115143,3775.050304,9400.615463
1428.823912,-4136.915689,3330.926739,9400.615463
1428.824230,-4366.744339,3256.906145,9474.636058
1428.824549,-4060.306139,3108.864956,9696.697840
1428.824868,-3524.039291,3701.029710,9400.615463
1428.825187,-2911.162892,4589.276840,9178.553681
1428.825506,-2068.457845,4663.297435,8290.306550
1428.825825,-1455.581446,4589.276840,7994.224174
1428.826144,-1455.581446,4219.173869,7772.162391
1428.826463,-1762.019645,3552.988522,7328.038826
1428.826782,-2145.067394,3849.070898,7772.162391
1428.827100,-2068.457845,3330.926739,7772.162391
1428.827419,-1455.581446,3552.988522,8364.327145
1428.827738,-536.266849,3849.070898,8068.244768
1428.828057,-536.266849,3404.947333,8142.265362
1428.828376,-689.485948,3256.906145,8290.306550
1428.828695,-919.314598,2590.720797,8808.450710
1428.829014,-1608.800546,1850.514855,9548.656652
1428.829333,-1838.629195,962.267725,10807.006753
1428.829652,-1762.019645,666.185348,11695.253884
1428.829971,-1072.533697,1332.370696,11547.212695
1428.830289,-383.047749,1850.514855,10362.883188
1428.830608,0.000000,1702.473667,9548.656652
1428.830927,76.609550,1406.391290,9548.656652
1428.831246,76.609550,1628.453072,9326.594869
1428.831565,536.266849,1554.432478,9400.615463
1428.831884,383.047749,2072.576638,9474.636058
1428.832203,153.219100,2072.576638,8956.491898
1428.832522,459.657299,962.267725,9178.553681
1428.832841,-383.047749,-0.000000,9992.780217
1428.833160,-1532.190996,-518.144159,11399.171507
1428.833478,-1608.800546,-592.164754,11399.171507
1428.833797,-2145.067394,222.061783,10584.944971
1428.834116,-2068.457845,1110.308913,10436.903782
1428.834435,-2451.505594,888.247130,10140.821405
1428.834754,-2451.505594,740.205942,9622.677246
1428.835073,-2451.505594,1036.288319,9252.574275
1428.835392,-2221.676944,1554.432478,9474.636058
1428.835711,-2221.676944,1924.535449,8512.368333
1428.836030,-2221.676944,2146.597232,8734.430116
1428.836349,-2451.505594,1480.411884,9400.615463
1428.836667,-2145.067394,1332.370696,8956.491898
1428.836986,-1455.581446,2072.576638,8734.430116
1428.837305,-995.924147,2664.741391,7846.182985
1428.837624,-1762.019645,3552.988522,6883.915261
1428.837943,-1225.752797,2812.782580,8068.244768
1428.838262,-1838.629195,2294.638420,8142.265362
1428.838581,-1991.848295,2442.679609,7994.224174
1428.838900,-2298.286494,2516.700203,7550.100608
1428.839219,-3064.381992,2664.741391,8142.265362
1428.839537,-2451.505594,1998.556043,9696.697840
1428.839856,-2604.724693,1924.535449,9326.594869
1428.840175,-2451.505594,2442.679609,9548.656652
1428.840494,-1378.971896,2442.679609,9474.636058
1428.840813,-153.219100,2590.720797,9326.594869
1428.841132,459.657299,3552.988522,8512.368333
1428.841451,1072.533697,4071.132681,7846.182985
1428.841770,1455.581446,3775.050304,7105.977043
1428.842089,1762.019645,3775.050304,7772.162391
1428.842408,1378.971896,4071.132681,8290.306550
1428.842726,383.047749,3775.050304,7698.141797
1428.843045,-766.095498,3552.988522,8364.327145
1428.843364,-1991.848295,3256.906145,8956.491898
1428.843683,-2451.505594,3256.906145,9474.636058
1428.844002,-3370.820191,3552.988522,9474.636058
1428.844321,-4596.572988,3923.091493,9474.636058
1428.844640,-5056.230287,3404.947333,10510.924376
1428.844959,-5286.058936,2738.761985,11621.233289
1428.845278,-5209.449386,2368.659014,11769.274478
1428.845597,-4979.620737,2368.659014,11547.212695
1428.845915,-4060.306139,2516.700203,11843.295072
1428.846234,-3064.381992,3330.926739,11029.068536
1428.846553,-1838.629195,4737.318029,9622.677246
1428.846872,-1149.143247,4737.318029,8882.471304
1428.847191,0.000000,5329.482782,8882.471304
1428.847510,76.609550,5551.544565,6883.915261
1428.847829,0.000000,5921.647536,5921.647536
1428.848148,-612.876398,5403.503377,6957.935855
1428.848467,-1762.019645,4515.256246,8068.244768
1428.848785,-2298.286494,3478.967927,9178.553681
1428.849104,-4366.744339,2886.803174,10140.821405
1428.849423,-4366.744339,2368.659014,12213.398043
1428.849742,-4519.963438,1554.432478,12731.542202
1428.850061,-4443.353888,962.267725,13989.892304
1428.850380,-3140.991542,592.164754,14582.057057
1428.850699,-1608.800546,1110.308913,15026.180623
1428.851018,1149.143247,1332.370696,13323.706956
1428.851336,3294.210641,1110.308913,11843.295072
1428.851655,5669.106685,814.226536,10510.924376
1428.851974,7354.516781,1332.370696,8364.327145
1428.852292,8580.269578,1924.535449,6069.688724
1428.852611,9039.926876,1628.453072,5107.421000
1428.852930,7890.783629,2516.700203,5773.606348
1428.853249,6588.421283,2442.679609,5107.421000
1428.853567,3983.696590,1332.370696,6217.729913
1428.853886,1072.533697,-1110.308913,9770.718434
1428.854205,-1455.581446,-2516.700203,11843.295072
1428.854523,-2911.162892,-4367.215058,13101.645173
1428.854842,-3370.820191,-6143.709319,15396.283594
1428.855161,-2987.772442,-7105.977043,17024.736666
1428.855480,-1838.629195,-5847.626942,15544.324782
1428.855798,536.266849,-4589.276840,13693.809927
1428.856117,2834.553343,-2886.803174,11325.150913
1428.856436,4979.620737,-666.185348,8290.306550
1428.856754,5592.497135,1554.432478,4441.235652
1428.857073,5822.325785,2294.638420,2294.638420
1428.857392,4519.963438,2442.679609,1406.391290
1428.857711,2681.334243,2146.597232,1184.329507
1428.858029,383.047749,222.061783,2442.679609
1428.858348,-2145.067394,-2072.576638,5847.626942
1428.858667,-4749.792088,-3627.009116,8586.388927
1428.858985,-6588.421283,-4663.297435,11029.068536
1428.859304,-6588.421283,-5995.668130,13397.727550
1428.859623,-6052.154434,-4441.235652,14952.160028
1428.859942,-4136.915689,-2590.720797,14211.954086
1428.860260,-2451.505594,-1110.308913,11547.212695
1428.860579,0.000000,444.123565,9474.636058
1428.860898,1915.238745,2294.638420,6809.894666
1428.861216,3294.210641,2886.803174,3775.050304
1428.861535,3983.696590,3923.091493,1554.432478
1428.861854,4213.525239,3849.070898,1036.288319
1428.862173,3524.039291,3923.091493,1258.350101
1428.862491,2451.505594,2960.823768,2590.720797
1428.862810,995.924147,1850.514855,4589.276840
1428.863129,0.000000,666.185348,8364.327145
1428.863447,-1608.800546,-370.102971,10436.903782
1428.863766,-2528.115143,-2442.679609,12805.562797
1428.864085,-2681.334243,-2960.823768,15470.304188
1428.864404,-2068.457845,-1554.432478,14952.160028
1428.864722,-1378.971896,-814.226536,12879.583391
1428.865041,612.876398,370.102971,11029.068536
1428.865360,1915.238745,2368.659014,10584.944971
1428.865678,3140.991542,4293.194464,6217.729913
1428.865997,3753.867940,4959.379811,3775.050304
1428.866316,4443.353888,4737.318029,4515.256246
1428.866635,3294.210641,5033.400406,4293.194464
1428.866953,3447.429741,3701.029710,5625.565159
1428.867272,1225.752797,2146.597232,7846.182985
1428.867591,-306.438199,518.144159,11843.295072
1428.867909,-1838.629195,-814.226536,12657.521608
1428.868228,-2681.334243,-1776.494261,15914.427753
1428.868547,-3524.039291,-2294.638420,17468.860231
1428.868865,-2911.162892,-0.000000,16876.695478
1428.869184,-2374.896044,888.247130,14656.077652
1428.869503,-1455.581446,2368.659014,13027.624579
1428.869822,153.219100,3182.885551,11621.233289
1428.870140,1149.143247,3997.112087,7920.203579
1428.870459,2451.505594,3923.091493,6513.812290
1428.870778,2834.553343,3849.070898,5921.647536
1428.871096,3294.210641,3330.926739,6291.750507
1428.871415,2834.553343,2146.597232,5921.647536
1428.871734,1685.410096,1702.473667,7772.162391
1428.872053,689.485948,444.123565,10140.821405
1428.872371,-536.266849,222.061783,11991.336260
1428.872690,-1762.019645,-296.082377,13545.768739
1428.873009,-2068.457845,-370.102971,15544.324782
1428.873327,-2451.505594,-444.123565,15914.427753
1428.873646,-1762.019645,-74.020594,13989.892304
1428.873965,-1149.143247,-0.000000,13101.645173
1428.874284,229.828649,370.102971,11399.171507
1428.874602,1378.971896,1258.350101,8142.265362
1428.874921,2681.334243,1036.288319,6513.812290
1428.875240,3983.696590,1702.473667,5773.606348
1428.875558,4366.744339,1406.391290,4663.297435
1428.875877,4060.306139,740.205942,4293.194464
1428.876196,3524.039291,-74.020594,5329.482782
1428.876515,2068.457845,-0.000000,7179.997637
1428.876833,612.876398,-1110.308913,8808.450710
1428.877152,-1149.143247,-2220.617826,10584.944971
1428.877471,-1991.848295,-2146.597232,12435.459826
1428.877789,-2451.505594,-2220.617826,13027.624579
1428.878108,-2374.896044,-2516.700203,12065.356855
1428.878427,-2145.067394,-2146.597232,10807.006753
1428.878746,-1302.362347,-1406.391290,9844.739029
1428.879064,-689.485948,-222.061783,7476.080014
1428.879383,76.609550,-148.041188,6291.750507
1428.879702,919.314598,-0.000000,5181.441594
1428.880020,1302.362347,1184.329507,4441.235652
1428.880339,1838.629195,814.226536,3849.070898
1428.880658,1302.362347,-148.041188,4367.215058
1428.880977,536.266849,-148.041188,6809.894666
1428.881295,76.609550,-1110.308913,7846.182985
1428.881614,-766.095498,-2220.617826,8956.491898
1428.881933,-919.314598,-3034.844362,11843.295072
1428.882251,-766.095498,-2368.659014,12509.480420
1428.882570,-153.219100,-1776.494261,11177.109724
1428.882889,766.095498,-1998.556043,10510.924376
1428.883208,1225.752797,-814.226536,9844.739029
1428.883526,2298.286494,-0.000000,7846.182985
1428.883845,2681.334243,-0.000000,5847.626942
1428.884164,2451.505594,-0.000000,6365.771101
1428.884482,2298.286494,-518.144159,6661.853478
1428.884801,2451.505594,-222.061783,5995.668130
1428.885120,2068.457845,-370.102971,6513.812290
1428.885439,1915.238745,-962.267725,8808.450710
1428.885757,919.314598,-1110.308913,9474.636058
1428.886076,842.705048,-2146.597232,10881.027347
1428.886395,689.485948,-2812.782580,12657.521608
1428.886713,995.924147,-2146.597232,13767.830521
1428.887032,1608.800546,-2072.576638,12657.521608
1428.887351,1915.238745,-1406.391290,11621.233289
1428.887670,2145.067394,-518.144159,10510.924376
1428.887988,2681.334243,1184.329507,8660.409521
1428.888307,2374.896044,1702.473667,7328.038826
1428.888626,2451.505594,1702.473667,6883.915261
1428.888944,1762.019645,1258.350101,7254.018232
1428.889263,1455.581446,370.102971,6365.771101
1428.889582,842.705048,-74.020594,7698.141797
1428.889901,306.438199,-888.247130,9326.594869
1428.890219,-842.705048,-962.267725,10140.821405
1428.890538,-1149.143247,-1258.350101,10732.986159
1428.890857,-1378.971896,-1332.370696,12213.398043
1428.891175,-1225.752797,-296.082377,13175.665768
1428.891494,-766.095498,-0.000000,11843.295072
1428.891813,-306.438199,370.102971,11177.109724
1428.892132,-229.828649,1406.391290,10066.800811
1428.892450,383.047749,2368.659014,8438.347739
1428.892769,842.705048,3034.844362,6439.791695
1428.893088,766.095498,3775.050304,6661.853478
1428.893406,1149.143247,4071.132681,6883.915261
1428.893725,766.095498,3701.029710,5329.482782
1428.894044,689.485948,1554.432478,7550.100608
1428.894363,612.876398,1036.288319,9548.656652
1428.894681,-306.438199,296.082377,10140.821405
1428.895000,-995.924147,-888.247130,10732.986159
1428.895319,-766.095498,-1628.453072,12879.583391
1428.895637,-306.438199,-666.185348,13027.624579
1428.895956,612.876398,740.205942,10955.047942
1428.896275,1302.362347,1406.391290,9474.636058
1428.896594,1991.848295,1924.535449,9326.594869
1428.896912,2374.896044,2220.617826,7994.224174
1428.897231,2528.115143,2072.576638,6513.812290
1428.897550,1378.971896,666.185348,7105.977043
1428.897868,1072.533697,296.082377,8364.327145
1428.898187,842.705048,814.226536,8512.368333
1428.898506,766.095498,444.123565,8290.306550
1428.898825,153.219100,-0.000000,10658.965565
1428.899143,76.609550,-148.041188,11473.192101
1428.899462,-306.438199,-592.164754,10658.965565
1428.899781,-229.828649,-1258.350101,12583.501014
1428.900099,229.828649,-888.247130,13397.727550
1428.900418,689.485948,-962.267725,11251.130318
1428.900737,1149.143247,-962.267725,9474.636058
1428.901056,2068.457845,-666.185348,9548.656652
1428.901374,2298.286494,148.041188,7772.162391
1428.901693,1762.019645,444.123565,5699.585753
1428.902012,1455.581446,-0.000000,6069.688724
1428.902330,766.095498,296.082377,7179.997637
1428.902649,0.000000,-0.000000,7105.977043
1428.902968,-766.095498,-1184.329507,7772.162391
1428.903286,-1378.971896,-1480.411884,10288.862594
1428.903605,-2451.505594,-1776.494261,10955.047942
1428.903924,-2298.286494,-1776.494261,11103.089130
1428.904243,-1838.629195,-2516.700203,12657.521608
1428.904561,-919.314598,-1776.494261,13027.624579
1428.904880,459.657299,-888.247130,11103.089130
1428.905199,1991.848295,-518.144159,9030.512492
1428.905517,3140.991542,-0.000000,7994.224174
1428.905836,4060.306139,518.144159,6217.729913
1428.906155,4136.915689,962.267725,4367.215058
1428.906474,4136.915689,444.123565,4737.318029
1428.906792,2834.553343,-0.000000,5329.482782
1428.907111,1991.848295,-0.000000,5625.565159
1428.907430,1838.629195,-1628.453072,6439.791695
1428.907748,0.000000,-1702.473667,8956.491898
1428.908067,-919.314598,-1628.453072,10510.924376
1428.908386,-1225.752797,-2146.597232,11177.109724
1428.908705,-1149.143247,-2738.761985,12361.439231
1428.909023,-383.047749,-2294.638420,13619.789333
1428.909342,459.657299,-1554.432478,12731.542202
1428.909661,1532.190996,-740.205942,10807.006753
1428.909979,2528.115143,-222.061783,9696.697840
1428.910298,3600.648841,814.226536,7846.182985
1428.910617,4213.525239,1480.411884,5625.565159
1428.910936,4060.306139,1628.453072,5107.421000
1428.911254,3447.429741,1850.514855,5255.462188
1428.911573,3064.381992,1332.370696,5625.565159
1428.911892,1532.190996,296.082377,6143.709319
1428.912210,0.000000,-814.226536,8512.368333
1428.912529,-2221.676944,-1332.370696,10510.924376
1428.912848,-3140.991542,-1332.370696,11473.192101
1428.913167,-3907.087040,-2072.576638,12953.603985
1428.913485,-3907.087040,-888.247130,14063.912898
1428.913804,-3064.381992,-0.000000,13619.789333
1428.914123,-2221.676944,740.205942,11695.253884
1428.914441,-612.876398,1480.411884,11251.130318
1428.914760,612.876398,2368.659014,9400.615463
1428.915079,995.924147,3701.029710,7105.977043
1428.915398,1838.629195,3775.050304,6217.729913
1428.915716,1991.848295,3701.029710,6661.853478
1428.916035,2221.676944,3552.988522,6291.750507
1428.916354,2374.896044,2738.761985,6291.750507
1428.916672,1149.143247,2738.761985,7846.182985
1428.916991,0.000000,1850.514855,9252.574275
1428.917310,-842.705048,814.226536,10510.924376
1428.917629,-1838.629195,-592.164754,12213.398043
1428.917947,-2451.505594,-370.102971,13471.748144
1428.918266,-1991.848295,962.267725,12879.583391
1428.918585,-689.485948,1554.432478,11473.192101
1428.918903,0.000000,2368.659014,11029.068536
1428.919222,689.485948,2886.803174,9548.656652
1428.919541,1532.190996,2812.782580,8586.388927
1428.919860,1838.629195,2072.576638,7772.162391
1428.920178,2604.724693,2220.617826,8068.244768
1428.920497,2681.334243,2516.700203,7624.121203
1428.920816,2911.162892,1480.411884,7550.100608
1428.921134,2145.067394,1110.308913,8438.347739
1428.921453,1378.971896,740.205942,9770.718434
1428.921772,995.924147,518.144159,10140.821405
1428.922091,536.266849,-0.000000,10732.986159
1428.922409,153.219100,-740.205942,12583.501014
1428.922728,153.219100,-1110.308913,12805.562797
1428.923047,536.266849,-444.123565,10732.986159
1428.923365,536.266849,-370.102971,9992.780217
1428.923684,536.266849,222.061783,9400.615463
1428.924003,612.876398,740.205942,7476.080014
1428.924322,919.314598,592.164754,6809.894666
1428.924640,536.266849,222.061783,7846.182985
1428.924959,306.438199,148.041188,8364.327145
1428.925278,229.828649,-74.020594,8216.285956
1428.925596,-383.047749,-148.041188,8216.285956
1428.925915,-766.095498,-444.123565,9474.636058
1428.926234,-1378.971896,-888.247130,10214.842000
1428.926553,-1225.752797,-1406.391290,10510.924376
1428.926871,-1149.143247,-1480.411884,11695.253884
1428.927190,-536.266849,-962.267725,11547.212695
1428.927509,459.657299,-296.082377,9622.677246
1428.927827,2068.457845,-74.020594,8438.347739
1428.928146,2374.896044,-0.000000,7624.121203
1428.928465,2068.457845,296.082377,6217.729913
1428.928784,2451.505594,814.226536,5329.482782
1428.929102,1838.629195,740.205942,5847.626942
1428.929421,1378.971896,814.226536,6513.812290
1428.929740,689.485948,370.102971,7105.977043
1428.930058,-153.219100,-148.041188,7994.224174
1428.930377,-842.705048,-1110.308913,9548.656652
1428.930696,-1149.143247,-1332.370696,10955.047942
1428.931015,-1302.362347,-1628.453072,11547.212695
1428.931333,0.000000,-1776.494261,13027.624579
1428.931652,459.657299,-962.267725,11843.295072
1428.931971,1608.800546,-740.205942,11325.150913
1428.932289,2528.115143,-0.000000,9030.512492
1428.932608,4366.744339,1480.411884,7624.121203
1428.932927,3907.087040,1776.494261,5329.482782
1428.933246,3217.601092,1776.494261,5107.421000
1428.933564,2604.724693,1628.453072,5995.668130
1428.933883,1532.190996,1628.453072,6661.853478
1428.934202,536.266849,814.226536,7328.038826
1428.934520,-1149.143247,296.082377,8068.244768
1428.934839,-2298.286494,-222.061783,10881.027347
1428.935158,-3294.210641,-518.144159,11769.274478
1428.935477,-3600.648841,-1036.288319,12509.480420
1428.935795,-3524.039291,-1184.329507,13989.892304
1428.936114,-2834.553343,-74.020594,14211.954086
1428.936433,-1685.410096,1332.370696,12139.377449
1428.936751,-383.047749,2516.700203,10066.800811
1428.937070,536.266849,3775.050304,8882.471304
1428.937389,1378.971896,4737.318029,6957.935855
1428.937708,1685.410096,4737.318029,5625.565159
1428.938026,1302.362347,4145.153275,6069.688724
1428.938345,842.705048,4145.153275,6883.915261
1428.938664,536.266849,2960.823768,6809.894666
1428.938982,-536.266849,1776.494261,8068.244768
1428.939301,-1149.143247,1184.329507,10362.883188
1428.939620,-2145.067394,814.226536,11177.109724
1428.939938,-2221.676944,370.102971,11695.253884
1428.940257,-2528.115143,-148.041188,13545.768739
1428.940576,-2221.676944,888.247130,13915.871710
1428.940895,-1302.362347,1628.453072,12213.398043
1428.941213,-383.047749,2072.576638,10510.924376
1428.941532,536.266849,2886.803174,9992.780217
1428.941851,919.314598,3552.988522,8142.265362
1428.942169,995.924147,3034.844362,6661.853478
1428.942488,1762.019645,2812.782580,7105.977043
1428.942807,1225.752797,2368.659014,7846.182985
1428.943126,1072.533697,1924.535449,7920.203579
1428.943444,842.705048,1258.350101,8438.347739
1428.943763,689.485948,592.164754,9992.780217
1428.944082,306.438199,-0.000000,10732.986159
1428.944400,229.828649,-1110.308913,11695.253884
1428.944719,0.000000,-1406.391290,12509.480420
1428.945038,0.000000,-518.144159,12953.603985
1428.945357,306.438199,-370.102971,11251.130318
1428.945675,842.705048,-0.000000,9622.677246
1428.945994,1455.581446,666.185348,8808.450710
1428.946313,1302.362347,1850.514855,7105.977043
1428.946631,1762.019645,1628.453072,5995.668130
1428.946950,1838.629195,814.226536,6735.874072
1428.947269,1532.190996,814.226536,7476.080014
1428.947588,612.876398,-148.041188,7846.182985
1428.947906,536.266849,-888.247130,8734.430116
1428.948225,-153.219100,-740.205942,9696.697840
1428.948544,-612.876398,-888.247130,10807.006753
1428.948862,-536.266849,-1184.329507,10955.047942
1428.949181,-306.438199,-1702.473667,11843.295072
1428.949500,0.000000,-1776.494261,12139.377449
1428.949819,612.876398,-1184.329507,10807.006753
1428.950137,1838.629195,-666.185348,9252.574275
1428.950456,2374.896044,740.205942,7105.977043
1428.950775,3217.601092,1110.308913,5921.647536
1428.951094,3064.381992,962.267725,4811.338623
1428.951413,2068.457845,444.123565,5403.503377
1428.951731,1608.800546,370.102971,6143.709319
1428.952050,612.876398,-74.020594,7031.956449
1428.952369,0.000000,-1258.350101,8512.368333
1428.952688,-1302.362347,-1850.514855,10510.924376
1428.953006,-1915.238745,-1258.350101,11399.171507
1428.953325,-2374.896044,-2220.617826,11843.295072
1428.953644,-1455.581446,-2220.617826,12805.562797
1428.953963,-689.485948,-1258.350101,13101.645173
1428.954282,153.219100,-518.144159,11325.150913
1428.954600,1532.190996,148.041188,9770.718434
1428.954919,2604.724693,1184.329507,8512.368333
1428.955238,3217.601092,2146.597232,5995.668130
1428.955557,3370.820191,2368.659014,4589.276840
1428.955875,2681.334243,1406.391290,4737.318029
1428.956194,1762.019645,1702.473667,5477.523971
1428.956513,459.657299,1406.391290,6143.709319
1428.956832,-612.876398,-148.041188,8142.265362
1428.957151,-2145.067394,-1036.288319,10881.027347
1428.957469,-3140.991542,-814.226536,12139.377449
1428.957788,-3907.087040,-1258.350101,13249.686362
1428.958107,-3447.429741,-740.205942,13989.892304
1428.958426,-2911.162892,-444.123565,14656.077652
1428.958744,-2068.457845,1036.288319,13249.686362
1428.959063,0.000000,1850.514855,11177.109724
1428.959382,1302.362347,2442.679609,9918.759623
1428.959701,2757.943793,3404.947333,7624.121203
1428.960020,3140.991542,3701.029710,5477.523971
1428.960338,3370.820191,3923.091493,4589.276840
1428.960657,3064.381992,3701.029710,5403.503377
1428.960976,2451.505594,3404.947333,5773.606348
1428.961295,1225.752797,2368.659014,6365.771101
1428.961614,0.000000,1184.329507,8290.306550
1428.961932,-1455.581446,296.082377,10732.986159
1428.962251,-2374.896044,-962.267725,12139.377449
1428.962570,-2987.772442,-1184.329507,13767.830521
1428.962889,-2681.334243,-888.247130,14656.077652
1428.963207,-1915.238745,-370.102971,14285.974681
1428.963526,-842.705048,370.102971,12435.459826
1428.963845,919.314598,1554.432478,11399.171507
1428.964164,2681.334243,2960.823768,9030.512492
1428.964483,3294.210641,3108.864956,6217.729913
1428.964801,4826.401637,2516.700203,5847.626942
1428.965120,3907.087040,1998.556043,6069.688724
1428.965439,3370.820191,2072.576638,5329.482782
1428.965758,2451.505594,666.185348,5921.647536
1428.966076,1072.533697,518.144159,8512.368333
1428.966395,0.000000,-370.102971,9548.656652
1428.966714,-1532.190996,-1036.288319,10510.924376
1428.967033,-2451.505594,-2516.700203,12583.501014
1428.967352,-3217.601092,-3034.844362,14063.912898
1428.967670,-2911.162892,-2442.679609,13545.768739
1428.967989,-2068.457845,-1480.411884,12731.542202
1428.968308,-1149.143247,-666.185348,11843.295072
1428.968627,-383.047749,666.185348,9918.759623
1428.968945,1225.752797,888.247130,6809.894666
1428.969264,1378.971896,740.205942,6143.709319
1428.969583,1762.019645,592.164754,6365.771101
1428.969902,1532.190996,814.226536,5773.606348
1428.970221,1762.019645,148.041188,5921.647536
1428.970539,1302.362347,-296.082377,7476.080014
1428.970858,995.924147,-370.102971,8882.471304
1428.971177,383.047749,-888.247130,9400.615463
1428.971496,0.000000,-1480.411884,10288.862594
1428.971814,0.000000,-1480.411884,11473.192101
1428.972133,536.266849,-1332.370696,11843.295072
1428.972452,1302.362347,-962.267725,10881.027347
1428.972771,1838.629195,-666.185348,9844.739029
1428.973090,2528.115143,222.061783,8290.306550
1428.973408,3140.991542,740.205942,6809.894666
1428.973727,2987.772442,666.185348,5995.668130
1428.974046,2604.724693,740.205942,6291.750507
1428.974365,2221.676944,814.226536,6143.709319
1428.974683,1915.238745,296.082377,6809.894666
1428.975002,1302.362347,-222.061783,7994.224174
1428.975321,536.266849,-518.144159,9622.677246
1428.975640,383.047749,-666.185348,10436.903782
1428.975959,612.876398,-1628.453072,11103.089130
1428.976277,383.047749,-1776.494261,11991.336260
1428.976596,1685.410096,-1406.391290,12287.418637
1428.976915,1762.019645,-962.267725,10584.944971
1428.977234,2528.115143,-740.205942,9622.677246
1428.977552,2374.896044,-0.000000,8290.306550
1428.977871,2604.724693,888.247130,5921.647536
1428.978190,1991.848295,518.144159,5625.565159
1428.978509,919.314598,296.082377,6291.750507
1428.978828,-306.438199,444.123565,6661.853478
1428.979146,-1149.143247,222.061783,7476.080014
1428.979465,-2221.676944,-518.144159,9844.739029
1428.979784,-2834.553343,-666.185348,11473.192101
1428.980103,-3600.648841,-1332.370696,12509.480420
1428.980421,-3447.429741,-1332.370696,12805.562797
1428.980740,-2834.553343,-1628.453072,13915.871710
1428.981059,-1378.971896,-1332.370696,14878.139434
1428.981378,-383.047749,-888.247130,11991.336260
1428.981697,1302.362347,666.185348,9844.739029
1428.982015,2298.286494,1998.556043,7846.182985
1428.982334,4596.572988,2664.741391,5995.668130
1428.982653,4596.572988,1702.473667,4663.297435
1428.982972,2911.162892,3775.050304,4145.153275
1428.983291,3370.820191,3330.926739,4811.338623
1428.983609,842.705048,3330.926739,4515.256246
1428.983928,-1149.143247,740.205942,7105.977043
1428.984247,-1608.800546,-2442.679609,13027.624579
1428.984566,-3753.867940,-1702.473667,12953.603985
1428.984884,-2987.772442,-1406.391290,13323.706956
1428.985203,-2681.334243,-888.247130,14211.954086
1428.985522,-1685.410096,-0.000000,15470.304188
1428.985841,229.828649,-888.247130,13915.871710
1428.986160,766.095498,814.226536,11547.212695
1428.986478,2834.553343,2072.576638,10362.883188
1428.986797,4826.401637,4293.194464,5773.606348
1428.987116,5439.278036,5181.441594,3849.070898
1428.987435,5515.887586,2368.659014,4737.318029
1428.987753,4366.744339,2590.720797,5181.441594
1428.988072,2757.943793,1184.329507,3997.112087
1428.988391,2451.505594,-0.000000,6143.709319
1428.988710,612.876398,148.041188,9104.533087
1428.989029,-842.705048,-1332.370696,10658.965565
1428.989347,-2451.505594,-1924.535449,11991.336260
1428.989666,-3064.381992,-2146.597232,14285.974681
1428.989985,-3217.601092,-2886.803174,15100.201217
1428.990304,-2987.772442,-1554.432478,13989.892304
1428.990622,-1378.971896,-222.061783,13101.645173
1428.990941,-459.657299,222.061783,11029.068536
1428.991260,229.828649,962.267725,7624.121203
1428.991579,1838.629195,1184.329507,6513.812290
1428.991898,2451.505594,1406.391290,5773.606348
1428.992216,2681.334243,1554.432478,5329.482782
1428.992535,2528.115143,2220.617826,4589.276840
1428.992854,1608.800546,962.267725,5403.503377
1428.993173,1225.752797,-0.000000,7105.977043
1428.993491,0.000000,-666.185348,9178.553681
1428.993810,-689.485948,-1850.514855,10362.883188
1428.994129,-1532.190996,-1998.556043,12287.418637
1428.994448,-1455.581446,-1776.494261,13323.706956
1428.994767,-1225.752797,-1702.473667,12805.562797
1428.995085,-766.095498,-1554.432478,11991.336260
1428.995404,536.266849,-814.226536,11251.130318
1428.995723,766.095498,222.061783,8882.471304
1428.996042,2145.067394,888.247130,6069.688724
1428.996360,2757.943793,962.267725,5847.626942
1428.996679,2987.772442,1554.432478,5773.606348
1428.996998,2987.772442,1406.391290,5181.441594
1428.997317,3140.991542,740.205942,5847.626942
1428.997636,2221.676944,296.082377,7698.141797
1428.997954,1608.800546,-0.000000,8512.368333
1428.998273,689.485948,-1036.288319,9548.656652
1428.998592,0.000000,-1776.494261,11695.253884
1428.998911,0.000000,-1850.514855,13175.665768
1428.999229,383.047749,-1110.308913,12361.439231
1428.999548,995.924147,-296.082377,10955.047942
1428.999867,1991.848295,222.061783,9992.780217
1429.000186,2221.676944,740.205942,7920.203579
1429.000505,2528.115143,-0.000000,6439.791695
1429.000823,2068.457845,148.041188,6069.688724
1429.001142,1532.190996,740.205942,6365.771101
1429.001461,1149.143247,1258.350101,5995.668130
1429.001780,459.657299,444.123565,6957.935855
1429.002098,-536.266849,-1036.288319,9326.594869
1429.002417,-1149.143247,-814.226536,11029.068536
1429.002736,-1149.143247,-740.205942,10584.944971
1429.003055,-1608.800546,-1480.411884,12065.356855
1429.003374,-766.095498,-1258.350101,13693.809927
1429.003692,-689.485948,-962.267725,13027.624579
1429.004011,0.000000,-666.185348,11547.212695
1429.004330,919.314598,666.185348,9992.780217
1429.004649,1838.629195,1850.514855,7624.121203
1429.004968,1762.019645,2368.659014,5329.482782
1429.005286,1915.238745,2294.638420,5255.462188
1429.005605,1378.971896,1554.432478,6365.771101
1429.005924,306.438199,1258.350101,6587.832884
1429.006243,-383.047749,-0.000000,7994.224174
1429.006561,-1685.410096,-444.123565,10362.883188
1429.006880,-2145.067394,-666.185348,11547.212695
1429.007199,-2221.676944,-518.144159,11991.336260
1429.007518,-2221.676944,-666.185348,13693.809927
1429.007837,-1225.752797,-296.082377,14137.933492
1429.008155,0.000000,888.247130,13249.686362
1429.008474,612.876398,1776.494261,11251.130318
1429.008793,2681.334243,2220.617826,9252.574275
1429.009112,3140.991542,2960.823768,7179.997637
1429.009430,3140.991542,3256.906145,5847.626942
1429.009749,3524.039291,2664.741391,4959.379811
1429.010068,3370.820191,2886.803174,5403.503377
1429.010387,2987.772442,2590.720797,5995.668130
1429.010706,1991.848295,1554.432478,6365.771101
1429.011024,919.314598,-0.000000,9178.553681
1429.011343,-459.657299,-444.123565,11251.130318
1429.011662,-1455.581446,-74.020594,11621.233289
1429.011981,-1532.190996,-666.185348,12509.480420
1429.012299,-1378.971896,-0.000000,14137.933492
1429.012618,-1225.752797,222.061783,13471.748144
1429.012937,-842.705048,148.041188,11251.130318
1429.013256,0.000000,1184.329507,10362.883188
1429.013575,919.314598,1998.556043,8512.368333
1429.013893,1532.190996,2812.782580,5773.606348
1429.014212,1762.019645,2294.638420,5847.626942
1429.014531,1378.971896,2220.617826,6735.874072
1429.014850,612.876398,2146.597232,5847.626942
1429.015168,612.876398,1702.473667,6661.853478
1429.015487,0.000000,962.267725,8808.450710
1429.015806,-1072.533697,962.267725,9548.656652
1429.016125,-1685.410096,-518.144159,10732.986159
1429.016444,-2528.115143,-1258.350101,12213.398043
1429.016762,-2681.334243,-1924.535449,13767.830521
1429.017081,-2145.067394,-518.144159,12509.480420
1429.017400,-1072.533697,-148.041188,11399.171507
1429.017719,76.609550,370.102971,10807.006753
1429.018037,612.876398,1554.432478,8586.388927
1429.018356,1455.581446,2368.659014,7105.977043
1429.018675,2221.676944,2294.638420,5551.544565
1429.018994,2451.505594,3034.844362,6587.832884
1429.019313,2604.724693,2590.720797,6661.853478
1429.019631,2068.457845,1480.411884,6809.894666
1429.019950,1685.410096,-296.082377,9252.574275
1429.020269,383.047749,-1110.308913,10362.883188
1429.020588,-383.047749,-1184.329507,10584.944971
1429.020906,-306.438199,-1850.514855,11547.212695
1429.021225,0.000000,-1184.329507,12657.521608
1429.021544,-153.219100,-1036.288319,12657.521608
1429.021863,689.485948,-666.185348,11029.068536
1429.022182,1455.581446,-0.000000,9844.739029
1429.022500,1838.629195,296.082377,8660.409521
1429.022819,2068.457845,592.164754,7105.977043
1429.023138,2298.286494,296.082377,6439.791695
1429.023457,1608.800546,-0.000000,6513.812290
1429.023775,1532.190996,222.061783,7105.977043
1429.024094,1072.533697,-0.000000,7179.997637
1429.024413,1378.971896,-370.102971,8438.347739
1429.024732,0.000000,-814.226536,9918.759623
1429.025051,-995.924147,-1406.391290,10214.842000
1429.025369,-1225.752797,-1776.494261,11177.109724
1429.025688,-1072.533697,-1184.329507,12139.377449
1429.026007,-842.705048,-1036.288319,11769.274478
1429.026326,-689.485948,-592.164754,10658.965565
1429.026645,-153.219100,444.123565,9918.759623
1429.026963,76.609550,1406.391290,8512.368333
1429.027282,459.657299,1184.329507,6587.832884
1429.027601,612.876398,444.123565,6587.832884
1429.027920,306.438199,1110.308913,7179.997637
1429.028238,229.828649,1110.308913,7105.977043
1429.028557,-459.657299,1036.288319,7402.059420
1429.028876,-383.047749,-0.000000,9178.553681
1429.029195,-1302.362347,962.267725,9770.718434
1429.029514,-1072.533697,592.164754,9770.718434
1429.029832,-1378.971896,-444.123565,11103.089130
1429.030151,-1072.533697,148.041188,12139.377449
1429.030470,-459.657299,518.144159,11325.150913
1429.030789,383.047749,1036.288319,10140.821405
1429.031107,1302.362347,1776.494261,9326.594869
1429.031426,1532.190996,2220.617826,7698.141797
1429.031745,1608.800546,2886.803174,6217.729913
1429.032064,1915.238745,2368.659014,6439.791695
1429.032383,1762.019645,2442.679609,6587.832884
1429.032701,1532.190996,2516.700203,7624.121203
1429.033020,689.485948,1924.535449,7698.141797
1429.033339,306.438199,814.226536,9474.636058
1429.033658,-1302.362347,296.082377,11325.150913
1429.033976,-1302.362347,444.123565,11695.253884
1429.034295,-1991.848295,-0.000000,12065.356855
1429.034614,-1455.581446,-0.000000,13619.789333
1429.034933,-995.924147,296.082377,14211.954086
1429.035252,536.266849,1332.370696,11399.171507
1429.035570,1608.800546,1702.473667,9696.697840
1429.035889,2145.067394,2368.659014,8882.471304
1429.036208,2528.115143,2812.782580,6587.832884
1429.036527,2451.505594,2368.659014,5329.482782
1429.036845,1991.848295,1850.514855,6587.832884
1429.037164,1225.752797,1554.432478,7624.121203
1429.037483,229.828649,1184.329507,7550.100608
1429.037802,-1225.752797,296.082377,8734.430116
1429.038121,-1762.019645,-0.000000,10955.047942
1429.038439,-2451.505594,-0.000000,11843.295072
1429.038758,-2604.724693,-666.185348,12509.480420
1429.039077,-3140.991542,-814.226536,13545.768739
1429.039396,-1762.019645,-518.144159,13841.851115
1429.039714,-766.095498,-0.000000,11991.336260
1429.040033,689.485948,518.144159,10288.862594
1429.040352,1991.848295,1110.308913,8512.368333
1429.040671,2604.724693,1924.535449,6365.771101
1429.040990,2987.772442,1998.556043,5181.441594
1429.041308,3217.601092,1924.535449,5551.544565
1429.041627,2604.724693,1850.514855,5921.647536
1429.041946,1991.848295,1480.411884,5995.668130
1429.042265,995.924147,370.102971,7550.100608
1429.042583,0.000000,-518.144159,9548.656652
1429.042902,-1149.143247,-888.247130,10362.883188
1429.043221,-1302.362347,-1776.494261,11843.295072
1429.043540,-1455.581446,-2664.741391,13397.727550
1429.043859,-1378.971896,-2590.720797,13915.871710
1429.044177,0.000000,-2072.576638,12583.501014
1429.044496,995.924147,-1480.411884,11251.130318
1429.044815,2068.457845,-296.082377,9178.553681
1429.045134,2604.724693,518.144159,6513.812290
1429.045453,3140.991542,666.185348,5329.482782
1429.045771,2987.772442,740.205942,5107.421000
1429.046090,2834.553343,962.267725,5699.585753
1429.046409,2221.676944,888.247130,5995.668130
1429.046728,1991.848295,-296.082377,6661.853478
1429.047046,689.485948,-888.247130,8808.450710
1429.047365,-689.485948,-1850.514855,10066.800811
1429.047684,-1455.581446,-2516.700203,10881.027347
1429.048003,-1838.629195,-2664.741391,12213.398043
1429.048322,-1608.800546,-2442.679609,12953.603985
1429.048640,-1378.971896,-1406.391290,11917.315666
1429.048959,-383.047749,-444.123565,10288.862594
1429.049278,229.828649,148.041188,9252.574275
1429.049597,76.609550,1258.350101,6809.894666
1429.049915,0.000000,1110.308913,5847.626942
1429.050234,0.000000,1702.473667,5921.647536
1429.050553,0.000000,2294.638420,6513.812290
1429.050872,-306.438199,1850.514855,6513.812290
1429.051191,-536.266849,1036.288319,7328.038826
1429.051509,-612.876398,592.164754,9030.512492
1429.051828,-842.705048,518.144159,9622.677246
1429.052147,-766.095498,-148.041188,10510.924376
1429.052466,-842.705048,-222.061783,11399.171507
1429.052784,-536.266849,-0.000000,11695.253884
1429.053103,459.657299,666.185348,10658.965565
1429.053422,919.314598,962.267725,9622.677246
1429.053741,1532.190996,1998.556043,8512.368333
1429.054059,1991.848295,2886.803174,7179.997637
1429.054378,2068.457845,2738.761985,5699.585753
1429.054697,1838.629195,2442.679609,6291.750507
1429.055016,1072.533697,2516.700203,8068.244768
1429.055334,536.266849,1332.370696,8290.306550
1429.055653,306.438199,-0.000000,9548.656652
1429.055972,0.000000,-444.123565,11029.068536
1429.056291,-153.219100,-814.226536,12435.459826
1429.056610,-612.876398,-962.267725,12065.356855
1429.056928,-383.047749,-148.041188,12213.398043
1429.057247,536.266849,-370.102971,12879.583391
1429.057566,1685.410096,-74.020594,11325.150913
1429.057885,2221.676944,-0.000000,10140.821405
1429.058203,2681.334243,814.226536,8808.450710
1429.058522,2834.553343,1628.453072,7254.018232
1429.058841,2298.286494,1036.288319,6217.729913
1429.059160,1685.410096,740.205942,7105.977043
1429.059478,306.438199,592.164754,8808.450710
1429.059797,153.219100,888.247130,8660.409521
1429.060116,-766.095498,444.123565,9548.656652
1429.060435,-1532.190996,-296.082377,11695.253884
1429.060753,-2145.067394,-444.123565,12583.501014
1429.061072,-1991.848295,-1332.370696,12731.542202
1429.061391,-1991.848295,-1850.514855,13471.748144
1429.061710,-536.266849,-962.267725,13841.851115
1429.062029,612.876398,444.123565,11769.274478
1429.062347,2298.286494,814.226536,9548.656652
1429.062666,3677.258390,1110.308913,8512.368333
1429.062985,4290.134789,2220.617826,5847.626942
1429.063304,5132.839837,2072.576638,4663.297435
1429.063622,4596.572988,1628.453072,4959.379811
1429.063941,3524.039291,1850.514855,5625.565159
1429.064260,2298.286494,1184.329507,5773.606348
1429.064579,842.705048,222.061783,7624.121203
1429.064897,-459.657299,-740.205942,9548.656652
1429.065216,-1685.410096,-1184.329507,10732.986159
1429.065535,-2374.896044,-2072.576638,11621.233289
1429.065854,-2298.286494,-2590.720797,13101.645173
1429.066172,-1991.848295,-2442.679609,13915.871710
1429.066491,-689.485948,-2072.576638,12435.459826
1429.066810,995.924147,-814.226536,11325.150913
1429.067129,2451.505594,-0.000000,8956.491898
1429.067448,3600.648841,1406.391290,6439.791695
1429.067766,4673.182538,1628.453072,4293.194464
1429.068085,4519.963438,1184.329507,4441.235652
1429.068404,3370.820191,666.185348,4441.235652
1429.068723,2451.505594,-74.020594,5181.441594
1429.069041,1149.143247,-1258.350101,6661.853478
1429.069360,-153.219100,-2368.659014,8512.368333
1429.069679,-1838.629195,-1998.556043,9696.697840
1429.069998,-3064.381992,-2516.700203,11177.109724
1429.070316,-3753.867940,-2812.782580,12435.459826
1429.070635,-3140.991542,-2442.679609,13767.830521
1429.070954,-2911.162892,-1924.535449,13249.686362
1429.071273,-1455.581446,-1110.308913,11769.274478
1429.071591,0.000000,-148.041188,10362.883188
1429.071910,919.314598,740.205942,7994.224174
1429.072229,2528.115143,1406.391290,5699.585753
1429.072548,3600.648841,1924.535449,4737.318029
1429.072867,2757.943793,2146.597232,4737.318029
1429.073185,2451.505594,2442.679609,5107.421000
1429.073504,1762.019645,2072.576638,5773.606348
1429.073823,1225.752797,1258.350101,7624.121203
1429.074142,-153.219100,444.123565,9474.636058
1429.074460,-1149.143247,222.061783,10288.862594
1429.074779,-1608.800546,-666.185348,11547.212695
1429.075098,-1762.019645,-962.267725,13323.706956
1429.075417,-1532.190996,-1184.329507,13249.686362
1429.075735,-306.438199,-666.185348,12435.459826
1429.076054,306.438199,444.123565,10955.047942
1429.076373,1685.410096,1998.556043,9030.512492
1429.076692,2145.067394,2442.679609,6439.791695
1429.077010,3294.210641,2220.617826,5773.606348
1429.077329,2681.334243,2368.659014,6513.812290
1429.077648,2145.067394,2442.679609,6809.894666
1429.077967,1455.581446,1480.411884,7476.080014
1429.078286,1072.533697,370.102971,8956.491898
1429.078604,-689.485948,-444.123565,10807.006753
1429.078923,-919.314598,-1036.288319,11843.295072
1429.079242,-995.924147,-1628.453072,12139.377449
1429.079561,-1838.629195,-1406.391290,13841.851115
1429.079879,-766.095498,-962.267725,14063.912898
1429.080198,0.000000,-370.102971,12435.459826
1429.080517,842.705048,148.041188,10807.006753
1429.080836,1072.533697,1184.329507,9400.615463
1429.081154,1762.019645,1184.329507,7550.100608
1429.081473,1991.848295,1554.432478,6365.771101
1429.081792,1149.143247,2072.576638,6735.874072
1429.082111,842.705048,2294.638420,6661.853478
1429.082429,153.219100,1702.473667,7698.141797
1429.082748,-153.219100,962.267725,9548.656652
1429.083067,-536.266849,444.123565,10732.986159
1429.083386,-1378.971896,-0.000000,11399.171507
1429.083705,-1532.190996,-962.267725,12583.501014
1429.084023,-1225.752797,-370.102971,13397.727550
1429.084342,153.219100,-0.000000,12879.583391
1429.084661,1378.971896,1184.329507,11769.274478
1429.084980,2451.505594,1110.308913,9622.677246
1429.085298,3370.820191,2368.659014,7624.121203
1429.085617,3907.087040,3701.029710,5033.400406
1429.085936,4519.963438,2516.700203,4071.132681
1429.086255,3600.648841,2072.576638,4663.297435
1429.086573,2451.505594,2368.659014,5551.544565
1429.086892,1532.190996,1184.329507,6735.874072
1429.087211,229.828649,-148.041188,8438.347739
1429.087530,-1149.143247,-222.061783,10807.006753
1429.087848,-1762.019645,-740.205942,11399.171507
1429.088167,-1915.238745,-1554.432478,12287.418637
1429.088486,-1762.019645,-2220.617826,14063.912898
1429.088805,-995.924147,-1850.514855,13619.789333
1429.089124,0.000000,-962.267725,11917.315666
1429.089442,995.924147,-518.144159,9696.697840
1429.089761,2068.457845,592.164754,7994.224174
1429.090080,2757.943793,592.164754,5699.585753
1429.090399,3217.601092,370.102971,4441.235652
1429.090717,2834.553343,814.226536,4515.256246
1429.091036,1455.581446,370.102971,4811.338623
1429.091355,766.095498,-74.020594,5847.626942
1429.091674,-153.219100,-1110.308913,7624.121203
1429.091992,-1532.190996,-2368.659014,9622.677246
1429.092311,-3064.381992,-2664.741391,11769.274478
1429.092630,-3524.039291,-3182.885551,12953.603985
1429.092949,-3447.429741,-2960.823768,13545.768739
1429.093267,-3447.429741,-2220.617826,14211.954086
1429.093586,-1685.410096,-888.247130,12953.603985
1429.093905,306.438199,222.061783,10584.944971
1429.094224,1838.629195,1776.494261,8216.285956
1429.094543,3140.991542,2590.720797,6143.709319
1429.094861,3907.087040,2516.700203,4441.235652
1429.095180,3753.867940,2368.659014,4441.235652
1429.095499,3447.429741,2220.617826,4737.318029
1429.095818,2604.724693,1554.432478,5255.462188
1429.096136,1685.410096,1036.288319,6735.874072
1429.096455,229.828649,370.102971,8364.327145
1429.096774,-842.705048,-518.144159,9696.697840
1429.097093,-1378.971896,-1036.288319,11399.171507
1429.097411,-2145.067394,-1776.494261,13249.686362
1429.097730,-2451.505594,-1110.308913,13693.809927
1429.098049,-1608.800546,-740.205942,13249.686362
1429.098368,-383.047749,444.123565,11843.295072
1429.098686,612.876398,962.267725,10066.800811
1429.099005,1991.848295,2072.576638,7846.182985
1429.099324,3064.381992,2220.617826,6513.812290
1429.099643,2987.772442,2368.659014,6069.688724
1429.099962,3294.210641,2590.720797,6513.812290
1429.100280,2681.334243,2516.700203,6291.750507
1429.100599,1762.019645,1480.411884,7402.059420
1429.100918,383.047749,1036.288319,9030.512492
1429.101237,-842.705048,222.061783,10436.903782
1429.101555,-995.924147,-296.082377,11029.068536
1429.101874,-1991.848295,-518.144159,12805.562797
1429.102193,-1991.848295,-740.205942,14359.995275
1429.102512,-2451.505594,-1332.370696,13101.645173
1429.102830,-1378.971896,-370.102971,12213.398043
1429.103149,-689.485948,296.082377,11103.089130
1429.103468,153.219100,2294.638420,8956.491898
1429.103787,919.314598,2146.597232,7179.997637
1429.104105,612.876398,2960.823768,6587.832884
1429.104424,536.266849,2516.700203,7920.203579
1429.104743,919.314598,2220.617826,7994.224174
1429.105062,536.266849,1554.432478,8956.491898
1429.105381,-459.657299,1554.432478,9696.697840
1429.105699,-536.266849,1258.350101,10584.944971
1429.106018,-689.485948,1332.370696,11103.089130
1429.106337,-383.047749,518.144159,12213.398043
1429.106656,229.828649,740.205942,12435.459826
1429.106974,459.657299,1258.350101,12065.356855
1429.107293,1378.971896,1184.329507,10807.006753
1429.107612,1762.019645,1332.370696,9326.594869
1429.107931,2374.896044,1776.494261,8216.285956
1429.108249,2757.943793,1776.494261,6365.771101
1429.108568,2911.162892,1998.556043,5773.606348
1429.108887,2145.067394,1554.432478,6587.832884
1429.109206,1838.629195,962.267725,7105.977043
1429.109524,842.705048,296.082377,7550.100608
1429.109843,-306.438199,-222.061783,9474.636058
1429.110162,-1149.143247,-74.020594,10584.944971
1429.110481,-1225.752797,-296.082377,10881.027347
1429.110800,-766.095498,-666.185348,11621.233289
1429.111118,-383.047749,-814.226536,12805.562797
1429.111437,153.219100,-1406.391290,11251.130318
1429.111756,1149.143247,-666.185348,9992.780217
1429.112075,2451.505594,-666.185348,8734.430116
1429.112393,2987.772442,592.164754,6513.812290
1429.112712,3294.210641,1036.288319,4441.235652
1429.113031,2451.505594,1184.329507,3923.091493
1429.113350,2298.286494,666.185348,4959.379811
1429.113668,995.924147,-0.000000,5847.626942
1429.113987,0.000000,-1184.329507,7179.997637
1429.114306,-1685.410096,-2368.659014,8734.430116
1429.114625,-2834.553343,-1998.556043,10288.862594
1429.114943,-3753.867940,-3478.967927,11917.315666
1429.115262,-3524.039291,-3256.906145,13323.706956
1429.115581,-2757.943793,-2516.700203,13767.830521
1429.115900,-1915.238745,-1628.453072,12435.459826
1429.116219,0.000000,-518.144159,11177.109724
1429.116537,1378.971896,370.102971,9696.697840
1429.116856,2374.896044,1480.411884,7772.162391
1429.117175,2451.505594,1332.370696,5625.565159
1429.117494,3064.381992,740.205942,4737.318029
1429.117812,2834.553343,1554.432478,5181.441594
1429.118131,2298.286494,1628.453072,5403.503377
1429.118450,1302.362347,518.144159,6661.853478
1429.118769,0.000000,-592.164754,8734.430116
1429.119087,-1072.533697,-888.247130,9844.739029
1429.119406,-1762.019645,-740.205942,10732.986159
1429.119725,-2068.457845,-1554.432478,12435.459826
1429.120044,-2145.067394,-888.247130,13767.830521
1429.120362,-1608.800546,-148.041188,13101.645173
1429.120681,-766.095498,444.123565,11843.295072
1429.121000,0.000000,740.205942,10881.027347
1429.121319,1072.533697,2368.659014,8956.491898
1429.121638,2068.457845,2960.823768,6809.894666
1429.121956,2374.896044,3256.906145,5477.523971
1429.122275,2681.334243,3256.906145,6069.688724
1429.122594,2068.457845,2368.659014,6439.791695
1429.122913,1838.629195,1998.556043,7254.018232
1429.123231,1225.752797,1332.370696,8068.244768
1429.123550,0.000000,962.267725,9918.759623
1429.123869,-612.876398,-0.000000,10807.006753
1429.124188,-1149.143247,-0.000000,12065.356855
1429.124506,-1455.581446,-0.000000,12583.501014
1429.124825,-1378.971896,-222.061783,13027.624579
1429.125144,-536.266849,296.082377,12361.439231
1429.125463,0.000000,962.267725,10658.965565
1429.125781,383.047749,1628.453072,9474.636058
1429.126100,842.705048,1850.514855,8290.306550
1429.126419,1378.971896,1998.556043,7254.018232
1429.126738,919.314598,2960.823768,7179.997637
1429.127057,1608.800546,3256.906145,7402.059420
1429.127375,919.314598,2442.679609,7624.121203
1429.127694,919.314598,1776.494261,9104.533087
1429.128013,766.095498,1110.308913,10584.944971
1429.128332,-536.266849,518.144159,10658.965565
1429.128650,-766.095498,-0.000000,11325.150913
1429.128969,-536.266849,-0.000000,12435.459826
1429.129288,0.000000,74.020594,12213.398043
1429.129607,0.000000,518.144159,11029.068536
1429.129925,919.314598,888.247130,10288.862594
1429.130244,1378.971896,1628.453072,9400.615463
1429.130563,2068.457845,2072.576638,7031.956449
1429.130882,2068.457845,1924.535449,5995.668130
1429.131200,1991.848295,1480.411884,7254.018232
1429.131519,1378.971896,1184.329507,7179.997637
1429.131838,536.266849,296.082377,7698.141797
1429.132157,153.219100,-0.000000,8956.491898
1429.132476,76.609550,-444.123565,9770.718434
1429.132794,-842.705048,-1110.308913,10362.883188
1429.133113,-842.705048,-1406.391290,11029.068536
1429.133432,-842.705048,-1628.453072,11695.253884
1429.133751,-153.219100,-814.226536,11251.130318
1429.134069,536.266849,-1110.308913,10510.924376
1429.134388,1072.533697,-1554.432478,10214.842000
1429.134707,1608.800546,-740.205942,9030.512492
1429.135026,1915.238745,-666.185348,6661.853478
1429.135344,1762.019645,-814.226536,5773.606348
1429.135663,1685.410096,-1184.329507,6587.832884
1429.135982,1455.581446,-74.020594,6809.894666
1429.136301,689.485948,-444.123565,6735.874072
1429.136619,229.828649,-962.267725,7994.224174
1429.136938,-229.828649,-1332.370696,9622.677246
1429.137257,-1225.752797,-1554.432478,9918.759623
1429.137576,-1378.971896,-2294.638420,10807.006753
1429.137895,-1608.800546,-2368.659014,11991.336260
1429.138213,-842.705048,-1850.514855,12065.356855
1429.138532,-459.657299,-814.226536,10807.006753
1429.138851,995.924147,-592.164754,10288.862594
1429.139170,1838.629195,592.164754,8438.347739
1429.139488,2145.067394,1184.329507,6957.935855
1429.139807,2757.943793,1332.370696,5255.462188
1429.140126,2681.334243,1998.556043,5033.400406
1429.140445,1915.238745,1850.514855,5181.441594
1429.140763,1225.752797,1184.329507,6439.791695
1429.141082,306.438199,370.102971,7328.038826
1429.141401,-306.438199,296.082377,8660.409521
1429.141720,-1225.752797,-222.061783,9918.759623
1429.142038,-1685.410096,-1036.288319,11177.109724
1429.142357,-1915.238745,-740.205942,11843.295072
1429.142676,-1455.581446,-0.000000,12139.377449
1429.142995,-995.924147,444.123565,11325.150913
1429.143314,-229.828649,1036.288319,10732.986159
1429.143632,842.705048,1850.514855,9326.594869
1429.143951,1149.143247,2368.659014,7920.203579
1429.144270,612.876398,2220.617826,7254.018232
1429.144589,766.095498,1850.514855,6883.915261
1429.144907,995.924147,2072.576638,7105.977043
1429.145226,766.095498,1702.473667,7328.038826
1429.145545,306.438199,740.205942,8660.409521
1429.145864,-383.047749,-0.000000,10362.883188
1429.146182,-766.095498,-444.123565,10881.027347
1429.146501,-842.705048,-370.102971,11621.233289
1429.146820,-766.095498,-370.102971,12953.603985
1429.147139,-536.266849,-0.000000,13101.645173
1429.147457,0.000000,222.061783,12065.356855
1429.147776,306.438199,-0.000000,11695.253884
1429.148095,1149.143247,1110.308913,10510.924376
1429.148414,1915.238745,1702.473667,8660.409521
1429.148733,2145.067394,1702.473667,6809.894666
1429.149051,2451.505594,2368.659014,7624.121203
1429.149370,1532.190996,1480.411884,7846.182985
1429.149689,1685.410096,1480.411884,8068.244768
1429.150008,1225.752797,1110.308913,9178.553681
1429.150326,-153.219100,666.185348,10288.862594
1429.150645,0.000000,296.082377,11177.109724
1429.150964,0.000000,-444.123565,11695.253884
1429.151283,-383.047749,-444.123565,12583.501014
1429.151602,229.828649,-222.061783,12583.501014
1429.151921,1225.752797,518.144159,11103.089130
1429.152240,1685.410096,370.102971,10140.821405
1429.152559,2298.286494,1406.391290,9178.553681
1429.152877,1991.848295,1924.535449,7254.018232
1429.153196,2068.457845,1258.350101,6587.832884
1429.153515,1302.362347,888.247130,6735.874072
1429.153834,1225.752797,888.247130,7550.100608
1429.154153,306.438199,444.123565,7846.182985
1429.154472,0.000000,-74.020594,8586.388927
1429.154791,-689.485948,-888.247130,10066.800811
1429.155110,-995.924147,-1998.556043,10658.965565
1429.155428,-766.095498,-2072.576638,10658.965565
1429.155747,-153.219100,-1258.350101,11325.150913
1429.156066,459.657299,-1258.350101,11399.171507
1429.156385,1455.581446,-962.267725,10214.842000
1429.156704,2068.457845,-296.082377,9252.574275
1429.157023,2681.334243,814.226536,7772.162391
1429.157342,2987.772442,1184.329507,6365.771101
1429.157661,2834.553343,518.144159,5847.626942
1429.157980,2451.505594,222.061783,6513.812290
1429.158298,612.876398,74.020594,6291.750507
1429.158617,153.219100,-444.123565,7920.203579
1429.158936,-536.266849,-1184.329507,8882.471304
1429.159255,-1532.190996,-1332.370696,10214.842000
1429.159574,-2221.676944,-1776.494261,10881.027347
1429.159893,-1991.848295,-2146.597232,11103.089130
1429.160212,-1991.848295,-1924.535449,11843.295072
1429.160531,-842.705048,-1110.308913,11621.233289
1429.160849,76.609550,-74.020594,10140.821405
1429.161168,1072.533697,148.041188,8882.471304
1429.161487,2451.505594,962.267725,7105.977043
1429.161806,2604.724693,1480.411884,5477.523971
1429.162125,2834.553343,1850.514855,4145.153275
1429.162444,2221.676944,1480.411884,4441.235652
1429.162763,1532.190996,1480.411884,5625.565159
1429.163082,459.657299,962.267725,6735.874072
1429.163401,-536.266849,518.144159,8216.285956
1429.163719,-1302.362347,-222.061783,10140.821405
1429.164038,-1915.238745,-74.020594,11103.089130
1429.164357,-1685.410096,-518.144159,11769.274478
1429.164676,-1838.629195,-814.226536,12583.501014
1429.164995,-995.924147,148.041188,12509.480420
1429.165314,-153.219100,296.082377,11177.109724
1429.165633,1072.533697,444.123565,9770.718434
1429.165952,2145.067394,666.185348,8882.471304
1429.166270,2451.505594,2146.597232,6809.894666
1429.166589,2911.162892,2368.659014,4885.359217
1429.166908,3217.601092,2220.617826,5477.523971
1429.167227,2374.896044,2220.617826,6661.853478
1429.167546,1455.581446,1776.494261,7105.977043
1429.167865,536.266849,296.082377,8586.388927
1429.168184,-306.438199,-666.185348,10732.986159
1429.168503,-1685.410096,-2146.597232,12139.377449
1429.168821,-1838.629195,-2368.659014,13175.665768
1429.169140,-1915.238745,-2294.638420,14285.974681
1429.169459,-2068.457845,-1554.432478,14285.974681
1429.169778,-1072.533697,-666.185348,13471.748144
1429.170097,153.219100,444.123565,11843.295072
1429.170416,1455.581446,1184.329507,9992.780217
1429.170735,2451.505594,2146.597232,8216.285956
1429.171054,2834.553343,2220.617826,6735.874072
1429.171373,2681.334243,1850.514855,6439.791695
1429.171691,2451.505594,1110.308913,6809.894666
1429.172010,1838.629195,740.205942,7698.141797
1429.172329,1072.533697,222.061783,8734.430116
1429.172648,919.314598,518.144159,9770.718434
1429.172967,76.609550,740.205942,10658.965565
1429.173286,-306.438199,-0.000000,11325.150913
1429.173605,-689.485948,-370.102971,12361.439231
1429.173924,-229.828649,-74.020594,13175.665768
1429.174242,306.438199,888.247130,12583.501014
1429.174561,1532.190996,1332.370696,10732.986159
1429.174880,1838.629195,2146.597232,9326.594869
1429.175199,2374.896044,3034.844362,6957.935855
1429.175518,2681.334243,2368.659014,5107.421000
1429.175837,2068.457845,1554.432478,5403.503377
1429.176156,2451.505594,1554.432478,6661.853478
1429.176475,2068.457845,1850.514855,6365.771101
1429.176794,995.924147,1554.432478,6957.935855
1429.177112,0.000000,444.123565,9548.656652
1429.177431,-383.047749,148.041188,9992.780217
1429.177750,-1685.410096,-518.144159,9992.780217
1429.178069,-1685.410096,-1332.370696,11695.253884
1429.178388,-1378.971896,-814.226536,12361.439231
1429.178707,-995.924147,-888.247130,11695.253884
1429.179026,0.000000,-814.226536,10140.821405
1429.179345,919.314598,-370.102971,9918.759623
1429.179663,842.705048,370.102971,7624.121203
1429.179982,1532.190996,888.247130,5773.606348
1429.180301,1225.752797,814.226536,5921.647536
1429.180620,1149.143247,1480.411884,6587.832884
1429.180939,766.095498,1110.308913,6587.832884
1429.181258,-383.047749,-296.082377,7920.203579
1429.181577,-919.314598,-1480.411884,9474.636058
1429.181896,-1378.971896,-1776.494261,10140.821405
1429.182215,-1915.238745,-2220.617826,10807.006753
1429.182533,-2145.067394,-2368.659014,11991.336260
1429.182852,-1532.190996,-1702.473667,12657.521608
1429.183171,-689.485948,-1036.288319,11843.295072
1429.183490,612.876398,-814.226536,10658.965565
1429.183809,2068.457845,-0.000000,9548.656652
1429.184128,2681.334243,1110.308913,7846.182985
1429.184447,3064.381992,2072.576638,5625.565159
1429.184766,3140.991542,1850.514855,5255.462188
1429.185084,2681.334243,1924.535449,5699.585753
1429.185403,1532.190996,1554.432478,6143.709319
1429.185722,995.924147,1036.288319,7550.100608
1429.186041,153.219100,-0.000000,9030.512492
1429.186360,0.000000,-740.205942,10362.883188
1429.186679,-1378.971896,-1332.370696,10732.986159
1429.186998,-1991.848295,-1702.473667,12435.459826
1429.187317,-1532.190996,-1110.308913,13175.665768
1429.187636,-995.924147,-222.061783,12435.459826
1429.187954,76.609550,592.164754,11769.274478
1429.188273,1608.800546,1036.288319,10140.821405
1429.188592,2604.724693,1628.453072,8512.368333
1429.188911,2987.772442,1480.411884,5847.626942
1429.189230,3140.991542,1406.391290,5995.668130
1429.189549,2451.505594,1406.391290,5699.585753
1429.189868,1838.629195,1776.494261,6513.812290
1429.190187,1072.533697,592.164754,7772.162391
1429.190505,0.000000,296.082377,9252.574275
1429.190824,-1455.581446,-222.061783,10807.006753
1429.191143,-1991.848295,-296.082377,11177.109724
1429.191462,-2374.896044,-1036.288319,12731.542202
1429.191781,-2528.115143,-1258.350101,13767.830521
1429.192100,-2374.896044,-74.020594,13101.645173
1429.192419,-1378.971896,-222.061783,11991.336260
1429.192738,0.000000,444.123565,11029.068536
1429.193057,842.705048,1924.535449,9030.512492
1429.193375,2145.067394,2812.782580,6587.832884
1429.193694,1991.848295,2812.782580,4811.338623
1429.194013,1762.019645,2960.823768,5921.647536
1429.194332,1608.800546,2738.761985,6217.729913
1429.194651,919.314598,2220.617826,6365.771101
1429.194970,0.000000,1332.370696,8734.430116
1429.195289,-229.828649,888.247130,10955.047942
1429.195608,-1225.752797,1258.350101,10732.986159
1429.195926,-1762.019645,296.082377,11917.315666
1429.196245,-1685.410096,-74.020594,13323.706956
1429.196564,-1072.533697,592.164754,12953.603985
1429.196883,229.828649,1258.350101,11473.192101
1429.197202,842.705048,1332.370696,10362.883188
1429.197521,2298.286494,2442.679609,8808.450710
1429.197840,2528.115143,2442.679609,6143.709319
1429.198159,2834.553343,2146.597232,4885.359217
1429.198478,2911.162892,1924.535449,5477.523971
1429.198796,2374.896044,1924.535449,5847.626942
1429.199115,1378.971896,1554.432478,6661.853478
1429.199434,536.266849,444.123565,8512.368333
1429.199753,0.000000,-370.102971,10732.986159
1429.200072,-842.705048,-518.144159,11399.171507
1429.200391,-1072.533697,-1110.308913,12065.356855
1429.200710,-1608.800546,-1850.514855,13027.624579
1429.201029,-1072.533697,-1258.350101,13841.851115
1429.201347,-153.219100,-1776.494261,12731.542202
1429.201666,306.438199,-1406.391290,11177.109724
1429.201985,1302.362347,-444.123565,10066.800811
1429.202304,2221.676944,296.082377,7772.162391
1429.202623,2374.896044,740.205942,5107.421000
1429.202942,2145.067394,814.226536,5403.503377
1429.203261,1685.410096,370.102971,5921.647536
1429.203580,995.924147,444.123565,6217.729913
1429.203899,689.485948,-888.247130,8068.244768
1429.204217,-459.657299,-814.226536,10732.986159
1429.204536,-689.485948,-814.226536,10955.047942
1429.204855,-2068.457845,-1702.473667,10807.006753
1429.205174,-1991.848295,-2960.823768,13249.686362
1429.205493,-1378.971896,-2738.761985,13767.830521
1429.205812,-229.828649,-1998.556043,12139.377449
1429.206131,1149.143247,-592.164754,10436.903782
1429.206450,1915.238745,814.226536,8734.430116
1429.206768,3217.601092,2072.576638,6661.853478
1429.207087,3830.477490,2072.576638,4515.256246
1429.207406,2757.943793,2516.700203,4663.297435
1429.207725,2374.896044,2368.659014,5033.400406
1429.208044,0.000000,3478.967927,2664.741391
1429.208363,-153.219100,1554.432478,5995.668130
1429.208682,-1302.362347,-1628.453072,10732.986159
1429.209001,-2374.896044,-370.102971,10214.842000
1429.209320,-2068.457845,-2220.617826,11399.171507
1429.209638,-3140.991542,-962.267725,12509.480420
1429.209957,-1838.629195,-518.144159,13989.892304
1429.210276,-689.485948,-444.123565,11547.212695
1429.210595,-766.095498,444.123565,10658.965565
1429.210914,995.924147,814.226536,9844.739029
1429.211233,1225.752797,3108.864956,5921.647536
1429.211552,2298.286494,3627.009116,4663.297435
1429.211871,2987.772442,1850.514855,4959.379811
1429.212189,1532.190996,2812.782580,5699.585753
1429.212508,1225.752797,222.061783,5847.626942
1429.212827,76.609550,740.205942,7698.141797
1429.213146,-919.314598,222.061783,9918.759623
1429.213465,-1302.362347,-0.000000,11029.068536
1429.213784,-1838.629195,370.102971,12361.439231
1429.214103,-1991.848295,-1776.494261,13693.809927
1429.214422,-2068.457845,-2294.638420,14508.036463
1429.214740,-1685.410096,-666.185348,14063.912898
1429.215059,0.000000,-74.020594,12953.603985
1429.215378,842.705048,1332.370696,10436.903782
1429.215697,2145.067394,2738.761985,8364.327145
1429.216016,2834.553343,2738.761985,6809.894666
1429.216335,2911.162892,2590.720797,5847.626942
1429.216654,3830.477490,2812.782580,6587.832884
1429.216973,2834.553343,3478.967927,6143.709319
1429.217292,2528.115143,2738.761985,7105.977043
1429.217610,1149.143247,962.267725,8956.491898
1429.217929,-306.438199,222.061783,11399.171507
1429.218248,-842.705048,-962.267725,12361.439231
1429.218567,-1302.362347,148.041188,12879.583391
1429.218886,-995.924147,296.082377,13545.768739
1429.219205,-612.876398,740.205942,12731.542202
1429.219524,-153.219100,-0.000000,11843.295072
1429.219843,383.047749,-0.000000,10362.883188
1429.220161,1225.752797,1480.411884,8512.368333
1429.220480,1915.238745,2294.638420,6291.750507
1429.220799,2834.553343,2442.679609,6513.812290
1429.221118,2451.505594,2368.659014,5773.606348
1429.221437,2221.676944,1776.494261,6291.750507
1429.221756,1378.971896,888.247130,7254.018232
1429.222075,612.876398,370.102971,8290.306550
1429.222394,689.485948,-444.123565,9474.636058
1429.222713,-1149.143247,-740.205942,10362.883188
1429.223031,-1532.190996,-1406.391290,11251.130318
1429.223350,-2145.067394,-1702.473667,12287.418637
1429.223669,-1915.238745,-2146.597232,13323.706956
1429.223988,-919.314598,-2294.638420,12287.418637
1429.224307,-306.438199,-1184.329507,10584.944971
1429.224626,689.485948,-666.185348,9178.553681
1429.224945,919.314598,-518.144159,7254.018232
1429.225264,1532.190996,-518.144159,6069.688724
1429.225582,1762.019645,-370.102971,6661.853478
1429.225901,2145.067394,-0.000000,6809.894666
1429.226220,919.314598,-666.185348,5995.668130
1429.226539,1072.533697,-814.226536,8142.265362
1429.226858,306.438199,-1554.432478,9770.718434
1429.227177,0.000000,-1850.514855,9770.718434
1429.227496,-153.219100,-1924.535449,10881.027347
1429.227815,0.000000,-962.267725,11991.336260
1429.228134,153.219100,-592.164754,11325.150913
1429.228452,919.314598,-740.205942,10140.821405
1429.228771,1685.410096,518.144159,9918.759623
1429.229090,1685.410096,592.164754,8438.347739
1429.229409,2068.457845,1036.288319,6143.709319
1429.229728,1915.238745,888.247130,5995.668130
1429.230047,2068.457845,1702.473667,6143.709319
1429.230366,1532.190996,1924.535449,5329.482782
1429.230685,1302.362347,1850.514855,6291.750507
1429.231003,229.828649,1110.308913,7846.182985
1429.231322,383.047749,444.123565,9030.512492
1429.231641,-1225.752797,-296.082377,10066.800811
1429.231960,-1072.533697,-814.226536,11325.150913
1429.232279,-1302.362347,-962.267725,11843.295072
1429.232598,-766.095498,-74.020594,11547.212695
1429.232917,229.828649,-0.000000,10955.047942
1429.233236,383.047749,666.185348,9918.759623
1429.233555,612.876398,1554.432478,8438.347739
1429.233873,995.924147,1850.514855,6809.894666
1429.234192,1302.362347,1702.473667,6291.750507
1429.234511,842.705048,1480.411884,6735.874072
1429.234830,76.609550,1184.329507,7624.121203
1429.235149,-459.657299,222.061783,8364.327145
1429.235468,-459.657299,222.061783,9400.615463
1429.235787,-689.485948,222.061783,10881.027347
1429.236106,-842.705048,-0.000000,11991.336260
1429.236424,-919.314598,-814.226536,12583.501014
1429.236743,-153.219100,-296.082377,13471.748144
1429.237062,229.828649,-148.041188,12805.562797
1429.237381,919.314598,-444.123565,12139.377449
1429.237700,2068.457845,740.205942,10658.965565
1429.238019,2374.896044,1850.514855,8956.491898
1429.238338,2757.943793,2072.576638,6735.874072
1429.238657,2681.334243,2146.597232,6809.894666
1429.238976,3064.381992,1924.535449,7105.977043
1429.239294,1532.190996,1480.411884,7698.141797
1429.239613,995.924147,814.226536,8512.368333
1429.239932,0.000000,-0.000000,9992.780217
1429.240251,-383.047749,-0.000000,11843.295072
1429.240570,-612.876398,-74.020594,11695.253884
1429.240889,-1072.533697,-0.000000,11917.315666
1429.241208,-919.314598,-296.082377,12953.603985
1429.241527,0.000000,148.041188,12213.398043
1429.241845,919.314598,-0.000000,11029.068536
1429.242164,1302.362347,1406.391290,9770.718434
1429.242483,1838.629195,2072.576638,7994.224174
1429.242802,1762.019645,2294.638420,6069.688724
1429.243121,2221.676944,1924.535449,5847.626942
1429.243440,1838.629195,1480.411884,6439.791695
1429.243759,1149.143247,1554.432478,6587.832884
1429.244078,383.047749,814.226536,7254.018232
1429.244397,-459.657299,-370.102971,9178.553681
1429.244715,-919.314598,-1184.329507,10140.821405
1429.245034,-1685.410096,-1184.329507,10436.903782
1429.245353,-1685.410096,-2072.576638,11769.274478
1429.245672,-1455.581446,-1406.391290,12065.356855
1429.245991,-612.876398,-296.082377,11695.253884
1429.246310,766.095498,-148.041188,10140.821405
1429.246629,1225.752797,296.082377,9548.656652
1429.246948,2221.676944,222.061783,8216.285956
1429.247266,2528.115143,592.164754,5847.626942
1429.247585,2834.553343,222.061783,5255.462188
1429.247904,2987.772442,-0.000000,6291.750507
1429.248223,2374.896044,-74.020594,6735.874072
1429.248542,1149.143247,-296.082377,7179.997637
1429.248861,383.047749,-1110.308913,8734.430116
1429.249180,-766.095498,-1184.329507,10066.800811
1429.249499,-2145.067394,-1332.370696,10807.006753
1429.249818,-1838.629195,-1850.514855,11695.253884
1429.250136,-1608.800546,-1554.432478,12213.398043
1429.250455,-919.314598,-1184.329507,12139.377449
1429.250774,-383.047749,-962.267725,11547.212695
1429.251093,1072.533697,-222.061783,9696.697840
1429.251412,1608.800546,888.247130,8364.327145
1429.251731,2604.724693,1776.494261,6069.688724
1429.252050,2987.772442,1554.432478,5329.482782
1429.252369,2374.896044,1702.473667,5699.585753
1429.252688,2374.896044,1110.308913,6735.874072
1429.253007,1915.238745,814.226536,7031.956449
1429.253326,766.095498,296.082377,8142.265362
1429.253645,0.000000,-592.164754,10214.842000
1429.253964,-1838.629195,-740.205942,10214.842000
1429.254283,-1762.019645,-1480.411884,11177.109724
1429.254601,-1838.629195,-1702.473667,12509.480420
1429.254920,-995.924147,148.041188,11991.336260
1429.255239,-612.876398,-222.061783,11029.068536
1429.255558,0.000000,296.082377,10436.903782
1429.255877,766.095498,740.205942,9770.718434
1429.256196,1455.581446,1554.432478,7402.059420
1429.256514,2298.286494,2294.638420,6365.771101
1429.256833,2374.896044,2072.576638,7179.997637
1429.257152,2451.505594,2072.576638,7328.038826
1429.257471,1991.848295,2368.659014,6735.874072
1429.257790,1532.190996,962.267725,8586.388927
1429.258109,1072.533697,814.226536,9548.656652
1429.258428,612.876398,-74.020594,10066.800811
1429.258746,-306.438199,-518.144159,10732.986159
1429.259065,-842.705048,-740.205942,11991.336260
1429.259384,-766.095498,-666.185348,12361.439231
1429.259703,-536.266849,-148.041188,11621.233289
1429.260022,-153.219100,-0.000000,11177.109724
1429.260341,306.438199,962.267725,9770.718434
1429.260659,689.485948,2146.597232,8068.244768
1429.260978,1225.752797,1776.494261,6661.853478
1429.261297,1149.143247,1776.494261,6661.853478
1429.261616,842.705048,2072.576638,7624.121203
1429.261935,612.876398,1702.473667,7550.100608
1429.262254,153.219100,1628.453072,8438.347739
1429.262572,-229.828649,740.205942,10436.903782
1429.262891,-766.095498,370.102971,11177.109724
1429.263210,-1225.752797,-0.000000,11103.089130
1429.263529,-1455.581446,-444.123565,12731.542202
1429.263848,-1072.533697,222.061783,12731.542202
1429.264167,0.000000,888.247130,11621.233289
1429.264486,1225.752797,1036.288319,9918.759623
1429.264804,1685.410096,1554.432478,9548.656652
1429.265123,1685.410096,1850.514855,7254.018232
1429.265442,1991.848295,1480.411884,5995.668130
1429.265761,1838.629195,1332.370696,6217.729913
1429.266080,1685.410096,1332.370696,7105.977043
1429.266399,919.314598,1258.350101,7328.038826
1429.266717,842.705048,296.082377,9104.533087
1429.267036,229.828649,-370.102971,11103.089130
1429.267355,0.000000,-0.000000,10807.006753
1429.267674,153.219100,-222.061783,11917.315666
1429.267993,229.828649,-666.185348,12361.439231
1429.268312,76.609550,-444.123565,12805.562797
1429.268630,995.924147,-666.185348,11843.295072
1429.268949,1838.629195,-0.000000,10510.924376
1429.269268,2221.676944,-0.000000,9474.636058
1429.269587,2374.896044,1184.329507,7624.121203
1429.269906,2451.505594,1036.288319,6365.771101
1429.270225,2298.286494,592.164754,5995.668130
1429.270544,1685.410096,518.144159,6883.915261
1429.270862,76.609550,-296.082377,7624.121203
1429.271181,-306.438199,-1332.370696,8660.409521
1429.271500,-842.705048,-1480.411884,9844.739029
1429.271819,-1838.629195,-1702.473667,10510.924376
1429.272138,-1991.848295,-2072.576638,11029.068536
1429.272457,-1762.019645,-1924.535449,11399.171507
1429.272775,-1072.533697,-1332.370696,11621.233289
1429.273094,0.000000,-592.164754,10807.006753
1429.273413,995.924147,-222.061783,9918.759623
1429.273732,1685.410096,1480.411884,8142.265362
1429.274051,2298.286494,2590.720797,5773.606348
1429.274370,2068.457845,2072.576638,4737.318029
1429.274688,2068.457845,1628.453072,4959.379811
1429.275007,1685.410096,1184.329507,5921.647536
1429.275326,919.314598,1036.288319,6513.812290
1429.275645,76.609550,444.123565,7698.141797
1429.275964,-383.047749,-74.020594,9326.594869
1429.276283,-1072.533697,-370.102971,9992.780217
1429.276602,-1532.190996,-962.267725,10510.924376
1429.276920,-1762.019645,-1554.432478,10807.006753
1429.277239,-1302.362347,-962.267725,11769.274478
1429.277558,-689.485948,-444.123565,11177.109724
1429.277877,459.657299,148.041188,9696.697840
1429.278196,536.266849,444.123565,8512.368333
1429.278515,919.314598,1184.329507,7476.080014
1429.278833,1225.752797,1554.432478,5477.523971
1429.279152,1072.533697,1036.288319,5625.565159
1429.279471,1225.752797,1110.308913,7402.059420
1429.279790,383.047749,888.247130,8068.244768
1429.280109,-766.095498,-444.123565,8808.450710
1429.280428,-995.924147,-222.061783,10510.924376
1429.280746,-1455.581446,-296.082377,11621.233289
1429.281065,-1149.143247,-814.226536,12213.398043
1429.281384,-1302.362347,-1036.288319,12657.521608
1429.281703,-689.485948,-592.164754,12731.542202
1429.282022,-383.047749,-0.000000,11325.150913
1429.282341,1378.971896,-0.000000,10510.924376
1429.282660,1838.629195,740.205942,9400.615463
1429.282978,2451.505594,2368.659014,6957.935855
1429.283297,2298.286494,2442.679609,5551.544565
1429.283616,2604.724693,2442.679609,5995.668130
1429.283935,2068.457845,2072.576638,7179.997637
1429.284254,1072.533697,2368.659014,7846.182985
1429.284573,689.485948,1628.453072,9030.512492
1429.284891,383.047749,814.226536,11029.068536
1429.285210,-383.047749,666.185348,12213.398043
1429.285529,-459.657299,740.205942,12953.603985
1429.285848,-536.266849,370.102971,13101.645173
1429.286167,306.438199,1036.288319,12657.521608
1429.286486,1378.971896,1628.453072,11917.315666
1429.286804,1838.629195,1628.453072,10584.944971
1429.287123,2757.943793,1776.494261,9474.636058
1429.287442,2987.772442,2294.638420,7179.997637
1429.287761,3140.991542,3034.844362,5329.482782
1429.288080,3064.381992,2442.679609,5255.462188
1429.288399,2145.067394,1628.453072,5847.626942
1429.288718,766.095498,814.226536,7624.121203
1429.289036,-689.485948,-518.144159,8808.450710
1429.289355,-1378.971896,-444.123565,10658.965565
1429.289674,-2374.896044,-962.267725,11917.315666
1429.289993,-2911.162892,-1036.288319,12065.356855
1429.290312,-3140.991542,-1924.535449,13471.748144
1429.290631,-2834.553343,-1554.432478,13767.830521
1429.290949,-1915.238745,-740.205942,12583.501014
1429.291268,-383.047749,-222.061783,10807.006753
1429.291587,536.266849,296.082377,9844.739029
1429.291906,1762.019645,1258.350101,7994.224174
1429.292225,2604.724693,1406.391290,5625.565159
1429.292544,2681.334243,740.205942,4959.379811
1429.292863,2451.505594,518.144159,5551.544565
1429.293181,1608.800546,296.082377,5847.626942
1429.293500,1149.143247,-74.020594,6809.894666
1429.293819,153.219100,-1036.288319,8808.450710
1429.294138,-1915.238745,-1554.432478,9622.677246
1429.294457,-1762.019645,-1554.432478,11029.068536
1429.294776,-2221.676944,-2072.576638,11621.233289
1429.295094,-1532.190996,-1332.370696,12805.562797
1429.295413,-995.924147,-814.226536,11917.315666
1429.295732,76.609550,-74.020594,10436.903782
1429.296051,1532.190996,296.082377,9474.636058
1429.296370,2451.505594,1554.432478,7846.182985
1429.296689,3447.429741,1924.535449,5255.462188
1429.297007,3907.087040,1924.535449,4219.173869
1429.297326,4060.306139,1776.494261,4293.194464
1429.297645,2911.162892,1702.473667,4959.379811
1429.297964,2221.676944,518.144159,6365.771101
1429.298283,766.095498,-148.041188,8290.306550
1429.298602,-306.438199,-592.164754,9622.677246
1429.298921,-995.924147,-2146.597232,10955.047942
1429.299239,-1838.629195,-2072.576638,12435.459826
1429.299558,-2604.724693,-2738.761985,13101.645173
1429.299877,-1915.238745,-1776.494261,13101.645173
1429.300196,-1378.971896,-888.247130,11621.233289
1429.300515,0.000000,222.061783,9844.739029
1429.300834,612.876398,1554.432478,8290.306550
1429.301152,1532.190996,2294.638420,6365.771101
1429.301471,1762.019645,2146.597232,4811.338623
1429.301790,2145.067394,2590.720797,4811.338623
1429.302109,1915.238745,2072.576638,6069.688724
1429.302428,1378.971896,1110.308913,7402.059420
1429.302747,766.095498,-370.102971,9252.574275
1429.303065,-842.705048,-370.102971,9918.759623
1429.303384,-919.314598,-888.247130,11029.068536
1429.303703,-1608.800546,-962.267725,12139.377449
1429.304022,-995.924147,-444.123565,13175.665768
1429.304341,-1302.362347,-222.061783,12731.542202
1429.304660,-842.705048,814.226536,12065.356855
1429.304979,229.828649,1036.288319,10658.965565
1429.305297,1225.752797,1924.535449,8956.491898
1429.305616,1838.629195,2664.741391,7476.080014
1429.305935,1915.238745,2516.700203,6217.729913
1429.306254,1378.971896,2146.597232,6365.771101
1429.306573,1838.629195,2294.638420,7031.956449
1429.306892,1302.362347,1628.453072,7846.182985
1429.307210,919.314598,1184.329507,9326.594869
1429.307529,76.609550,518.144159,11103.089130
1429.307848,-919.314598,-148.041188,12139.377449
1429.308167,-1302.362347,-222.061783,12805.562797
1429.308486,-612.876398,222.061783,13841.851115
1429.308805,0.000000,666.185348,13101.645173
1429.309123,766.095498,296.082377,11843.295072
1429.309442,1685.410096,-0.000000,10510.924376
1429.309761,2451.505594,1184.329507,8808.450710
1429.310080,3064.381992,1998.556043,6365.771101
1429.310399,3524.039291,1406.391290,5181.441594
1429.310718,2987.772442,1258.350101,5551.544565
1429.311037,2451.505594,1258.350101,5847.626942
1429.311355,1532.190996,1110.308913,6735.874072
1429.311674,76.609550,-0.000000,9104.533087
1429.311993,-536.266849,-0.000000,10807.006753
1429.312312,-1072.533697,-222.061783,11695.253884
1429.312631,-1991.848295,-1258.350101,12509.480420
1429.312950,-1991.848295,-1998.556043,13915.871710
1429.313268,-1455.581446,-1554.432478,13471.748144
1429.313587,-383.047749,-888.247130,11917.315666
1429.313906,0.000000,-444.123565,10362.883188
1429.314225,1608.800546,592.164754,9178.553681
1429.314544,2298.286494,1258.350101,6291.750507
1429.314863,2681.334243,1628.453072,4367.215058
1429.315181,2757.943793,1036.288319,4145.153275
1429.315500,2374.896044,1406.391290,5181.441594
1429.315819,1532.190996,518.144159,5477.523971
1429.316138,689.485948,-888.247130,7179.997637
1429.316457,-459.657299,-1554.432478,9474.636058
1429.316776,-1915.238745,-1776.494261,10436.903782
1429.317095,-2451.505594,-2146.597232,11547.212695
1429.317413,-2528.115143,-2072.576638,12805.562797
1429.317732,-1762.019645,-1184.329507,12805.562797
1429.318051,-919.314598,-962.267725,11621.233289
1429.318370,-306.438199,-592.164754,10288.862594
1429.318689,919.314598,666.185348,8956.491898
1429.319008,1532.190996,1184.329507,6735.874072
1429.319326,2221.676944,1184.329507,4885.359217
1429.319645,1685.410096,888.247130,5329.482782
1429.319964,2068.457845,1036.288319,5181.441594
1429.320283,1532.190996,1036.288319,5255.462188
1429.320602,1072.533697,296.082377,7105.977043
1429.320921,229.828649,222.061783,8660.409521
1429.321240,-459.657299,-666.185348,10140.821405
1429.321558,-1225.752797,-1628.453072,11473.192101
1429.321877,-1608.800546,-1258.350101,12435.459826
1429.322196,-1149.143247,-296.082377,12731.542202
1429.322515,-689.485948,-0.000000,11843.295072
1429.322834,229.828649,222.061783,11251.130318
1429.323153,766.095498,888.247130,10066.800811
1429.323471,1685.410096,2220.617826,7772.162391
1429.323790,2528.115143,1554.432478,6883.915261
1429.324109,2834.553343,1702.473667,6217.729913
1429.324428,2681.334243,1554.432478,6513.812290
1429.324747,2451.505594,1258.350101,7105.977043
1429.325066,1455.581446,592.164754,7772.162391
1429.325384,995.924147,296.082377,9474.636058
1429.325703,536.266849,-222.061783,10436.903782
1429.326022,-383.047749,-222.061783,11695.253884
1429.326341,-766.095498,-814.226536,12879.583391
1429.326660,-1072.533697,-740.205942,13619.789333
1429.326979,-766.095498,-296.082377,13101.645173
1429.327298,-383.047749,-0.000000,11769.274478
1429.327616,-229.828649,1110.308913,11103.089130
1429.327935,536.266849,1924.535449,9400.615463
1429.328254,1225.752797,2146.597232,7031.956449
1429.328573,1302.362347,2146.597232,6809.894666
1429.328892,842.705048,1258.350101,7550.100608
1429.329211,842.705048,1406.391290,7476.080014
1429.329529,0.000000,962.267725,8068.244768
1429.329848,-383.047749,814.226536,9622.677246
1429.330167,-1302.362347,148.041188,10436.903782
1429.330486,-1302.362347,-0.000000,10807.006753
1429.330805,-1762.019645,222.061783,12065.356855
1429.331124,-1149.143247,666.185348,12287.418637
1429.331442,-306.438199,1184.329507,11621.233289
1429.331761,536.266849,1554.432478,10436.903782
1429.332080,1455.581446,1258.350101,9844.739029
1429.332399,2298.286494,1850.514855,7920.203579
1429.332718,3064.381992,2220.617826,6291.750507
1429.333037,2834.553343,2220.617826,5477.523971
1429.333356,2987.772442,2294.638420,5847.626942
1429.333674,2298.286494,2368.659014,6735.874072
1429.333993,1225.752797,888.247130,7328.038826
1429.334312,459.657299,444.123565,9104.533087
1429.334631,-306.438199,444.123565,9844.739029
1429.334950,-842.705048,-518.144159,10510.924376
1429.335269,-919.314598,-1258.350101,11843.295072
1429.335587,-1072.533697,-1480.411884,12731.542202
1429.335906,-842.705048,-1258.350101,11547.212695
1429.336225,76.609550,-1998.556043,10658.965565
1429.336544,1378.971896,-1480.411884,10214.842000
1429.336863,2681.334243,-0.000000,8068.244768
1429.337182,3140.991542,1480.411884,5181.441594
1429.337500,3294.210641,1406.391290,4811.338623
1429.337819,3140.991542,1184.329507,5625.565159
1429.338138,2221.676944,1110.308913,5699.585753
1429.338457,1072.533697,222.061783,7031.956449
1429.338776,0.000000,-1110.308913,9326.594869
1429.339095,-1991.848295,-1776.494261,10436.903782
1429.339414,-2604.724693,-2960.823768,11621.233289
1429.339732,-2757.943793,-3627.009116,13397.727550
1429.340051,-2834.553343,-3182.885551,13323.706956
1429.340370,-1608.800546,-2442.679609,12731.542202
1429.340689,-612.876398,-1998.556043,11769.274478
1429.341008,612.876398,-592.164754,10066.800811
1429.341327,1225.752797,148.041188,8512.368333
1429.341645,1915.238745,1184.329507,6217.729913
1429.341964,2528.115143,814.226536,5107.421000
1429.342283,2528.115143,1036.288319,5403.503377
1429.342602,2681.334243,1332.370696,5403.503377
1429.342921,2145.067394,814.226536,6217.729913
1429.343240,1378.971896,222.061783,7772.162391
1429.343558,153.219100,370.102971,9474.636058
1429.343877,-459.657299,-222.061783,10807.006753
1429.344196,-1149.143247,-592.164754,12213.398043
1429.344515,-1532.190996,-518.144159,13175.665768
1429.344834,-1072.533697,-296.082377,12953.603985
1429.345153,-229.828649,-0.000000,12139.377449
1429.345472,229.828649,370.102971,10807.006753
1429.345790,689.485948,1480.411884,9030.512492
1429.346109,1608.800546,1850.514855,6587.832884
1429.346428,2298.286494,1332.370696,5773.606348
1429.346747,2451.505594,1850.514855,6217.729913
1429.347066,2068.457845,2368.659014,5995.668130
1429.347385,1455.581446,1406.391290,6069.688724
1429.347703,842.705048,1258.350101,7994.224174
1429.348022,0.000000,370.102971,9992.780217
1429.348341,-995.924147,-0.000000,11325.150913
1429.348660,-1455.581446,-148.041188,11695.253884
1429.348979,-1685.410096,-74.020594,12879.583391
1429.349298,-1532.190996,592.164754,12583.501014
1429.349616,-995.924147,740.205942,11695.253884
1429.349935,-229.828649,1554.432478,10584.944971
1429.350254,-229.828649,2294.638420,9326.594869
1429.350573,153.219100,2590.720797,7328.038826
1429.350892,689.485948,2738.761985,6587.832884
1429.351211,995.924147,2146.597232,7476.080014
1429.351530,766.095498,1776.494261,8142.265362
1429.351848,229.828649,1332.370696,8290.306550
1429.352167,0.000000,888.247130,9326.594869
1429.352486,-229.828649,666.185348,10288.862594
1429.352805,-229.828649,296.082377,10955.047942
1429.353124,0.000000,592.164754,11473.192101
1429.353442,-76.609550,666.185348,11547.212695
1429.353761,536.266849,1480.411884,11251.130318
1429.354080,919.314598,1258.350101,10881.027347
1429.354399,1225.752797,962.267725,10732.986159
1429.354718,1685.410096,1998.556043,9474.636058
1429.355036,1838.629195,2886.803174,7846.182985
1429.355355,2221.676944,2368.659014,7624.121203
1429.355674,2451.505594,1702.473667,7846.182985
1429.355993,2068.457845,666.185348,8512.368333
1429.356312,1302.362347,-518.144159,8882.471304
1429.356631,689.485948,-1406.391290,9696.697840
1429.356949,0.000000,-1702.473667,11029.068536
1429.357268,76.609550,-1998.556043,11029.068536
1429.357587,-612.876398,-2146.597232,11473.192101
1429.357906,-612.876398,-1998.556043,11991.336260
1429.358225,76.609550,-962.267725,11251.130318
1429.358543,536.266849,-592.164754,9696.697840
1429.358862,1532.190996,-518.144159,9474.636058
1429.359181,1762.019645,-0.000000,8290.306550
1429.359500,1915.238745,444.123565,6513.812290
1429.359819,995.924147,-666.185348,6291.750507
1429.360137,1225.752797,-370.102971,7179.997637
1429.360456,766.095498,-0.000000,7328.038826
1429.360775,229.828649,-296.082377,8068.244768
1429.361094,-153.219100,-740.205942,9326.594869
1429.361413,-1149.143247,-962.267725,10510.924376
1429.361732,-1685.410096,-962.267725,10436.903782
1429.362050,-1608.800546,-1554.432478,11103.089130
1429.362369,-1378.971896,-1628.453072,11103.089130
1429.362688,-383.047749,-444.123565,10510.924376
1429.363007,842.705048,-444.123565,9178.553681
1429.363326,1685.410096,296.082377,7402.059420
1429.363644,2681.334243,444.123565,6883.915261
1429.363963,2987.772442,1184.329507,5181.441594
1429.364282,3140.991542,1850.514855,4219.173869
1429.364601,2604.724693,1924.535449,4367.215058
1429.364920,2145.067394,2072.576638,5847.626942
1429.365238,995.924147,1406.391290,6587.832884
1429.365557,229.828649,370.102971,8142.265362
1429.365876,-1302.362347,-222.061783,10214.842000
1429.366195,-2221.676944,-666.185348,10732.986159
1429.366514,-2834.553343,-1554.432478,11325.150913
1429.366833,-2834.553343,-1332.370696,12435.459826
1429.367151,-2451.505594,-222.061783,12583.501014
1429.367470,-1455.581446,-74.020594,11103.089130
1429.367789,-383.047749,518.144159,10288.862594
1429.368108,689.485948,1332.370696,9030.512492
1429.368427,1608.800546,1924.535449,7254.018232
1429.368745,1991.848295,1702.473667,6291.750507
1429.369064,2528.115143,1332.370696,6587.832884
1429.369383,2298.286494,962.267725,7105.977043
1429.369702,1532.190996,740.205942,7624.121203
1429.370021,1072.533697,666.185348,9030.512492
1429.370339,459.657299,444.123565,9992.780217
1429.370658,0.000000,-0.000000,11325.150913
1429.370977,-1149.143247,-592.164754,12065.356855
1429.371296,-1838.629195,-370.102971,13101.645173
1429.371615,-1762.019645,-0.000000,13767.830521
1429.371934,-995.924147,-0.000000,13101.645173
1429.372252,-306.438199,444.123565,12287.418637
1429.372571,306.438199,888.247130,10881.027347
1429.372890,1302.362347,2294.638420,8882.471304
1429.373209,1915.238745,2368.659014,7402.059420
1429.373528,2451.505594,2442.679609,6883.915261
1429.373846,2987.772442,2960.823768,7772.162391
1429.374165,2451.505594,2368.659014,7624.121203
1429.374484,1915.238745,1554.432478,8512.368333
1429.374803,995.924147,1554.432478,9770.718434
1429.375122,612.876398,962.267725,11029.068536
1429.375440,-383.047749,592.164754,11251.130318
1429.375759,-383.047749,148.041188,11991.336260
1429.376078,-306.438199,370.102971,12287.418637
1429.376397,153.219100,-0.000000,11843.295072
1429.376716,995.924147,518.144159,10955.047942
1429.377035,1685.410096,962.267725,9918.759623
1429.377353,1225.752797,1258.350101,8142.265362
1429.377672,1455.581446,1480.411884,7105.977043
1429.377991,1685.410096,1332.370696,7031.956449
1429.378310,1302.362347,1480.411884,7624.121203
1429.378629,1072.533697,1110.308913,7254.018232
1429.378947,766.095498,740.205942,7698.141797
1429.379266,689.485948,-0.000000,9326.594869
1429.379585,0.000000,-1036.288319,10584.944971
1429.379904,229.828649,-1258.350101,10362.883188
1429.380223,-459.657299,-1258.350101,10955.047942
1429.380542,153.219100,-888.247130,11695.253884
1429.380860,229.828649,-370.102971,10584.944971
1429.381179,1072.533697,-0.000000,9622.677246
1429.381498,1378.971896,148.041188,8734.430116
1429.381817,1455.581446,888.247130,7476.080014
1429.382136,1225.752797,962.267725,5773.606348
1429.382454,766.095498,592.164754,5847.626942
1429.382773,383.047749,-0.000000,6957.935855
1429.383092,-689.485948,-222.061783,7550.100608
1429.383411,-842.705048,-1036.288319,8216.285956
1429.383730,-1455.581446,-1554.432478,9770.718434
1429.384048,-1532.190996,-1184.329507,10658.965565
1429.384367,-1455.581446,-1998.556043,10288.862594
1429.384686,-1378.971896,-1406.391290,11621.233289
1429.385005,-383.047749,-1036.288319,11547.212695
1429.385324,612.876398,-0.000000,9844.739029
1429.385643,1685.410096,370.102971,8734.430116
1429.385961,2911.162892,1110.308913,7994.224174
1429.386280,2451.505594,1998.556043,5773.606348
1429.386599,2451.505594,1924.535449,4145.153275
1429.386918,2298.286494,1628.453072,5699.585753
1429.387237,1532.190996,740.205942,6735.874072
1429.387555,536.266849,-0.000000,7550.100608
1429.387874,-536.266849,-518.144159,8808.450710
1429.388193,-1608.800546,-1184.329507,10881.027347
1429.388512,-1991.848295,-1332.370696,11621.233289
1429.388831,-1991.848295,-1406.391290,12139.377449
1429.389149,-1762.019645,-2590.720797,13249.686362
1429.389468,-1302.362347,-1258.350101,12657.521608
1429.389787,0.000000,-148.041188,11621.233289
1429.390106,1378.971896,222.061783,9696.697840
1429.390425,2987.772442,962.267725,8586.388927
1429.390744,3370.820191,1998.556043,6587.832884
1429.391062,3294.210641,2664.741391,5403.503377
1429.391381,3064.381992,2294.638420,5551.544565
1429.391700,2451.505594,2072.576638,6809.894666
1429.392019,1302.362347,1628.453072,7624.121203
1429.392338,0.000000,222.061783,9474.636058
1429.392656,-1225.752797,-814.226536,11029.068536
1429.392975,-2451.505594,-1480.411884,12805.562797
1429.393294,-2911.162892,-1924.535449,13545.768739
1429.393613,-2834.553343,-1406.391290,13397.727550
1429.393932,-2451.505594,-592.164754,13619.789333
1429.394250,-1149.143247,444.123565,11843.295072
1429.394569,0.000000,370.102971,10658.965565
1429.394888,1762.019645,1924.535449,9030.512492
1429.395207,2374.896044,2886.803174,7254.018232
1429.395526,3140.991542,3404.947333,5181.441594
1429.395845,3140.991542,3256.906145,4589.276840
1429.396163,2681.334243,2294.638420,6143.709319
1429.396482,1915.238745,2220.617826,7402.059420
1429.396801,1072.533697,1258.350101,7476.080014
1429.397120,306.438199,1258.350101,9474.636058
1429.397439,-995.924147,1110.308913,11695.253884
1429.397757,-1685.410096,888.247130,11621.233289
1429.398076,-2221.676944,222.061783,13027.624579
1429.398395,-1685.410096,-0.000000,14063.912898
1429.398714,-1225.752797,518.144159,12435.459826
1429.399033,0.000000,1184.329507,10584.944971
1429.399351,1838.629195,1258.350101,10214.842000
1429.399670,2451.505594,1702.473667,8142.265362
1429.399989,3217.601092,1924.535449,5773.606348
1429.400308,3830.477490,1850.514855,5033.400406
1429.400627,4213.525239,1776.494261,5699.585753
1429.400946,4519.963438,1480.411884,6069.688724
1429.401264,2834.553343,1110.308913,6735.874072
1429.401583,1685.410096,-370.102971,8660.409521
1429.401902,0.000000,-1184.329507,10732.986159
1429.402221,-995.924147,-1480.411884,11473.192101
1429.402540,-1608.800546,-1924.535449,11843.295072
1429.402858,-1915.238745,-1628.453072,13249.686362
1429.403177,-1608.800546,-1110.308913,12953.603985
1429.403496,-689.485948,-1036.288319,11547.212695
1429.403815,0.000000,-518.144159,10732.986159
1429.404134,383.047749,444.123565,8882.471304
1429.404452,1072.533697,370.102971,6957.935855
1429.404771,1225.752797,370.102971,5403.503377
1429.405090,1608.800546,296.082377,6513.812290
1429.405409,1149.143247,370.102971,6957.935855
1429.405728,842.705048,-0.000000,7105.977043
1429.406047,306.438199,-0.000000,8882.471304
1429.406365,0.000000,-0.000000,9548.656652
1429.406684,-229.828649,-666.185348,10140.821405
1429.407003,-689.485948,-1110.308913,10807.006753
1429.407322,-1072.533697,-1184.329507,11399.171507
1429.407641,-612.876398,-962.267725,11029.068536
1429.407959,0.000000,-518.144159,9918.759623
1429.408278,612.876398,-0.000000,8734.430116
1429.408597,919.314598,962.267725,7624.121203
1429.408916,1072.533697,1184.329507,6587.832884
1429.409235,1455.581446,962.267725,5847.626942
1429.409553,1072.533697,888.247130,6217.729913
1429.409872,1149.143247,962.267725,7328.038826
1429.410191,459.657299,296.082377,7920.203579
1429.410510,0.000000,-0.000000,9622.677246
1429.410829,-612.876398,-740.205942,10955.047942
1429.411148,-1149.143247,-1110.308913,11399.171507
1429.411466,-689.485948,-1998.556043,11695.253884
1429.411785,-1072.533697,-1776.494261,12213.398043
1429.412104,0.000000,-222.061783,11917.315666
1429.412423,1149.143247,-74.020594,10362.883188
1429.412742,2374.896044,370.102971,9474.636058
1429.413060,2374.896044,1480.411884,8068.244768
1429.413379,3064.381992,1702.473667,6291.750507
1429.413698,2528.115143,1850.514855,4737.318029
1429.414017,2681.334243,1184.329507,6513.812290
1429.414336,1762.019645,888.247130,6957.935855
1429.414655,612.876398,888.247130,8068.244768
1429.414973,-383.047749,-74.020594,9252.574275
1429.415292,-1455.581446,-518.144159,11473.192101
1429.415611,-2145.067394,-962.267725,12139.377449
1429.415930,-2451.505594,-888.247130,12805.562797
1429.416249,-2221.676944,-444.123565,12953.603985
1429.416567,-1378.971896,888.247130,12731.542202
1429.416886,76.609550,962.267725,11029.068536
1429.417205,1225.752797,1776.494261,9474.636058
1429.417524,2221.676944,3108.864956,7920.203579
1429.417843,3140.991542,3627.009116,5625.565159
1429.418161,3140.991542,3627.009116,4737.318029
1429.418480,3140.991542,2812.782580,5329.482782
1429.418799,1838.629195,2516.700203,6143.709319
1429.419118,612.876398,1480.411884,7328.038826
1429.419437,-842.705048,444.123565,9252.574275
1429.419756,-1608.800546,888.247130,11473.192101
1429.420074,-2221.676944,1258.350101,12139.377449
1429.420393,-2298.286494,222.061783,13175.665768
1429.420712,-2451.505594,-666.185348,14137.933492
1429.421031,-2068.457845,-666.185348,14063.912898
1429.421350,-383.047749,-444.123565,11991.336260
1429.421668,1302.362347,-74.020594,10955.047942
1429.421987,2298.286494,814.226536,9326.594869
1429.422306,3217.601092,1776.494261,6735.874072
1429.422625,4290.134789,1924.535449,5107.421000
1429.422944,4366.744339,1850.514855,5329.482782
1429.423262,4213.525239,1850.514855,5773.606348
1429.423581,3217.601092,1332.370696,6365.771101
1429.423900,1838.629195,666.185348,7994.224174
1429.424219,306.438199,-592.164754,10807.006753
1429.424538,-1608.800546,-1628.453072,12213.398043
1429.424857,-1838.629195,-2368.659014,13545.768739
1429.425175,-2145.067394,-2812.782580,13989.892304
1429.425494,-1762.019645,-2442.679609,14359.995275
1429.425813,-536.266849,-1702.473667,13027.624579
1429.426132,766.095498,-1110.308913,11325.150913
1429.426451,2451.505594,-222.061783,9326.594869
1429.426769,2757.943793,1332.370696,6439.791695
1429.427088,3907.087040,1702.473667,4515.256246
1429.427407,4213.525239,1850.514855,4219.173869
1429.427726,4060.306139,2294.638420,4293.194464
1429.428045,3140.991542,1406.391290,4219.173869
1429.428363,1991.848295,-0.000000,6809.894666
1429.428682,0.000000,-1110.308913,8808.450710
1429.429001,-1608.800546,-1702.473667,10658.965565
1429.429320,-2604.724693,-2146.597232,11325.150913
1429.429639,-3064.381992,-1924.535449,12139.377449
1429.429958,-2604.724693,-1110.308913,13027.624579
1429.430276,-2451.505594,-370.102971,12435.459826
1429.430595,-2068.457845,-0.000000,10288.862594
1429.430914,-689.485948,666.185348,9326.594869
1429.431233,383.047749,1258.350101,7402.059420
1429.431552,689.485948,962.267725,5107.421000
1429.431870,1455.581446,740.205942,6217.729913
1429.432189,1378.971896,2146.597232,5033.400406
1429.432508,1149.143247,1554.432478,3849.070898
1429.432827,1532.190996,-0.000000,7624.121203
1429.433146,0.000000,-592.164754,9474.636058
1429.433464,-459.657299,-592.164754,9474.636058
1429.433783,-1838.629195,-814.226536,10140.821405
1429.434102,-1991.848295,-1184.329507,12731.542202
1429.434421,-1455.581446,-814.226536,12139.377449
1429.434740,-1608.800546,-74.020594,11399.171507
1429.435059,-1072.533697,-370.102971,11325.150913
1429.435377,-153.219100,814.226536,10510.924376
1429.435696,689.485948,1924.535449,7550.100608
1429.436015,1915.238745,1850.514855,7254.018232
1429.436334,1608.800546,1924.535449,7254.018232
1429.436653,1915.238745,1406.391290,7254.018232
1429.436971,2374.896044,1184.329507,7624.121203
1429.437290,2068.457845,1110.308913,8586.388927
1429.437609,1762.019645,740.205942,9696.697840
1429.437928,1225.752797,1258.350101,10807.006753
1429.438247,536.266849,518.144159,11177.109724
1429.438565,0.000000,-592.164754,11843.295072
1429.438884,-689.485948,-222.061783,12435.459826
1429.439203,383.047749,-0.000000,12583.501014
1429.439522,1149.143247,740.205942,9844.739029
1429.439841,1455.581446,1554.432478,9548.656652
1429.440160,1915.238745,2072.576638,8660.409521
1429.440478,1302.362347,2442.679609,6809.894666
1429.440797,1685.410096,1628.453072,7328.038826
1429.441116,1532.190996,1628.453072,8512.368333
1429.441435,459.657299,1776.494261,7772.162391
1429.441754,459.657299,1258.350101,8808.450710
1429.442072,-229.828649,814.226536,10288.862594
1429.442391,-995.924147,-148.041188,11547.212695
1429.442710,-1149.143247,-592.164754,12139.377449
1429.443029,-1378.971896,-222.061783,11917.315666
1429.443348,-229.828649,-0.000000,12953.603985
1429.443666,76.609550,1036.288319,11029.068536
1429.443985,1302.362347,814.226536,10362.883188
1429.444304,2374.896044,1702.473667,8882.471304
1429.444623,3064.381992,2442.679609,7254.018232
1429.444942,3830.477490,1776.494261,5995.668130
1429.445261,3677.258390,1702.473667,5699.585753
1429.445579,2911.162892,1628.453072,6069.688724
1429.445898,1762.019645,1036.288319,6587.832884
1429.446217,229.828649,592.164754,7402.059420
1429.446536,-612.876398,-740.205942,9548.656652
1429.446855,-1838.629195,-666.185348,11177.109724
1429.447173,-2681.334243,-888.247130,11547.212695
1429.447492,-2911.162892,-2368.659014,12805.562797
1429.447811,-2987.772442,-1850.514855,13323.706956
1429.448130,-1762.019645,-1406.391290,12509.480420
1429.448449,-766.095498,-962.267725,10807.006753
1429.448767,842.705048,-296.082377,9918.759623
1429.449086,2451.505594,296.082377,7550.100608
1429.449405,2604.724693,1554.432478,4737.318029
1429.449724,3830.477490,1332.370696,4589.276840
1429.450043,2987.772442,1184.329507,4885.359217
1429.450362,2298.286494,740.205942,5255.462188
1429.450680,1455.581446,-0.000000,6069.688724
1429.450999,76.609550,-296.082377,7772.162391
1429.451318,-1762.019645,-1036.288319,9474.636058
1429.451637,-2681.334243,-1776.494261,10584.944971
1429.451956,-3447.429741,-2664.741391,11695.253884
1429.452274,-3447.429741,-2368.659014,13841.851115
1429.452593,-3524.039291,-2294.638420,13249.686362
1429.452912,-2374.896044,-1184.329507,11991.336260
1429.453231,-536.266849,-0.000000,10584.944971
1429.453550,76.609550,962.267725,8290.306550
1429.453869,1762.019645,1628.453072,6365.771101
1429.454187,2834.553343,1628.453072,5551.544565
1429.454506,3447.429741,1332.370696,5551.544565
1429.454825,3677.258390,1332.370696,5255.462188
1429.455144,2681.334243,1258.350101,6217.729913
1429.455463,2374.896044,-0.000000,7624.121203
1429.455782,1149.143247,370.102971,8882.471304
1429.456101,0.000000,-0.000000,9992.780217
1429.456419,-612.876398,-1036.288319,11843.295072
1429.456738,-1455.581446,-592.164754,12953.603985
1429.457057,-1455.581446,-296.082377,13249.686362
1429.457376,-536.266849,-0.000000,12065.356855
1429.457695,-229.828649,296.082377,10807.006753
1429.458014,1149.143247,444.123565,10510.924376
1429.458333,1532.190996,888.247130,8068.244768
1429.458651,2757.943793,666.185348,7105.977043
1429.458970,3064.381992,296.082377,7476.080014
1429.459289,2681.334243,1554.432478,7031.956449
1429.459608,3294.210641,962.267725,6809.894666
1429.459927,2834.553343,1406.391290,7476.080014
1429.460246,1915.238745,1036.288319,9252.574275
1429.460565,1532.190996,592.164754,9622.677246
1429.460883,229.828649,666.185348,10436.903782
1429.461202,229.828649,370.102971,11695.253884
1429.461521,-689.485948,370.102971,12287.418637
1429.461840,-919.314598,518.144159,11103.089130
1429.462159,-536.266849,666.185348,11103.089130
1429.462478,-612.876398,1628.453072,9696.697840
1429.462797,-306.438199,1998.556043,7772.162391
1429.463115,-229.828649,1924.535449,7402.059420
1429.463434,-306.438199,1554.432478,7550.100608
1429.463753,-306.438199,2146.597232,8438.347739
1429.464072,-383.047749,1998.556043,8586.388927
1429.464391,-689.485948,1036.288319,9030.512492
1429.464710,-919.314598,1258.350101,10436.903782
1429.465029,-1302.362347,1258.350101,10732.986159
1429.465347,-1225.752797,740.205942,11029.068536
1429.465666,-1072.533697,296.082377,10881.027347
1429.465985,-459.657299,518.144159,11251.130318
1429.466304,689.485948,666.185348,10214.842000
1429.466623,1225.752797,1332.370696,8438.347739
1429.466942,1455.581446,1480.411884,7920.203579
1429.467261,1455.581446,1628.453072,6809.894666
1429.467579,1762.019645,814.226536,6957.935855
1429.467898,459.657299,1480.411884,7550.100608
1429.468217,536.266849,1184.329507,8586.388927
1429.468536,-766.095498,444.123565,8512.368333
1429.468855,-919.314598,-1110.308913,10732.986159
1429.469174,-1455.581446,-1332.370696,11843.295072
1429.469493,-1608.800546,-592.164754,11843.295072
1429.469811,-842.705048,-1702.473667,11843.295072
1429.470130,-383.047749,-444.123565,12657.521608
1429.470449,612.876398,-370.102971,11917.315666
1429.470768,1532.190996,-0.000000,10066.800811
1429.471087,3140.991542,444.123565,8660.409521
1429.471406,3753.867940,814.226536,7698.141797
1429.471725,4290.134789,2072.576638,5995.668130
1429.472043,4060.306139,1184.329507,4515.256246
1429.472362,3907.087040,296.082377,5921.647536
1429.472681,2451.505594,370.102971,6883.915261
1429.473000,2068.457845,-666.185348,7772.162391
1429.473319,229.828649,-1554.432478,8808.450710
1429.473638,-995.924147,-1554.432478,11177.109724
1429.473957,-1378.971896,-1702.473667,11843.295072
1429.474275,-2221.676944,-2146.597232,11621.233289
1429.474594,-2451.505594,-2294.638420,12435.459826
1429.474913,-1378.971896,-1258.350101,12509.480420
1429.475232,-229.828649,-0.000000,10584.944971
1429.475551,1225.752797,-0.000000,8734.430116
1429.475870,1762.019645,1036.288319,8142.265362
1429.476189,2451.505594,1406.391290,6661.853478
1429.476507,3217.601092,1258.350101,4959.379811
1429.476826,2987.772442,666.185348,5033.400406
1429.477145,2451.505594,962.267725,6143.709319
1429.477464,1915.238745,444.123565,6069.688724
1429.477783,689.485948,-444.123565,7031.956449
1429.478102,-229.828649,-0.000000,9252.574275
1429.478421,-1915.238745,-148.041188,10066.800811
1429.478739,-2987.772442,-1258.350101,11103.089130
1429.479058,-3140.991542,-1628.453072,12213.398043
1429.479377,-3370.820191,-1184.329507,12805.562797
1429.479696,-2604.724693,-666.185348,11695.253884
1429.480015,-1915.238745,-296.082377,10807.006753
1429.480334,-919.314598,444.123565,9918.759623
1429.480653,76.609550,962.267725,8216.285956
1429.480971,1378.971896,1406.391290,7031.956449
1429.481290,2298.286494,1628.453072,6735.874072
1429.481609,2681.334243,1850.514855,6661.853478
1429.481928,2834.553343,1850.514855,6661.853478
1429.482247,2145.067394,1036.288319,7698.141797
1429.482566,2068.457845,1480.411884,9252.574275
1429.482885,766.095498,1110.308913,9104.533087
1429.483203,0.000000,444.123565,10362.883188
1429.483522,306.438199,-0.000000,11251.130318
1429.483841,-459.657299,-296.082377,11917.315666
1429.484160,-689.485948,-148.041188,12065.356855
1429.484479,0.000000,296.082377,11177.109724
1429.484798,0.000000,1702.473667,9474.636058
1429.485117,919.314598,2072.576638,8586.388927
1429.485435,842.705048,1776.494261,8142.265362
1429.485754,536.266849,1480.411884,8216.285956
1429.486073,1378.971896,1480.411884,8290.306550
1429.486392,919.314598,1924.535449,8290.306550
1429.486711,766.095498,1702.473667,9178.553681
1429.487030,306.438199,1702.473667,9844.739029
1429.487349,536.266849,1628.453072,10140.821405
1429.487668,229.828649,444.123565,10658.965565
1429.487986,76.609550,222.061783,11769.274478
1429.488305,383.047749,592.164754,11991.336260
1429.488624,919.314598,740.205942,11029.068536
1429.488943,1302.362347,1036.288319,9696.697840
1429.489262,1455.581446,1332.370696,9474.636058
1429.489581,2145.067394,1924.535449,8290.306550
1429.489900,1685.410096,1554.432478,7179.997637
1429.490218,1225.752797,1036.288319,7476.080014
1429.490537,612.876398,666.185348,7994.224174
1429.490856,76.609550,-0.000000,8660.409521
1429.491175,-536.266849,-814.226536,9844.739029
1429.491494,-383.047749,-888.247130,11177.109724
1429.491813,-995.924147,-222.061783,10807.006753
1429.492132,-612.876398,-0.000000,11103.089130
1429.492450,-153.219100,-296.082377,11473.192101
1429.492769,689.485948,-444.123565,11621.233289
1429.493088,995.924147,-814.226536,10732.986159
1429.493407,2221.676944,-296.082377,9326.594869
1429.493726,2604.724693,444.123565,8068.244768
1429.494045,2681.334243,1184.329507,6365.771101
1429.494364,2681.334243,1036.288319,5773.606348
1429.494682,2145.067394,370.102971,5773.606348
1429.495001,1532.190996,444.123565,7105.977043
1429.495320,536.266849,-74.020594,7105.977043
1429.495639,-306.438199,-1480.411884,8956.491898
1429.495958,-1149.143247,-1480.411884,9992.780217
1429.496277,-1838.629195,-1702.473667,11547.212695
1429.496596,-1915.238745,-1628.453072,11325.150913
1429.496914,-1532.190996,-2146.597232,11695.253884
1429.497233,-229.828649,-1258.350101,11843.295072
1429.497552,612.876398,-814.226536,11029.068536
1429.497871,1455.581446,518.144159,8734.430116
1429.498190,2145.067394,1258.350101,7105.977043
1429.498509,2681.334243,1924.535449,5847.626942
1429.498828,3064.381992,1850.514855,4663.297435
1429.499146,2987.772442,1184.329507,4885.359217
1429.499465,1838.629195,370.102971,5773.606348
1429.499784,612.876398,370.102971,6587.832884
1429.500103,-383.047749,-888.247130,8364.327145
1429.500422,-1455.581446,-1184.329507,10066.800811
1429.500741,-2298.286494,-1332.370696,11843.295072
1429.501060,-2834.553343,-1332.370696,11473.192101
1429.501378,-3294.210641,-1332.370696,11843.295072
1429.501697,-1991.848295,-1406.391290,13101.645173
1429.502016,-1378.971896,-444.123565,11991.336260
1429.502335,-153.219100,-148.041188,9918.759623
1429.502654,459.657299,222.061783,8808.450710
1429.502973,1685.410096,1628.453072,7624.121203
1429.503292,2221.676944,1628.453072,5995.668130
1429.503610,2834.553343,1850.514855,5403.503377
1429.503929,2681.334243,1924.535449,6587.832884
1429.504248,2604.724693,2146.597232,7105.977043
1429.504567,1608.800546,1332.370696,7328.038826
1429.504886,383.047749,888.247130,10066.800811
1429.505205,-612.876398,148.041188,10955.047942
1429.505524,-1838.629195,148.041188,11177.109724
1429.505842,-2221.676944,-370.102971,12139.377449
1429.506161,-1838.629195,-666.185348,13619.789333
1429.506480,-1302.362347,-444.123565,12805.562797
1429.506799,-1072.533697,-518.144159,11325.150913
1429.507118,-229.828649,-74.020594,10732.986159
1429.507437,459.657299,592.164754,9400.615463
1429.507756,1685.410096,1998.556043,7179.997637
1429.508074,2221.676944,2294.638420,6735.874072
1429.508393,2528.115143,3034.844362,7105.977043
1429.508712,2757.943793,3108.864956,7402.059420
1429.509031,2374.896044,2886.803174,7624.121203
1429.509350,2451.505594,1332.370696,9252.574275
1429.509669,1302.362347,1480.411884,10510.924376
1429.509988,1608.800546,1110.308913,10807.006753
1429.510306,306.438199,222.061783,11547.212695
1429.510625,766.095498,-0.000000,12805.562797
1429.510944,536.266849,444.123565,11399.171507
1429.511263,1302.362347,740.205942,10732.986159
1429.511582,1455.581446,888.247130,9548.656652
1429.511901,1762.019645,2146.597232,8734.430116
1429.512220,1762.019645,1998.556043,6735.874072
1429.512538,842.705048,1184.329507,6661.853478
1429.512857,153.219100,-0.000000,8068.244768
1429.513176,-1149.143247,444.123565,8364.327145
1429.513495,-1532.190996,-0.000000,9030.512492
1429.513814,-1608.800546,-148.041188,10140.821405
1429.514133,-1455.581446,-518.144159,11473.192101
1429.514452,-1915.238745,-592.164754,11029.068536
1429.514770,-1532.190996,-222.061783,10881.027347
1429.515089,-1302.362347,-222.061783,11621.233289
1429.515408,0.000000,222.061783,11547.212695
1429.515727,919.314598,296.082377,9622.677246
1429.516046,2145.067394,740.205942,8216.285956
1429.516365,1915.238745,888.247130,7624.121203
1429.516684,2145.067394,666.185348,6217.729913
1429.517002,2374.896044,444.123565,5255.462188
1429.517321,1838.629195,-0.000000,6143.709319
1429.517640,306.438199,-740.205942,7031.956449
1429.517959,-383.047749,-1110.308913,7846.182985
1429.518278,-689.485948,-1406.391290,10140.821405
1429.518597,-1072.533697,-1332.370696,10066.800811
1429.518916,-2145.067394,-1332.370696,10807.006753
1429.519234,-1225.752797,-1924.535449,12213.398043
1429.519553,-1072.533697,-1184.329507,12435.459826
1429.519872,306.438199,-962.267725,11769.274478
1429.520191,1532.190996,-74.020594,9696.697840
1429.520510,2757.943793,1258.350101,8586.388927
1429.520829,4443.353888,1406.391290,6735.874072
1429.521148,4136.915689,2590.720797,4811.338623
1429.521466,4596.572988,2368.659014,4515.256246
1429.521785,3447.429741,1258.350101,5255.462188
1429.522104,2221.676944,1628.453072,5329.482782
1429.522423,1149.143247,-74.020594,6883.915261
1429.522742,-689.485948,-1110.308913,9474.636058
1429.523061,-2374.896044,-1332.370696,10584.944971
1429.523380,-2987.772442,-1850.514855,11769.274478
1429.523698,-3217.601092,-2146.597232,12509.480420
1429.524017,-2757.943793,-1998.556043,13249.686362
1429.524336,-2145.067394,-1554.432478,12879.583391
1429.524655,-919.314598,-444.123565,11399.171507
1429.524974,842.705048,-0.000000,9918.759623
1429.525293,2068.457845,2146.597232,7402.059420
1429.525612,3217.601092,3330.926739,5403.503377
1429.525930,3753.867940,3034.844362,4219.173869
1429.526249,3140.991542,3034.844362,4367.215058
1429.526568,2604.724693,2368.659014,5255.462188
1429.526887,1225.752797,1406.391290,6513.812290
1429.527206,0.000000,-74.020594,9326.594869
1429.527525,-1915.238745,-444.123565,11103.089130
1429.527844,-3983.696590,-740.205942,12361.439231
1429.528162,-4673.182538,-1406.391290,13323.706956
1429.528481,-4443.353888,-1406.391290,14730.098246
1429.528800,-3140.991542,-666.185348,14804.118840
1429.529119,-1915.238745,-0.000000,13175.665768
1429.529438,-383.047749,888.247130,11177.109724
1429.529757,1302.362347,1406.391290,9252.574275
1429.530076,2451.505594,2664.741391,7328.038826
1429.530394,3830.477490,3478.967927,4885.359217
1429.530713,4443.353888,3182.885551,4737.318029
1429.531032,4366.744339,3330.926739,5403.503377
1429.531351,3600.648841,2516.700203,5921.647536
1429.531670,3064.381992,1924.535449,7328.038826
1429.531989,1149.143247,1554.432478,10362.883188
1429.532308,-306.438199,740.205942,11769.274478
1429.532626,-1378.971896,-592.164754,13471.748144
1429.532945,-1915.238745,-740.205942,15026.180623
1429.533264,-1685.410096,-962.267725,15396.283594
1429.533583,-1072.533697,-296.082377,13841.851115
1429.533902,0.000000,148.041188,12213.398043
1429.534221,919.314598,888.247130,10584.944971
1429.534540,2298.286494,1998.556043,7772.162391
1429.534858,3217.601092,2368.659014,5773.606348
1429.535177,3753.867940,2516.700203,5181.441594
1429.535496,3907.087040,2664.741391,5255.462188
1429.535815,3064.381992,2072.576638,5847.626942
1429.536134,2374.896044,740.205942,7254.018232
1429.536453,919.314598,-74.020594,9622.677246
1429.536772,-229.828649,-74.020594,10436.903782
1429.537090,-1378.971896,-888.247130,11325.150913
1429.537409,-2221.676944,-1628.453072,12731.542202
1429.537728,-2451.505594,-1628.453072,13175.665768
1429.538047,-1915.238745,-1184.329507,12139.377449
1429.538366,-1608.800546,-666.185348,10881.027347
1429.538685,-1072.533697,666.185348,9474.636058
1429.539004,-153.219100,1258.350101,7476.080014
1429.539322,229.828649,444.123565,6143.709319
1429.539641,842.705048,666.185348,5625.565159
1429.539960,689.485948,814.226536,6069.688724
1429.540279,1072.533697,444.123565,6439.791695
1429.540598,612.876398,-444.123565,7550.100608
1429.540917,153.219100,-888.247130,9252.574275
1429.541236,-383.047749,-444.123565,9474.636058
1429.541554,-229.828649,-740.205942,9992.780217
1429.541873,-766.095498,-1258.350101,10807.006753
1429.542192,-383.047749,-740.205942,11399.171507
1429.542511,-383.047749,-0.000000,9918.759623
1429.542830,76.609550,222.061783,8808.450710
1429.543149,919.314598,-0.000000,8512.368333
1429.543468,766.095498,148.041188,7254.018232
1429.543786,1302.362347,740.205942,6143.709319
1429.544105,1225.752797,370.102971,5477.523971
1429.544424,842.705048,370.102971,7254.018232
1429.544743,612.876398,-0.000000,7698.141797
1429.545062,153.219100,-444.123565,8586.388927
1429.545381,-612.876398,-888.247130,10066.800811
1429.545700,-612.876398,-962.267725,11177.109724
1429.546018,-459.657299,-814.226536,10955.047942
1429.546337,153.219100,-1110.308913,11695.253884
1429.546656,689.485948,-518.144159,11695.253884
1429.546975,1072.533697,-444.123565,10584.944971
1429.547294,2374.896044,518.144159,8882.471304
1429.547613,3140.991542,814.226536,7846.182985
1429.547932,3677.258390,1702.473667,6513.812290
1429.548250,3753.867940,1480.411884,6143.709319
1429.548569,3064.381992,1184.329507,5847.626942
1429.548888,2374.896044,1406.391290,6735.874072
1429.549207,1302.362347,962.267725,7254.018232
1429.549526,-153.219100,-74.020594,8882.471304
1429.549845,-1225.752797,-222.061783,10584.944971
1429.550164,-2221.676944,-0.000000,11029.068536
1429.550482,-2451.505594,-518.144159,11843.295072
1429.550801,-2374.896044,-1036.288319,13545.768739
1429.551120,-1378.971896,-814.226536,13471.748144
1429.551439,-1302.362347,-0.000000,11917.315666
1429.551758,0.000000,296.082377,10955.047942
1429.552077,995.924147,1554.432478,9918.759623
1429.552395,2145.067394,3108.864956,7624.121203
1429.552714,2757.943793,3182.885551,5847.626942
1429.553033,2757.943793,2738.761985,5995.668130
1429.553352,2298.286494,1850.514855,6587.832884
1429.553671,1685.410096,1258.350101,7105.977043
1429.553989,612.876398,592.164754,7994.224174
1429.554308,-153.219100,444.123565,9918.759623
1429.554627,-1532.190996,444.123565,10807.006753
1429.554946,-1915.238745,-0.000000,12361.439231
1429.555264,-2528.115143,-444.123565,13545.768739
1429.555583,-1991.848295,74.020594,14063.912898
1429.555902,-1072.533697,518.144159,12953.603985
1429.556221,-153.219100,1110.308913,11473.192101
1429.556539,1302.362347,814.226536,10732.986159
1429.556858,2374.896044,2368.659014,8438.347739
1429.557177,3370.820191,2442.679609,6661.853478
1429.557496,3830.477490,2220.617826,5477.523971
1429.557815,3830.477490,2294.638420,5773.606348
1429.558133,3370.820191,1924.535449,5847.626942
1429.558452,2374.896044,518.144159,6957.935855
1429.558771,689.485948,-148.041188,8734.430116
1429.559090,-689.485948,-0.000000,10140.821405
1429.559408,-1838.629195,370.102971,10881.027347
1429.559727,-2068.457845,-518.144159,11843.295072
1429.560046,-2298.286494,-1406.391290,13915.871710
1429.560365,-2374.896044,-1258.350101,12953.603985
1429.560683,-1762.019645,-1258.350101,12065.356855
1429.561002,-612.876398,-148.041188,10955.047942
1429.561321,383.047749,222.061783,9104.533087
1429.561640,1455.581446,1258.350101,6809.894666
1429.561959,2298.286494,888.247130,5847.626942
1429.562277,2604.724693,444.123565,6291.750507
1429.562596,2451.505594,962.267725,5699.585753
1429.562915,2145.067394,740.205942,6217.729913
1429.563234,1838.629195,296.082377,7550.100608
1429.563552,0.000000,-0.000000,8882.471304
1429.563871,-995.924147,-296.082377,9696.697840
1429.564190,-1378.971896,-1110.308913,10510.924376
1429.564509,-1378.971896,-1110.308913,11843.295072
1429.564827,-1149.143247,-1480.411884,11843.295072
1429.565146,-842.705048,-1776.494261,11547.212695
1429.565465,0.000000,-1554.432478,10658.965565
1429.565784,383.047749,-296.082377,9474.636058
1429.566102,1149.143247,222.061783,7179.997637
1429.566421,2145.067394,1036.288319,6439.791695
1429.566740,2298.286494,1406.391290,6217.729913
1429.567059,2757.943793,1702.473667,5995.668130
1429.567378,2911.162892,740.205942,6513.812290
1429.567696,2298.286494,370.102971,7624.121203
1429.568015,1685.410096,-74.020594,9178.553681
1429.568334,766.095498,-518.144159,9252.574275
1429.568653,229.828649,-1184.329507,10584.944971
1429.568971,76.609550,-1406.391290,11621.233289
1429.569290,76.609550,-740.205942,11621.233289
1429.569609,0.000000,-444.123565,11399.171507
1429.569928,536.266849,814.226536,10140.821405
1429.570246,842.705048,814.226536,9178.553681
1429.570565,766.095498,740.205942,7846.182985
1429.570884,306.438199,-0.000000,7402.059420
1429.571203,0.000000,296.082377,7179.997637
1429.571522,0.000000,370.102971,7698.141797
1429.571840,-459.657299,518.144159,7772.162391
1429.572159,-689.485948,592.164754,8438.347739
1429.572478,-1149.143247,-296.082377,10288.862594
1429.572797,-1149.143247,-148.041188,11547.212695
1429.573115,-1455.581446,-592.164754,11325.150913
1429.573434,-919.314598,-0.000000,11695.253884
1429.573753,-306.438199,888.247130,11991.336260
1429.574072,306.438199,1184.329507,10214.842000
1429.574390,995.924147,1850.514855,8808.450710
1429.574709,1532.190996,2294.638420,8512.368333
1429.575028,1685.410096,2220.617826,7105.977043
1429.575347,1762.019645,2072.576638,5477.523971
1429.575665,1072.533697,1628.453072,6513.812290
1429.575984,612.876398,1924.535449,7254.018232
1429.576303,-383.047749,814.226536,8438.347739
1429.576622,-1072.533697,1110.308913,9770.718434
1429.576941,-1302.362347,1850.514855,11103.089130
1429.577259,-995.924147,1184.329507,11473.192101
1429.577578,-919.314598,518.144159,12139.377449
1429.577897,-1072.533697,-370.102971,13101.645173
1429.578216,0.000000,-74.020594,12287.418637
1429.578534,995.924147,962.267725,10584.944971
1429.578853,2298.286494,1480.411884,9548.656652
1429.579172,2757.943793,2072.576638,8142.265362
1429.579491,3830.477490,2368.659014,6735.874072
1429.579809,4443.353888,2368.659014,5699.585753
1429.580128,3370.820191,1850.514855,6069.688724
1429.580447,3370.820191,1776.494261,7105.977043
1429.580766,2221.676944,1406.391290,7105.977043
1429.581085,1685.410096,-370.102971,9474.636058
1429.581403,0.000000,-1332.370696,10881.027347
1429.581722,-1072.533697,-1480.411884,12361.439231
1429.582041,-995.924147,-1850.514855,12731.542202
