#time,accel_x,accel_y,accel_z
1998.792038,842.705048,296.082377,9474.636058
1998.792355,842.705048,148.041188,9326.594869
1998.792673,612.876398,-222.061783,9474.636058
1998.792991,995.924147,-0.000000,9548.656652
1998.793308,612.876398,222.061783,9548.656652
1998.793626,919.314598,-0.000000,9474.636058
1998.793944,919.314598,296.082377,9474.636058
1998.794261,766.095498,-0.000000,9548.656652
1998.794579,766.095498,370.102971,9400.615463
1998.794896,919.314598,296.082377,9326.594869
1998.795214,536.266849,-0.000000,9474.636058
1998.795532,842.705048,-0.000000,9474.636058
1998.795849,612.876398,148.041188,9622.677246
1998.796167,766.095498,222.061783,9474.636058
1998.796485,842.705048,370.102971,9178.553681
1998.796802,766.095498,222.061783,9474.636058
1998.797120,689.485948,222.061783,9474.636058
1998.797438,689.485948,148.041188,9474.636058
1998.797755,766.095498,296.082377,9400.615463
1998.798073,842.705048,370.102971,9474.636058
1998.798390,919.314598,148.041188,9474.636058
1998.798708,766.095498,222.061783,9696.697840
1998.799026,689.485948,148.041188,9474.636058
1998.799343,842.705048,222.061783,9474.636058
1998.799661,766.095498,222.061783,9252.574275
1998.799979,766.095498,296.082377,9548.656652
1998.800296,766.095498,-0.000000,9474.636058
1998.800614,995.924147,296.082377,9326.594869
1998.800931,689.485948,-0.000000,9252.574275
1998.801249,1072.533697,-0.000000,9400.615463
1998.801567,919.314598,-0.000000,9400.615463
1998.801884,766.095498,296.082377,9400.615463
1998.802202,459.657299,296.082377,9400.615463
1998.802520,766.095498,222.061783,9326.594869
1998.802837,842.705048,222.061783,9178.553681
1998.803155,919.314598,148.041188,9326.594869
1998.803472,766.095498,444.123565,9104.533087
1998.803790,536.266849,222.061783,9474.636058
1998.804108,612.876398,-0.000000,9474.636058
1998.804425,689.485948,222.061783,9474.636058
1998.804743,612.876398,-0.000000,9474.636058
1998.805061,689.485948,296.082377,9474.636058
1998.805378,842.705048,222.061783,9326.594869
1998.805696,766.095498,296.082377,9474.636058
1998.806014,766.095498,-0.000000,9474.636058
1998.806331,766.095498,222.061783,9548.656652
1998.806649,536.266849,148.041188,9474.636058
1998.806966,689.485948,-0.000000,9400.615463
1998.807284,612.876398,-0.000000,9474.636058
1998.807602,766.095498,296.082377,9326.594869
1998.807919,995.924147,222.061783,9326.594869
1998.808237,612.876398,370.102971,9474.636058
1998.808555,766.095498,296.082377,9400.615463
1998.808872,842.705048,296.082377,9400.615463
1998.809190,689.485948,148.041188,9400.615463
1998.809507,383.047749,370.102971,9548.656652
1998.809825,459.657299,148.041188,9400.615463
1998.810143,689.485948,296.082377,9622.677246
1998.810460,536.266849,222.061783,9326.594869
1998.810778,766.095498,296.082377,9474.636058
1998.811096,459.657299,148.041188,9326.594869
1998.811413,689.485948,222.061783,9400.615463
1998.811731,612.876398,-0.000000,9474.636058
1998.812048,842.705048,-0.000000,9474.636058
1998.812366,766.095498,148.041188,9474.636058
1998.812684,842.705048,296.082377,9696.697840
1998.813001,766.095498,296.082377,9178.553681
1998.813319,689.485948,148.041188,9622.677246
1998.813637,612.876398,296.082377,9474.636058
1998.813954,612.876398,296.082377,9326.594869
1998.814272,1072.533697,148.041188,9548.656652
1998.814590,766.095498,296.082377,9400.615463
1998.814907,689.485948,444.123565,9474.636058
1998.815225,612.876398,222.061783,9400.615463
1998.815542,459.657299,370.102971,9548.656652
1998.815860,919.314598,222.061783,9696.697840
1998.816178,612.876398,296.082377,9548.656652
1998.816495,766.095498,296.082377,9474.636058
1998.816813,612.876398,222.061783,9400.615463
1998.817131,1302.362347,-0.000000,9474.636058
1998.817448,536.266849,222.061783,9474.636058
1998.817766,919.314598,-0.000000,9400.615463
1998.818083,842.705048,296.082377,9474.636058
1998.818401,766.095498,296.082377,9474.636058
1998.818719,842.705048,370.102971,9474.636058
1998.819036,842.705048,370.102971,9326.594869
1998.819354,612.876398,-0.000000,9326.594869
1998.819672,842.705048,222.061783,9474.636058
1998.819989,766.095498,222.061783,9474.636058
1998.820307,1149.143247,222.061783,9474.636058
1998.820624,766.095498,222.061783,9400.615463
1998.820942,766.095498,222.061783,9474.636058
1998.821260,766.095498,222.061783,9474.636058
1998.821577,766.095498,-0.000000,9474.636058
1998.821895,919.314598,-0.000000,9178.553681
1998.822213,536.266849,148.041188,9474.636058
1998.822530,919.314598,222.061783,9474.636058
1998.822848,689.485948,74.020594,9548.656652
1998.823166,842.705048,-0.000000,9400.615463
1998.823483,689.485948,222.061783,9474.636058
1998.823801,766.095498,222.061783,9474.636058
1998.824118,689.485948,222.061783,9474.636058
1998.824436,842.705048,370.102971,9400.615463
1998.824754,766.095498,-0.000000,9178.553681
1998.825071,689.485948,148.041188,9474.636058
1998.825389,536.266849,-0.000000,9400.615463
1998.825707,536.266849,148.041188,9400.615463
1998.826024,536.266849,370.102971,9474.636058
1998.826342,919.314598,222.061783,9548.656652
1998.826659,842.705048,-0.000000,9400.615463
1998.826977,689.485948,222.061783,9474.636058
1998.827295,689.485948,296.082377,9400.615463
1998.827612,1149.143247,222.061783,9474.636058
1998.827930,536.266849,148.041188,9622.677246
1998.828248,612.876398,-0.000000,9474.636058
1998.828565,689.485948,370.102971,9474.636058
1998.828883,689.485948,148.041188,9622.677246
1998.829200,689.485948,666.185348,9400.615463
1998.829518,689.485948,296.082377,9400.615463
1998.829836,919.314598,296.082377,9326.594869
1998.830153,842.705048,222.061783,9474.636058
1998.830471,919.314598,296.082377,9474.636058
1998.830789,919.314598,222.061783,9326.594869
1998.831106,995.924147,-0.000000,9474.636058
1998.831424,612.876398,222.061783,9474.636058
1998.831742,766.095498,-0.000000,9326.594869
1998.832059,1608.800546,222.061783,9474.636058
1998.832377,689.485948,296.082377,9326.594869
1998.832694,766.095498,222.061783,9326.594869
1998.833012,536.266849,296.082377,9400.615463
1998.833330,612.876398,222.061783,9474.636058
1998.833647,689.485948,-0.000000,9548.656652
1998.833965,536.266849,296.082377,9474.636058
1998.834283,306.438199,444.123565,9474.636058
1998.834600,459.657299,444.123565,9474.636058
1998.834918,766.095498,444.123565,9400.615463
1998.835235,612.876398,370.102971,9326.594869
1998.835553,459.657299,666.185348,9400.615463
1998.835871,459.657299,814.226536,9770.718434
1998.836188,536.266849,592.164754,9770.718434
1998.836506,383.047749,518.144159,9844.739029
1998.836824,689.485948,592.164754,9770.718434
1998.837141,383.047749,740.205942,9844.739029
1998.837459,536.266849,888.247130,9770.718434
1998.837776,536.266849,814.226536,9548.656652
1998.838094,842.705048,962.267725,9696.697840
1998.838412,306.438199,814.226536,9844.739029
1998.838729,383.047749,962.267725,9548.656652
1998.839047,76.609550,888.247130,9622.677246
1998.839365,-306.438199,1110.308913,9326.594869
1998.839682,-689.485948,1258.350101,9326.594869
1998.840000,-995.924147,1332.370696,9030.512492
1998.840318,-1302.362347,962.267725,9104.533087
1998.840635,-1762.019645,592.164754,9474.636058
1998.840953,-2604.724693,444.123565,9622.677246
1998.841270,-3294.210641,518.144159,9770.718434
1998.841588,-3677.258390,888.247130,9474.636058
1998.841906,-4136.915689,1332.370696,9548.656652
1998.842223,-4290.134789,1628.453072,9326.594869
1998.842541,-4596.572988,1924.535449,9178.553681
1998.842859,-4673.182538,1924.535449,9104.533087
1998.843176,-4673.182538,1924.535449,9252.574275
1998.843494,-5056.230287,2146.597232,9178.553681
1998.843811,-5132.839837,2368.659014,9030.512492
1998.844129,-5056.230287,2590.720797,8956.491898
1998.844447,-5975.544884,3108.864956,8808.450710
1998.844764,-5745.716235,3701.029710,8216.285956
1998.845082,-5515.887586,4145.153275,8216.285956
1998.845400,-5286.058936,4293.194464,8364.327145
1998.845717,-4903.011187,4515.256246,8512.368333
1998.846035,-4366.744339,4367.215058,8660.409521
1998.846352,-4213.525239,4663.297435,8586.388927
1998.846670,-3753.867940,4737.318029,8734.430116
1998.846988,-3064.381992,4811.338623,8438.347739
1998.847305,-2298.286494,5921.647536,7772.162391
1998.847623,-1762.019645,6143.709319,7402.059420
1998.847941,-842.705048,7476.080014,6735.874072
1998.848258,-459.657299,7698.141797,6439.791695
1998.848576,0.000000,7476.080014,6217.729913
1998.848894,-612.876398,6439.791695,7179.997637
1998.849211,-1378.971896,5847.626942,7920.203579
1998.849529,-1915.238745,5255.462188,8438.347739
1998.849846,-2451.505594,4885.359217,9104.533087
1998.850164,-2145.067394,4663.297435,9326.594869
1998.850482,-2374.896044,5255.462188,9696.697840
1998.850799,-2528.115143,5551.544565,9622.677246
1998.851117,-2068.457845,6217.729913,9474.636058
1998.851435,-2604.724693,5995.668130,9400.615463
1998.851752,-2681.334243,5625.565159,9918.759623
1998.852070,-3370.820191,4663.297435,10732.986159
1998.852387,-3907.087040,3108.864956,11843.295072
1998.852705,-3753.867940,2590.720797,12287.418637
1998.853023,-3217.601092,2960.823768,12213.398043
1998.853340,-2374.896044,3701.029710,12213.398043
1998.853658,-842.705048,4441.235652,11843.295072
1998.853976,-459.657299,4293.194464,10955.047942
1998.854293,-689.485948,3849.070898,10362.883188
1998.854611,-459.657299,3256.906145,10584.944971
1998.854928,-995.924147,2294.638420,10658.965565
1998.855246,-1225.752797,1628.453072,11843.295072
1998.855564,-1532.190996,2146.597232,11695.253884
1998.855881,-1378.971896,2294.638420,12287.418637
1998.856199,-1302.362347,1554.432478,12657.521608
1998.856517,-1225.752797,888.247130,13471.748144
1998.856834,-1225.752797,814.226536,12509.480420
1998.857152,-612.876398,814.226536,12065.356855
1998.857470,153.219100,1184.329507,11547.212695
1998.857787,1225.752797,1110.308913,10955.047942
1998.858105,1149.143247,1332.370696,9992.780217
1998.858422,1225.752797,1554.432478,9474.636058
1998.858740,995.924147,1554.432478,9696.697840
1998.859058,536.266849,1776.494261,10140.821405
1998.859375,153.219100,1184.329507,10288.862594
1998.859693,76.609550,1258.350101,9548.656652
1998.860011,-612.876398,740.205942,10510.924376
1998.860328,0.000000,-0.000000,9548.656652
1998.860646,229.828649,-0.000000,9844.739029
1998.860963,1149.143247,888.247130,8512.368333
1998.861281,1302.362347,1036.288319,7698.141797
1998.861599,1378.971896,1036.288319,7624.121203
1998.861916,689.485948,1036.288319,7698.141797
1998.862234,229.828649,1184.329507,7698.141797
1998.862552,-842.705048,1184.329507,7254.018232
1998.862869,-1838.629195,1332.370696,7402.059420
1998.863187,-2145.067394,1258.350101,7994.224174
1998.863504,-2145.067394,444.123565,8290.306550
1998.863822,-1378.971896,-222.061783,6439.791695
1998.864140,-2298.286494,-444.123565,6809.894666
1998.864457,-2374.896044,-518.144159,7105.977043
1998.864775,-2374.896044,-222.061783,7105.977043
1998.865092,-2451.505594,296.082377,5921.647536
1998.865410,-2834.553343,1480.411884,5551.544565
1998.865727,-3064.381992,1702.473667,5921.647536
1998.866044,-3753.867940,888.247130,7624.121203
1998.866362,-4060.306139,-0.000000,8586.388927
1998.866679,-4749.792088,592.164754,8068.244768
1998.866996,-4213.525239,1406.391290,8068.244768
1998.867314,-2757.943793,1628.453072,8512.368333
1998.867631,-1838.629195,1998.556043,8068.244768
1998.867948,-842.705048,2368.659014,7550.100608
1998.868266,536.266849,3108.864956,7031.956449
1998.868583,-459.657299,3923.091493,7105.977043
1998.868900,-306.438199,3478.967927,7550.100608
1998.869218,-1532.190996,3330.926739,7624.121203
1998.869535,-2757.943793,4145.153275,8364.327145
1998.869852,-3753.867940,3701.029710,9474.636058
1998.870170,-4366.744339,3701.029710,9548.656652
1998.870487,-3753.867940,3256.906145,10807.006753
1998.870804,-3064.381992,3627.009116,11029.068536
1998.871121,-2987.772442,3552.988522,10510.924376
1998.871439,-2374.896044,3330.926739,10066.800811
1998.871756,-1455.581446,3034.844362,10436.903782
1998.872073,-1378.971896,3552.988522,10140.821405
1998.872391,-536.266849,4441.235652,10584.944971
1998.872708,-306.438199,4811.338623,10066.800811
1998.873025,-383.047749,5995.668130,9696.697840
1998.873343,-459.657299,6661.853478,10436.903782
1998.873660,-153.219100,6883.915261,11177.109724
1998.873977,-536.266849,5921.647536,10881.027347
1998.874295,-1225.752797,5921.647536,9622.677246
1998.874612,-1608.800546,4663.297435,10362.883188
1998.874929,-1762.019645,3627.009116,11473.192101
1998.875247,-1072.533697,2146.597232,12361.439231
1998.875564,-1762.019645,1850.514855,11621.233289
1998.875881,-2068.457845,2442.679609,12583.501014
1998.876199,-1455.581446,2516.700203,14434.015869
1998.876516,-919.314598,2664.741391,14211.954086
1998.876833,-612.876398,2146.597232,13915.871710
1998.877151,0.000000,3552.988522,13767.830521
1998.877468,2757.943793,3849.070898,13545.768739
1998.877785,4903.011187,4885.359217,10362.883188
1998.878103,7354.516781,4441.235652,9400.615463
1998.878420,8044.002729,4367.215058,8660.409521
1998.878737,7201.297681,4293.194464,7476.080014
1998.879055,7354.516781,2812.782580,7550.100608
1998.879372,4596.572988,1998.556043,9030.512492
1998.879689,1991.848295,518.144159,9696.697840
1998.880007,-153.219100,-222.061783,11325.150913
1998.880324,-1991.848295,-2220.617826,12879.583391
1998.880641,-2145.067394,-3330.926739,15248.242405
1998.880959,-2528.115143,-3627.009116,14952.160028
1998.881276,-1762.019645,-3404.947333,13767.830521
1998.881593,383.047749,-3552.988522,13323.706956
1998.881911,2068.457845,-3627.009116,11991.336260
1998.882228,3370.820191,-2442.679609,9474.636058
1998.882545,4749.792088,-1110.308913,7031.956449
1998.882863,5592.497135,222.061783,6587.832884
1998.883180,5669.106685,1184.329507,4885.359217
1998.883497,4596.572988,1184.329507,4441.235652
1998.883815,3140.991542,-370.102971,5107.421000
1998.884132,1072.533697,-1554.432478,6439.791695
1998.884449,-995.924147,-3404.947333,6661.853478
1998.884767,-2528.115143,-5181.441594,7846.182985
1998.885084,-3294.210641,-5773.606348,9474.636058
1998.885401,-3600.648841,-6217.729913,10288.862594
1998.885718,-2757.943793,-6439.791695,10658.965565
1998.886036,-2221.676944,-5847.626942,10881.027347
1998.886353,-1225.752797,-4071.132681,9548.656652
1998.886670,0.000000,-1998.556043,7105.977043
1998.886988,612.876398,-888.247130,6143.709319
1998.887305,1608.800546,-370.102971,5625.565159
1998.887622,2298.286494,666.185348,3701.029710
1998.887940,2604.724693,814.226536,2738.761985
1998.888257,3524.039291,-74.020594,3849.070898
1998.888574,3064.381992,-1110.308913,3701.029710
1998.888892,2681.334243,-1628.453072,4145.153275
1998.889209,1455.581446,-2812.782580,6661.853478
1998.889526,0.000000,-3404.947333,7994.224174
1998.889844,-919.314598,-3034.844362,9104.533087
1998.890161,-766.095498,-2220.617826,9844.739029
1998.890478,-689.485948,-1554.432478,10140.821405
1998.890796,-919.314598,-592.164754,9474.636058
1998.891113,842.705048,-370.102971,9400.615463
1998.891430,842.705048,444.123565,8216.285956
1998.891748,1532.190996,592.164754,7624.121203
1998.892065,2068.457845,888.247130,7105.977043
1998.892382,2451.505594,518.144159,6883.915261
1998.892700,2911.162892,1036.288319,5995.668130
1998.893017,2681.334243,1480.411884,6365.771101
1998.893334,2451.505594,1850.514855,8586.388927
1998.893652,1685.410096,1480.411884,9770.718434
1998.893969,229.828649,1332.370696,10881.027347
1998.894286,-1072.533697,1924.535449,11843.295072
1998.894604,-919.314598,2368.659014,13027.624579
1998.894921,-612.876398,2738.761985,12065.356855
1998.895238,0.000000,3627.009116,11769.274478
1998.895556,766.095498,3627.009116,11547.212695
1998.895873,1225.752797,4293.194464,9918.759623
1998.896190,1991.848295,4589.276840,8586.388927
1998.896508,2068.457845,2590.720797,9770.718434
1998.896825,1225.752797,1776.494261,10214.842000
1998.897142,0.000000,1406.391290,9770.718434
1998.897460,-842.705048,814.226536,10955.047942
1998.897777,-2068.457845,148.041188,12657.521608
1998.898094,-2604.724693,370.102971,14211.954086
1998.898412,-2681.334243,1480.411884,13989.892304
1998.898729,-2451.505594,2072.576638,13841.851115
1998.899046,-1302.362347,2220.617826,15026.180623
1998.899363,306.438199,2812.782580,13397.727550
1998.899681,1762.019645,3627.009116,11843.295072
1998.899998,3294.210641,3775.050304,11399.171507
1998.900315,3217.601092,2812.782580,11251.130318
1998.900633,3370.820191,3256.906145,9696.697840
1998.900950,2987.772442,2886.803174,9178.553681
1998.901267,1762.019645,2220.617826,9400.615463
1998.901585,306.438199,592.164754,10436.903782
1998.901902,-919.314598,-148.041188,10584.944971
1998.902219,-2145.067394,-592.164754,11473.192101
1998.902537,-2221.676944,-592.164754,12657.521608
1998.902854,-2145.067394,-1184.329507,13027.624579
1998.903171,-766.095498,-1628.453072,12583.501014
1998.903489,-306.438199,-1036.288319,12879.583391
1998.903806,612.876398,444.123565,12065.356855
1998.904123,2068.457845,1258.350101,10288.862594
1998.904441,3294.210641,2294.638420,8734.430116
1998.904758,3524.039291,3182.885551,7476.080014
1998.905075,3830.477490,3404.947333,6365.771101
1998.905393,3830.477490,2442.679609,5551.544565
1998.905710,3370.820191,814.226536,5477.523971
1998.906027,2374.896044,-370.102971,6365.771101
1998.906345,1225.752797,-1702.473667,6735.874072
1998.906662,-459.657299,-2812.782580,6365.771101
1998.906979,-1149.143247,-3923.091493,8586.388927
1998.907297,-2221.676944,-4145.153275,10288.862594
1998.907614,-1915.238745,-4367.215058,10362.883188
1998.907931,-1838.629195,-3997.112087,10362.883188
1998.908249,-995.924147,-3034.844362,11325.150913
1998.908566,76.609550,-1998.556043,9252.574275
1998.908883,1455.581446,-1110.308913,7550.100608
1998.909201,2451.505594,-592.164754,6661.853478
1998.909518,3677.258390,-0.000000,5921.647536
1998.909835,4060.306139,-148.041188,4737.318029
1998.910153,4596.572988,-518.144159,4515.256246
1998.910470,3600.648841,-1184.329507,4737.318029
1998.910787,2681.334243,-2886.803174,5699.585753
1998.911105,1532.190996,-3552.988522,6513.812290
1998.911422,-612.876398,-4737.318029,7550.100608
1998.911739,-1072.533697,-5699.585753,9770.718434
1998.912057,-1991.848295,-5551.544565,11103.089130
1998.912374,-1915.238745,-5625.565159,11843.295072
1998.912691,-1072.533697,-5033.400406,11251.130318
1998.913009,-383.047749,-4219.173869,10732.986159
1998.913326,1302.362347,-2368.659014,9844.739029
1998.913643,2451.505594,-888.247130,8660.409521
1998.913960,4443.353888,222.061783,7179.997637
1998.914278,4443.353888,1110.308913,6587.832884
1998.914595,4136.915689,888.247130,6069.688724
1998.914912,3524.039291,592.164754,6735.874072
1998.915230,2221.676944,-0.000000,8216.285956
1998.915547,1762.019645,-444.123565,9400.615463
1998.915864,459.657299,-1406.391290,10214.842000
1998.916182,0.000000,-1480.411884,11325.150913
1998.916499,-383.047749,-1258.350101,11843.295072
1998.916816,0.000000,-740.205942,11843.295072
1998.917134,306.438199,-370.102971,11029.068536
1998.917451,995.924147,592.164754,10362.883188
1998.917768,1608.800546,1480.411884,9622.677246
1998.918086,2451.505594,1850.514855,8956.491898
1998.918403,1838.629195,2294.638420,8142.265362
1998.918720,2528.115143,3182.885551,7402.059420
1998.919038,2068.457845,3182.885551,8068.244768
1998.919355,1455.581446,2886.803174,8808.450710
1998.919672,612.876398,2442.679609,9844.739029
1998.919990,-306.438199,2072.576638,11251.130318
1998.920307,-766.095498,814.226536,12435.459826
1998.920624,-459.657299,962.267725,13323.706956
1998.920942,0.000000,1036.288319,13397.727550
1998.921259,76.609550,1332.370696,12213.398043
1998.921576,842.705048,2220.617826,11769.274478
1998.921894,612.876398,2516.700203,11029.068536
1998.922211,1455.581446,1924.535449,9770.718434
1998.922528,1225.752797,1628.453072,9326.594869
1998.922846,612.876398,1332.370696,9992.780217
1998.923163,306.438199,1850.514855,9252.574275
1998.923480,0.000000,1628.453072,8734.430116
1998.923798,-612.876398,444.123565,9770.718434
1998.924115,-1225.752797,-962.267725,11399.171507
1998.924432,-1991.848295,-814.226536,12139.377449
1998.924750,-1915.238745,-518.144159,13027.624579
1998.925067,-766.095498,-148.041188,13693.809927
1998.925384,229.828649,1110.308913,12731.542202
1998.925702,1149.143247,1480.411884,11621.233289
1998.926019,2221.676944,2220.617826,10288.862594
1998.926336,2374.896044,2442.679609,9178.553681
1998.926654,3753.867940,2960.823768,7328.038826
1998.926971,3140.991542,3034.844362,5995.668130
1998.927288,2834.553343,1924.535449,6217.729913
1998.927606,1532.190996,740.205942,6439.791695
1998.927923,383.047749,-74.020594,7179.997637
1998.928240,-842.705048,-1332.370696,8512.368333
1998.928557,-2528.115143,-1554.432478,8956.491898
1998.928875,-3217.601092,-1554.432478,9622.677246
1998.929192,-2757.943793,-2072.576638,10807.006753
1998.929509,-2911.162892,-1850.514855,11177.109724
1998.929827,-1762.019645,-1480.411884,11325.150913
1998.930144,-919.314598,-444.123565,9992.780217
1998.930461,995.924147,370.102971,9326.594869
1998.930779,2987.772442,1776.494261,7920.203579
1998.931096,3677.258390,1776.494261,6291.750507
1998.931413,3983.696590,1850.514855,5255.462188
1998.931731,4290.134789,592.164754,4737.318029
1998.932048,2757.943793,518.144159,4441.235652
1998.932365,2221.676944,-444.123565,4811.338623
1998.932683,919.314598,-1258.350101,6069.688724
1998.933000,-842.705048,-2812.782580,7846.182985
1998.933317,-1915.238745,-4737.318029,9918.759623
1998.933635,-2451.505594,-5107.421000,11769.274478
1998.933952,-2145.067394,-4737.318029,12953.603985
1998.934269,-995.924147,-3923.091493,12953.603985
1998.934587,0.000000,-2960.823768,11843.295072
1998.934904,1608.800546,-1628.453072,11621.233289
1998.935221,3294.210641,-0.000000,9622.677246
1998.935539,4903.011187,1702.473667,7698.141797
1998.935856,5669.106685,2146.597232,6217.729913
1998.936173,5362.668486,1628.453072,5847.626942
1998.936491,5056.230287,1036.288319,6069.688724
1998.936808,3983.696590,-296.082377,7105.977043
1998.937125,2604.724693,-1184.329507,8734.430116
1998.937443,1149.143247,-2368.659014,9548.656652
1998.937760,-229.828649,-2812.782580,11251.130318
1998.938077,-995.924147,-2812.782580,12583.501014
1998.938395,-842.705048,-1776.494261,13101.645173
1998.938712,-306.438199,-592.164754,12065.356855
1998.939029,76.609550,740.205942,11103.089130
1998.939347,1302.362347,1554.432478,11177.109724
1998.939664,2298.286494,1850.514855,10140.821405
1998.939981,2451.505594,1554.432478,9252.574275
1998.940299,3294.210641,2220.617826,7994.224174
1998.940616,3217.601092,3182.885551,7179.997637
1998.940933,3370.820191,2886.803174,7402.059420
1998.941251,2451.505594,2960.823768,6957.935855
1998.941568,1915.238745,2590.720797,7624.121203
1998.941885,689.485948,2368.659014,8216.285956
1998.942202,-306.438199,1110.308913,9474.636058
1998.942520,-1685.410096,222.061783,11917.315666
1998.942837,-2604.724693,-814.226536,12879.583391
1998.943154,-2681.334243,-0.000000,12509.480420
1998.943472,-2298.286494,740.205942,11917.315666
1998.943789,-1455.581446,1332.370696,11991.336260
1998.944106,-1149.143247,1628.453072,10510.924376
1998.944424,-919.314598,2220.617826,9178.553681
1998.944741,-229.828649,2442.679609,9178.553681
1998.945058,383.047749,2368.659014,8438.347739
1998.945376,766.095498,2590.720797,8290.306550
1998.945693,1225.752797,1998.556043,9178.553681
1998.946010,536.266849,1406.391290,9622.677246
1998.946328,-153.219100,814.226536,10510.924376
1998.946645,-153.219100,888.247130,11177.109724
1998.946962,0.000000,962.267725,11843.295072
1998.947280,459.657299,1332.370696,11251.130318
1998.947597,612.876398,1998.556043,10732.986159
1998.947914,1378.971896,2368.659014,9474.636058
1998.948232,1608.800546,2146.597232,8734.430116
1998.948549,1915.238745,1998.556043,8142.265362
1998.948866,1072.533697,1850.514855,7254.018232
1998.949184,842.705048,1480.411884,6883.915261
1998.949501,76.609550,1184.329507,7254.018232
1998.949818,-766.095498,444.123565,8438.347739
1998.950136,-1378.971896,-148.041188,9696.697840
1998.950453,-1762.019645,222.061783,9548.656652
1998.950770,-1608.800546,-0.000000,10510.924376
1998.951088,-1378.971896,-0.000000,11325.150913
1998.951405,-689.485948,-666.185348,11843.295072
1998.951722,229.828649,-0.000000,10658.965565
1998.952040,1302.362347,370.102971,9622.677246
1998.952357,2221.676944,814.226536,8956.491898
1998.952674,2911.162892,1406.391290,7328.038826
1998.952992,2374.896044,1924.535449,5403.503377
1998.953309,1685.410096,1110.308913,5625.565159
1998.953626,766.095498,518.144159,6143.709319
1998.953944,-459.657299,-148.041188,6513.812290
1998.954261,-995.924147,-1628.453072,7476.080014
1998.954578,-1838.629195,-2664.741391,9252.574275
1998.954896,-2298.286494,-3478.967927,10510.924376
1998.955213,-1991.848295,-3552.988522,11917.315666
1998.955530,-1455.581446,-3034.844362,12879.583391
1998.955848,-766.095498,-2738.761985,13027.624579
1998.956165,0.000000,-814.226536,12139.377449
1998.956482,1378.971896,148.041188,11473.192101
1998.956799,2528.115143,1184.329507,9548.656652
1998.957117,4443.353888,2220.617826,9104.533087
1998.957434,4060.306139,2368.659014,7624.121203
1998.957751,4136.915689,2812.782580,6143.709319
1998.958069,3830.477490,1850.514855,6069.688724
1998.958386,2834.553343,444.123565,6587.832884
1998.958703,1685.410096,-1258.350101,7476.080014
1998.959021,1225.752797,-1924.535449,9030.512492
1998.959338,0.000000,-2516.700203,10510.924376
1998.959655,0.000000,-2886.803174,11843.295072
1998.959973,76.609550,-2442.679609,12731.542202
1998.960290,306.438199,-814.226536,11769.274478
1998.960607,1225.752797,-74.020594,11325.150913
1998.960925,1915.238745,1258.350101,10214.842000
1998.961242,2604.724693,2146.597232,9326.594869
1998.961559,3447.429741,3034.844362,8068.244768
1998.961877,3524.039291,2886.803174,7179.997637
1998.962194,3524.039291,2738.761985,7550.100608
1998.962511,2834.553343,2664.741391,6883.915261
1998.962829,2374.896044,2220.617826,7179.997637
1998.963146,766.095498,1332.370696,7920.203579
1998.963463,-383.047749,-296.082377,9474.636058
1998.963781,-1532.190996,-1406.391290,11029.068536
1998.964098,-1991.848295,-1776.494261,12583.501014
1998.964415,-1838.629195,-1110.308913,12583.501014
1998.964733,-2068.457845,-0.000000,11399.171507
1998.965050,-612.876398,740.205942,11029.068536
1998.965367,229.828649,1554.432478,10955.047942
1998.965685,919.314598,2442.679609,8956.491898
1998.966002,1455.581446,2590.720797,7846.182985
1998.966319,1762.019645,2294.638420,8142.265362
1998.966637,1225.752797,1554.432478,8142.265362
1998.966954,919.314598,962.267725,8586.388927
1998.967272,766.095498,-0.000000,9622.677246
1998.967589,306.438199,-592.164754,9622.677246
1998.967907,-1455.581446,-0.000000,9992.780217
1998.968224,-229.828649,-814.226536,12213.398043
1998.968541,-1072.533697,-0.000000,11251.130318
1998.968859,-536.266849,-370.102971,11325.150913
1998.969176,-76.609550,-518.144159,11103.089130
1998.969494,-536.266849,1628.453072,9992.780217
1998.969811,1378.971896,1406.391290,9992.780217
1998.970129,995.924147,1406.391290,8512.368333
1998.970446,1608.800546,2294.638420,8142.265362
1998.970764,2145.067394,2442.679609,7920.203579
1998.971081,1608.800546,2442.679609,6957.935855
1998.971398,2145.067394,1184.329507,7550.100608
1998.971716,919.314598,444.123565,8512.368333
1998.972033,0.000000,1036.288319,8216.285956
1998.972351,-229.828649,-444.123565,9622.677246
1998.972668,-612.876398,-1554.432478,10807.006753
1998.972986,-306.438199,-1036.288319,11769.274478
1998.973303,0.000000,-148.041188,10362.883188
1998.973621,-153.219100,1480.411884,9548.656652
1998.973938,459.657299,1110.308913,9474.636058
1998.974256,995.924147,1776.494261,8142.265362
1998.974573,689.485948,1628.453072,7105.977043
1998.974890,306.438199,888.247130,7550.100608
1998.975208,0.000000,370.102971,7328.038826
1998.975525,229.828649,-222.061783,7550.100608
1998.975843,-229.828649,-740.205942,7920.203579
1998.976160,-1149.143247,-962.267725,8956.491898
1998.976478,-1149.143247,-1850.514855,9918.759623
1998.976795,-1455.581446,-1850.514855,10732.986159
1998.977113,-1378.971896,-1850.514855,12287.418637
1998.977430,-459.657299,-1850.514855,13101.645173
1998.977748,229.828649,-370.102971,10955.047942
1998.978065,1685.410096,-592.164754,10140.821405
1998.978382,2681.334243,-0.000000,9400.615463
1998.978700,2987.772442,1258.350101,8068.244768
1998.979017,3140.991542,1406.391290,6587.832884
1998.979335,2451.505594,740.205942,6957.935855
1998.979652,1685.410096,296.082377,6809.894666
1998.979970,1455.581446,-0.000000,7328.038826
1998.980287,76.609550,-888.247130,8290.306550
1998.980605,-842.705048,-1850.514855,10066.800811
1998.980922,-766.095498,-1924.535449,11547.212695
1998.981239,-995.924147,-2072.576638,11843.295072
1998.981557,0.000000,-1850.514855,13027.624579
1998.981874,919.314598,-1776.494261,12953.603985
1998.982192,1378.971896,-74.020594,11843.295072
1998.982509,2681.334243,740.205942,10288.862594
1998.982827,3753.867940,2442.679609,8882.471304
1998.983144,4060.306139,2738.761985,7846.182985
1998.983462,3753.867940,2960.823768,6661.853478
1998.983779,3447.429741,2368.659014,6291.750507
1998.984097,2145.067394,1702.473667,6365.771101
1998.984414,1532.190996,444.123565,7550.100608
1998.984731,-383.047749,-444.123565,8290.306550
1998.985049,-1072.533697,-1776.494261,9474.636058
1998.985366,-2221.676944,-2442.679609,10658.965565
1998.985684,-2145.067394,-3256.906145,12287.418637
1998.986001,-1991.848295,-2664.741391,12435.459826
1998.986319,-1378.971896,-1702.473667,12435.459826
1998.986636,-306.438199,-592.164754,11843.295072
1998.986954,995.924147,740.205942,10881.027347
1998.987271,2221.676944,1998.556043,10066.800811
1998.987589,2374.896044,2886.803174,8364.327145
1998.987906,3217.601092,3108.864956,7624.121203
1998.988223,2987.772442,2812.782580,6735.874072
1998.988541,2451.505594,1850.514855,5995.668130
1998.988858,1378.971896,814.226536,6957.935855
1998.989176,0.000000,-444.123565,8512.368333
1998.989493,-919.314598,-1554.432478,9326.594869
1998.989811,-1685.410096,-2368.659014,10732.986159
1998.990128,-1838.629195,-2516.700203,12287.418637
1998.990446,-1685.410096,-1850.514855,12435.459826
1998.990763,-995.924147,-1184.329507,11917.315666
1998.991081,0.000000,-0.000000,11251.130318
1998.991398,1149.143247,888.247130,11029.068536
1998.991715,2374.896044,2368.659014,9770.718434
1998.992033,3140.991542,3256.906145,7624.121203
1998.992350,3753.867940,3552.988522,7402.059420
1998.992668,3677.258390,3552.988522,7254.018232
1998.992985,2987.772442,2294.638420,7105.977043
1998.993303,2068.457845,1258.350101,7698.141797
1998.993620,536.266849,-814.226536,9252.574275
1998.993938,-229.828649,-814.226536,9548.656652
1998.994255,-689.485948,-1628.453072,10881.027347
1998.994572,-766.095498,-1628.453072,10955.047942
1998.994890,-153.219100,-1924.535449,11325.150913
1998.995207,0.000000,-1480.411884,11103.089130
1998.995525,536.266849,-592.164754,10066.800811
1998.995842,1762.019645,-0.000000,9326.594869
1998.996160,2374.896044,814.226536,8438.347739
1998.996477,2528.115143,1998.556043,7846.182985
1998.996795,2221.676944,2368.659014,7031.956449
1998.997112,1915.238745,2368.659014,6661.853478
1998.997430,1685.410096,962.267725,8216.285956
1998.997747,612.876398,370.102971,8660.409521
1998.998064,-689.485948,-370.102971,9400.615463
1998.998382,-1378.971896,-1110.308913,10362.883188
1998.998699,-1608.800546,-2146.597232,11917.315666
1998.999017,-1378.971896,-2516.700203,12361.439231
1998.999334,-919.314598,-2072.576638,11769.274478
1998.999652,459.657299,-1332.370696,10807.006753
1998.999969,383.047749,-592.164754,10362.883188
1999.000287,1302.362347,-74.020594,9252.574275
1999.000604,1532.190996,962.267725,7846.182985
1999.000922,1608.800546,1628.453072,6883.915261
1999.001239,1072.533697,1702.473667,6661.853478
1999.001556,1378.971896,1036.288319,6587.832884
1999.001874,1149.143247,-148.041188,7179.997637
1999.002191,306.438199,-1554.432478,8512.368333
1999.002509,306.438199,-2664.741391,9770.718434
1999.002826,-766.095498,-3108.864956,11251.130318
1999.003144,0.000000,-3627.009116,13027.624579
1999.003461,0.000000,-2220.617826,12731.542202
1999.003779,766.095498,-518.144159,12139.377449
1999.004096,1915.238745,222.061783,10140.821405
1999.004413,3294.210641,1702.473667,9474.636058
1999.004731,4213.525239,2442.679609,8068.244768
1999.005048,4290.134789,2590.720797,5995.668130
1999.005366,4213.525239,1702.473667,5477.523971
1999.005683,3370.820191,518.144159,6439.791695
1999.006001,2911.162892,-74.020594,6439.791695
1999.006318,1685.410096,-888.247130,7105.977043
1999.006636,306.438199,-1702.473667,9178.553681
1999.006953,-689.485948,-1184.329507,10066.800811
1999.007271,-919.314598,-1628.453072,10955.047942
1999.007588,-842.705048,-1776.494261,12361.439231
1999.007905,-612.876398,-1924.535449,13027.624579
1999.008223,0.000000,-1406.391290,11917.315666
1999.008540,995.924147,-0.000000,10584.944971
1999.008858,2221.676944,518.144159,10436.903782
1999.009175,3064.381992,2072.576638,8438.347739
1999.009493,3600.648841,2960.823768,6143.709319
1999.009810,2681.334243,2664.741391,6217.729913
1999.010128,1532.190996,1406.391290,6365.771101
1999.010445,995.924147,518.144159,6957.935855
1999.010763,-153.219100,-444.123565,7698.141797
1999.011080,-1532.190996,-1110.308913,9178.553681
1999.011397,-2374.896044,-1628.453072,10214.842000
1999.011715,-2374.896044,-2442.679609,11917.315666
1999.012032,-1838.629195,-1998.556043,12805.562797
1999.012350,-1455.581446,-1480.411884,13027.624579
1999.012667,-536.266849,-592.164754,12287.418637
1999.012985,1608.800546,-0.000000,11769.274478
1999.013302,2298.286494,1332.370696,10510.924376
1999.013620,2987.772442,2738.761985,9030.512492
1999.013937,3677.258390,3552.988522,7920.203579
1999.014254,3677.258390,3330.926739,6661.853478
1999.014572,3370.820191,3108.864956,5921.647536
1999.014889,2221.676944,2294.638420,6587.832884
1999.015207,383.047749,1036.288319,7698.141797
1999.015524,-842.705048,-222.061783,9104.533087
1999.015842,-1762.019645,-1554.432478,11029.068536
1999.016159,-1915.238745,-1554.432478,12361.439231
1999.016477,-2068.457845,-1110.308913,12953.603985
1999.016794,-612.876398,-148.041188,12435.459826
1999.017112,0.000000,814.226536,11251.130318
1999.017429,1378.971896,1406.391290,11621.233289
1999.017746,2145.067394,2072.576638,10436.903782
1999.018064,2834.553343,3256.906145,9104.533087
1999.018381,3370.820191,3849.070898,7698.141797
1999.018699,3140.991542,3849.070898,6587.832884
1999.019016,3064.381992,2960.823768,6883.915261
1999.019334,2221.676944,1702.473667,7624.121203
1999.019651,0.000000,222.061783,8290.306550
1999.019969,-919.314598,-1036.288319,9326.594869
1999.020286,-2145.067394,-2294.638420,10807.006753
1999.020604,-2145.067394,-2664.741391,12583.501014
1999.020921,-2068.457845,-2960.823768,12509.480420
1999.021238,-1762.019645,-2220.617826,12213.398043
1999.021556,-612.876398,-1406.391290,11843.295072
1999.021873,612.876398,-444.123565,10584.944971
1999.022191,1378.971896,592.164754,9326.594869
1999.022508,2528.115143,1406.391290,7846.182985
1999.022826,2528.115143,2886.803174,6661.853478
1999.023143,3064.381992,3404.947333,6439.791695
1999.023461,2987.772442,2664.741391,6365.771101
1999.023778,1685.410096,2072.576638,7328.038826
1999.024096,1149.143247,962.267725,8068.244768
1999.024413,0.000000,-0.000000,9104.533087
1999.024730,-919.314598,-1406.391290,10881.027347
1999.025048,-689.485948,-2812.782580,12953.603985
1999.025365,-536.266849,-1406.391290,11843.295072
1999.025683,306.438199,-148.041188,11029.068536
1999.026000,919.314598,370.102971,10436.903782
1999.026318,1838.629195,1184.329507,9030.512492
1999.026635,2757.943793,2146.597232,7624.121203
1999.026953,3294.210641,2738.761985,6365.771101
1999.027270,2604.724693,3108.864956,5773.606348
1999.027587,2528.115143,2812.782580,5699.585753
1999.027905,1991.848295,2294.638420,5921.647536
1999.028222,689.485948,222.061783,7105.977043
1999.028540,0.000000,-888.247130,8808.450710
1999.028857,-1455.581446,-2146.597232,10584.944971
1999.029175,-1225.752797,-2960.823768,11991.336260
1999.029492,-1532.190996,-3034.844362,13027.624579
1999.029810,-383.047749,-2590.720797,13175.665768
1999.030127,-536.266849,-1036.288319,12065.356855
1999.030445,229.828649,-0.000000,10955.047942
1999.030762,1685.410096,1258.350101,9400.615463
1999.031079,2374.896044,1924.535449,8142.265362
1999.031397,2374.896044,1998.556043,6587.832884
1999.031714,1608.800546,1332.370696,6883.915261
1999.032032,1991.848295,370.102971,6587.832884
1999.032349,919.314598,-148.041188,7105.977043
1999.032667,536.266849,-666.185348,7846.182985
1999.032984,-766.095498,-2072.576638,9844.739029
1999.033302,-1455.581446,-2294.638420,10732.986159
1999.033619,-1225.752797,-3256.906145,13323.706956
1999.033937,-842.705048,-1702.473667,13471.748144
1999.034254,-459.657299,-740.205942,13175.665768
1999.034571,153.219100,148.041188,11991.336260
1999.034889,1762.019645,666.185348,11473.192101
1999.035206,2451.505594,1776.494261,10066.800811
1999.035524,3677.258390,2960.823768,7698.141797
1999.035841,3294.210641,3923.091493,6735.874072
1999.036159,3753.867940,3478.967927,6661.853478
1999.036476,3370.820191,2442.679609,6439.791695
1999.036794,2221.676944,444.123565,6883.915261
1999.037111,766.095498,-370.102971,8364.327145
1999.037428,-919.314598,-1776.494261,9474.636058
1999.037746,-1225.752797,-1998.556043,10140.821405
1999.038063,-1072.533697,-1702.473667,11325.150913
1999.038381,-229.828649,-1110.308913,11843.295072
1999.038698,-689.485948,-888.247130,11769.274478
1999.039016,229.828649,-222.061783,11769.274478
1999.039333,1608.800546,518.144159,10881.027347
1999.039651,2374.896044,1628.453072,9474.636058
1999.039968,2451.505594,2220.617826,8512.368333
1999.040286,2221.676944,2664.741391,6661.853478
1999.040603,2374.896044,2960.823768,6217.729913
1999.040920,2221.676944,2146.597232,6513.812290
1999.041238,995.924147,1110.308913,6957.935855
1999.041555,229.828649,-0.000000,7772.162391
1999.041873,-1762.019645,-1554.432478,8808.450710
1999.042190,-2604.724693,-3256.906145,10955.047942
1999.042508,-2604.724693,-3627.009116,12879.583391
1999.042825,-2374.896044,-2590.720797,12435.459826
1999.043143,-1225.752797,-1480.411884,12213.398043
1999.043460,-383.047749,148.041188,11325.150913
1999.043778,536.266849,1036.288319,10955.047942
1999.044095,1762.019645,2368.659014,9548.656652
1999.044412,2374.896044,2738.761985,8586.388927
1999.044730,2451.505594,3701.029710,7476.080014
1999.045047,2451.505594,3182.885551,7105.977043
1999.045365,1532.190996,2146.597232,6735.874072
1999.045682,1149.143247,740.205942,8734.430116
1999.046000,0.000000,-444.123565,9400.615463
1999.046317,-1149.143247,-592.164754,9400.615463
1999.046635,-1455.581446,-1850.514855,10658.965565
1999.046952,-1685.410096,-1850.514855,12065.356855
1999.047269,-1149.143247,-1702.473667,12361.439231
1999.047587,-842.705048,-370.102971,10288.862594
1999.047904,-229.828649,370.102971,10584.944971
1999.048222,612.876398,1998.556043,9030.512492
1999.048539,1915.238745,2146.597232,9030.512492
1999.048857,1991.848295,2146.597232,7476.080014
1999.049174,1455.581446,1850.514855,8068.244768
1999.049492,1532.190996,1702.473667,7179.997637
1999.049809,1149.143247,2220.617826,7179.997637
1999.050127,1225.752797,888.247130,8142.265362
1999.050444,919.314598,1406.391290,8586.388927
1999.050761,153.219100,592.164754,9474.636058
1999.051079,0.000000,-296.082377,11177.109724
1999.051396,-229.828649,-1850.514855,12139.377449
1999.051714,306.438199,-444.123565,11325.150913
1999.052031,995.924147,-0.000000,10881.027347
1999.052349,1762.019645,518.144159,11251.130318
1999.052666,2298.286494,1776.494261,8734.430116
1999.052984,3140.991542,2294.638420,8068.244768
1999.053301,3830.477490,3627.009116,6735.874072
1999.053619,3983.696590,2812.782580,8068.244768
1999.053936,3983.696590,3552.988522,6513.812290
1999.054253,2834.553343,1924.535449,7031.956449
1999.054571,2451.505594,1036.288319,8512.368333
1999.054888,1455.581446,-148.041188,10658.965565
1999.055206,536.266849,-1776.494261,10881.027347
1999.055523,-383.047749,-2220.617826,11769.274478
1999.055841,-306.438199,-1998.556043,13545.768739
1999.056158,-153.219100,-1554.432478,12731.542202
1999.056476,306.438199,-592.164754,11547.212695
1999.056793,536.266849,-370.102971,10288.862594
1999.057110,612.876398,1628.453072,8734.430116
1999.057428,919.314598,1480.411884,7920.203579
1999.057745,766.095498,814.226536,7920.203579
1999.058063,689.485948,148.041188,7920.203579
1999.058380,-919.314598,-0.000000,7772.162391
1999.058698,-766.095498,-592.164754,8364.327145
1999.059015,-1455.581446,-1776.494261,9252.574275
1999.059333,-1915.238745,-2220.617826,9622.677246
1999.059650,-2681.334243,-2146.597232,9548.656652
1999.059968,-3140.991542,-2368.659014,11547.212695
1999.060285,-1072.533697,-3552.988522,13693.809927
1999.060602,-2451.505594,-814.226536,10362.883188
1999.060920,-1608.800546,-2220.617826,10658.965565
1999.061237,-919.314598,518.144159,10288.862594
1999.061555,0.000000,-740.205942,11177.109724
1999.061872,-612.876398,518.144159,7402.059420
1999.062190,-1225.752797,518.144159,7328.038826
1999.062507,0.000000,962.267725,8438.347739
1999.062825,383.047749,-814.226536,8068.244768
1999.063142,76.609550,-444.123565,6957.935855
1999.063460,0.000000,-2442.679609,8956.491898
1999.063777,-229.828649,-1924.535449,10288.862594
1999.064094,689.485948,-1554.432478,10214.842000
1999.064412,1378.971896,-2812.782580,10362.883188
1999.064729,1915.238745,-814.226536,10658.965565
1999.065047,4903.011187,962.267725,10658.965565
1999.065364,4213.525239,2368.659014,7846.182985
1999.065682,6741.640382,666.185348,9104.533087
1999.065999,5592.497135,2146.597232,7179.997637
1999.066317,4749.792088,2886.803174,6957.935855
1999.066634,4366.744339,1776.494261,7402.059420
1999.066952,3600.648841,962.267725,6143.709319
1999.067269,3140.991542,1184.329507,6587.832884
1999.067586,1378.971896,296.082377,8438.347739
1999.067904,689.485948,-2072.576638,9770.718434
1999.068221,0.000000,-2664.741391,9474.636058
1999.068538,153.219100,-2294.638420,11473.192101
1999.068856,-153.219100,-1332.370696,11029.068536
1999.069173,919.314598,-888.247130,11177.109724
1999.069490,1072.533697,444.123565,9992.780217
1999.069808,2145.067394,2294.638420,9252.574275
1999.070125,2681.334243,4293.194464,7994.224174
1999.070442,2374.896044,3404.947333,7846.182985
1999.070760,1991.848295,3108.864956,7105.977043
1999.071077,689.485948,2368.659014,7254.018232
1999.071394,0.000000,1258.350101,8438.347739
1999.071711,-1532.190996,-0.000000,9030.512492
1999.072029,-2221.676944,-1258.350101,9178.553681
1999.072346,-2911.162892,-2368.659014,10510.924376
1999.072663,-3677.258390,-2294.638420,12435.459826
1999.072981,-3753.867940,-2294.638420,12065.356855
1999.073298,-2681.334243,-1850.514855,11843.295072
1999.073615,-1608.800546,-592.164754,11843.295072
1999.073933,-1072.533697,1184.329507,11103.089130
1999.074250,153.219100,1850.514855,9770.718434
1999.074567,2145.067394,2368.659014,8512.368333
1999.074884,1378.971896,3627.009116,7624.121203
1999.075202,1838.629195,3256.906145,8512.368333
1999.075519,2298.286494,2590.720797,8512.368333
1999.075836,1608.800546,1332.370696,8438.347739
1999.076154,766.095498,962.267725,9696.697840
1999.076471,-612.876398,222.061783,10955.047942
1999.076788,-689.485948,-296.082377,11695.253884
1999.077106,0.000000,-1036.288319,11325.150913
1999.077423,-76.609550,-444.123565,11769.274478
1999.077740,536.266849,-296.082377,12139.377449
1999.078057,1072.533697,222.061783,10955.047942
1999.078375,1608.800546,-0.000000,9770.718434
1999.078692,2374.896044,296.082377,9844.739029
1999.079009,2451.505594,1258.350101,9326.594869
1999.079327,2451.505594,1110.308913,7994.224174
1999.079644,2604.724693,2072.576638,7550.100608
1999.079961,2528.115143,1850.514855,8068.244768
1999.080279,1762.019645,2146.597232,8586.388927
1999.080596,1608.800546,1480.411884,8438.347739
1999.080913,689.485948,518.144159,9548.656652
1999.081231,612.876398,-740.205942,11177.109724
1999.081548,995.924147,-1480.411884,11769.274478
1999.081865,1455.581446,-1628.453072,10955.047942
1999.082182,2298.286494,-1036.288319,11251.130318
1999.082500,2681.334243,-1036.288319,10214.842000
1999.082817,3217.601092,740.205942,9104.533087
1999.083134,2911.162892,1776.494261,7179.997637
1999.083452,3217.601092,1776.494261,6217.729913
1999.083769,2451.505594,1332.370696,5847.626942
1999.084086,1838.629195,518.144159,6661.853478
1999.084404,766.095498,222.061783,6809.894666
1999.084721,383.047749,-888.247130,8068.244768
1999.085038,-153.219100,-1480.411884,9474.636058
1999.085355,-689.485948,-1850.514855,10288.862594
1999.085673,-842.705048,-2368.659014,11251.130318
1999.085990,-459.657299,-2442.679609,11769.274478
1999.086307,229.828649,-1776.494261,12139.377449
1999.086625,995.924147,-592.164754,11251.130318
1999.086942,2451.505594,296.082377,9918.759623
1999.087259,2681.334243,1036.288319,8882.471304
1999.087577,2374.896044,1702.473667,7476.080014
1999.087894,2068.457845,1628.453072,6809.894666
1999.088211,1608.800546,740.205942,6365.771101
1999.088528,1532.190996,148.041188,6883.915261
1999.088846,153.219100,-148.041188,6735.874072
1999.089163,-766.095498,-1406.391290,7772.162391
1999.089480,-1915.238745,-3108.864956,9918.759623
1999.089798,-2451.505594,-3923.091493,10881.027347
1999.090115,-3064.381992,-3552.988522,11399.171507
1999.090432,-2757.943793,-2516.700203,12657.521608
1999.090750,-2528.115143,-592.164754,11917.315666
1999.091067,-1149.143247,1110.308913,10881.027347
1999.091384,153.219100,1628.453072,10732.986159
1999.091701,995.924147,2590.720797,9326.594869
1999.092019,1838.629195,3034.844362,7550.100608
1999.092336,1838.629195,2960.823768,6883.915261
1999.092653,1532.190996,1776.494261,6439.791695
1999.092971,1149.143247,888.247130,7402.059420
1999.093288,-229.828649,-74.020594,7920.203579
1999.093605,-1072.533697,-1554.432478,9326.594869
1999.093923,-1991.848295,-1406.391290,9696.697840
1999.094240,-1838.629195,-1776.494261,10955.047942
1999.094557,-1302.362347,-1850.514855,12805.562797
1999.094874,-995.924147,-1924.535449,12583.501014
1999.095192,459.657299,-1480.411884,11991.336260
1999.095509,1915.238745,-74.020594,11547.212695
1999.095826,3753.867940,1258.350101,10214.842000
1999.096144,5362.668486,3182.885551,9104.533087
1999.096461,6128.763984,4589.276840,8068.244768
1999.096778,6358.592633,4589.276840,6513.812290
1999.097096,6588.421283,3849.070898,6513.812290
1999.097413,5898.935335,3182.885551,6957.935855
1999.097730,4596.572988,1998.556043,8068.244768
1999.098047,3677.258390,222.061783,9178.553681
1999.098365,2221.676944,-1406.391290,10510.924376
1999.098682,1608.800546,-2590.720797,12065.356855
1999.098999,1608.800546,-1850.514855,12509.480420
1999.099317,1838.629195,-1258.350101,11843.295072
1999.099634,2451.505594,-0.000000,10955.047942
1999.099951,2528.115143,814.226536,10658.965565
1999.100269,2681.334243,2146.597232,9844.739029
1999.100586,2757.943793,3552.988522,9030.512492
1999.100903,2757.943793,3627.009116,8142.265362
1999.101220,1685.410096,2886.803174,7402.059420
1999.101538,1378.971896,2442.679609,7994.224174
1999.101855,0.000000,1702.473667,7994.224174
1999.102172,-995.924147,-0.000000,8364.327145
1999.102490,-1915.238745,-962.267725,9844.739029
1999.102807,-3140.991542,-1998.556043,10732.986159
1999.103124,-3983.696590,-2368.659014,10807.006753
1999.103442,-6205.373534,-2072.576638,11251.130318
1999.103759,-3677.258390,-3997.112087,13693.809927
1999.104076,-4903.011187,-1480.411884,10658.965565
1999.104393,-3677.258390,-296.082377,10955.047942
1999.104711,-4443.353888,-518.144159,8882.471304
1999.105028,-1991.848295,-0.000000,9992.780217
1999.105345,-2145.067394,-74.020594,9104.533087
1999.105663,-2604.724693,962.267725,6291.750507
1999.105980,-459.657299,1332.370696,7846.182985
1999.106297,0.000000,-0.000000,8068.244768
1999.106615,766.095498,1258.350101,7402.059420
1999.106932,536.266849,-1036.288319,8882.471304
1999.107249,612.876398,-1184.329507,11251.130318
1999.107566,919.314598,-1036.288319,11621.233289
1999.107884,2681.334243,-1924.535449,11177.109724
1999.108201,3217.601092,-592.164754,10732.986159
1999.108518,4903.011187,1998.556043,9474.636058
1999.108836,5745.716235,2960.823768,7328.038826
1999.109153,6818.249932,2442.679609,7105.977043
1999.109470,6894.859482,2072.576638,6069.688724
1999.109788,4979.620737,3701.029710,4219.173869
1999.110105,3753.867940,3182.885551,4441.235652
1999.110422,1838.629195,1702.473667,5329.482782
1999.110740,1608.800546,-1332.370696,7772.162391
1999.111057,-1608.800546,-1258.350101,9178.553681
1999.111374,-1608.800546,-2294.638420,11695.253884
1999.111691,-2987.772442,-3849.070898,12583.501014
1999.112009,-1225.752797,-2738.761985,14656.077652
1999.112326,-1915.238745,-2072.576638,14211.954086
1999.112643,-2681.334243,-296.082377,11843.295072
1999.112961,1149.143247,1110.308913,12065.356855
1999.113278,1455.581446,2590.720797,8290.306550
1999.113595,3907.087040,4959.379811,6439.791695
1999.113913,2451.505594,4145.153275,5551.544565
1999.114230,2834.553343,2516.700203,7624.121203
1999.114547,1455.581446,148.041188,6439.791695
1999.114864,-536.266849,-1258.350101,5329.482782
1999.115182,-1225.752797,-1850.514855,9104.533087
1999.115499,-2451.505594,-2368.659014,9844.739029
1999.115816,-2451.505594,-3404.947333,10066.800811
1999.116134,-2298.286494,-3923.091493,11991.336260
1999.116451,-1685.410096,-2442.679609,14063.912898
1999.116768,-1072.533697,-740.205942,12953.603985
1999.117086,383.047749,-666.185348,12657.521608
1999.117403,2068.457845,962.267725,12657.521608
1999.117720,2834.553343,3108.864956,10436.903782
1999.118037,3600.648841,4441.235652,9548.656652
1999.118355,4826.401637,4071.132681,8364.327145
1999.118672,5592.497135,3923.091493,7550.100608
1999.118989,4366.744339,3701.029710,6143.709319
1999.119307,3064.381992,1480.411884,7846.182985
1999.119624,1991.848295,-814.226536,9474.636058
1999.119941,842.705048,-1480.411884,9252.574275
1999.120259,-536.266849,-2220.617826,9252.574275
1999.120576,-1149.143247,-2368.659014,11769.274478
1999.120893,-1072.533697,-2812.782580,14063.912898
1999.121210,-919.314598,-888.247130,11917.315666
1999.121528,-612.876398,-296.082377,11843.295072
1999.121845,153.219100,1628.453072,11547.212695
1999.122162,1608.800546,2812.782580,9474.636058
1999.122480,2374.896044,3552.988522,8216.285956
1999.122797,2528.115143,3182.885551,7920.203579
1999.123114,2528.115143,4071.132681,7105.977043
1999.123432,1762.019645,4367.215058,4959.379811
1999.123749,1302.362347,1850.514855,6957.935855
1999.124066,306.438199,-962.267725,8438.347739
1999.124383,-2145.067394,-1702.473667,8438.347739
1999.124701,-2911.162892,-2368.659014,11103.089130
1999.125018,-2757.943793,-3478.967927,12213.398043
1999.125335,-2374.896044,-2220.617826,11103.089130
1999.125653,-1455.581446,-148.041188,10658.965565
1999.125970,-1302.362347,-296.082377,10658.965565
1999.126287,76.609550,-0.000000,9474.636058
1999.126605,1378.971896,2146.597232,7476.080014
1999.126922,2451.505594,3997.112087,6217.729913
1999.127239,2911.162892,2812.782580,6439.791695
1999.127556,2068.457845,1776.494261,5995.668130
1999.127874,1072.533697,1036.288319,6587.832884
1999.128191,306.438199,296.082377,8068.244768
1999.128508,-612.876398,-296.082377,9252.574275
1999.128826,-842.705048,-1924.535449,9918.759623
1999.129143,-1302.362347,-2368.659014,11917.315666
1999.129460,-1608.800546,-2368.659014,13545.768739
1999.129778,-689.485948,-1702.473667,13175.665768
1999.130095,383.047749,-0.000000,11473.192101
1999.130412,1685.410096,1110.308913,10140.821405
1999.130729,2604.724693,2664.741391,8586.388927
1999.131047,3064.381992,3404.947333,6661.853478
1999.131364,3524.039291,2442.679609,5921.647536
1999.131681,3294.210641,1628.453072,5995.668130
1999.131999,2834.553343,962.267725,6883.915261
1999.132316,2068.457845,-0.000000,6957.935855
1999.132633,536.266849,-1480.411884,8068.244768
1999.132951,-612.876398,-3034.844362,9844.739029
1999.133268,-1608.800546,-3182.885551,11769.274478
1999.133585,-1915.238745,-2294.638420,11917.315666
1999.133902,-1532.190996,-1776.494261,12731.542202
1999.134220,-1072.533697,-740.205942,13619.789333
1999.134537,-689.485948,296.082377,12065.356855
1999.134854,689.485948,1406.391290,10436.903782
1999.135172,1762.019645,1998.556043,9474.636058
1999.135489,2221.676944,2072.576638,8068.244768
1999.135806,2681.334243,2220.617826,6883.915261
1999.136124,2528.115143,1850.514855,6069.688724
1999.136441,3370.820191,814.226536,6513.812290
1999.136758,2145.067394,-0.000000,7031.956449
1999.137076,1762.019645,-74.020594,7846.182985
1999.137393,306.438199,-444.123565,8364.327145
1999.137710,383.047749,-1554.432478,10288.862594
1999.138027,-689.485948,-2368.659014,12287.418637
1999.138345,-842.705048,-2442.679609,13027.624579
1999.138662,-383.047749,-1480.411884,12953.603985
1999.138979,153.219100,-0.000000,12213.398043
1999.139297,1072.533697,666.185348,12139.377449
1999.139614,2451.505594,2442.679609,10288.862594
1999.139931,2911.162892,3256.906145,8290.306550
1999.140249,3677.258390,3034.844362,7698.141797
1999.140566,3140.991542,2146.597232,6809.894666
1999.140883,3140.991542,296.082377,6365.771101
1999.141200,1915.238745,-518.144159,7476.080014
1999.141518,1225.752797,-1110.308913,9030.512492
1999.141835,0.000000,-1998.556043,9474.636058
1999.142152,0.000000,-1776.494261,10362.883188
1999.142470,-306.438199,-1850.514855,11917.315666
1999.142787,-229.828649,-1258.350101,12435.459826
1999.143104,76.609550,-148.041188,11843.295072
1999.143422,612.876398,740.205942,10807.006753
1999.143739,1685.410096,1850.514855,10881.027347
1999.144056,2145.067394,3256.906145,8882.471304
1999.144373,2374.896044,3552.988522,7105.977043
1999.144691,2374.896044,3330.926739,6661.853478
1999.145008,1762.019645,2368.659014,5921.647536
1999.145325,612.876398,1480.411884,6291.750507
1999.145643,612.876398,-0.000000,7179.997637
1999.145960,-1685.410096,-1998.556043,8882.471304
1999.146277,-2834.553343,-3256.906145,10214.842000
1999.146595,-3524.039291,-3552.988522,11621.233289
1999.146912,-2604.724693,-2516.700203,12213.398043
1999.147229,-2451.505594,-1702.473667,12509.480420
1999.147546,-1685.410096,-222.061783,11991.336260
1999.147864,-536.266849,1110.308913,10214.842000
1999.148181,689.485948,2294.638420,9178.553681
1999.148498,1225.752797,2590.720797,8808.450710
1999.148816,2068.457845,2590.720797,7550.100608
1999.149133,2451.505594,2368.659014,6661.853478
1999.149450,2451.505594,1628.453072,6217.729913
1999.149768,1838.629195,-74.020594,6735.874072
1999.150085,766.095498,-1776.494261,8882.471304
1999.150402,536.266849,-2294.638420,9474.636058
1999.150719,-612.876398,-2516.700203,9770.718434
1999.151037,-1149.143247,-2590.720797,11399.171507
1999.151354,-459.657299,-2294.638420,11991.336260
1999.151671,-536.266849,-1480.411884,11103.089130
1999.151989,1072.533697,-666.185348,10881.027347
1999.152306,1762.019645,296.082377,10658.965565
1999.152623,2681.334243,1776.494261,9326.594869
1999.152941,4213.525239,2886.803174,8586.388927
1999.153258,3753.867940,3108.864956,7550.100608
1999.153575,3524.039291,2664.741391,7772.162391
1999.153892,3370.820191,2368.659014,6513.812290
1999.154210,2681.334243,1480.411884,6735.874072
1999.154527,2068.457845,666.185348,8142.265362
1999.154844,1225.752797,-370.102971,9326.594869
1999.155162,-306.438199,-1554.432478,9992.780217
1999.155479,-459.657299,-2664.741391,11991.336260
1999.155796,-1072.533697,-2516.700203,11473.192101
1999.156114,-1225.752797,-1924.535449,11621.233289
1999.156431,-612.876398,-740.205942,11473.192101
1999.156748,76.609550,518.144159,10362.883188
1999.157065,459.657299,1924.535449,8808.450710
1999.157383,766.095498,2516.700203,8364.327145
1999.157700,536.266849,2294.638420,7846.182985
1999.158017,1149.143247,1776.494261,7328.038826
1999.158335,1455.581446,888.247130,7846.182985
1999.158652,919.314598,-370.102971,8216.285956
1999.158969,229.828649,-444.123565,9252.574275
1999.159287,0.000000,-1036.288319,9918.759623
1999.159604,-459.657299,-1702.473667,11177.109724
1999.159921,-383.047749,-1702.473667,12287.418637
1999.160238,-383.047749,-1184.329507,12583.501014
1999.160556,0.000000,-148.041188,11695.253884
1999.160873,383.047749,370.102971,10955.047942
1999.161190,1762.019645,1184.329507,10436.903782
1999.161508,2374.896044,1628.453072,8734.430116
1999.161825,2451.505594,1850.514855,7476.080014
1999.162142,2221.676944,1036.288319,7550.100608
1999.162460,2451.505594,962.267725,7179.997637
1999.162777,2298.286494,592.164754,7550.100608
1999.163094,2068.457845,-0.000000,8660.409521
1999.163411,1302.362347,-666.185348,9696.697840
1999.163729,766.095498,-814.226536,10362.883188
1999.164046,383.047749,-740.205942,11473.192101
1999.164363,842.705048,-74.020594,11991.336260
1999.164681,1072.533697,1036.288319,11695.253884
1999.164998,1838.629195,2294.638420,10066.800811
1999.165315,2681.334243,2146.597232,9548.656652
1999.165633,2834.553343,2294.638420,8956.491898
1999.165950,3217.601092,2368.659014,7624.121203
1999.166267,2834.553343,1924.535449,7105.977043
1999.166580,2145.067394,1406.391290,6217.729913
1999.166897,1378.971896,962.267725,6439.791695
1999.167214,383.047749,-296.082377,7254.018232
1999.167532,-689.485948,-1554.432478,8734.430116
1999.167849,-1455.581446,-2072.576638,9326.594869
1999.168167,-1455.581446,-2294.638420,9992.780217
1999.168484,-1991.848295,-2146.597232,11177.109724
1999.168801,-1608.800546,-1998.556043,12287.418637
1999.169119,-1225.752797,-1110.308913,11843.295072
1999.169436,-536.266849,-0.000000,10807.006753
1999.169753,1072.533697,740.205942,10510.924376
1999.170071,1378.971896,2220.617826,9178.553681
1999.170388,1991.848295,2516.700203,7994.224174
1999.170705,2068.457845,2072.576638,7254.018232
1999.171023,1455.581446,888.247130,8068.244768
1999.171340,766.095498,-74.020594,7179.997637
1999.171658,306.438199,-1110.308913,7698.141797
1999.171975,-383.047749,-2294.638420,9178.553681
1999.172292,-1072.533697,-2812.782580,9474.636058
1999.172610,-1072.533697,-3256.906145,10584.944971
1999.172927,-842.705048,-3330.926739,12287.418637
1999.173244,-766.095498,-2516.700203,12287.418637
1999.173562,0.000000,-1554.432478,12065.356855
1999.173879,995.924147,-0.000000,11325.150913
1999.174196,1455.581446,1332.370696,9992.780217
1999.174514,2528.115143,2664.741391,8882.471304
1999.174831,3064.381992,3256.906145,7698.141797
1999.175149,3140.991542,2738.761985,7402.059420
1999.175466,2987.772442,2664.741391,6809.894666
1999.175783,1991.848295,1554.432478,7105.977043
1999.176101,1302.362347,-222.061783,8216.285956
1999.176418,536.266849,-1406.391290,9326.594869
1999.176735,-536.266849,-2220.617826,9548.656652
1999.177053,-766.095498,-2146.597232,11029.068536
1999.177370,-153.219100,-1480.411884,10584.944971
1999.177687,-536.266849,-370.102971,9992.780217
1999.178005,306.438199,296.082377,9770.718434
1999.178322,536.266849,1406.391290,9400.615463
1999.178639,1302.362347,1924.535449,8882.471304
1999.178957,1685.410096,2590.720797,7624.121203
1999.179274,1608.800546,2664.741391,7179.997637
1999.179592,1072.533697,2590.720797,7402.059420
1999.179909,1149.143247,1998.556043,7476.080014
1999.180226,612.876398,1258.350101,8364.327145
1999.180544,-229.828649,148.041188,9474.636058
1999.180861,-612.876398,-74.020594,9992.780217
1999.181178,-1149.143247,-962.267725,10510.924376
1999.181496,-1072.533697,-1702.473667,11843.295072
1999.181813,-383.047749,-1850.514855,12361.439231
1999.182130,-76.609550,-1036.288319,11843.295072
1999.182448,459.657299,-0.000000,10732.986159
1999.182765,1302.362347,814.226536,9844.739029
1999.183083,2298.286494,1184.329507,9178.553681
1999.183400,2604.724693,2590.720797,7772.162391
1999.183717,2221.676944,2590.720797,7105.977043
1999.184035,2221.676944,2368.659014,7476.080014
1999.184352,2068.457845,1480.411884,7994.224174
1999.184669,1149.143247,444.123565,8882.471304
1999.184987,1225.752797,-1110.308913,10510.924376
1999.185304,0.000000,-1776.494261,11325.150913
1999.185621,0.000000,-1998.556043,12213.398043
1999.185939,76.609550,-1554.432478,12583.501014
1999.186256,689.485948,-518.144159,12805.562797
1999.186574,1455.581446,814.226536,11695.253884
1999.186891,1915.238745,1998.556043,10436.903782
1999.187208,2528.115143,2294.638420,8956.491898
1999.187526,3217.601092,2590.720797,8364.327145
1999.187843,2221.676944,2960.823768,7031.956449
1999.188160,2374.896044,2294.638420,6365.771101
1999.188478,1608.800546,1258.350101,6661.853478
1999.188795,766.095498,444.123565,7031.956449
1999.189112,459.657299,-888.247130,8808.450710
1999.189430,-459.657299,-1850.514855,9400.615463
1999.189747,-1378.971896,-2368.659014,10140.821405
1999.190065,-2068.457845,-2146.597232,11769.274478
1999.190382,-1378.971896,-740.205942,12879.583391
1999.190699,-383.047749,370.102971,11399.171507
1999.191017,0.000000,1184.329507,10881.027347
1999.191334,766.095498,1924.535449,10140.821405
1999.191651,1685.410096,2812.782580,8956.491898
1999.191969,2374.896044,2294.638420,7772.162391
1999.192286,2298.286494,1406.391290,6883.915261
1999.192603,1915.238745,592.164754,6883.915261
1999.192921,1532.190996,-0.000000,6883.915261
1999.193238,689.485948,-1332.370696,7105.977043
1999.193556,229.828649,-2664.741391,8586.388927
1999.193873,-1302.362347,-3256.906145,9992.780217
1999.194190,-1685.410096,-2812.782580,10288.862594
1999.194508,-1532.190996,-2590.720797,11251.130318
1999.194825,-1378.971896,-1554.432478,11991.336260
1999.195142,-612.876398,-296.082377,11473.192101
1999.195460,383.047749,1258.350101,10288.862594
1999.195777,1915.238745,2368.659014,10436.903782
1999.196094,2987.772442,3627.009116,9030.512492
1999.196412,3753.867940,4367.215058,7328.038826
1999.196729,2604.724693,3775.050304,7031.956449
1999.197047,2451.505594,2590.720797,7846.182985
1999.197364,1608.800546,1480.411884,7105.977043
1999.197681,842.705048,74.020594,7772.162391
1999.197999,-306.438199,-1480.411884,9030.512492
1999.198316,-1225.752797,-2368.659014,10140.821405
1999.198633,-1762.019645,-2590.720797,10362.883188
1999.198951,-1685.410096,-1924.535449,11177.109724
1999.199268,-1225.752797,-888.247130,11177.109724
1999.199585,-383.047749,148.041188,11103.089130
1999.199903,766.095498,1406.391290,9918.759623
1999.200220,1608.800546,2220.617826,9104.533087
1999.200538,2068.457845,3478.967927,8364.327145
1999.200855,2604.724693,3330.926739,7698.141797
1999.201172,2298.286494,2590.720797,7105.977043
1999.201490,1991.848295,1258.350101,7846.182985
1999.201807,842.705048,-0.000000,8216.285956
1999.202124,0.000000,-1480.411884,9474.636058
1999.202442,-766.095498,-2368.659014,10436.903782
1999.202759,-1608.800546,-3330.926739,11473.192101
1999.203076,-2298.286494,-3627.009116,12139.377449
1999.203394,-1378.971896,-3775.050304,12805.562797
1999.203711,-919.314598,-2442.679609,12509.480420
1999.204029,536.266849,-1184.329507,11917.315666
1999.204346,1991.848295,444.123565,10140.821405
1999.204663,3294.210641,1776.494261,9474.636058
1999.204981,4443.353888,2960.823768,7698.141797
1999.205298,4213.525239,3034.844362,6661.853478
1999.205615,4519.963438,2294.638420,6735.874072
1999.205933,3677.258390,1406.391290,7624.121203
1999.206250,2298.286494,1110.308913,7105.977043
1999.206567,1455.581446,-296.082377,8586.388927
1999.206885,229.828649,-1036.288319,9992.780217
1999.207202,0.000000,-1998.556043,10807.006753
1999.207520,-766.095498,-2664.741391,11769.274478
1999.207837,-919.314598,-2368.659014,12805.562797
1999.208154,-229.828649,-1184.329507,12361.439231
1999.208472,536.266849,-0.000000,10732.986159
1999.208789,1455.581446,1332.370696,9622.677246
1999.209106,2221.676944,2590.720797,8438.347739
1999.209424,2528.115143,3256.906145,6883.915261
1999.209741,2757.943793,3627.009116,5699.585753
1999.210058,2451.505594,2812.782580,5625.565159
1999.210376,1532.190996,1850.514855,6291.750507
1999.210693,1072.533697,444.123565,7254.018232
1999.211010,0.000000,-1184.329507,8734.430116
1999.211328,-1378.971896,-2220.617826,9844.739029
1999.211645,-2068.457845,-2294.638420,10881.027347
1999.211963,-2221.676944,-1998.556043,12065.356855
1999.212280,-1991.848295,-1332.370696,12287.418637
1999.212597,-1685.410096,-592.164754,11621.233289
1999.212915,-1072.533697,222.061783,10955.047942
1999.213232,-383.047749,1332.370696,9696.697840
1999.213549,306.438199,1554.432478,8808.450710
1999.213867,919.314598,1998.556043,7402.059420
1999.214184,1225.752797,1406.391290,7105.977043
1999.214501,1225.752797,-0.000000,7402.059420
1999.214819,919.314598,-740.205942,7920.203579
1999.215136,1072.533697,-1110.308913,8290.306550
1999.215454,0.000000,-1628.453072,9474.636058
1999.215771,-612.876398,-1776.494261,10658.965565
1999.216088,-995.924147,-1110.308913,11251.130318
1999.216406,-689.485948,-222.061783,12213.398043
1999.216723,-383.047749,370.102971,12065.356855
1999.217040,383.047749,1554.432478,11177.109724
1999.217358,1378.971896,2442.679609,10214.842000
1999.217675,2221.676944,2664.741391,9400.615463
1999.217992,2757.943793,2368.659014,7994.224174
1999.218310,2681.334243,2072.576638,7105.977043
1999.218627,2145.067394,1110.308913,7550.100608
1999.218945,1838.629195,740.205942,7550.100608
1999.219262,1608.800546,-148.041188,7772.162391
1999.219579,689.485948,-592.164754,8956.491898
1999.219897,-383.047749,-1184.329507,9844.739029
1999.220214,-995.924147,-962.267725,10362.883188
1999.220531,-1149.143247,-1110.308913,11843.295072
1999.220849,-612.876398,-370.102971,12287.418637
1999.221166,0.000000,1184.329507,11325.150913
1999.221483,1378.971896,2072.576638,10584.944971
1999.221801,2374.896044,3182.885551,9178.553681
1999.222118,3370.820191,3478.967927,8364.327145
1999.222436,4136.915689,2738.761985,7550.100608
1999.222753,2834.553343,1998.556043,7031.956449
1999.223070,2298.286494,1258.350101,6883.915261
1999.223388,1378.971896,592.164754,7105.977043
1999.223705,306.438199,-814.226536,8660.409521
1999.224022,-995.924147,-1924.535449,9548.656652
1999.224340,-1762.019645,-2738.761985,11029.068536
1999.224657,-2451.505594,-2812.782580,12213.398043
1999.224974,-2298.286494,-2590.720797,13101.645173
1999.225292,-1838.629195,-1998.556043,13471.748144
1999.225609,-383.047749,-592.164754,13101.645173
1999.225927,995.924147,666.185348,11991.336260
1999.226244,2374.896044,2516.700203,10140.821405
1999.226561,3983.696590,3552.988522,8512.368333
1999.226879,4443.353888,4441.235652,6513.812290
1999.227196,4443.353888,3256.906145,6069.688724
1999.227513,3217.601092,1628.453072,6291.750507
1999.227831,2451.505594,-74.020594,7105.977043
1999.228148,766.095498,-1850.514855,8586.388927
1999.228465,153.219100,-3108.864956,9474.636058
1999.228783,-1072.533697,-3552.988522,10881.027347
1999.229100,-1378.971896,-3627.009116,11621.233289
1999.229418,-1685.410096,-3182.885551,12805.562797
1999.229735,-1608.800546,-1776.494261,12361.439231
1999.230052,-689.485948,148.041188,11103.089130
1999.230370,536.266849,1628.453072,9696.697840
1999.230687,1608.800546,2590.720797,8956.491898
1999.231004,2451.505594,3627.009116,7550.100608
1999.231322,3140.991542,3849.070898,6365.771101
1999.231639,3140.991542,2738.761985,5995.668130
1999.231956,3064.381992,1332.370696,6365.771101
1999.232274,2451.505594,518.144159,6291.750507
1999.232591,1532.190996,-296.082377,7550.100608
1999.232909,612.876398,-1258.350101,8882.471304
1999.233226,-995.924147,-1998.556043,9474.636058
1999.233543,-1378.971896,-2368.659014,11177.109724
1999.233861,-1915.238745,-2220.617826,11695.253884
1999.234178,-2068.457845,-2072.576638,11621.233289
1999.234495,-1378.971896,-1554.432478,11843.295072
1999.234813,-612.876398,-740.205942,10658.965565
1999.235130,459.657299,666.185348,9104.533087
1999.235447,1378.971896,1406.391290,7698.141797
1999.235765,2451.505594,1628.453072,7105.977043
1999.236082,2528.115143,1110.308913,6439.791695
1999.236400,3064.381992,814.226536,6809.894666
1999.236717,2451.505594,-74.020594,7031.956449
1999.237034,1685.410096,-666.185348,8142.265362
1999.237352,459.657299,-1628.453072,9104.533087
1999.237669,-612.876398,-2442.679609,11399.171507
1999.237986,-919.314598,-2516.700203,12731.542202
1999.238304,-1225.752797,-1480.411884,12731.542202
1999.238621,-536.266849,-370.102971,12139.377449
1999.238938,459.657299,296.082377,11103.089130
1999.239256,1685.410096,1480.411884,9770.718434
1999.239573,2987.772442,1998.556043,8882.471304
1999.239891,2834.553343,2294.638420,7328.038826
1999.240208,3370.820191,2368.659014,6439.791695
1999.240525,3140.991542,1406.391290,6587.832884
1999.240843,2145.067394,1110.308913,6735.874072
1999.241160,1302.362347,222.061783,7698.141797
1999.241477,-689.485948,-296.082377,9104.533087
1999.241795,-1149.143247,-222.061783,10288.862594
1999.242112,-1149.143247,-444.123565,10955.047942
1999.242429,-1225.752797,148.041188,11917.315666
1999.242747,-766.095498,814.226536,11917.315666
1999.243064,-153.219100,1332.370696,11473.192101
1999.243381,459.657299,1184.329507,11251.130318
1999.243699,1149.143247,1924.535449,10214.842000
1999.244016,2068.457845,2516.700203,8808.450710
1999.244334,2068.457845,1998.556043,8068.244768
1999.244651,1762.019645,1332.370696,7550.100608
1999.244968,1532.190996,740.205942,7772.162391
1999.245286,1608.800546,222.061783,7476.080014
1999.245603,842.705048,-518.144159,7920.203579
1999.245920,0.000000,-1036.288319,8290.306550
1999.246238,-153.219100,-2294.638420,10658.965565
1999.246555,-842.705048,-2368.659014,11547.212695
1999.246872,-306.438199,-1480.411884,12583.501014
1999.247190,-689.485948,-518.144159,12879.583391
1999.247507,153.219100,814.226536,12213.398043
1999.247825,1455.581446,1776.494261,11547.212695
1999.248142,2068.457845,1850.514855,10881.027347
1999.248459,2911.162892,2146.597232,9474.636058
1999.248777,2834.553343,1702.473667,7994.224174
1999.249094,3064.381992,1480.411884,7402.059420
1999.249411,2681.334243,370.102971,7254.018232
1999.249729,2528.115143,-370.102971,7328.038826
1999.250046,1838.629195,-370.102971,8734.430116
1999.250363,1149.143247,-1332.370696,9844.739029
1999.250681,76.609550,-1036.288319,9326.594869
1999.250998,383.047749,-962.267725,11991.336260
1999.251316,0.000000,-444.123565,12139.377449
1999.251633,0.000000,444.123565,11473.192101
1999.251950,459.657299,1110.308913,9992.780217
1999.252268,1225.752797,2738.761985,9844.739029
1999.252585,2451.505594,2738.761985,8956.491898
1999.252902,2451.505594,2960.823768,7105.977043
1999.253220,2451.505594,2442.679609,7105.977043
1999.253537,1685.410096,1258.350101,7328.038826
1999.253854,1685.410096,962.267725,6365.771101
1999.254172,229.828649,-148.041188,7772.162391
1999.254489,-842.705048,-1406.391290,8586.388927
1999.254807,-1455.581446,-1480.411884,9400.615463
1999.255124,-2298.286494,-1924.535449,9696.697840
1999.255441,-1915.238745,-2960.823768,11177.109724
1999.255759,-2145.067394,-2072.576638,11251.130318
1999.256076,-1455.581446,-1776.494261,11769.274478
1999.256393,-919.314598,-444.123565,11251.130318
1999.256711,459.657299,592.164754,9770.718434
1999.257028,1149.143247,2146.597232,8142.265362
1999.257345,2528.115143,2516.700203,7624.121203
1999.257663,2681.334243,1628.453072,6883.915261
1999.257980,2451.505594,1184.329507,6735.874072
1999.258298,1532.190996,222.061783,7031.956449
1999.258615,1302.362347,-518.144159,8142.265362
1999.258932,536.266849,-1776.494261,9252.574275
1999.259250,-536.266849,-2442.679609,9696.697840
1999.259567,-919.314598,-2960.823768,11103.089130
1999.259884,-1915.238745,-2590.720797,12139.377449
1999.260202,-919.314598,-2294.638420,12657.521608
1999.260519,-306.438199,-888.247130,11251.130318
1999.260836,306.438199,814.226536,10436.903782
1999.261154,1455.581446,1406.391290,10140.821405
1999.261471,2145.067394,2368.659014,8216.285956
1999.261789,2528.115143,2738.761985,6587.832884
1999.262106,3140.991542,2738.761985,6661.853478
1999.262423,2911.162892,1702.473667,7698.141797
1999.262741,2911.162892,962.267725,7476.080014
1999.263058,1072.533697,-296.082377,7772.162391
1999.263375,612.876398,-444.123565,9770.718434
1999.263693,229.828649,-1184.329507,10214.842000
1999.264010,-383.047749,-666.185348,9918.759623
1999.264327,-459.657299,-1258.350101,11029.068536
1999.264645,0.000000,-0.000000,12065.356855
1999.264962,459.657299,-148.041188,12213.398043
1999.265280,0.000000,1258.350101,10362.883188
1999.265597,1302.362347,1776.494261,9400.615463
1999.265914,1532.190996,2516.700203,8438.347739
1999.266232,1915.238745,2590.720797,7994.224174
1999.266549,1762.019645,1406.391290,8586.388927
1999.266866,1072.533697,1554.432478,6439.791695
1999.267184,1532.190996,148.041188,8660.409521
1999.267501,306.438199,814.226536,8290.306550
1999.267818,306.438199,-1184.329507,10732.986159
1999.268136,-1072.533697,-370.102971,9252.574275
1999.268453,-1225.752797,-1258.350101,12805.562797
1999.268771,-1225.752797,148.041188,11917.315666
1999.269088,-383.047749,296.082377,12435.459826
1999.269405,0.000000,1184.329507,11547.212695
1999.269723,306.438199,1480.411884,11843.295072
1999.270040,1455.581446,2146.597232,9622.677246
1999.270357,2298.286494,2738.761985,8216.285956
1999.270675,3140.991542,2812.782580,7772.162391
1999.270992,2911.162892,2294.638420,7402.059420
1999.271309,2374.896044,1184.329507,7550.100608
1999.271627,2068.457845,-148.041188,7994.224174
1999.271944,842.705048,-592.164754,8216.285956
1999.272261,842.705048,-444.123565,9992.780217
1999.272579,-229.828649,296.082377,9844.739029
1999.272896,153.219100,-148.041188,10288.862594
1999.273213,-306.438199,370.102971,10807.006753
1999.273530,306.438199,-74.020594,11917.315666
1999.273848,-153.219100,444.123565,11399.171507
1999.274165,689.485948,1184.329507,9992.780217
1999.274482,1149.143247,2220.617826,9104.533087
1999.274800,1378.971896,3182.885551,7624.121203
1999.275117,1378.971896,2146.597232,8142.265362
1999.275434,919.314598,1110.308913,7846.182985
1999.275752,689.485948,444.123565,7254.018232
1999.276069,-229.828649,-0.000000,7846.182985
1999.276386,-612.876398,-1406.391290,9622.677246
1999.276704,-919.314598,-1998.556043,9918.759623
1999.277021,-1302.362347,-2072.576638,10214.842000
1999.277338,-919.314598,-1554.432478,11473.192101
1999.277655,-919.314598,-1036.288319,10510.924376
1999.277973,459.657299,592.164754,9770.718434
1999.278290,766.095498,1406.391290,9844.739029
1999.278607,919.314598,2368.659014,8882.471304
1999.278925,1532.190996,1850.514855,8808.450710
1999.279242,1455.581446,962.267725,8290.306550
1999.279559,1608.800546,222.061783,8068.244768
1999.279877,1225.752797,-592.164754,8290.306550
1999.280194,229.828649,-1702.473667,8734.430116
1999.280511,306.438199,-2516.700203,9696.697840
1999.280828,-383.047749,-2146.597232,9844.739029
1999.281146,0.000000,-2368.659014,11103.089130
1999.281463,-229.828649,-2220.617826,11177.109724
1999.281780,459.657299,-1776.494261,10658.965565
1999.282098,1149.143247,-1036.288319,9770.718434
1999.282415,2374.896044,222.061783,9918.759623
1999.282732,3140.991542,296.082377,9474.636058
1999.283050,3140.991542,740.205942,7920.203579
1999.283367,3447.429741,1850.514855,7698.141797
1999.283684,2681.334243,1998.556043,7105.977043
1999.284001,2451.505594,1554.432478,7031.956449
1999.284319,1762.019645,1628.453072,6513.812290
1999.284636,1302.362347,-148.041188,8956.491898
1999.284953,383.047749,-814.226536,9252.574275
1999.285271,-766.095498,-1924.535449,9992.780217
1999.285588,-919.314598,-2812.782580,11103.089130
1999.285905,-842.705048,-2368.659014,11473.192101
1999.286223,-689.485948,-1332.370696,11029.068536
1999.286540,0.000000,-370.102971,10955.047942
1999.286857,919.314598,592.164754,10658.965565
1999.287175,842.705048,1776.494261,9252.574275
1999.287492,2604.724693,2960.823768,7550.100608
1999.287809,2528.115143,3182.885551,6883.915261
1999.288126,2604.724693,2294.638420,7476.080014
1999.288444,1532.190996,1776.494261,7105.977043
1999.288761,919.314598,444.123565,7698.141797
1999.289078,842.705048,-592.164754,9474.636058
1999.289396,-229.828649,-962.267725,9474.636058
1999.289713,-766.095498,-1998.556043,10288.862594
1999.290030,-1608.800546,-2368.659014,11621.233289
1999.290348,-1149.143247,-2516.700203,13027.624579
1999.290665,-1302.362347,-1036.288319,11621.233289
1999.290982,-689.485948,-296.082377,11473.192101
1999.291299,689.485948,-222.061783,11399.171507
1999.291617,2068.457845,518.144159,9992.780217
1999.291934,2145.067394,962.267725,8808.450710
1999.292251,2298.286494,962.267725,8142.265362
1999.292569,2451.505594,1628.453072,7105.977043
1999.292886,3064.381992,1406.391290,7179.997637
1999.293203,2451.505594,1258.350101,7846.182985
1999.293521,1532.190996,-74.020594,8438.347739
1999.293838,1072.533697,-296.082377,9326.594869
1999.294155,383.047749,-888.247130,9992.780217
1999.294473,0.000000,-962.267725,10955.047942
1999.294790,0.000000,-370.102971,11547.212695
1999.295107,0.000000,962.267725,10732.986159
1999.295424,383.047749,1184.329507,10436.903782
1999.295742,612.876398,1036.288319,10140.821405
1999.296059,995.924147,1776.494261,9474.636058
1999.296376,1685.410096,2220.617826,8068.244768
1999.296694,1608.800546,1628.453072,7920.203579
1999.297011,1685.410096,1628.453072,7550.100608
1999.297328,995.924147,1850.514855,7179.997637
1999.297646,306.438199,1036.288319,8438.347739
1999.297963,0.000000,-0.000000,8734.430116
1999.298280,0.000000,370.102971,8882.471304
1999.298597,-306.438199,444.123565,9474.636058
1999.298915,-612.876398,296.082377,9622.677246
1999.299232,-153.219100,-0.000000,10362.883188
1999.299549,-459.657299,370.102971,10584.944971
1999.299867,-153.219100,962.267725,9770.718434
1999.300184,306.438199,1406.391290,9030.512492
1999.300501,459.657299,1850.514855,8586.388927
1999.300819,536.266849,1110.308913,8142.265362
1999.301136,383.047749,888.247130,8216.285956
1999.301453,0.000000,-74.020594,8586.388927
1999.301770,-766.095498,-740.205942,8808.450710
1999.302088,-689.485948,-1258.350101,10362.883188
1999.302405,-1302.362347,-1554.432478,11399.171507
1999.302722,-995.924147,-1406.391290,11325.150913
1999.303040,-842.705048,-1258.350101,11399.171507
1999.303357,0.000000,-296.082377,11769.274478
1999.303674,1762.019645,1850.514855,11029.068536
1999.303992,2604.724693,2294.638420,9770.718434
1999.304309,3217.601092,2960.823768,9622.677246
1999.304626,4290.134789,2812.782580,8438.347739
1999.304944,3830.477490,2294.638420,7402.059420
1999.305261,3830.477490,1406.391290,7698.141797
1999.305578,2911.162892,-0.000000,8586.388927
1999.305895,1149.143247,222.061783,7772.162391
1999.306213,383.047749,-888.247130,9548.656652
1999.306530,-689.485948,-1702.473667,10955.047942
1999.306847,-1455.581446,-2738.761985,11325.150913
1999.307165,-1762.019645,-2294.638420,11769.274478
1999.307482,-1762.019645,-2146.597232,12731.542202
1999.307799,-842.705048,-1406.391290,12583.501014
1999.308117,536.266849,-666.185348,11029.068536
1999.308434,1685.410096,1184.329507,10288.862594
1999.308751,2451.505594,2590.720797,9178.553681
1999.309068,3600.648841,3182.885551,7624.121203
1999.309386,4213.525239,3034.844362,6365.771101
1999.309703,3753.867940,2738.761985,6217.729913
1999.310020,2987.772442,1628.453072,6587.832884
1999.310338,1455.581446,-0.000000,7179.997637
1999.310655,306.438199,-1554.432478,8586.388927
1999.310972,-842.705048,-2442.679609,10140.821405
1999.311290,-1302.362347,-2442.679609,10436.903782
1999.311607,-1915.238745,-2220.617826,10658.965565
1999.311924,-2145.067394,-2294.638420,11695.253884
1999.312242,-1455.581446,-1332.370696,11917.315666
1999.312559,-383.047749,-518.144159,11695.253884
1999.312876,-153.219100,370.102971,10584.944971
1999.313193,995.924147,1036.288319,9548.656652
1999.313511,2528.115143,2146.597232,8438.347739
1999.313828,3294.210641,2516.700203,7105.977043
1999.314145,4060.306139,1554.432478,6365.771101
1999.314463,3983.696590,1184.329507,6439.791695
1999.314780,3140.991542,1184.329507,6365.771101
1999.315097,2528.115143,-296.082377,7624.121203
1999.315415,1455.581446,-962.267725,8734.430116
1999.315732,76.609550,-1628.453072,9474.636058
1999.316049,-919.314598,-1776.494261,10510.924376
1999.316366,-1685.410096,-1776.494261,11695.253884
1999.316684,-1762.019645,-962.267725,11695.253884
1999.317001,-919.314598,-0.000000,11251.130318
1999.317318,229.828649,1110.308913,10510.924376
1999.317636,306.438199,888.247130,9770.718434
1999.317953,1302.362347,814.226536,8734.430116
1999.318270,1762.019645,444.123565,8142.265362
1999.318588,2145.067394,296.082377,8068.244768
1999.318905,1991.848295,444.123565,7994.224174
1999.319222,2298.286494,666.185348,7624.121203
1999.319540,1225.752797,962.267725,7920.203579
1999.319857,536.266849,1258.350101,8808.450710
1999.320174,153.219100,1036.288319,9178.553681
1999.320491,-536.266849,666.185348,9326.594869
1999.320809,0.000000,-74.020594,10955.047942
1999.321126,-612.876398,-222.061783,11103.089130
1999.321443,0.000000,-592.164754,11473.192101
1999.321761,689.485948,-444.123565,10881.027347
1999.322078,995.924147,-0.000000,9992.780217
1999.322395,1455.581446,222.061783,8808.450710
1999.322713,1455.581446,666.185348,7920.203579
1999.323030,1532.190996,370.102971,8068.244768
1999.323347,1302.362347,222.061783,8438.347739
1999.323664,919.314598,-370.102971,8882.471304
1999.323982,459.657299,-444.123565,9474.636058
1999.324299,153.219100,-0.000000,9992.780217
1999.324616,76.609550,-74.020594,9992.780217
1999.324934,153.219100,-0.000000,11029.068536
1999.325251,689.485948,296.082377,11621.233289
1999.325568,1302.362347,-0.000000,11251.130318
1999.325886,1608.800546,888.247130,10288.862594
1999.326203,2221.676944,962.267725,9918.759623
1999.326520,2528.115143,740.205942,9104.533087
1999.326837,2604.724693,1184.329507,8068.244768
1999.327155,1608.800546,962.267725,7550.100608
1999.327472,1149.143247,962.267725,7550.100608
1999.327789,153.219100,-0.000000,8290.306550
1999.328107,-229.828649,-740.205942,9548.656652
1999.328424,-919.314598,-1776.494261,10955.047942
1999.328741,-1608.800546,-1924.535449,11843.295072
1999.329059,-1685.410096,-1258.350101,11917.315666
1999.329376,-612.876398,-0.000000,11769.274478
1999.329693,459.657299,444.123565,11399.171507
1999.330011,1378.971896,1628.453072,10362.883188
1999.330328,2068.457845,2220.617826,8956.491898
1999.330645,2757.943793,3108.864956,8290.306550
1999.330962,3140.991542,2886.803174,7550.100608
1999.331280,3064.381992,2664.741391,6439.791695
1999.331597,2451.505594,1702.473667,6365.771101
1999.331914,1838.629195,296.082377,7254.018232
1999.332232,919.314598,-814.226536,7402.059420
1999.332549,76.609550,-2294.638420,9326.594869
1999.332866,-919.314598,-2812.782580,10436.903782
1999.333184,-1149.143247,-2368.659014,11029.068536
1999.333501,-1762.019645,-2146.597232,11103.089130
1999.333818,-1532.190996,-1850.514855,12657.521608
1999.334135,-1225.752797,-222.061783,12509.480420
1999.334453,229.828649,888.247130,11547.212695
1999.334770,1608.800546,1406.391290,10214.842000
1999.335087,2834.553343,1702.473667,9622.677246
1999.335405,3753.867940,2368.659014,7920.203579
1999.335722,4673.182538,2516.700203,5847.626942
1999.336039,4673.182538,1628.453072,5551.544565
1999.336357,4673.182538,740.205942,5551.544565
1999.336674,2987.772442,-222.061783,6365.771101
1999.336991,1225.752797,-888.247130,7476.080014
1999.337309,-536.266849,-1406.391290,9770.718434
1999.337626,-1685.410096,-2368.659014,11325.150913
1999.337943,-2451.505594,-2368.659014,11473.192101
1999.338260,-2681.334243,-1924.535449,13027.624579
1999.338578,-2221.676944,-1850.514855,13323.706956
1999.338895,-1149.143247,-740.205942,12287.418637
1999.339212,612.876398,666.185348,10881.027347
1999.339530,2145.067394,1776.494261,9326.594869
1999.339847,3370.820191,2368.659014,7698.141797
1999.340164,4290.134789,2368.659014,7105.977043
1999.340482,4366.744339,2368.659014,5995.668130
1999.340799,4060.306139,1850.514855,5181.441594
1999.341116,2911.162892,1998.556043,5773.606348
1999.341433,1378.971896,222.061783,7179.997637
1999.341751,229.828649,-370.102971,8216.285956
1999.342068,-1608.800546,-1332.370696,9474.636058
1999.342385,-2451.505594,-1184.329507,11399.171507
1999.342703,-2221.676944,-1184.329507,12213.398043
1999.343020,-2221.676944,-888.247130,11991.336260
1999.343337,-1608.800546,-444.123565,11547.212695
1999.343655,-1072.533697,-74.020594,11103.089130
1999.343972,0.000000,296.082377,10510.924376
1999.344289,1072.533697,1036.288319,9474.636058
1999.344606,1608.800546,1332.370696,8734.430116
1999.344924,1608.800546,1036.288319,7994.224174
1999.345241,1225.752797,1332.370696,7994.224174
1999.345558,995.924147,888.247130,7328.038826
1999.345876,612.876398,888.247130,8290.306550
1999.346193,0.000000,222.061783,8290.306550
1999.346510,-383.047749,148.041188,9104.533087
1999.346828,-842.705048,-370.102971,10436.903782
1999.347145,-306.438199,-518.144159,11325.150913
1999.347462,-383.047749,-666.185348,11177.109724
1999.347780,-153.219100,-296.082377,11621.233289
1999.348097,-229.828649,-0.000000,10881.027347
1999.348414,459.657299,296.082377,9918.759623
1999.348731,1072.533697,370.102971,9474.636058
1999.349049,1991.848295,370.102971,9474.636058
1999.349366,1532.190996,592.164754,8586.388927
1999.349683,1762.019645,1036.288319,7920.203579
1999.350001,1762.019645,444.123565,8660.409521
1999.350318,1149.143247,222.061783,9252.574275
1999.350635,919.314598,222.061783,9030.512492
1999.350953,919.314598,-0.000000,10362.883188
1999.351270,612.876398,148.041188,11177.109724
1999.351587,1149.143247,962.267725,10807.006753
1999.351904,1455.581446,1480.411884,10140.821405
1999.352222,995.924147,1776.494261,10214.842000
1999.352539,1762.019645,1850.514855,9030.512492
1999.352856,2298.286494,1480.411884,8290.306550
1999.353174,2068.457845,1480.411884,7698.141797
1999.353491,2374.896044,444.123565,8068.244768
1999.353808,1915.238745,-0.000000,7624.121203
1999.354126,1378.971896,-518.144159,8142.265362
1999.354443,459.657299,-1110.308913,9474.636058
1999.354760,0.000000,-962.267725,10214.842000
1999.355078,0.000000,-962.267725,10807.006753
1999.355395,-842.705048,-1110.308913,11251.130318
1999.355712,-766.095498,-74.020594,11843.295072
1999.356029,0.000000,518.144159,11399.171507
1999.356347,1072.533697,1628.453072,10214.842000
1999.356664,2068.457845,2516.700203,8956.491898
1999.356981,3064.381992,2886.803174,8068.244768
1999.357299,3370.820191,2146.597232,7105.977043
1999.357616,2834.553343,814.226536,7254.018232
1999.357933,2374.896044,-666.185348,8068.244768
1999.358251,1838.629195,-1036.288319,7550.100608
1999.358568,919.314598,-1480.411884,9252.574275
1999.358885,-306.438199,-2146.597232,10510.924376
1999.359202,-1532.190996,-2072.576638,10510.924376
1999.359520,-1532.190996,-1776.494261,11473.192101
1999.359837,-1991.848295,-1110.308913,11843.295072
1999.360154,-1455.581446,-1036.288319,12435.459826
1999.360472,-536.266849,-296.082377,11177.109724
1999.360789,536.266849,592.164754,10658.965565
1999.361106,1762.019645,1184.329507,9548.656652
1999.361424,2374.896044,1406.391290,8734.430116
1999.361741,3370.820191,1776.494261,7328.038826
1999.362058,3064.381992,1702.473667,6661.853478
1999.362375,2757.943793,1702.473667,6439.791695
1999.362693,1915.238745,518.144159,6735.874072
1999.363010,1072.533697,-74.020594,8142.265362
1999.363327,306.438199,-0.000000,8808.450710
1999.363645,-383.047749,-1036.288319,9770.718434
1999.363962,-1378.971896,-1406.391290,11177.109724
1999.364279,-1455.581446,-1110.308913,11695.253884
1999.364597,-1225.752797,-962.267725,11399.171507
1999.364914,-612.876398,-592.164754,11843.295072
1999.365231,229.828649,-148.041188,11769.274478
1999.365549,842.705048,888.247130,9770.718434
1999.365866,2451.505594,2368.659014,8068.244768
1999.366183,3064.381992,2294.638420,7328.038826
1999.366500,3600.648841,1850.514855,7254.018232
1999.366818,3677.258390,1406.391290,6587.832884
1999.367135,2528.115143,740.205942,6069.688724
1999.367452,1991.848295,-148.041188,7550.100608
1999.367770,919.314598,-740.205942,9030.512492
1999.368087,0.000000,-1406.391290,9252.574275
1999.368404,-766.095498,-1850.514855,11177.109724
1999.368722,-1532.190996,-1406.391290,12065.356855
1999.369039,-1532.190996,-962.267725,11991.336260
1999.369356,-919.314598,-370.102971,11547.212695
1999.369674,-459.657299,-0.000000,11399.171507
1999.369991,0.000000,592.164754,10362.883188
1999.370308,383.047749,592.164754,9918.759623
1999.370626,1072.533697,592.164754,9104.533087
1999.370943,1378.971896,888.247130,8364.327145
1999.371261,1915.238745,814.226536,7698.141797
1999.371578,2145.067394,666.185348,7920.203579
1999.371896,1915.238745,444.123565,8438.347739
1999.372213,1378.971896,592.164754,8290.306550
1999.372530,459.657299,222.061783,8882.471304
1999.372848,-383.047749,148.041188,9622.677246
1999.373165,0.000000,888.247130,10214.842000
1999.373483,-689.485948,962.267725,10214.842000
1999.373800,-689.485948,1406.391290,10362.883188
1999.374117,-612.876398,814.226536,11029.068536
1999.374435,-153.219100,888.247130,10881.027347
1999.374752,153.219100,444.123565,10140.821405
1999.375070,536.266849,444.123565,10140.821405
1999.375387,766.095498,592.164754,9104.533087
1999.375705,1072.533697,592.164754,8734.430116
1999.376022,1378.971896,74.020594,8734.430116
1999.376339,995.924147,1036.288319,7920.203579
1999.376657,1072.533697,1258.350101,7994.224174
1999.376974,536.266849,962.267725,9178.553681
1999.377292,383.047749,370.102971,9474.636058
1999.377609,153.219100,370.102971,10066.800811
1999.377927,153.219100,444.123565,9696.697840
1999.378244,689.485948,222.061783,9770.718434
1999.378561,612.876398,592.164754,9400.615463
1999.378879,1225.752797,222.061783,9178.553681
1999.379196,1532.190996,-0.000000,9474.636058
1999.379514,1225.752797,-370.102971,9696.697840
1999.379831,919.314598,-370.102971,9696.697840
1999.380148,1149.143247,-518.144159,9474.636058
1999.380466,536.266849,-222.061783,9696.697840
1999.380783,459.657299,-666.185348,10140.821405
1999.381101,229.828649,296.082377,9622.677246
1999.381418,306.438199,666.185348,10214.842000
1999.381736,919.314598,962.267725,10658.965565
1999.382053,1149.143247,1480.411884,10066.800811
1999.382370,2221.676944,1258.350101,9548.656652
1999.382688,2451.505594,1628.453072,9030.512492
1999.383005,2911.162892,1628.453072,8512.368333
1999.383323,3447.429741,1480.411884,8068.244768
1999.383640,3140.991542,888.247130,7920.203579
1999.383958,2911.162892,148.041188,8216.285956
1999.384275,2451.505594,518.144159,8364.327145
1999.384592,1378.971896,-0.000000,8660.409521
1999.384910,612.876398,-814.226536,9400.615463
1999.385227,-306.438199,-666.185348,9548.656652
1999.385545,-919.314598,-222.061783,9548.656652
1999.385862,-995.924147,-740.205942,10658.965565
1999.386179,-689.485948,-222.061783,11029.068536
1999.386497,-383.047749,-148.041188,11177.109724
1999.386814,612.876398,-370.102971,10510.924376
1999.387132,1685.410096,370.102971,9548.656652
1999.387449,1838.629195,-0.000000,9326.594869
1999.387767,1838.629195,-0.000000,8512.368333
1999.388084,2298.286494,-0.000000,7772.162391
1999.388401,1455.581446,444.123565,7772.162391
1999.388719,612.876398,666.185348,7698.141797
1999.389036,76.609550,148.041188,7920.203579
1999.389354,-536.266849,-740.205942,8956.491898
1999.389671,-1608.800546,-1184.329507,9918.759623
1999.389988,-2221.676944,-1924.535449,10807.006753
1999.390306,-2451.505594,-1702.473667,12139.377449
1999.390623,-1991.848295,-1480.411884,12287.418637
1999.390941,-1532.190996,-1332.370696,11695.253884
1999.391258,-459.657299,-444.123565,11325.150913
1999.391576,612.876398,222.061783,10214.842000
1999.391893,1608.800546,1258.350101,9030.512492
1999.392210,1991.848295,1332.370696,8068.244768
1999.392528,2451.505594,1924.535449,7772.162391
1999.392845,2145.067394,1998.556043,7105.977043
1999.393163,1991.848295,1554.432478,6661.853478
1999.393480,1302.362347,888.247130,7254.018232
1999.393798,919.314598,1036.288319,7846.182985
1999.394115,536.266849,296.082377,9030.512492
1999.394432,229.828649,-296.082377,10140.821405
1999.394750,0.000000,-814.226536,11251.130318
1999.395067,-153.219100,-962.267725,10955.047942
1999.395385,0.000000,-296.082377,10955.047942
1999.395702,153.219100,518.144159,10436.903782
1999.396019,919.314598,1036.288319,9400.615463
1999.396337,1302.362347,1702.473667,8438.347739
1999.396654,1991.848295,2072.576638,8142.265362
1999.396972,2068.457845,1924.535449,8290.306550
1999.397289,2451.505594,1924.535449,7179.997637
1999.397607,2374.896044,1702.473667,7031.956449
1999.397924,1915.238745,814.226536,7994.224174
1999.398241,1762.019645,518.144159,8068.244768
1999.398559,612.876398,-0.000000,8956.491898
1999.398876,229.828649,-592.164754,10658.965565
1999.399194,229.828649,-740.205942,11695.253884
1999.399511,229.828649,-296.082377,11103.089130
1999.399829,0.000000,222.061783,11177.109724
1999.400146,76.609550,-148.041188,11547.212695
1999.400463,536.266849,666.185348,9474.636058
1999.400781,1149.143247,222.061783,9474.636058
1999.401098,1225.752797,296.082377,9696.697840
1999.401416,1685.410096,-296.082377,9326.594869
1999.401733,1378.971896,-444.123565,9030.512492
1999.402050,1455.581446,-296.082377,9252.574275
1999.402368,766.095498,-296.082377,9474.636058
1999.402685,76.609550,-0.000000,9400.615463
1999.403003,76.609550,-814.226536,9696.697840
1999.403320,153.219100,-370.102971,10658.965565
1999.403638,0.000000,-296.082377,11325.150913
1999.403955,766.095498,666.185348,9844.739029
1999.404272,1378.971896,740.205942,9696.697840
1999.404590,1838.629195,1258.350101,9548.656652
1999.404907,1991.848295,592.164754,9252.574275
1999.405225,1532.190996,740.205942,8956.491898
1999.405542,1762.019645,518.144159,8956.491898
1999.405860,1072.533697,888.247130,8512.368333
1999.406177,1532.190996,592.164754,8882.471304
1999.406494,766.095498,-222.061783,8882.471304
1999.406812,0.000000,-222.061783,9030.512492
1999.407129,-229.828649,-444.123565,9178.553681
1999.407447,0.000000,-740.205942,9992.780217
1999.407764,459.657299,-148.041188,10140.821405
1999.408081,766.095498,-0.000000,9696.697840
1999.408399,1149.143247,518.144159,9030.512492
1999.408716,1455.581446,444.123565,9400.615463
1999.409034,1838.629195,1036.288319,8512.368333
1999.409351,2451.505594,1554.432478,8364.327145
1999.409669,2451.505594,962.267725,8216.285956
1999.409986,1378.971896,888.247130,8438.347739
1999.410303,1072.533697,1110.308913,8142.265362
1999.410621,76.609550,-0.000000,8882.471304
1999.410938,-306.438199,-1110.308913,9918.759623
1999.411256,-1149.143247,-1036.288319,10066.800811
1999.411573,-1762.019645,-1110.308913,10807.006753
1999.411890,-1685.410096,-1628.453072,11547.212695
1999.412208,-919.314598,-1924.535449,12065.356855
1999.412525,-1302.362347,-1036.288319,10584.944971
1999.412843,0.000000,-444.123565,10436.903782
1999.413160,536.266849,148.041188,9104.533087
1999.413478,1685.410096,1036.288319,8068.244768
1999.413795,2298.286494,1110.308913,7624.121203
1999.414112,2145.067394,814.226536,7550.100608
1999.414430,1685.410096,740.205942,7328.038826
1999.414747,1225.752797,740.205942,7772.162391
1999.415065,1149.143247,370.102971,9252.574275
1999.415382,0.000000,296.082377,9622.677246
1999.415700,-689.485948,444.123565,9918.759623
1999.416017,-842.705048,-0.000000,10362.883188
1999.416334,-766.095498,-0.000000,11843.295072
1999.416652,0.000000,-0.000000,11843.295072
1999.416969,383.047749,222.061783,10066.800811
1999.417287,1762.019645,740.205942,10140.821405
1999.417604,2298.286494,1480.411884,8956.491898
1999.417921,2911.162892,1924.535449,7624.121203
1999.418239,3600.648841,1702.473667,7179.997637
1999.418556,3524.039291,1850.514855,7031.956449
1999.418874,3294.210641,2072.576638,6661.853478
1999.419191,2451.505594,1850.514855,6883.915261
1999.419509,1378.971896,1184.329507,7920.203579
1999.419826,842.705048,666.185348,9696.697840
1999.420143,-459.657299,296.082377,9548.656652
1999.420461,-1302.362347,-666.185348,11029.068536
1999.420778,-1455.581446,-1554.432478,12583.501014
1999.421096,-1378.971896,-1406.391290,12657.521608
1999.421413,-536.266849,-1628.453072,12435.459826
1999.421731,153.219100,-888.247130,12213.398043
1999.422048,919.314598,-222.061783,10955.047942
1999.422365,1378.971896,740.205942,9252.574275
1999.422683,1915.238745,1184.329507,8660.409521
1999.423000,1991.848295,-0.000000,8512.368333
1999.423318,1532.190996,-0.000000,7476.080014
1999.423635,1455.581446,-0.000000,7550.100608
1999.423952,1302.362347,296.082377,7994.224174
1999.424270,842.705048,-444.123565,8364.327145
1999.424587,0.000000,-148.041188,9104.533087
1999.424905,-536.266849,-444.123565,10140.821405
1999.425222,-689.485948,-666.185348,11251.130318
1999.425540,-229.828649,-592.164754,11769.274478
1999.425857,306.438199,-444.123565,11843.295072
1999.426174,612.876398,-444.123565,12065.356855
1999.426492,1302.362347,518.144159,10584.944971
1999.426809,2298.286494,1110.308913,9252.574275
1999.427127,2987.772442,1702.473667,8068.244768
1999.427444,3524.039291,1554.432478,7920.203579
1999.427762,3600.648841,1998.556043,6883.915261
1999.428079,2987.772442,1776.494261,6365.771101
1999.428396,2374.896044,1110.308913,8142.265362
1999.428714,1532.190996,814.226536,8512.368333
1999.429031,76.609550,1332.370696,7920.203579
1999.429349,0.000000,444.123565,8882.471304
1999.429666,-459.657299,444.123565,10214.842000
1999.429983,-459.657299,148.041188,9622.677246
1999.430301,-153.219100,-444.123565,9992.780217
1999.430618,-229.828649,-666.185348,10288.862594
1999.430936,-383.047749,-740.205942,9992.780217
1999.431253,-383.047749,-296.082377,9326.594869
1999.431571,0.000000,-296.082377,9548.656652
1999.431888,-383.047749,-370.102971,9474.636058
1999.432205,-383.047749,-74.020594,9178.553681
1999.432523,-612.876398,-296.082377,9104.533087
1999.432840,-766.095498,148.041188,9104.533087
1999.433158,-995.924147,518.144159,9178.553681
1999.433475,-1072.533697,74.020594,9104.533087
1999.433793,-689.485948,-444.123565,10584.944971
1999.434110,-153.219100,-296.082377,10288.862594
1999.434427,536.266849,-148.041188,9326.594869
1999.434745,1225.752797,-222.061783,9252.574275
1999.435062,2451.505594,-370.102971,9548.656652
1999.435380,2681.334243,296.082377,8512.368333
1999.435697,2528.115143,148.041188,8290.306550
1999.436014,1762.019645,592.164754,8216.285956
1999.436332,1225.752797,1332.370696,8290.306550
1999.436649,1072.533697,1036.288319,8956.491898
1999.436967,153.219100,370.102971,9326.594869
1999.437284,-842.705048,-148.041188,10658.965565
1999.437602,-1072.533697,-222.061783,11621.233289
1999.437919,-766.095498,-296.082377,11695.253884
1999.438236,76.609550,-222.061783,11843.295072
1999.438554,1149.143247,1036.288319,10807.006753
1999.438871,1762.019645,1702.473667,9548.656652
1999.439189,3294.210641,1850.514855,9104.533087
1999.439506,4443.353888,2368.659014,7920.203579
1999.439823,4749.792088,2442.679609,7105.977043
1999.440141,4519.963438,2220.617826,6439.791695
1999.440458,3370.820191,2072.576638,6661.853478
1999.440776,2528.115143,888.247130,7550.100608
1999.441093,1378.971896,370.102971,8364.327145
1999.441411,0.000000,-370.102971,9326.594869
1999.441728,-1149.143247,-666.185348,10510.924376
1999.442045,-2374.896044,-814.226536,11103.089130
1999.442363,-2451.505594,-1776.494261,12065.356855
1999.442680,-2604.724693,-2368.659014,13175.665768
1999.442998,-2298.286494,-1998.556043,13545.768739
1999.443315,-1072.533697,-1332.370696,12361.439231
1999.443633,0.000000,-370.102971,10955.047942
1999.443950,1455.581446,-0.000000,9770.718434
1999.444267,2911.162892,740.205942,8142.265362
1999.444585,3217.601092,1702.473667,7105.977043
1999.444902,3600.648841,888.247130,6291.750507
1999.445220,2987.772442,1036.288319,5847.626942
1999.445537,2528.115143,592.164754,7031.956449
1999.445854,1302.362347,222.061783,7994.224174
1999.446172,76.609550,-0.000000,8956.491898
1999.446489,-995.924147,-666.185348,10288.862594
1999.446807,-2451.505594,-1406.391290,11843.295072
1999.447124,-2298.286494,-1998.556043,12731.542202
1999.447442,-2068.457845,-740.205942,12139.377449
1999.447759,-1149.143247,-296.082377,11769.274478
1999.448076,229.828649,-222.061783,11769.274478
1999.448394,1608.800546,370.102971,10436.903782
1999.448711,2911.162892,666.185348,8586.388927
1999.449029,3753.867940,1628.453072,7105.977043
1999.449346,4290.134789,2442.679609,5995.668130
1999.449664,4366.744339,2886.803174,4959.379811
1999.449981,3830.477490,2664.741391,5033.400406
1999.450298,2451.505594,2516.700203,5773.606348
1999.450616,995.924147,2368.659014,6661.853478
1999.450933,229.828649,1702.473667,7772.162391
1999.451251,-383.047749,518.144159,10214.842000
1999.451568,-995.924147,-222.061783,10732.986159
1999.451885,-1991.848295,-1184.329507,11325.150913
1999.452203,-1915.238745,-2220.617826,12361.439231
1999.452520,-1378.971896,-2368.659014,12583.501014
1999.452838,-689.485948,-1850.514855,11103.089130
1999.453155,0.000000,-666.185348,9844.739029
1999.453473,383.047749,518.144159,8808.450710
1999.453790,612.876398,1184.329507,7920.203579
1999.454107,919.314598,962.267725,7328.038826
1999.454425,459.657299,592.164754,7846.182985
1999.454742,76.609550,740.205942,7698.141797
1999.455060,-459.657299,814.226536,7698.141797
1999.455377,-689.485948,-0.000000,9104.533087
1999.455695,-612.876398,-740.205942,10732.986159
1999.456012,-1149.143247,-1184.329507,10584.944971
1999.456329,-919.314598,-1332.370696,11029.068536
1999.456647,0.000000,-1258.350101,12287.418637
1999.456964,229.828649,-1258.350101,12065.356855
1999.457282,612.876398,-962.267725,11177.109724
1999.457599,383.047749,-592.164754,10807.006753
1999.457916,459.657299,-0.000000,10066.800811
1999.458234,1378.971896,814.226536,8956.491898
1999.458551,1685.410096,1332.370696,8216.285956
1999.458869,1991.848295,1332.370696,8808.450710
1999.459186,1225.752797,1480.411884,8364.327145
1999.459504,1378.971896,1258.350101,8660.409521
1999.459821,1378.971896,518.144159,9622.677246
1999.460138,2145.067394,-0.000000,9844.739029
1999.460456,2681.334243,1258.350101,9178.553681
1999.460773,2834.553343,1036.288319,9326.594869
1999.461091,3370.820191,1184.329507,9400.615463
1999.461408,3753.867940,1184.329507,9104.533087
1999.461726,3600.648841,1110.308913,8734.430116
1999.462043,3447.429741,962.267725,9030.512492
1999.462360,2757.943793,1110.308913,8586.388927
1999.462678,1991.848295,1332.370696,7550.100608
1999.462995,1762.019645,814.226536,8956.491898
1999.463313,459.657299,592.164754,9326.594869
1999.463630,0.000000,222.061783,9992.780217
1999.463947,-766.095498,-0.000000,9918.759623
1999.464265,-1378.971896,-740.205942,10955.047942
1999.464582,-1302.362347,-1554.432478,11547.212695
1999.464900,-689.485948,-1924.535449,11103.089130
1999.465217,153.219100,-1258.350101,10436.903782
1999.465535,919.314598,-518.144159,10584.944971
1999.465852,1915.238745,370.102971,8882.471304
1999.466169,2221.676944,814.226536,7624.121203
1999.466487,2834.553343,518.144159,8586.388927
1999.466804,2068.457845,962.267725,7624.121203
1999.467122,919.314598,666.185348,7031.956449
1999.467439,536.266849,444.123565,8512.368333
1999.467756,-689.485948,-0.000000,9104.533087
1999.468074,-1685.410096,-1110.308913,10436.903782
1999.468391,-2528.115143,-1850.514855,10807.006753
1999.468709,-2451.505594,-2812.782580,13027.624579
1999.469026,-2451.505594,-2368.659014,11917.315666
1999.469343,-919.314598,-888.247130,11473.192101
1999.469661,-689.485948,-148.041188,9696.697840
1999.469978,919.314598,740.205942,9474.636058
1999.470295,1838.629195,1406.391290,8660.409521
1999.470613,2757.943793,1628.453072,7772.162391
1999.470930,3294.210641,1554.432478,7772.162391
1999.471247,3830.477490,2294.638420,6735.874072
1999.471565,3294.210641,2590.720797,6069.688724
1999.471882,2221.676944,2442.679609,6883.915261
1999.472199,1762.019645,1998.556043,7179.997637
1999.472517,1225.752797,1850.514855,7920.203579
1999.472834,536.266849,592.164754,9326.594869
1999.473151,76.609550,-0.000000,10288.862594
1999.473469,-306.438199,-1110.308913,10658.965565
1999.473786,-612.876398,-2146.597232,11547.212695
1999.474103,-1072.533697,-2516.700203,11695.253884
1999.474421,-536.266849,-1776.494261,11251.130318
1999.474738,229.828649,-962.267725,10584.944971
1999.475055,1225.752797,296.082377,9474.636058
1999.475373,1455.581446,1110.308913,7698.141797
1999.475690,1915.238745,2072.576638,7402.059420
1999.476007,1915.238745,1258.350101,7698.141797
1999.476325,1378.971896,1332.370696,7031.956449
1999.476642,842.705048,740.205942,8068.244768
1999.476959,0.000000,444.123565,9252.574275
1999.477277,-536.266849,-814.226536,10807.006753
1999.477594,-536.266849,-814.226536,11695.253884
1999.477911,-612.876398,-1110.308913,12065.356855
1999.478229,0.000000,-1110.308913,12287.418637
1999.478546,306.438199,-1110.308913,11917.315666
1999.478863,459.657299,-1554.432478,11325.150913
1999.479181,995.924147,-1480.411884,11251.130318
1999.479498,1378.971896,-666.185348,9992.780217
1999.479815,2068.457845,-0.000000,8068.244768
1999.480133,2145.067394,962.267725,7328.038826
1999.480450,2221.676944,2220.617826,7031.956449
1999.480767,1991.848295,2664.741391,6883.915261
1999.481085,2221.676944,2442.679609,7772.162391
1999.481402,1455.581446,1554.432478,7846.182985
1999.481719,1302.362347,666.185348,9548.656652
1999.482037,689.485948,666.185348,10066.800811
1999.482354,689.485948,-0.000000,9992.780217
1999.482671,689.485948,-74.020594,11103.089130
1999.482989,995.924147,148.041188,11843.295072
1999.483306,383.047749,370.102971,10732.986159
1999.483623,689.485948,370.102971,10436.903782
1999.483941,459.657299,-74.020594,10584.944971
1999.484258,76.609550,666.185348,9326.594869
1999.484575,0.000000,1036.288319,7772.162391
1999.484893,0.000000,666.185348,7254.018232
1999.485210,-459.657299,222.061783,7624.121203
1999.485527,76.609550,148.041188,8142.265362
1999.485845,-383.047749,-518.144159,8142.265362
1999.486162,-612.876398,-444.123565,9474.636058
1999.486479,-383.047749,-888.247130,9770.718434
1999.486797,76.609550,-444.123565,9992.780217
1999.487114,306.438199,-592.164754,10510.924376
1999.487431,536.266849,-370.102971,10881.027347
1999.487749,383.047749,-0.000000,9696.697840
1999.488066,995.924147,592.164754,10288.862594
1999.488383,842.705048,666.185348,9844.739029
1999.488701,1149.143247,1036.288319,8586.388927
1999.489018,612.876398,888.247130,8734.430116
1999.489335,0.000000,296.082377,8438.347739
1999.489653,-306.438199,740.205942,8808.450710
1999.489970,0.000000,148.041188,9474.636058
1999.490287,76.609550,-962.267725,9770.718434
1999.490605,766.095498,-444.123565,9992.780217
1999.490922,1838.629195,-296.082377,9770.718434
1999.491239,2451.505594,-518.144159,9918.759623
1999.491557,3064.381992,222.061783,9252.574275
1999.491874,4213.525239,1702.473667,8882.471304
1999.492192,4213.525239,2442.679609,8068.244768
1999.492509,4213.525239,3034.844362,7624.121203
1999.492826,4366.744339,2960.823768,8290.306550
1999.493144,3677.258390,2368.659014,7179.997637
1999.493461,2298.286494,2368.659014,7328.038826
1999.493778,1378.971896,1332.370696,8808.450710
1999.494096,0.000000,888.247130,9400.615463
1999.494413,-153.219100,-1110.308913,10066.800811
1999.494730,-1378.971896,-1924.535449,10436.903782
1999.495048,-919.314598,-2220.617826,12065.356855
1999.495365,-919.314598,-2220.617826,11325.150913
1999.495682,-919.314598,-2072.576638,10732.986159
1999.496000,0.000000,-1332.370696,11399.171507
1999.496317,76.609550,-0.000000,9992.780217
1999.496634,229.828649,740.205942,8956.491898
1999.496952,1072.533697,888.247130,9030.512492
1999.497269,1072.533697,1554.432478,8290.306550
1999.497586,1225.752797,2368.659014,7179.997637
1999.497904,766.095498,1628.453072,8142.265362
1999.498221,76.609550,222.061783,9252.574275
1999.498538,-766.095498,-222.061783,9400.615463
1999.498856,-1762.019645,-1480.411884,10584.944971
1999.499173,-1685.410096,-2294.638420,12509.480420
1999.499490,-1532.190996,-2812.782580,12435.459826
1999.499808,-1608.800546,-3256.906145,12435.459826
1999.500125,-689.485948,-2220.617826,11843.295072
1999.500442,153.219100,-740.205942,11103.089130
1999.500760,1302.362347,-0.000000,9770.718434
1999.501077,2221.676944,888.247130,8586.388927
1999.501394,2757.943793,1850.514855,7698.141797
1999.501712,3524.039291,2590.720797,7254.018232
1999.502029,3294.210641,2368.659014,6587.832884
1999.502346,2987.772442,2442.679609,6957.935855
1999.502664,2374.896044,1998.556043,7328.038826
1999.502981,1915.238745,1776.494261,7402.059420
1999.503298,1225.752797,148.041188,9474.636058
1999.503616,842.705048,-296.082377,9918.759623
1999.503933,689.485948,-296.082377,9696.697840
1999.504250,689.485948,-148.041188,10658.965565
1999.504568,536.266849,-518.144159,10732.986159
1999.504885,153.219100,-148.041188,10140.821405
1999.505202,229.828649,518.144159,9178.553681
1999.505520,459.657299,666.185348,9696.697840
1999.505837,0.000000,1110.308913,9252.574275
1999.506154,689.485948,1406.391290,7772.162391
1999.506472,306.438199,1850.514855,6957.935855
1999.506789,-689.485948,2294.638420,6587.832884
1999.507106,-2068.457845,2220.617826,7031.956449
1999.507424,306.438199,-1406.391290,8586.388927
1999.507741,-2757.943793,-814.226536,7920.203579
1999.508058,-1762.019645,-3034.844362,13841.851115
1999.508376,-2834.553343,-1776.494261,9474.636058
1999.508693,-1762.019645,-2886.803174,13027.624579
1999.509010,-1608.800546,-3034.844362,13545.768739
1999.509328,-4060.306139,-1628.453072,10288.862594
1999.509645,-229.828649,370.102971,11177.109724
1999.509962,-459.657299,1184.329507,10584.944971
1999.510280,229.828649,222.061783,9992.780217
1999.510597,1762.019645,-148.041188,9400.615463
1999.510914,459.657299,1998.556043,7179.997637
1999.511232,2681.334243,222.061783,9178.553681
1999.511549,2221.676944,-1036.288319,9696.697840
1999.511866,2757.943793,-518.144159,8586.388927
1999.512184,4366.744339,740.205942,9104.533087
1999.512501,4366.744339,1924.535449,7772.162391
1999.512818,5745.716235,740.205942,9770.718434
1999.513136,5362.668486,-148.041188,9400.615463
1999.513453,4749.792088,2072.576638,7846.182985
1999.513770,5669.106685,1776.494261,9622.677246
1999.514088,3830.477490,1702.473667,8586.388927
1999.514405,3600.648841,666.185348,8512.368333
1999.514722,2451.505594,1924.535449,8882.471304
1999.515040,1149.143247,1998.556043,8068.244768
1999.515357,1072.533697,-0.000000,9252.574275
1999.515675,536.266849,592.164754,9474.636058
1999.515992,0.000000,444.123565,10362.883188
1999.516309,0.000000,-666.185348,10140.821405
1999.516627,0.000000,-2294.638420,11103.089130
1999.516944,153.219100,-1702.473667,10881.027347
1999.517261,1072.533697,296.082377,9252.574275
1999.517579,1225.752797,1776.494261,7994.224174
1999.517896,1838.629195,962.267725,8586.388927
1999.518213,1608.800546,1036.288319,8216.285956
1999.518531,995.924147,962.267725,8290.306550
1999.518848,-76.609550,1036.288319,8142.265362
1999.519165,-995.924147,-222.061783,8734.430116
1999.519483,-1838.629195,-666.185348,9030.512492
1999.519800,-2757.943793,-74.020594,9474.636058
1999.520117,-3677.258390,-962.267725,10881.027347
1999.520435,-3983.696590,-2220.617826,11103.089130
1999.520752,-3830.477490,-3108.864956,12213.398043
1999.521069,-2987.772442,-2072.576638,12139.377449
1999.521387,-2068.457845,-1480.411884,11917.315666
1999.521704,-995.924147,-1850.514855,11547.212695
1999.522021,153.219100,-1036.288319,10732.986159
1999.522339,1225.752797,1480.411884,9178.553681
1999.522656,2757.943793,2812.782580,7624.121203
1999.522973,2987.772442,2664.741391,7476.080014
1999.523291,3294.210641,2960.823768,6957.935855
1999.523608,3370.820191,3552.988522,6217.729913
1999.523925,1991.848295,3034.844362,6439.791695
1999.524243,1685.410096,1628.453072,8290.306550
1999.524560,459.657299,296.082377,8216.285956
1999.524877,-612.876398,-0.000000,9918.759623
1999.525195,-1072.533697,-1480.411884,11991.336260
1999.525512,-1302.362347,-1036.288319,11547.212695
1999.525829,-153.219100,-1184.329507,11103.089130
1999.526147,153.219100,-444.123565,11399.171507
1999.526464,306.438199,-148.041188,11029.068536
1999.526781,1685.410096,518.144159,9474.636058
1999.527099,1915.238745,1924.535449,7772.162391
1999.527416,2528.115143,2738.761985,7994.224174
1999.527733,2681.334243,2886.803174,7179.997637
1999.528051,2528.115143,2738.761985,6069.688724
1999.528368,2451.505594,1776.494261,6809.894666
1999.528685,1302.362347,1480.411884,7846.182985
1999.529003,689.485948,1258.350101,7994.224174
1999.529320,536.266849,296.082377,9030.512492
1999.529637,0.000000,-1332.370696,10436.903782
1999.529955,-459.657299,-2812.782580,11843.295072
1999.530272,-383.047749,-2738.761985,11917.315666
1999.530589,0.000000,-2886.803174,12731.542202
1999.530907,919.314598,-2146.597232,12139.377449
1999.531224,1072.533697,-962.267725,10881.027347
1999.531541,1302.362347,296.082377,9992.780217
1999.531859,1838.629195,666.185348,9326.594869
1999.532176,2145.067394,1702.473667,8068.244768
1999.532493,2221.676944,1924.535449,7772.162391
1999.532811,2911.162892,2146.597232,8068.244768
1999.533128,1991.848295,1702.473667,7476.080014
1999.533445,1762.019645,592.164754,8216.285956
1999.533763,1225.752797,-888.247130,9474.636058
1999.534080,1378.971896,-1554.432478,11399.171507
1999.534397,1685.410096,-222.061783,10732.986159
1999.534715,1915.238745,148.041188,10288.862594
1999.535032,2374.896044,-0.000000,11029.068536
1999.535349,2298.286494,-0.000000,10881.027347
1999.535667,1762.019645,444.123565,10066.800811
1999.535984,1685.410096,-0.000000,9696.697840
1999.536301,995.924147,666.185348,9474.636058
1999.536619,766.095498,1332.370696,8216.285956
1999.536936,459.657299,1480.411884,7328.038826
1999.537253,0.000000,888.247130,7328.038826
1999.537571,-153.219100,444.123565,7920.203579
1999.537888,-919.314598,-148.041188,7624.121203
1999.538206,-1072.533697,-962.267725,8808.450710
1999.538523,-612.876398,-1110.308913,9844.739029
1999.538840,-766.095498,-1924.535449,9770.718434
1999.539158,-842.705048,-2072.576638,10288.862594
1999.539475,-459.657299,-1702.473667,10807.006753
1999.539792,0.000000,-0.000000,10140.821405
1999.540110,612.876398,666.185348,9252.574275
1999.540427,1225.752797,888.247130,9104.533087
1999.540744,-306.438199,1850.514855,9474.636058
1999.541062,-612.876398,1628.453072,9030.512492
1999.541379,-919.314598,814.226536,8290.306550
1999.541696,-1455.581446,222.061783,9326.594869
1999.542014,-1455.581446,-0.000000,10140.821405
1999.542331,-1072.533697,-0.000000,9992.780217
1999.542648,-1149.143247,-888.247130,10066.800811
1999.542966,-153.219100,-1184.329507,10732.986159
1999.543283,995.924147,-1332.370696,10436.903782
1999.543600,2451.505594,-592.164754,10288.862594
1999.543918,4213.525239,-0.000000,9178.553681
1999.544235,4596.572988,1110.308913,7772.162391
1999.544552,5286.058936,2072.576638,7031.956449
1999.544870,5286.058936,2516.700203,7476.080014
1999.545187,4366.744339,3182.885551,6957.935855
1999.545504,3217.601092,2960.823768,7179.997637
1999.545822,2068.457845,2886.803174,7846.182985
1999.546139,612.876398,2738.761985,8438.347739
1999.546456,0.000000,1406.391290,9030.512492
1999.546774,-995.924147,-74.020594,10881.027347
1999.547091,-1455.581446,-1406.391290,11695.253884
1999.547408,-1225.752797,-2146.597232,12435.459826
1999.547726,-919.314598,-1924.535449,11917.315666
1999.548043,536.266849,-1110.308913,11695.253884
1999.548360,1455.581446,-444.123565,11251.130318
1999.548678,2145.067394,1110.308913,9104.533087
1999.548995,2681.334243,1998.556043,8216.285956
1999.549312,2068.457845,2886.803174,7772.162391
1999.549630,2221.676944,2960.823768,6735.874072
1999.549947,536.266849,3256.906145,5477.523971
1999.550264,-2068.457845,3108.864956,5625.565159
1999.550582,-153.219100,-370.102971,9104.533087
1999.550899,-4060.306139,-1332.370696,8734.430116
1999.551216,-4519.963438,-3404.947333,14730.098246
1999.551534,-5592.497135,-4441.235652,12509.480420
1999.551851,-4366.744339,-3701.029710,14434.015869
1999.552168,-3140.991542,-5847.626942,16062.468941
1999.552486,-4290.134789,-4737.318029,14656.077652
1999.552803,-689.485948,-1110.308913,12879.583391
1999.553120,1302.362347,1480.411884,9474.636058
1999.553438,5132.839837,1776.494261,10066.800811
1999.553755,5362.668486,1850.514855,7846.182985
1999.554072,5592.497135,4219.173869,5551.544565
1999.554390,5898.935335,3775.050304,4145.153275
1999.554707,5669.106685,740.205942,7031.956449
1999.555024,4903.011187,1776.494261,6439.791695
1999.555342,4749.792088,2220.617826,6291.750507
1999.555659,4060.306139,1036.288319,7105.977043
1999.555976,2298.286494,-2072.576638,10807.006753
1999.556294,2068.457845,-4071.132681,12435.459826
1999.556611,1608.800546,-1258.350101,10214.842000
1999.556928,2911.162892,-1332.370696,12065.356855
1999.557246,1225.752797,-888.247130,10510.924376
1999.557563,536.266849,-296.082377,7550.100608
1999.557880,1608.800546,1554.432478,8660.409521
1999.558198,1225.752797,1850.514855,8512.368333
1999.558515,1149.143247,1110.308913,7105.977043
1999.558832,842.705048,-0.000000,7698.141797
1999.559150,-995.924147,5033.400406,5773.606348
1999.559467,0.000000,962.267725,8734.430116
1999.559784,-995.924147,-1258.350101,9104.533087
1999.560102,-2604.724693,-2072.576638,10066.800811
1999.560419,-1762.019645,-518.144159,7772.162391
1999.560736,306.438199,148.041188,10214.842000
1999.561054,-919.314598,-1480.411884,10288.862594
1999.561371,-536.266849,-2368.659014,10807.006753
1999.561689,0.000000,-1184.329507,9622.677246
1999.562006,-383.047749,1036.288319,8364.327145
1999.562323,76.609550,-74.020594,10807.006753
1999.562641,-229.828649,370.102971,7402.059420
1999.562958,612.876398,1628.453072,7105.977043
1999.563275,-995.924147,1480.411884,7402.059420
1999.563593,-689.485948,-1850.514855,11695.253884
1999.563910,-1685.410096,-1554.432478,9326.594869
1999.564227,-842.705048,444.123565,9770.718434
1999.564545,-766.095498,296.082377,11251.130318
1999.564862,229.828649,-592.164754,12065.356855
1999.565179,1455.581446,-814.226536,10807.006753
1999.565497,1532.190996,740.205942,10214.842000
1999.565814,3524.039291,1480.411884,10881.027347
1999.566131,4519.963438,1258.350101,8586.388927
1999.566449,4749.792088,1702.473667,7920.203579
1999.566766,3830.477490,2886.803174,7550.100608
1999.567083,2681.334243,2960.823768,7105.977043
1999.567401,1532.190996,740.205942,6439.791695
1999.567718,1225.752797,-814.226536,9030.512492
1999.568035,-1072.533697,666.185348,8882.471304
1999.568353,-1838.629195,814.226536,9104.533087
1999.568670,-1685.410096,-1406.391290,11177.109724
1999.568987,-1991.848295,-1702.473667,11769.274478
1999.569305,-1072.533697,-666.185348,12287.418637
1999.569622,-689.485948,666.185348,11251.130318
1999.569939,612.876398,592.164754,11399.171507
1999.570257,1838.629195,1628.453072,10066.800811
1999.570574,2911.162892,2812.782580,9474.636058
1999.570891,3064.381992,3108.864956,9030.512492
1999.571208,2987.772442,2960.823768,8142.265362
1999.571526,3064.381992,2590.720797,7105.977043
1999.571843,2145.067394,2738.761985,7550.100608
1999.572160,1302.362347,2220.617826,7994.224174
1999.572478,153.219100,-370.102971,9178.553681
1999.572795,-1225.752797,-2590.720797,10066.800811
1999.573112,-1838.629195,-3701.029710,12287.418637
1999.573430,-1838.629195,-4293.194464,13767.830521
1999.573747,-1455.581446,-3701.029710,12805.562797
1999.574064,-383.047749,-2368.659014,12731.542202
1999.574381,1072.533697,-1480.411884,12435.459826
1999.574699,2374.896044,296.082377,10510.924376
1999.575016,3677.258390,296.082377,8956.491898
1999.575333,4749.792088,1850.514855,8734.430116
1999.575651,5056.230287,2960.823768,7476.080014
1999.575968,5439.278036,3849.070898,6069.688724
1999.576285,4519.963438,3404.947333,5403.503377
1999.576603,3294.210641,2294.638420,7105.977043
1999.576920,1608.800546,1332.370696,7105.977043
1999.577237,459.657299,518.144159,8068.244768
1999.577555,-689.485948,-1332.370696,10288.862594
1999.577872,-1685.410096,-2368.659014,11251.130318
1999.578189,-2604.724693,-3108.864956,12065.356855
1999.578506,-2451.505594,-2738.761985,12731.542202
1999.578824,-1838.629195,-2220.617826,11769.274478
1999.579141,-995.924147,-1110.308913,10066.800811
1999.579458,536.266849,740.205942,8734.430116
1999.579776,1532.190996,2146.597232,7550.100608
1999.580093,1685.410096,2960.823768,5551.544565
1999.580410,1838.629195,2738.761985,5107.421000
1999.580728,1915.238745,2516.700203,4885.359217
1999.581045,1532.190996,2442.679609,5699.585753
1999.581362,459.657299,1332.370696,6513.812290
1999.581679,0.000000,-296.082377,8290.306550
1999.581997,-1225.752797,-1036.288319,9548.656652
1999.582314,-919.314598,-1554.432478,10955.047942
1999.582631,-1608.800546,-1776.494261,11695.253884
1999.582949,-1532.190996,-2294.638420,12657.521608
1999.583266,-1302.362347,-1998.556043,12065.356855
1999.583583,-842.705048,-1480.411884,11399.171507
1999.583901,612.876398,-1110.308913,10510.924376
