#time,accel_x,accel_y,accel_z
1433.923084,459.657299,518.144159,9326.594869
1433.923403,306.438199,518.144159,9326.594869
1433.923722,459.657299,222.061783,9252.574275
1433.924041,383.047749,370.102971,9400.615463
1433.924360,383.047749,222.061783,9252.574275
1433.924679,612.876398,296.082377,9326.594869
1433.924998,612.876398,222.061783,9178.553681
1433.925317,229.828649,-0.000000,9178.553681
1433.925636,459.657299,370.102971,9178.553681
1433.925955,383.047749,444.123565,9252.574275
1433.926274,306.438199,-0.000000,9400.615463
1433.926593,766.095498,222.061783,9178.553681
1433.926912,229.828649,222.061783,9326.594869
1433.927231,306.438199,296.082377,9400.615463
1433.927550,459.657299,370.102971,9400.615463
1433.927869,306.438199,444.123565,9474.636058
1433.928188,459.657299,592.164754,9400.615463
1433.928507,536.266849,370.102971,9400.615463
1433.928826,383.047749,296.082377,9178.553681
1433.929145,-306.438199,148.041188,9104.533087
1433.929464,383.047749,518.144159,9252.574275
1433.929783,229.828649,296.082377,9030.512492
1433.930102,612.876398,296.082377,9326.594869
1433.930421,536.266849,444.123565,9400.615463
1433.930740,459.657299,444.123565,9178.553681
1433.931059,306.438199,370.102971,9252.574275
1433.931378,689.485948,592.164754,9030.512492
1433.931697,536.266849,444.123565,9326.594869
1433.932016,995.924147,592.164754,9400.615463
1433.932335,459.657299,370.102971,9252.574275
1433.932654,459.657299,370.102971,9178.553681
1433.932973,306.438199,148.041188,9252.574275
1433.933291,383.047749,296.082377,9400.615463
1433.933610,306.438199,518.144159,9326.594869
1433.933929,383.047749,444.123565,9400.615463
1433.934248,383.047749,370.102971,9178.553681
1433.934567,383.047749,296.082377,9252.574275
1433.934886,383.047749,444.123565,9400.615463
1433.935205,229.828649,296.082377,9622.677246
1433.935524,229.828649,592.164754,9326.594869
1433.935843,383.047749,296.082377,9474.636058
1433.936162,536.266849,-0.000000,9104.533087
1433.936481,0.000000,-148.041188,9252.574275
1433.936800,383.047749,370.102971,9252.574275
1433.937119,459.657299,296.082377,9178.553681
1433.937438,459.657299,518.144159,9326.594869
1433.937757,536.266849,518.144159,9252.574275
1433.938076,153.219100,444.123565,9326.594869
1433.938395,612.876398,592.164754,9474.636058
1433.938714,612.876398,222.061783,9104.533087
1433.939033,536.266849,370.102971,9178.553681
1433.939352,383.047749,296.082377,9400.615463
1433.939671,383.047749,222.061783,9252.574275
1433.939990,536.266849,370.102971,9252.574275
1433.940309,612.876398,444.123565,9252.574275
1433.940628,612.876398,370.102971,9104.533087
1433.940947,229.828649,444.123565,9178.553681
1433.941266,383.047749,370.102971,9474.636058
1433.941585,383.047749,148.041188,9252.574275
1433.941904,229.828649,296.082377,9178.553681
1433.942223,76.609550,370.102971,9400.615463
1433.942542,689.485948,370.102971,9400.615463
1433.942861,383.047749,222.061783,9326.594869
1433.943180,229.828649,592.164754,9252.574275
1433.943499,306.438199,444.123565,9104.533087
1433.943818,306.438199,592.164754,9030.512492
1433.944137,153.219100,444.123565,9474.636058
1433.944456,536.266849,444.123565,9252.574275
1433.944775,0.000000,296.082377,9178.553681
1433.945094,76.609550,370.102971,9326.594869
1433.945413,153.219100,592.164754,9326.594869
1433.945732,-229.828649,592.164754,9326.594869
1433.946051,0.000000,888.247130,9326.594869
1433.946370,-153.219100,888.247130,9252.574275
1433.946689,0.000000,1036.288319,8882.471304
1433.947008,76.609550,1480.411884,9178.553681
1433.947326,0.000000,1036.288319,9252.574275
1433.947645,-612.876398,1332.370696,9400.615463
1433.947964,-459.657299,1332.370696,9474.636058
1433.948283,-612.876398,1110.308913,9474.636058
1433.948602,-995.924147,962.267725,9474.636058
1433.948921,-1072.533697,1258.350101,9326.594869
1433.949240,-1225.752797,1332.370696,9104.533087
1433.949559,-1608.800546,1628.453072,9104.533087
1433.949878,-1838.629195,1702.473667,8956.491898
1433.950197,-2451.505594,1998.556043,8882.471304
1433.950516,-2451.505594,2294.638420,8734.430116
1433.950835,-2451.505594,2220.617826,8512.368333
1433.951154,-2528.115143,2368.659014,8660.409521
1433.951473,-2604.724693,2294.638420,8734.430116
1433.951792,-2451.505594,2442.679609,8808.450710
1433.952111,-3140.991542,2960.823768,8808.450710
1433.952430,-3140.991542,2812.782580,8808.450710
1433.952749,-3140.991542,2886.803174,8808.450710
1433.953068,-2987.772442,3108.864956,8956.491898
1433.953387,-3447.429741,3256.906145,9104.533087
1433.953706,-3217.601092,3552.988522,9030.512492
1433.954025,-3524.039291,3182.885551,9474.636058
1433.954344,-3447.429741,3182.885551,9474.636058
1433.954663,-3447.429741,3034.844362,9474.636058
1433.954982,-4136.915689,3182.885551,9548.656652
1433.955301,-3983.696590,3330.926739,9548.656652
1433.955620,-4060.306139,3404.947333,9474.636058
1433.955939,-3983.696590,3701.029710,9770.718434
1433.956258,-3447.429741,3849.070898,9622.677246
1433.956577,-3447.429741,4071.132681,9622.677246
1433.956896,-3753.867940,4219.173869,9548.656652
1433.957215,-3217.601092,4293.194464,9622.677246
1433.957534,-2911.162892,4145.153275,9622.677246
1433.957853,-2374.896044,4589.276840,9474.636058
1433.958172,-2451.505594,4737.318029,9104.533087
1433.958491,-1762.019645,5033.400406,8660.409521
1433.958810,-2145.067394,5181.441594,8142.265362
1433.959129,-2298.286494,5033.400406,8068.244768
1433.959448,-2681.334243,5107.421000,8216.285956
1433.959767,-3064.381992,4737.318029,8734.430116
1433.960086,-3600.648841,4145.153275,9326.594869
1433.960405,-4366.744339,3701.029710,9918.759623
1433.960724,-4213.525239,3108.864956,9992.780217
1433.961043,-4443.353888,3108.864956,9918.759623
1433.961361,-3830.477490,3330.926739,9918.759623
1433.961680,-2987.772442,3923.091493,9548.656652
1433.961999,-1608.800546,4219.173869,9104.533087
1433.962318,-1149.143247,4367.215058,8364.327145
1433.962637,-459.657299,4219.173869,7846.182985
1433.962956,-536.266849,4219.173869,7402.059420
1433.963275,-689.485948,3923.091493,7105.977043
1433.963594,-1072.533697,3330.926739,7550.100608
1433.963913,-1378.971896,3478.967927,7920.203579
1433.964232,-459.657299,3552.988522,8142.265362
1433.964551,-383.047749,3404.947333,8364.327145
1433.964870,-153.219100,2960.823768,8734.430116
1433.965189,0.000000,2368.659014,9252.574275
1433.965508,-1149.143247,1924.535449,9326.594869
1433.965827,-1532.190996,1184.329507,10288.862594
1433.966146,-1838.629195,962.267725,11103.089130
1433.966465,-1532.190996,1036.288319,11399.171507
1433.966784,-612.876398,1702.473667,10584.944971
1433.967103,0.000000,1998.556043,9548.656652
1433.967422,383.047749,1850.514855,9326.594869
1433.967741,229.828649,1480.411884,9030.512492
1433.968060,459.657299,1332.370696,9326.594869
1433.968379,229.828649,1554.432478,9104.533087
1433.968698,0.000000,2146.597232,9104.533087
1433.969017,-306.438199,1776.494261,8956.491898
1433.969336,-995.924147,1036.288319,9252.574275
1433.969655,-1685.410096,-296.082377,10362.883188
1433.969974,-1991.848295,-518.144159,11473.192101
1433.970293,-2681.334243,-222.061783,11399.171507
1433.970612,-2911.162892,370.102971,10436.903782
1433.970931,-2834.553343,666.185348,10510.924376
1433.971250,-3217.601092,370.102971,10140.821405
1433.971569,-2834.553343,666.185348,9696.697840
1433.971888,-2911.162892,1628.453072,8660.409521
1433.972207,-2374.896044,1776.494261,8956.491898
1433.972526,-2374.896044,2220.617826,8734.430116
1433.972845,-1915.238745,962.267725,8586.388927
1433.973164,-2298.286494,444.123565,9474.636058
1433.973483,-2068.457845,1406.391290,9326.594869
1433.973802,-1762.019645,2442.679609,7994.224174
1433.974121,-1225.752797,3849.070898,7105.977043
1433.974440,-1072.533697,4071.132681,7105.977043
1433.974759,-1378.971896,2812.782580,7994.224174
1433.975078,-1532.190996,2738.761985,7994.224174
1433.975396,-1915.238745,2960.823768,8068.244768
1433.975715,-2528.115143,3552.988522,7476.080014
1433.976034,-2298.286494,3256.906145,9400.615463
1433.976353,-2221.676944,2886.803174,9030.512492
1433.976672,-2451.505594,2590.720797,9474.636058
1433.976991,-1378.971896,2664.741391,9770.718434
1433.977310,-229.828649,2960.823768,9178.553681
1433.977629,612.876398,2960.823768,9030.512492
1433.977948,1302.362347,3330.926739,8586.388927
1433.978267,1378.971896,3182.885551,8290.306550
1433.978586,1532.190996,3256.906145,7846.182985
1433.978905,1225.752797,3182.885551,7846.182985
1433.979224,1072.533697,3404.947333,8438.347739
1433.979543,-229.828649,3330.926739,7994.224174
1433.979862,-1608.800546,3182.885551,7994.224174
1433.980181,-1991.848295,2516.700203,9474.636058
1433.980500,-3140.991542,2960.823768,9844.739029
1433.980819,-3830.477490,3701.029710,8882.471304
1433.981138,-4136.915689,3404.947333,9622.677246
1433.981457,-4826.401637,2664.741391,11399.171507
1433.981776,-5056.230287,2368.659014,11843.295072
1433.982095,-4519.963438,2516.700203,11473.192101
1433.982414,-4519.963438,2738.761985,11769.274478
1433.982733,-3753.867940,3034.844362,11547.212695
1433.983052,-2374.896044,4145.153275,10584.944971
1433.983371,-1455.581446,4959.379811,9326.594869
1433.983690,-1149.143247,5551.544565,8808.450710
1433.984009,-612.876398,5773.606348,7994.224174
1433.984328,-383.047749,5699.585753,6069.688724
1433.984647,-689.485948,5107.421000,7031.956449
1433.984966,-1838.629195,4515.256246,7624.121203
1433.985284,-2604.724693,3923.091493,8290.306550
1433.985603,-3524.039291,3627.009116,7698.141797
1433.985922,-4366.744339,2886.803174,9844.739029
1433.986241,-5669.106685,2368.659014,11399.171507
1433.986560,-5592.497135,1924.535449,11843.295072
1433.986879,-5592.497135,962.267725,13249.686362
1433.987198,-4596.572988,1554.432478,14285.974681
1433.987517,-2911.162892,1924.535449,14137.933492
1433.987836,-459.657299,1924.535449,12657.521608
1433.988154,1991.848295,2072.576638,11843.295072
1433.988473,4519.963438,2146.597232,10436.903782
1433.988792,6435.202183,1998.556043,8216.285956
1433.989111,7814.174080,2294.638420,7031.956449
1433.989430,8120.612279,2368.659014,6587.832884
1433.989749,7814.174080,3034.844362,5625.565159
1433.990068,6894.859482,2590.720797,5255.462188
1433.990387,4903.011187,1184.329507,6513.812290
1433.990706,2298.286494,-518.144159,9104.533087
1433.991024,-306.438199,-2220.617826,10658.965565
1433.991343,-1608.800546,-3997.112087,12435.459826
1433.991662,-2221.676944,-4737.318029,14804.118840
1433.991981,-1532.190996,-5033.400406,16062.468941
1433.992300,-842.705048,-5033.400406,14656.077652
1433.992619,919.314598,-4959.379811,13693.809927
1433.992938,2757.943793,-2072.576638,11621.233289
1433.993257,4213.525239,-592.164754,9104.533087
1433.993576,5056.230287,-592.164754,6439.791695
1433.993894,4826.401637,1258.350101,4959.379811
1433.994213,4213.525239,1850.514855,4145.153275
1433.994532,2987.772442,1332.370696,3330.926739
1433.994851,1302.362347,148.041188,4515.256246
1433.995170,-842.705048,-740.205942,5995.668130
1433.995489,-2528.115143,-2886.803174,8364.327145
1433.995808,-3600.648841,-3849.070898,10881.027347
1433.996127,-4136.915689,-4219.173869,12879.583391
1433.996446,-3217.601092,-3404.947333,13397.727550
1433.996764,-2757.943793,-2664.741391,11843.295072
1433.997083,-1685.410096,-2072.576638,10955.047942
1433.997402,-383.047749,-592.164754,8956.491898
1433.997721,536.266849,1036.288319,7031.956449
1433.998040,1225.752797,1480.411884,4663.297435
1433.998359,1762.019645,3256.906145,3256.906145
1433.998678,1685.410096,3478.967927,2368.659014
1433.998997,1225.752797,2442.679609,2960.823768
1433.999316,229.828649,1776.494261,4885.359217
1433.999634,-766.095498,1554.432478,6661.853478
1433.999953,-1378.971896,592.164754,8956.491898
1434.000272,-1532.190996,-296.082377,12361.439231
1434.000591,-842.705048,-1036.288319,13175.665768
1434.000910,-459.657299,-1258.350101,13323.706956
1434.001229,995.924147,-1702.473667,12879.583391
1434.001548,1225.752797,-666.185348,11325.150913
1434.001867,2451.505594,296.082377,8068.244768
1434.002186,2604.724693,2072.576638,5773.606348
1434.002504,2834.553343,2664.741391,5329.482782
1434.002823,2298.286494,3330.926739,3923.091493
1434.003142,1225.752797,3775.050304,3775.050304
1434.003461,612.876398,3034.844362,5403.503377
1434.003780,-383.047749,2146.597232,7105.977043
1434.004099,-2068.457845,1110.308913,9178.553681
1434.004418,-2451.505594,-962.267725,13545.768739
1434.004737,-2681.334243,-2294.638420,15914.427753
1434.005056,-1685.410096,-1776.494261,17024.736666
1434.005374,0.000000,-740.205942,16358.551318
1434.005693,766.095498,1332.370696,14434.015869
1434.006012,1838.629195,2368.659014,11843.295072
1434.006331,2374.896044,4293.194464,8734.430116
1434.006650,2834.553343,4959.379811,6809.894666
1434.006969,2911.162892,6143.709319,5181.441594
1434.007288,2604.724693,6439.791695,3923.091493
1434.007607,1838.629195,4811.338623,4367.215058
1434.007926,612.876398,2738.761985,6883.915261
1434.008244,-766.095498,444.123565,9178.553681
1434.008563,-1838.629195,-814.226536,11621.233289
1434.008882,-2834.553343,-1998.556043,14434.015869
1434.009201,-2145.067394,-1554.432478,16062.468941
1434.009520,-1149.143247,-592.164754,16136.489536
1434.009839,-842.705048,-148.041188,15766.386565
1434.010158,612.876398,962.267725,13915.871710
1434.010477,1838.629195,2738.761985,10510.924376
1434.010796,2987.772442,3701.029710,8438.347739
1434.011114,3524.039291,3849.070898,6661.853478
1434.011433,3524.039291,3256.906145,5329.482782
1434.011752,2528.115143,2738.761985,4663.297435
1434.012071,1991.848295,1110.308913,5847.626942
1434.012390,1455.581446,148.041188,6217.729913
1434.012709,76.609550,-740.205942,8216.285956
1434.013028,0.000000,-2812.782580,11177.109724
1434.013347,-1608.800546,-3404.947333,13027.624579
1434.013666,-1608.800546,-3256.906145,14285.974681
1434.013984,-1378.971896,-3775.050304,14730.098246
1434.014303,-842.705048,-2886.803174,13767.830521
1434.014622,0.000000,-2738.761985,11251.130318
1434.014941,0.000000,-518.144159,9030.512492
1434.015260,383.047749,740.205942,7105.977043
1434.015579,842.705048,1554.432478,4885.359217
1434.015898,612.876398,2368.659014,3627.009116
1434.016217,306.438199,1702.473667,3478.967927
1434.016536,-459.657299,-0.000000,4737.318029
1434.016854,-1378.971896,-740.205942,6291.750507
1434.017173,-1225.752797,-1924.535449,8512.368333
1434.017492,-1455.581446,-2812.782580,10510.924376
1434.017811,-1149.143247,-3256.906145,12805.562797
1434.018130,-383.047749,-4071.132681,13175.665768
1434.018449,76.609550,-3701.029710,12583.501014
1434.018768,1302.362347,-2368.659014,10955.047942
1434.019087,2681.334243,-444.123565,8438.347739
1434.019406,3677.258390,2072.576638,5329.482782
1434.019724,4060.306139,2146.597232,3923.091493
1434.020043,3753.867940,1998.556043,3108.864956
1434.020362,2604.724693,962.267725,2960.823768
1434.020681,1302.362347,-148.041188,3997.112087
1434.021000,459.657299,-1628.453072,6143.709319
1434.021319,-76.609550,-2442.679609,7846.182985
1434.021638,-689.485948,-2960.823768,10732.986159
1434.021957,-1149.143247,-4293.194464,13027.624579
1434.022276,0.000000,-4071.132681,14656.077652
1434.022594,766.095498,-3108.864956,14211.954086
1434.022913,2068.457845,-1628.453072,13027.624579
1434.023232,2681.334243,-1332.370696,10955.047942
1434.023551,3370.820191,-296.082377,8290.306550
1434.023870,3294.210641,962.267725,6365.771101
1434.024189,3217.601092,1924.535449,4367.215058
1434.024508,2221.676944,1998.556043,3552.988522
1434.024827,995.924147,1554.432478,4145.153275
1434.025146,0.000000,1036.288319,5699.585753
1434.025464,-1685.410096,-666.185348,7328.038826
1434.025783,-2374.896044,-2442.679609,10066.800811
1434.026102,-3600.648841,-3627.009116,12953.603985
1434.026421,-3217.601092,-3627.009116,15248.242405
1434.026740,-2681.334243,-2886.803174,15692.365970
1434.027059,-919.314598,-962.267725,14656.077652
1434.027378,459.657299,-740.205942,14359.995275
1434.027697,1685.410096,1332.370696,10658.965565
1434.028016,3370.820191,2960.823768,7994.224174
1434.028334,3677.258390,4293.194464,5329.482782
1434.028653,3370.820191,4811.338623,4145.153275
1434.028972,2911.162892,4663.297435,3108.864956
1434.029291,1915.238745,3849.070898,4071.132681
1434.029610,459.657299,2072.576638,6439.791695
1434.029929,-689.485948,814.226536,8438.347739
1434.030248,-1225.752797,370.102971,9844.739029
1434.030567,-1762.019645,-444.123565,13027.624579
1434.030886,-1685.410096,-962.267725,14878.139434
1434.031204,-1149.143247,-148.041188,14359.995275
1434.031523,229.828649,-0.000000,14285.974681
1434.031842,1378.971896,814.226536,12657.521608
1434.032161,2068.457845,1702.473667,10288.862594
1434.032480,2834.553343,2738.761985,7254.018232
1434.032799,3294.210641,2960.823768,6661.853478
1434.033118,3370.820191,2812.782580,5403.503377
1434.033437,2451.505594,3182.885551,4589.276840
1434.033755,1762.019645,2220.617826,5551.544565
1434.034074,842.705048,666.185348,7402.059420
1434.034393,-766.095498,-814.226536,9844.739029
1434.034712,-1225.752797,-2368.659014,12361.439231
1434.035031,-1991.848295,-3182.885551,14656.077652
1434.035350,-1838.629195,-3404.947333,16062.468941
1434.035669,-1608.800546,-2590.720797,15988.448347
1434.035988,-842.705048,-1406.391290,14137.933492
1434.036307,459.657299,-222.061783,11399.171507
1434.036625,1302.362347,814.226536,9400.615463
1434.036944,1762.019645,1924.535449,7550.100608
1434.037263,2298.286494,2516.700203,5403.503377
1434.037582,2757.943793,2516.700203,4367.215058
1434.037901,1762.019645,1258.350101,4737.318029
1434.038220,842.705048,518.144159,5699.585753
1434.038539,153.219100,-814.226536,7105.977043
1434.038858,-842.705048,-1036.288319,9030.512492
1434.039177,-1762.019645,-1776.494261,11843.295072
1434.039495,-1762.019645,-2664.741391,13323.706956
1434.039814,-1455.581446,-2294.638420,14063.912898
1434.040133,-1072.533697,-2072.576638,13545.768739
1434.040452,-229.828649,-1184.329507,12065.356855
1434.040771,919.314598,370.102971,9474.636058
1434.041090,2451.505594,1924.535449,6883.915261
1434.041409,3370.820191,2516.700203,4515.256246
1434.041728,3830.477490,2146.597232,3330.926739
1434.042047,3140.991542,1406.391290,3404.947333
1434.042365,2604.724693,740.205942,3627.009116
1434.042684,2221.676944,-518.144159,4811.338623
1434.043003,766.095498,-1998.556043,7105.977043
1434.043322,-153.219100,-2442.679609,9474.636058
1434.043641,-612.876398,-3256.906145,11843.295072
1434.043960,-689.485948,-3775.050304,13323.706956
1434.044279,0.000000,-3923.091493,13915.871710
1434.044598,383.047749,-2294.638420,13545.768739
1434.044917,1838.629195,-1628.453072,11547.212695
1434.045235,2221.676944,-962.267725,8956.491898
1434.045554,2451.505594,-148.041188,6809.894666
1434.045873,3294.210641,740.205942,5255.462188
1434.046192,2987.772442,888.247130,4071.132681
1434.046511,2604.724693,1406.391290,4441.235652
1434.046830,1762.019645,296.082377,5181.441594
1434.047149,306.438199,-888.247130,6957.935855
1434.047468,-306.438199,-2664.741391,9104.533087
1434.047787,-1455.581446,-3478.967927,11843.295072
1434.048105,-2604.724693,-2664.741391,13249.686362
1434.048424,-2145.067394,-2442.679609,14508.036463
1434.048743,-1915.238745,-888.247130,14137.933492
1434.049062,-612.876398,-0.000000,12879.583391
1434.049381,459.657299,592.164754,10436.903782
1434.049700,306.438199,2072.576638,8586.388927
1434.050019,842.705048,2516.700203,6883.915261
1434.050338,536.266849,2886.803174,4959.379811
1434.050657,995.924147,2590.720797,5329.482782
1434.050975,229.828649,2516.700203,5773.606348
1434.051294,-383.047749,2516.700203,6217.729913
1434.051613,-536.266849,1776.494261,7772.162391
1434.051932,-383.047749,1036.288319,9548.656652
1434.052251,-995.924147,666.185348,11251.130318
1434.052570,-1302.362347,-0.000000,13101.645173
1434.052889,-1378.971896,-222.061783,14211.954086
1434.053208,-383.047749,518.144159,13767.830521
1434.053527,153.219100,1628.453072,12731.542202
1434.053845,995.924147,2516.700203,11029.068536
1434.054164,1225.752797,3330.926739,8956.491898
1434.054483,1532.190996,4145.153275,7476.080014
1434.054802,1838.629195,4367.215058,6291.750507
1434.055121,1762.019645,4367.215058,6143.709319
1434.055440,1532.190996,3478.967927,6587.832884
1434.055759,842.705048,1628.453072,8734.430116
1434.056078,459.657299,296.082377,9622.677246
1434.056397,919.314598,-814.226536,11399.171507
1434.056715,229.828649,-1110.308913,13175.665768
1434.057034,383.047749,-888.247130,13767.830521
1434.057353,919.314598,-444.123565,13915.871710
1434.057672,1762.019645,444.123565,13175.665768
1434.057991,1762.019645,666.185348,11621.233289
1434.058310,2068.457845,1406.391290,9326.594869
1434.058629,2298.286494,2738.761985,7328.038826
1434.058948,1762.019645,2664.741391,6217.729913
1434.059267,689.485948,2294.638420,5921.647536
1434.059585,0.000000,1998.556043,6291.750507
1434.059904,-459.657299,1480.411884,7179.997637
1434.060223,-1455.581446,-74.020594,8808.450710
1434.060542,-1608.800546,-962.267725,10436.903782
1434.060861,-1838.629195,-1480.411884,11991.336260
1434.061180,-1302.362347,-1332.370696,12879.583391
1434.061499,-536.266849,-814.226536,13249.686362
1434.061818,459.657299,-0.000000,12065.356855
1434.062137,1608.800546,1258.350101,10362.883188
1434.062455,2911.162892,1850.514855,8216.285956
1434.062774,3294.210641,2960.823768,5847.626942
1434.063093,3294.210641,3478.967927,3552.988522
1434.063412,2757.943793,2812.782580,3478.967927
1434.063731,1532.190996,1110.308913,4367.215058
1434.064050,229.828649,-148.041188,4885.359217
1434.064369,-766.095498,-592.164754,6883.915261
1434.064688,-1838.629195,-2294.638420,9326.594869
1434.065007,-2221.676944,-2812.782580,10955.047942
1434.065325,-2221.676944,-3404.947333,12879.583391
1434.065644,-1608.800546,-3330.926739,14211.954086
1434.065963,-1225.752797,-3108.864956,13915.871710
1434.066282,76.609550,-1924.535449,12213.398043
1434.066601,1455.581446,-1110.308913,10584.944971
1434.066920,2757.943793,-222.061783,7994.224174
1434.067239,3064.381992,740.205942,5847.626942
1434.067558,3140.991542,1702.473667,4219.173869
1434.067877,2681.334243,1850.514855,3330.926739
1434.068195,1762.019645,666.185348,4071.132681
1434.068514,0.000000,-518.144159,5921.647536
1434.068833,-1149.143247,-1776.494261,8438.347739
1434.069152,-2681.334243,-3182.885551,10436.903782
1434.069471,-3140.991542,-3108.864956,12953.603985
1434.069790,-3217.601092,-3478.967927,15026.180623
1434.070109,-2834.553343,-3256.906145,14656.077652
1434.070428,-1302.362347,-2072.576638,14730.098246
1434.070747,0.000000,-740.205942,13323.706956
1434.071065,1608.800546,1480.411884,10214.842000
1434.071384,3370.820191,2960.823768,7105.977043
1434.071703,4136.915689,4145.153275,5403.503377
1434.072022,4596.572988,4293.194464,3552.988522
1434.072341,3600.648841,5107.421000,2146.597232
1434.072660,3677.258390,5329.482782,3404.947333
1434.072979,2221.676944,4071.132681,5329.482782
1434.073298,459.657299,2664.741391,7031.956449
1434.073617,-766.095498,962.267725,10214.842000
1434.073935,-2145.067394,222.061783,12731.542202
1434.074254,-2681.334243,-518.144159,14656.077652
1434.074573,-2145.067394,-370.102971,15988.448347
1434.074892,-2451.505594,444.123565,14508.036463
1434.075211,-536.266849,1998.556043,13101.645173
1434.075530,0.000000,2960.823768,10881.027347
1434.075849,766.095498,4071.132681,7994.224174
1434.076168,1532.190996,4367.215058,6883.915261
1434.076487,1685.410096,4293.194464,5107.421000
1434.076805,1532.190996,4071.132681,4885.359217
1434.077124,919.314598,3997.112087,5033.400406
1434.077443,229.828649,2294.638420,7254.018232
1434.077762,-919.314598,518.144159,9326.594869
1434.078081,-1838.629195,-444.123565,11843.295072
1434.078400,-2834.553343,-444.123565,13175.665768
1434.078719,-2834.553343,-370.102971,14804.118840
1434.079038,-2451.505594,-444.123565,14952.160028
1434.079357,-1762.019645,-0.000000,14434.015869
1434.079675,-1532.190996,592.164754,12879.583391
1434.079994,-612.876398,1554.432478,10214.842000
1434.080313,-229.828649,2738.761985,7698.141797
1434.080632,229.828649,2960.823768,6661.853478
1434.080951,459.657299,2368.659014,6217.729913
1434.081270,0.000000,2294.638420,5255.462188
1434.081589,-459.657299,2220.617826,6291.750507
1434.081908,306.438199,1110.308913,7179.997637
1434.082227,-383.047749,592.164754,8956.491898
1434.082545,-459.657299,-296.082377,10955.047942
1434.082864,-766.095498,-666.185348,12509.480420
1434.083183,-229.828649,-1036.288319,13249.686362
1434.083502,459.657299,-592.164754,13027.624579
1434.083821,1225.752797,-0.000000,11843.295072
1434.084140,2604.724693,740.205942,10214.842000
1434.084459,3830.477490,1998.556043,7476.080014
1434.084778,4290.134789,2368.659014,5625.565159
1434.085097,4213.525239,1184.329507,5181.441594
1434.085415,3600.648841,962.267725,4663.297435
1434.085734,2911.162892,814.226536,4885.359217
1434.086053,2145.067394,-0.000000,6217.729913
1434.086372,1532.190996,-1924.535449,8290.306550
1434.086691,536.266849,-2368.659014,10066.800811
1434.087010,536.266849,-2368.659014,11621.233289
1434.087328,383.047749,-3256.906145,13471.748144
1434.087647,919.314598,-3108.864956,13397.727550
1434.087966,1685.410096,-2294.638420,12287.418637
1434.088285,2528.115143,-1110.308913,10584.944971
1434.088603,3217.601092,-370.102971,8734.430116
1434.088922,3370.820191,296.082377,6587.832884
1434.089241,2911.162892,1258.350101,4885.359217
1434.089560,1915.238745,814.226536,4441.235652
1434.089878,383.047749,-0.000000,4293.194464
1434.090197,-1149.143247,-222.061783,6217.729913
1434.090516,-2451.505594,-1184.329507,8142.265362
1434.090835,-3600.648841,-2516.700203,9696.697840
1434.091154,-4903.011187,-3108.864956,12509.480420
1434.091472,-4749.792088,-2960.823768,14730.098246
1434.091791,-3983.696590,-2960.823768,14508.036463
1434.092110,-2451.505594,-1924.535449,14211.954086
1434.092429,-1072.533697,-666.185348,13101.645173
1434.092747,383.047749,888.247130,9992.780217
1434.093066,2604.724693,2368.659014,6735.874072
1434.093385,2987.772442,4219.173869,3256.906145
1434.093704,3600.648841,4145.153275,2368.659014
1434.094022,3064.381992,4663.297435,1998.556043
1434.094341,1915.238745,3627.009116,2368.659014
1434.094660,0.000000,2442.679609,4663.297435
1434.094979,-2221.676944,1110.308913,8216.285956
1434.095298,-4290.134789,-222.061783,10288.862594
1434.095616,-4673.182538,-1184.329507,13175.665768
1434.095935,-4673.182538,-962.267725,14952.160028
1434.096254,-3600.648841,-1184.329507,16210.510130
1434.096573,-2145.067394,-74.020594,15100.201217
1434.096891,-229.828649,1184.329507,13841.851115
1434.097210,1991.848295,2072.576638,11473.192101
1434.097529,3447.429741,2812.782580,8438.347739
1434.097848,4979.620737,4515.256246,5255.462188
1434.098167,5439.278036,5181.441594,3775.050304
1434.098485,5669.106685,5033.400406,3108.864956
1434.098804,4903.011187,4367.215058,3330.926739
1434.099123,3600.648841,3404.947333,4885.359217
1434.099442,1838.629195,1184.329507,7624.121203
1434.099760,-459.657299,-888.247130,11473.192101
1434.100079,-2451.505594,-1924.535449,13767.830521
1434.100398,-3064.381992,-2368.659014,16136.489536
1434.100717,-2987.772442,-2072.576638,17246.798449
1434.101035,-1838.629195,-2368.659014,17098.757260
1434.101354,-1225.752797,-888.247130,15396.283594
1434.101673,842.705048,740.205942,11991.336260
1434.101992,1225.752797,1776.494261,8512.368333
1434.102311,2221.676944,2738.761985,6217.729913
1434.102629,2451.505594,3330.926739,5107.421000
1434.102948,2374.896044,3330.926739,4071.132681
1434.103267,1378.971896,2960.823768,4959.379811
1434.103586,689.485948,1850.514855,6809.894666
1434.103904,-383.047749,370.102971,8734.430116
1434.104223,-1149.143247,-740.205942,11029.068536
1434.104542,-2068.457845,-2664.741391,13397.727550
1434.104861,-2145.067394,-2664.741391,15248.242405
1434.105179,-1685.410096,-2812.782580,15396.283594
1434.105498,-612.876398,-1850.514855,14359.995275
1434.105817,306.438199,-814.226536,12361.439231
1434.106136,2068.457845,814.226536,9696.697840
1434.106455,2834.553343,1702.473667,6143.709319
1434.106773,3753.867940,1998.556043,4293.194464
1434.107092,2911.162892,1554.432478,4071.132681
1434.107411,2528.115143,1628.453072,3330.926739
1434.107730,2145.067394,592.164754,4441.235652
1434.108048,1225.752797,-1184.329507,6661.853478
1434.108367,536.266849,-2220.617826,8660.409521
1434.108686,0.000000,-2146.597232,10288.862594
1434.109005,306.438199,-2960.823768,12879.583391
1434.109323,153.219100,-3404.947333,13545.768739
1434.109642,919.314598,-3404.947333,14063.912898
1434.109961,1685.410096,-2220.617826,12879.583391
1434.110280,2145.067394,-962.267725,10362.883188
1434.110599,2834.553343,-814.226536,8142.265362
1434.110917,3140.991542,1036.288319,5181.441594
1434.111236,2987.772442,1702.473667,3627.009116
1434.111555,2451.505594,1110.308913,2664.741391
1434.111874,1072.533697,814.226536,3404.947333
1434.112192,153.219100,-888.247130,5403.503377
1434.112511,-1225.752797,-1924.535449,7031.956449
1434.112830,-2298.286494,-3330.926739,9252.574275
1434.113149,-3447.429741,-3552.988522,11399.171507
1434.113468,-3217.601092,-3478.967927,13323.706956
1434.113786,-2451.505594,-3849.070898,14656.077652
1434.114105,-1225.752797,-2146.597232,13767.830521
1434.114424,-306.438199,-370.102971,11843.295072
1434.114743,842.705048,1850.514855,8956.491898
1434.115061,3140.991542,2664.741391,7254.018232
1434.115380,2145.067394,2664.741391,4811.338623
1434.115699,1685.410096,4515.256246,3330.926739
1434.116018,2374.896044,4441.235652,2516.700203
1434.116336,459.657299,5107.421000,1184.329507
1434.116655,-536.266849,444.123565,6439.791695
1434.116974,-1149.143247,-2664.741391,10881.027347
1434.117293,-2298.286494,-2146.597232,11843.295072
1434.117612,-2145.067394,-1924.535449,11695.253884
1434.117930,-2298.286494,-1554.432478,14359.995275
1434.118249,-842.705048,-666.185348,15396.283594
1434.118568,1072.533697,-962.267725,13397.727550
1434.118887,229.828649,444.123565,12139.377449
1434.119205,2145.067394,1628.453072,11399.171507
1434.119524,3524.039291,4145.153275,6365.771101
1434.119843,4060.306139,4885.359217,4515.256246
1434.120162,3600.648841,2664.741391,6143.709319
1434.120480,2681.334243,2664.741391,5921.647536
1434.120799,1762.019645,1776.494261,5033.400406
1434.121118,1225.752797,814.226536,8734.430116
1434.121437,689.485948,-148.041188,10732.986159
1434.121756,-229.828649,-1406.391290,12435.459826
1434.122074,-612.876398,-1332.370696,14063.912898
1434.122393,-536.266849,-2738.761985,15840.407159
1434.122712,0.000000,-3404.947333,15174.221811
1434.123031,0.000000,-740.205942,14285.974681
1434.123349,2068.457845,-0.000000,12509.480420
1434.123668,1455.581446,1184.329507,8512.368333
1434.123987,2068.457845,2220.617826,7772.162391
1434.124306,2604.724693,2294.638420,6809.894666
1434.124624,1991.848295,2664.741391,4515.256246
1434.124943,1532.190996,2368.659014,4737.318029
1434.125262,306.438199,2886.803174,6217.729913
1434.125581,-766.095498,1628.453072,7772.162391
1434.125900,-1762.019645,-962.267725,9696.697840
1434.126218,-2604.724693,-2294.638420,13915.871710
1434.126537,-2834.553343,-2886.803174,15618.345376
1434.126856,-1915.238745,-1332.370696,14137.933492
1434.127175,-383.047749,-296.082377,13619.789333
1434.127493,0.000000,518.144159,12805.562797
1434.127812,842.705048,888.247130,9474.636058
1434.128131,2451.505594,1702.473667,6735.874072
1434.128450,2757.943793,2516.700203,5107.421000
1434.128769,2911.162892,2442.679609,3997.112087
1434.129087,2451.505594,1998.556043,3182.885551
1434.129406,1378.971896,1258.350101,3404.947333
1434.129725,229.828649,-0.000000,5477.523971
1434.130044,-612.876398,-888.247130,7994.224174
1434.130362,-995.924147,-1184.329507,9474.636058
1434.130681,-766.095498,-1776.494261,11843.295072
1434.131000,-1072.533697,-2294.638420,13545.768739
1434.131319,-383.047749,-2738.761985,14434.015869
1434.131637,1225.752797,-2220.617826,13841.851115
1434.131956,1838.629195,-666.185348,10955.047942
1434.132275,2681.334243,296.082377,8512.368333
1434.132594,3753.867940,1406.391290,5921.647536
1434.132913,4136.915689,1850.514855,4515.256246
1434.133231,3677.258390,1554.432478,3182.885551
1434.133550,2757.943793,1184.329507,3330.926739
1434.133869,1302.362347,-0.000000,4589.276840
1434.134188,-306.438199,-1184.329507,6291.750507
1434.134506,-1991.848295,-2886.803174,8882.471304
1434.134825,-2987.772442,-3997.112087,11843.295072
1434.135144,-2987.772442,-3923.091493,14359.995275
1434.135463,-2681.334243,-3552.988522,14359.995275
1434.135781,-1762.019645,-2442.679609,14211.954086
1434.136100,-153.219100,-740.205942,13323.706956
1434.136419,995.924147,370.102971,10807.006753
1434.136738,2145.067394,1036.288319,7846.182985
1434.137057,2681.334243,2294.638420,6439.791695
1434.137375,3140.991542,3404.947333,4811.338623
1434.137694,2451.505594,3108.864956,3404.947333
1434.138013,2374.896044,2368.659014,3701.029710
1434.138332,1072.533697,1184.329507,5995.668130
1434.138650,0.000000,-592.164754,7476.080014
1434.138969,-1302.362347,-2146.597232,10066.800811
1434.139288,-2374.896044,-2664.741391,12879.583391
1434.139607,-2298.286494,-2812.782580,14359.995275
1434.139925,-1455.581446,-2146.597232,15100.201217
1434.140244,-689.485948,-740.205942,14508.036463
1434.140563,229.828649,222.061783,13323.706956
1434.140882,1685.410096,1628.453072,10214.842000
1434.141201,3064.381992,2146.597232,8586.388927
1434.141519,3370.820191,3108.864956,6513.812290
1434.141838,3677.258390,2960.823768,5107.421000
1434.142157,3600.648841,2220.617826,5033.400406
1434.142476,2834.553343,1332.370696,5403.503377
1434.142794,1608.800546,888.247130,6883.915261
1434.143113,383.047749,-0.000000,8216.285956
1434.143432,0.000000,-370.102971,10510.924376
1434.143751,-995.924147,-1184.329507,12583.501014
1434.144069,-1072.533697,-1036.288319,14211.954086
1434.144388,-1532.190996,-888.247130,14656.077652
1434.144707,-995.924147,-74.020594,14656.077652
1434.145026,-689.485948,592.164754,12583.501014
1434.145345,766.095498,1554.432478,9548.656652
1434.145663,842.705048,2590.720797,8142.265362
1434.145982,1302.362347,3330.926739,6587.832884
1434.146301,1532.190996,3627.009116,4663.297435
1434.146620,1608.800546,3701.029710,4589.276840
1434.146938,1378.971896,3330.926739,5551.544565
1434.147257,306.438199,2738.761985,6143.709319
1434.147576,-459.657299,1628.453072,7698.141797
1434.147895,-1302.362347,1406.391290,10362.883188
1434.148214,-1302.362347,1184.329507,11769.274478
1434.148532,-919.314598,296.082377,12361.439231
1434.148851,-766.095498,444.123565,13175.665768
1434.149170,0.000000,1036.288319,12509.480420
1434.149489,-153.219100,1702.473667,10066.800811
1434.149807,536.266849,1776.494261,8438.347739
1434.150126,995.924147,3108.864956,7328.038826
1434.150445,1302.362347,3997.112087,5773.606348
1434.150764,1302.362347,3627.009116,4959.379811
1434.151082,1149.143247,2368.659014,6291.750507
1434.151401,0.000000,2368.659014,7328.038826
1434.151720,536.266849,962.267725,7994.224174
1434.152039,-689.485948,-74.020594,9622.677246
1434.152358,-919.314598,-444.123565,11843.295072
1434.152676,-153.219100,-1480.411884,12583.501014
1434.152995,-229.828649,-2442.679609,13323.706956
1434.153314,536.266849,-2368.659014,13841.851115
1434.153633,1149.143247,-1036.288319,11695.253884
1434.153951,1762.019645,-222.061783,9696.697840
1434.154270,2528.115143,-0.000000,8660.409521
1434.154589,2145.067394,814.226536,7031.956449
1434.154908,1685.410096,296.082377,6513.812290
1434.155226,766.095498,-148.041188,5921.647536
1434.155545,0.000000,-0.000000,7476.080014
1434.155864,-459.657299,-740.205942,8512.368333
1434.156183,-1532.190996,-1258.350101,9400.615463
1434.156502,-1685.410096,-2368.659014,11473.192101
1434.156820,-1915.238745,-2738.761985,13397.727550
1434.157139,-1762.019645,-3256.906145,13693.809927
1434.157458,-306.438199,-2960.823768,14211.954086
1434.157777,0.000000,-1258.350101,12657.521608
1434.158095,1302.362347,-296.082377,10362.883188
1434.158414,1991.848295,148.041188,8216.285956
1434.158733,3217.601092,666.185348,6069.688724
1434.159052,3140.991542,1406.391290,5551.544565
1434.159370,2451.505594,1850.514855,4145.153275
1434.159689,1685.410096,1332.370696,4145.153275
1434.160008,612.876398,1110.308913,5107.421000
1434.160327,-306.438199,-0.000000,7624.121203
1434.160646,-1225.752797,-1184.329507,9030.512492
1434.160964,-1991.848295,-1184.329507,10584.944971
1434.161283,-1991.848295,-814.226536,11917.315666
1434.161602,-1608.800546,-1628.453072,13323.706956
1434.161921,-842.705048,-814.226536,13101.645173
1434.162239,306.438199,-74.020594,11843.295072
1434.162558,919.314598,740.205942,10140.821405
1434.162877,2298.286494,1850.514855,7846.182985
1434.163196,2911.162892,2812.782580,5477.523971
1434.163515,3524.039291,3923.091493,4219.173869
1434.163833,3753.867940,3108.864956,3775.050304
1434.164152,2145.067394,2738.761985,4515.256246
1434.164471,1072.533697,1480.411884,5773.606348
1434.164790,153.219100,296.082377,7624.121203
1434.165108,-1378.971896,-370.102971,9474.636058
1434.165427,-2604.724693,-1332.370696,11177.109724
1434.165746,-2834.553343,-1628.453072,13101.645173
1434.166065,-2068.457845,-1184.329507,13841.851115
1434.166383,-1149.143247,-0.000000,13989.892304
1434.166702,-995.924147,740.205942,12583.501014
1434.167021,-76.609550,1776.494261,10881.027347
1434.167340,306.438199,2516.700203,8586.388927
1434.167659,1072.533697,3404.947333,7920.203579
1434.167977,842.705048,3552.988522,5921.647536
1434.168296,995.924147,4367.215058,5107.421000
1434.168615,842.705048,3775.050304,5847.626942
1434.168934,0.000000,2146.597232,7402.059420
1434.169252,-689.485948,1110.308913,9548.656652
1434.169571,-1532.190996,592.164754,10584.944971
1434.169890,-2068.457845,148.041188,12287.418637
1434.170209,-1378.971896,222.061783,14063.912898
1434.170527,-842.705048,370.102971,13767.830521
1434.170846,0.000000,2442.679609,13323.706956
1434.171165,842.705048,2368.659014,12287.418637
1434.171484,1608.800546,2590.720797,10066.800811
1434.171803,2068.457845,2738.761985,8364.327145
1434.172121,2757.943793,3108.864956,6513.812290
1434.172440,2451.505594,3330.926739,5255.462188
1434.172759,2298.286494,2590.720797,5403.503377
1434.173078,1685.410096,2146.597232,6883.915261
1434.173396,842.705048,814.226536,8512.368333
1434.173715,612.876398,-0.000000,9770.718434
1434.174034,-153.219100,-222.061783,11843.295072
1434.174353,76.609550,-740.205942,13545.768739
1434.174671,76.609550,-1924.535449,13989.892304
1434.174990,383.047749,-1850.514855,14211.954086
1434.175309,919.314598,-888.247130,13249.686362
1434.175628,1838.629195,-370.102971,10732.986159
1434.175947,2528.115143,370.102971,8290.306550
1434.176265,2987.772442,592.164754,6809.894666
1434.176584,2681.334243,444.123565,5921.647536
1434.176903,1532.190996,814.226536,4737.318029
1434.177222,1072.533697,296.082377,5625.565159
1434.177540,-536.266849,-740.205942,6883.915261
1434.177859,-1608.800546,-1924.535449,8660.409521
1434.178178,-2221.676944,-3034.844362,10658.965565
1434.178497,-2604.724693,-3404.947333,12583.501014
1434.178816,-2068.457845,-3775.050304,13693.809927
1434.179134,-1302.362347,-3330.926739,12953.603985
1434.179453,-536.266849,-1628.453072,12213.398043
1434.179772,689.485948,-518.144159,10807.006753
1434.180091,1762.019645,962.267725,8216.285956
1434.180409,2221.676944,1258.350101,5847.626942
1434.180728,2298.286494,1998.556043,4219.173869
1434.181047,1915.238745,2294.638420,3256.906145
1434.181366,1072.533697,1554.432478,3256.906145
1434.181684,0.000000,1628.453072,4441.235652
1434.182003,-689.485948,222.061783,6735.874072
1434.182322,-1608.800546,-888.247130,8660.409521
1434.182641,-1991.848295,-1776.494261,10658.965565
1434.182960,-1685.410096,-1702.473667,12435.459826
1434.183278,-1685.410096,-1776.494261,13249.686362
1434.183597,-536.266849,-1554.432478,12583.501014
1434.183916,229.828649,-74.020594,11769.274478
1434.184235,1225.752797,444.123565,9992.780217
1434.184553,2145.067394,1184.329507,7105.977043
1434.184872,2528.115143,2220.617826,4737.318029
1434.185188,2834.553343,2664.741391,4441.235652
1434.185507,2145.067394,1998.556043,3256.906145
1434.185825,1455.581446,1776.494261,3627.009116
1434.186144,306.438199,592.164754,6809.894666
1434.186463,-766.095498,-148.041188,9474.636058
1434.186782,-1149.143247,-592.164754,10436.903782
1434.187101,-1532.190996,-1110.308913,12139.377449
1434.187419,-1762.019645,-1258.350101,14285.974681
1434.187738,-1225.752797,-1850.514855,15100.201217
1434.188057,-536.266849,-1850.514855,14211.954086
1434.188376,459.657299,-0.000000,12583.501014
1434.188695,1302.362347,1258.350101,10362.883188
1434.189014,1608.800546,1702.473667,7550.100608
1434.189332,1838.629195,2442.679609,6217.729913
1434.189651,1915.238745,3256.906145,5181.441594
1434.189970,1455.581446,3404.947333,4737.318029
1434.190289,995.924147,2590.720797,5329.482782
1434.190608,0.000000,1702.473667,8068.244768
1434.190926,-1072.533697,444.123565,10362.883188
1434.191245,-1991.848295,-1554.432478,12731.542202
1434.191564,-2221.676944,-2146.597232,15026.180623
1434.191883,-1915.238745,-1628.453072,16284.530724
1434.192202,-306.438199,-444.123565,15100.201217
1434.192521,995.924147,1110.308913,14137.933492
1434.192839,2298.286494,2146.597232,11843.295072
1434.193158,3447.429741,3256.906145,9178.553681
1434.193477,4443.353888,2812.782580,6365.771101
1434.193796,4903.011187,3330.926739,4663.297435
1434.194115,4060.306139,2960.823768,4367.215058
1434.194433,3370.820191,2368.659014,3997.112087
1434.194752,2145.067394,1184.329507,5773.606348
1434.195071,766.095498,-0.000000,8438.347739
1434.195390,-306.438199,-740.205942,10362.883188
1434.195709,-1455.581446,-1332.370696,12065.356855
1434.196027,-2068.457845,-1924.535449,14582.057057
1434.196346,-1608.800546,-2516.700203,16136.489536
1434.196665,-459.657299,-2220.617826,15100.201217
1434.196984,306.438199,-518.144159,13397.727550
1434.197303,1915.238745,888.247130,11325.150913
1434.197622,3064.381992,1554.432478,7994.224174
1434.197940,3907.087040,1776.494261,5329.482782
1434.198259,3677.258390,1776.494261,4145.153275
1434.198578,2911.162892,1110.308913,2960.823768
1434.198897,2068.457845,296.082377,3701.029710
1434.199216,383.047749,-222.061783,5847.626942
1434.199534,-1225.752797,-1406.391290,7846.182985
1434.199853,-2221.676944,-2072.576638,8808.450710
1434.200172,-3524.039291,-3182.885551,11843.295072
1434.200491,-3524.039291,-3701.029710,14211.954086
1434.200810,-3370.820191,-3404.947333,14508.036463
1434.201129,-2298.286494,-3108.864956,14137.933492
1434.201447,-1225.752797,-1554.432478,12583.501014
1434.201766,459.657299,-222.061783,10140.821405
1434.202085,2374.896044,740.205942,6217.729913
1434.202404,2451.505594,1480.411884,4145.153275
1434.202723,2528.115143,2442.679609,2886.803174
1434.203041,2374.896044,2590.720797,2516.700203
1434.203360,1762.019645,2664.741391,3108.864956
1434.203679,842.705048,1554.432478,5773.606348
1434.203998,-153.219100,-148.041188,7772.162391
1434.204317,-995.924147,-1554.432478,9770.718434
1434.204636,-1608.800546,-2368.659014,11991.336260
1434.204954,-1608.800546,-2442.679609,14063.912898
1434.205273,-766.095498,-2516.700203,14359.995275
1434.205592,306.438199,-1258.350101,12879.583391
1434.205911,1302.362347,-148.041188,12139.377449
1434.206230,2528.115143,1036.288319,9104.533087
1434.206548,3064.381992,1998.556043,6439.791695
1434.206867,3983.696590,2590.720797,4589.276840
1434.207186,3064.381992,3256.906145,3182.885551
1434.207505,2528.115143,2220.617826,3701.029710
1434.207824,1532.190996,1258.350101,5329.482782
1434.208143,612.876398,-148.041188,8216.285956
1434.208461,-612.876398,-1332.370696,10362.883188
1434.208780,-995.924147,-1924.535449,12731.542202
1434.209099,-1225.752797,-2590.720797,14359.995275
1434.209418,-842.705048,-2146.597232,15100.201217
1434.209737,0.000000,-1998.556043,15396.283594
1434.210055,689.485948,-592.164754,13397.727550
1434.210374,1455.581446,370.102971,11621.233289
1434.210693,1991.848295,1258.350101,8512.368333
1434.211012,2528.115143,2294.638420,6587.832884
1434.211331,2145.067394,3330.926739,4589.276840
1434.211649,1915.238745,3404.947333,3404.947333
1434.211968,995.924147,2220.617826,4441.235652
1434.212287,0.000000,1850.514855,6217.729913
1434.212606,-1149.143247,888.247130,8734.430116
1434.212925,-1608.800546,-518.144159,11177.109724
1434.213244,-2221.676944,-1110.308913,13693.809927
1434.213562,-1838.629195,-1332.370696,15470.304188
1434.213881,-1149.143247,-370.102971,14434.015869
1434.214200,0.000000,-0.000000,14211.954086
1434.214519,1302.362347,740.205942,13027.624579
1434.214838,2145.067394,1480.411884,10214.842000
1434.215156,2911.162892,1998.556043,6661.853478
1434.215475,3370.820191,3330.926739,4589.276840
1434.215794,2757.943793,2886.803174,3330.926739
1434.216113,2374.896044,2516.700203,2664.741391
1434.216432,1072.533697,1776.494261,4441.235652
1434.216751,0.000000,1258.350101,6957.935855
1434.217069,-842.705048,-444.123565,9474.636058
1434.217388,-2145.067394,-1258.350101,11843.295072
1434.217707,-2451.505594,-2146.597232,14582.057057
1434.218026,-2068.457845,-2516.700203,15766.386565
1434.218345,-1378.971896,-1924.535449,15174.221811
1434.218663,0.000000,-1628.453072,13841.851115
1434.218982,1302.362347,-222.061783,11695.253884
1434.219301,2834.553343,1332.370696,8438.347739
1434.219620,3677.258390,2220.617826,5921.647536
1434.219939,3600.648841,2664.741391,4071.132681
1434.220258,2911.162892,2146.597232,3108.864956
1434.220576,1608.800546,1628.453072,3034.844362
1434.220895,229.828649,1184.329507,4441.235652
1434.221214,-919.314598,-370.102971,7254.018232
1434.221533,-2145.067394,-1406.391290,10288.862594
1434.221852,-3294.210641,-2664.741391,12583.501014
1434.222170,-3677.258390,-3552.988522,14434.015869
1434.222489,-2911.162892,-3034.844362,16062.468941
1434.222808,-1455.581446,-2368.659014,15100.201217
1434.223127,153.219100,-888.247130,13101.645173
1434.223446,1685.410096,888.247130,10658.965565
1434.223765,3064.381992,1554.432478,7698.141797
1434.224083,4136.915689,2738.761985,4367.215058
1434.224402,4060.306139,3478.967927,2812.782580
1434.224721,3447.429741,2738.761985,2146.597232
1434.225040,2451.505594,2072.576638,2516.700203
1434.225359,1455.581446,1480.411884,4663.297435
1434.225677,-229.828649,-0.000000,7698.141797
1434.225996,-1838.629195,-1332.370696,9770.718434
1434.226315,-1991.848295,-2368.659014,12805.562797
1434.226634,-2298.286494,-2812.782580,15322.262999
1434.226953,-2068.457845,-2442.679609,15470.304188
1434.227272,-1378.971896,-1924.535449,14804.118840
1434.227590,383.047749,-148.041188,13027.624579
1434.227909,1915.238745,296.082377,10288.862594
1434.228228,2987.772442,1258.350101,6661.853478
1434.228547,4213.525239,2516.700203,5033.400406
1434.228866,3983.696590,2664.741391,3404.947333
1434.229184,3600.648841,2516.700203,2590.720797
1434.229503,2681.334243,1554.432478,3997.112087
1434.229822,1149.143247,1258.350101,5699.585753
1434.230141,-153.219100,-148.041188,8882.471304
1434.230460,-1991.848295,-1554.432478,10881.027347
1434.230778,-2451.505594,-1998.556043,14211.954086
1434.231097,-2604.724693,-1998.556043,16062.468941
1434.231416,-2528.115143,-2442.679609,15618.345376
1434.231735,-1991.848295,-2294.638420,15470.304188
1434.232054,-1072.533697,-814.226536,12953.603985
1434.232373,612.876398,518.144159,9992.780217
1434.232691,1915.238745,2220.617826,6957.935855
1434.233010,2834.553343,3775.050304,4959.379811
1434.233329,2834.553343,3997.112087,3330.926739
1434.233648,2451.505594,3701.029710,3108.864956
1434.233967,1838.629195,2886.803174,4293.194464
1434.234285,1149.143247,2368.659014,6883.915261
1434.234604,-153.219100,1184.329507,8660.409521
1434.234923,-1378.971896,-0.000000,11547.212695
1434.235242,-919.314598,-1258.350101,15100.201217
1434.235561,-1608.800546,-1332.370696,15100.201217
1434.235880,-766.095498,-740.205942,14730.098246
1434.236198,306.438199,-0.000000,14211.954086
1434.236517,1838.629195,888.247130,11917.315666
1434.236836,1838.629195,1776.494261,8808.450710
1434.237155,2834.553343,3404.947333,6735.874072
1434.237474,3524.039291,4515.256246,4811.338623
1434.237792,3524.039291,4737.318029,3256.906145
1434.238111,2834.553343,3849.070898,4071.132681
1434.238430,2145.067394,3108.864956,5625.565159
1434.238749,919.314598,1628.453072,7994.224174
1434.239068,-229.828649,-0.000000,10066.800811
1434.239387,-995.924147,-1184.329507,12731.542202
1434.239705,-1302.362347,-1776.494261,14582.057057
1434.240024,-766.095498,-2072.576638,14804.118840
1434.240343,-229.828649,-1332.370696,14359.995275
1434.240662,383.047749,-592.164754,13101.645173
1434.240981,1302.362347,444.123565,10362.883188
1434.241299,1915.238745,1332.370696,7254.018232
1434.241618,2374.896044,2368.659014,5403.503377
1434.241937,1455.581446,2294.638420,4737.318029
1434.242256,689.485948,1406.391290,4441.235652
1434.242575,-689.485948,666.185348,5477.523971
1434.242894,-1685.410096,444.123565,7328.038826
1434.243212,-2451.505594,-74.020594,9104.533087
1434.243531,-2987.772442,-1406.391290,11103.089130
1434.243850,-3217.601092,-1776.494261,13323.706956
1434.244169,-2757.943793,-2072.576638,14434.015869
1434.244488,-1991.848295,-1776.494261,14211.954086
1434.244806,-306.438199,-740.205942,12879.583391
1434.245125,689.485948,-222.061783,11177.109724
1434.245444,1685.410096,-0.000000,9030.512492
1434.245763,2298.286494,518.144159,6735.874072
1434.246082,2451.505594,1702.473667,4441.235652
1434.246400,2145.067394,1776.494261,3330.926739
1434.246719,1225.752797,1406.391290,3330.926739
1434.247038,459.657299,1110.308913,5107.421000
1434.247357,-766.095498,-74.020594,7402.059420
1434.247676,-1762.019645,-1332.370696,9844.739029
1434.247995,-2298.286494,-2368.659014,11991.336260
1434.248313,-1991.848295,-2516.700203,14211.954086
1434.248632,-1225.752797,-2368.659014,15174.221811
1434.248951,-229.828649,-1998.556043,14211.954086
1434.249270,1149.143247,-1258.350101,12805.562797
1434.249589,2757.943793,-0.000000,10214.842000
1434.249907,3983.696590,1702.473667,6883.915261
1434.250226,4443.353888,2294.638420,4811.338623
1434.250545,4443.353888,2516.700203,3923.091493
1434.250864,4290.134789,2516.700203,3256.906145
1434.251183,2757.943793,1554.432478,4293.194464
1434.251502,1532.190996,740.205942,6365.771101
1434.251820,153.219100,-0.000000,8290.306550
1434.252139,-995.924147,-666.185348,9844.739029
1434.252458,-1838.629195,-1776.494261,12805.562797
1434.252777,-2298.286494,-2664.741391,14508.036463
1434.253096,-1991.848295,-2516.700203,14211.954086
1434.253414,-1302.362347,-1332.370696,13397.727550
1434.253733,0.000000,-0.000000,11843.295072
1434.254052,306.438199,814.226536,9696.697840
1434.254371,1302.362347,1776.494261,7105.977043
1434.254690,1532.190996,3108.864956,5477.523971
1434.255009,1762.019645,3552.988522,3997.112087
1434.255327,1302.362347,3330.926739,3997.112087
1434.255646,919.314598,2738.761985,5625.565159
1434.255965,-229.828649,1924.535449,7402.059420
1434.256284,-1455.581446,1258.350101,8956.491898
1434.256603,-2374.896044,-0.000000,11473.192101
1434.256921,-2451.505594,-0.000000,13101.645173
1434.257240,-1991.848295,-0.000000,13915.871710
1434.257559,-1302.362347,592.164754,13989.892304
1434.257878,-306.438199,1110.308913,13323.706956
1434.258197,689.485948,1480.411884,11399.171507
1434.258516,1532.190996,2220.617826,8808.450710
1434.258834,2221.676944,3182.885551,6957.935855
1434.259153,3140.991542,4441.235652,5699.585753
1434.259472,3140.991542,4071.132681,4737.318029
1434.259791,3064.381992,3034.844362,5181.441594
1434.260110,2451.505594,2664.741391,7105.977043
1434.260428,689.485948,1258.350101,8660.409521
1434.260747,76.609550,370.102971,10658.965565
1434.261066,-536.266849,-666.185348,12657.521608
1434.261385,-1072.533697,-814.226536,14211.954086
1434.261704,-842.705048,-1776.494261,14952.160028
1434.262022,-536.266849,-1406.391290,14063.912898
1434.262341,689.485948,-518.144159,13101.645173
1434.262660,1455.581446,296.082377,10881.027347
1434.262979,2451.505594,962.267725,8660.409521
1434.263298,2068.457845,1184.329507,6587.832884
1434.263617,2451.505594,1406.391290,6291.750507
1434.263935,2528.115143,1628.453072,5403.503377
1434.264254,1532.190996,1332.370696,5181.441594
1434.264573,612.876398,1036.288319,6957.935855
1434.264892,-459.657299,-148.041188,8586.388927
1434.265211,-1302.362347,-1480.411884,10288.862594
1434.265529,-1991.848295,-2664.741391,12139.377449
1434.265848,-2757.943793,-3108.864956,13915.871710
1434.266167,-2374.896044,-3108.864956,13989.892304
1434.266486,-1532.190996,-1776.494261,12879.583391
1434.266805,-612.876398,-888.247130,11769.274478
1434.267124,383.047749,-0.000000,9474.636058
1434.267442,1149.143247,444.123565,7476.080014
1434.267761,1838.629195,1702.473667,5477.523971
1434.268080,1838.629195,1998.556043,4219.173869
1434.268399,1915.238745,1924.535449,3923.091493
1434.268718,1302.362347,1184.329507,4885.359217
1434.269036,536.266849,666.185348,6143.709319
1434.269355,-612.876398,-296.082377,7846.182985
1434.269674,-536.266849,-814.226536,8956.491898
1434.269993,-612.876398,-1480.411884,10732.986159
1434.270312,-842.705048,-1776.494261,12509.480420
1434.270631,-383.047749,-1332.370696,12139.377449
1434.270949,-153.219100,-1110.308913,11991.336260
1434.271268,76.609550,-444.123565,10881.027347
1434.271587,1149.143247,-0.000000,8734.430116
1434.271906,1685.410096,1480.411884,6069.688724
1434.272225,1608.800546,1850.514855,5107.421000
1434.272543,1608.800546,1184.329507,5477.523971
1434.272862,919.314598,814.226536,5329.482782
1434.273181,306.438199,592.164754,6365.771101
1434.273500,0.000000,-0.000000,7920.203579
1434.273819,-383.047749,-962.267725,9474.636058
1434.274138,-459.657299,-1110.308913,11251.130318
1434.274456,-612.876398,-1036.288319,12139.377449
1434.274775,0.000000,-1258.350101,12657.521608
1434.275094,536.266849,-1628.453072,12731.542202
1434.275413,1149.143247,-814.226536,12065.356855
1434.275732,1532.190996,-0.000000,9992.780217
1434.276050,1915.238745,518.144159,7624.121203
1434.276369,1302.362347,1998.556043,7179.997637
1434.276688,919.314598,2368.659014,6439.791695
1434.277007,459.657299,2368.659014,5921.647536
1434.277326,-306.438199,2368.659014,6883.915261
1434.277645,-689.485948,1480.411884,9030.512492
1434.277963,-1455.581446,222.061783,10436.903782
1434.278282,-2145.067394,-1036.288319,11991.336260
1434.278601,-1838.629195,-1258.350101,13841.851115
1434.278920,-612.876398,-222.061783,14137.933492
1434.279239,1149.143247,592.164754,13101.645173
1434.279557,2681.334243,1184.329507,12287.418637
1434.279876,3983.696590,2368.659014,10584.944971
1434.280195,4749.792088,3108.864956,7772.162391
1434.280514,5056.230287,2960.823768,5995.668130
1434.280833,4443.353888,3404.947333,5107.421000
1434.281151,3447.429741,3034.844362,4737.318029
1434.281470,2374.896044,2812.782580,5477.523971
1434.281789,995.924147,1850.514855,6513.812290
1434.282108,-842.705048,814.226536,9770.718434
1434.282427,-1532.190996,370.102971,11103.089130
1434.282746,-2221.676944,-814.226536,12583.501014
1434.283064,-2298.286494,-2294.638420,14285.974681
1434.283383,-1991.848295,-2368.659014,15840.407159
1434.283702,-919.314598,-1998.556043,14952.160028
1434.284021,76.609550,-1036.288319,12805.562797
1434.284340,1378.971896,518.144159,11177.109724
1434.284658,2911.162892,1406.391290,7846.182985
1434.284977,3524.039291,2516.700203,5107.421000
1434.285296,3830.477490,2960.823768,3552.988522
1434.285615,2681.334243,2072.576638,3997.112087
1434.285934,2298.286494,814.226536,4589.276840
1434.286253,383.047749,-592.164754,6365.771101
1434.286571,-1608.800546,-1998.556043,8512.368333
1434.286890,-3447.429741,-3330.926739,11103.089130
1434.287209,-4673.182538,-3923.091493,12953.603985
1434.287528,-4213.525239,-3256.906145,14508.036463
1434.287846,-3370.820191,-2664.741391,14804.118840
1434.288165,-2298.286494,-1554.432478,13841.851115
1434.288484,-919.314598,-592.164754,12435.459826
1434.288803,995.924147,666.185348,9844.739029
1434.289121,1608.800546,1036.288319,6957.935855
1434.289440,2757.943793,2072.576638,4663.297435
1434.289759,3140.991542,2368.659014,3627.009116
1434.290077,3217.601092,2442.679609,2886.803174
1434.290396,3217.601092,2146.597232,4293.194464
1434.290715,2374.896044,962.267725,5773.606348
1434.291034,919.314598,-74.020594,7920.203579
1434.291352,306.438199,-1036.288319,9622.677246
1434.291671,-229.828649,-1628.453072,12065.356855
1434.291990,-536.266849,-1628.453072,13175.665768
1434.292308,-536.266849,-1628.453072,12139.377449
1434.292627,-153.219100,-962.267725,12435.459826
1434.292946,612.876398,-0.000000,11547.212695
1434.293265,1608.800546,1480.411884,7920.203579
1434.293583,2145.067394,1998.556043,5625.565159
1434.293902,2221.676944,1554.432478,4811.338623
1434.294221,1608.800546,1850.514855,4589.276840
1434.294540,1762.019645,1480.411884,4885.359217
1434.294858,995.924147,740.205942,6513.812290
1434.295177,229.828649,296.082377,8808.450710
1434.295496,-306.438199,-0.000000,9474.636058
1434.295814,-383.047749,-888.247130,11103.089130
1434.296133,0.000000,-1258.350101,13101.645173
1434.296452,-536.266849,-1406.391290,13323.706956
1434.296771,-229.828649,-962.267725,12065.356855
1434.297089,76.609550,-518.144159,11399.171507
1434.297408,383.047749,148.041188,10510.924376
1434.297727,612.876398,-0.000000,8216.285956
1434.298045,689.485948,444.123565,6957.935855
1434.298364,459.657299,1554.432478,6069.688724
1434.298683,76.609550,962.267725,6291.750507
1434.299002,-612.876398,740.205942,7031.956449
1434.299320,-995.924147,888.247130,9474.636058
1434.299639,-1225.752797,148.041188,11547.212695
1434.299958,-1608.800546,-592.164754,11843.295072
1434.300277,-689.485948,-1184.329507,13693.809927
1434.300595,0.000000,-370.102971,14137.933492
1434.300914,1378.971896,-0.000000,13249.686362
1434.301233,2451.505594,592.164754,12361.439231
1434.301551,3907.087040,1628.453072,10732.986159
1434.301870,4443.353888,2664.741391,8068.244768
1434.302189,4749.792088,3552.988522,5847.626942
1434.302508,4596.572988,3330.926739,5625.565159
1434.302826,3447.429741,2886.803174,5477.523971
1434.303145,2221.676944,2812.782580,5255.462188
1434.303464,919.314598,1702.473667,7328.038826
1434.303782,-459.657299,814.226536,9548.656652
1434.304101,-1532.190996,-370.102971,11251.130318
1434.304420,-2451.505594,-1702.473667,12213.398043
1434.304739,-2221.676944,-2146.597232,13693.809927
1434.305057,-1378.971896,-1924.535449,14211.954086
1434.305376,153.219100,-1332.370696,13249.686362
1434.305695,1225.752797,-222.061783,11621.233289
1434.306014,2221.676944,1554.432478,9844.739029
1434.306332,2604.724693,2442.679609,6883.915261
1434.306651,3140.991542,2590.720797,4663.297435
1434.306970,2987.772442,2368.659014,4663.297435
1434.307288,2068.457845,2294.638420,4071.132681
1434.307607,1072.533697,1554.432478,4959.379811
1434.307926,-1072.533697,444.123565,6957.935855
1434.308245,-1838.629195,-1332.370696,9622.677246
1434.308563,-3370.820191,-2072.576638,11029.068536
1434.308882,-3524.039291,-3034.844362,13249.686362
1434.309201,-3600.648841,-3330.926739,14582.057057
1434.309519,-2681.334243,-1628.453072,14434.015869
1434.309838,-1532.190996,-1406.391290,12879.583391
1434.310157,306.438199,-814.226536,11251.130318
1434.310476,2221.676944,-0.000000,9474.636058
1434.310794,3370.820191,814.226536,6291.750507
1434.311113,4136.915689,1702.473667,3701.029710
1434.311432,3983.696590,2886.803174,3256.906145
1434.311751,3217.601092,2368.659014,2960.823768
1434.312069,2681.334243,1924.535449,4145.153275
1434.312388,1378.971896,962.267725,6883.915261
1434.312707,-229.828649,-148.041188,8660.409521
1434.313025,-1608.800546,-814.226536,10214.842000
1434.313344,-2221.676944,-2220.617826,13175.665768
1434.313663,-2528.115143,-2072.576638,14582.057057
1434.313982,-2451.505594,-1702.473667,13989.892304
1434.314300,-1302.362347,-1554.432478,13323.706956
1434.314619,153.219100,-0.000000,12287.418637
1434.314938,1762.019645,740.205942,9696.697840
1434.315257,2604.724693,1850.514855,6513.812290
1434.315575,3294.210641,1850.514855,5255.462188
1434.315894,3753.867940,2146.597232,3923.091493
1434.316213,2834.553343,2368.659014,3627.009116
1434.316531,1838.629195,1924.535449,4811.338623
1434.316850,919.314598,1036.288319,7031.956449
1434.317169,-306.438199,148.041188,9030.512492
1434.317488,-1149.143247,-518.144159,10807.006753
1434.317806,-1762.019645,-1332.370696,13397.727550
1434.318125,-2145.067394,-1480.411884,14359.995275
1434.318444,-1915.238745,-2072.576638,14285.974681
1434.318762,-1455.581446,-2220.617826,14063.912898
1434.319081,-766.095498,-740.205942,12139.377449
1434.319400,153.219100,444.123565,9252.574275
1434.319719,995.924147,1628.453072,6809.894666
1434.320037,1608.800546,2442.679609,5625.565159
1434.320356,1915.238745,2738.761985,5107.421000
1434.320675,2068.457845,2664.741391,4663.297435
1434.320994,1608.800546,2146.597232,6069.688724
1434.321312,536.266849,740.205942,8882.471304
1434.321631,-153.219100,-0.000000,10288.862594
1434.321950,-766.095498,-888.247130,11843.295072
1434.322268,-229.828649,-666.185348,14063.912898
1434.322587,0.000000,-0.000000,13841.851115
1434.322906,1302.362347,444.123565,13249.686362
1434.323225,2068.457845,1184.329507,12065.356855
1434.323543,2451.505594,2146.597232,10140.821405
1434.323862,2911.162892,2442.679609,7772.162391
1434.324181,2681.334243,2960.823768,5773.606348
1434.324499,2145.067394,2368.659014,5329.482782
1434.324818,1838.629195,2442.679609,4737.318029
1434.325137,536.266849,2442.679609,5181.441594
1434.325456,229.828649,1702.473667,7105.977043
1434.325774,-995.924147,962.267725,8882.471304
1434.326093,-1685.410096,-296.082377,11473.192101
1434.326412,-1532.190996,-1628.453072,13471.748144
1434.326731,-1532.190996,-814.226536,13989.892304
1434.327049,-919.314598,-888.247130,14285.974681
1434.327368,229.828649,-222.061783,12953.603985
1434.327687,1225.752797,444.123565,11473.192101
1434.328005,2374.896044,518.144159,9178.553681
1434.328324,2911.162892,1480.411884,6661.853478
1434.328643,2451.505594,2368.659014,4811.338623
1434.328962,2145.067394,2146.597232,4293.194464
1434.329280,766.095498,1110.308913,4663.297435
1434.329599,-689.485948,-370.102971,6143.709319
1434.329918,-1685.410096,-1036.288319,9400.615463
1434.330236,-3140.991542,-962.267725,10955.047942
1434.330555,-3753.867940,-1924.535449,11843.295072
1434.330874,-3447.429741,-1998.556043,13619.789333
1434.331193,-2834.553343,-2738.761985,15914.427753
1434.331511,-1149.143247,-3256.906145,15174.221811
1434.331830,383.047749,-1554.432478,12731.542202
1434.332149,2451.505594,-0.000000,10066.800811
1434.332468,4673.182538,2146.597232,7402.059420
1434.332786,5822.325785,1406.391290,4515.256246
1434.333105,4366.744339,2738.761985,3701.029710
1434.333424,4596.572988,2738.761985,3108.864956
1434.333742,1608.800546,4589.276840,74.020594
1434.334061,689.485948,2886.803174,3775.050304
1434.334380,-919.314598,-592.164754,10140.821405
1434.334699,-2911.162892,-444.123565,11029.068536
1434.335017,-3140.991542,-2294.638420,12287.418637
1434.335336,-3983.696590,-2220.617826,14434.015869
1434.335655,-2987.772442,-1998.556043,16580.613101
1434.335973,-1225.752797,-2812.782580,14508.036463
1434.336292,-1302.362347,-518.144159,12435.459826
1434.336611,766.095498,-370.102971,11325.150913
1434.336930,1991.848295,2072.576638,6513.812290
1434.337248,3447.429741,4737.318029,3256.906145
1434.337567,5056.230287,4737.318029,1702.473667
1434.337886,3907.087040,5329.482782,1776.494261
1434.338205,2911.162892,2220.617826,1998.556043
1434.338523,919.314598,1258.350101,4737.318029
1434.338842,-689.485948,-666.185348,8364.327145
1434.339161,-2221.676944,-2368.659014,11325.150913
1434.339479,-3447.429741,-1998.556043,13101.645173
1434.339798,-3140.991542,-3404.947333,15322.262999
1434.340117,-3447.429741,-3849.070898,16284.530724
1434.340436,-2145.067394,-1776.494261,15544.324782
1434.340754,-459.657299,-666.185348,13767.830521
1434.341073,1072.533697,1924.535449,10436.903782
1434.341392,1149.143247,2590.720797,7476.080014
1434.341710,2451.505594,2516.700203,6365.771101
1434.342029,2757.943793,2738.761985,3997.112087
1434.342348,3907.087040,2664.741391,3478.967927
1434.342667,3447.429741,3330.926739,3997.112087
1434.342985,2374.896044,2664.741391,5995.668130
1434.343304,1915.238745,444.123565,8660.409521
1434.343623,153.219100,-888.247130,11103.089130
1434.343942,0.000000,-2886.803174,15692.365970
1434.344260,-536.266849,-1258.350101,15544.324782
1434.344579,-229.828649,-888.247130,14434.015869
1434.344898,306.438199,-518.144159,13397.727550
1434.345216,612.876398,518.144159,13027.624579
1434.345535,1072.533697,1036.288319,8956.491898
1434.345854,1378.971896,2072.576638,6735.874072
1434.346173,2068.457845,2590.720797,5995.668130
1434.346491,2374.896044,2960.823768,5255.462188
1434.346810,1915.238745,3034.844362,3923.091493
1434.347129,1149.143247,2368.659014,5255.462188
1434.347447,383.047749,1110.308913,8290.306550
1434.347766,-306.438199,370.102971,10140.821405
1434.348085,-1149.143247,-518.144159,11399.171507
1434.348404,-1455.581446,-888.247130,13323.706956
1434.348722,-612.876398,-1184.329507,14656.077652
1434.349041,-1532.190996,-1480.411884,13323.706956
1434.349360,-995.924147,-1110.308913,12657.521608
1434.349679,383.047749,518.144159,10214.842000
1434.349997,459.657299,1924.535449,7846.182985
1434.350316,1072.533697,2146.597232,5181.441594
1434.350635,1149.143247,2812.782580,4589.276840
1434.350953,919.314598,2294.638420,4293.194464
1434.351272,229.828649,1184.329507,4663.297435
1434.351591,-383.047749,148.041188,6883.915261
1434.351910,-1072.533697,-666.185348,8438.347739
1434.352228,-2145.067394,-1554.432478,10140.821405
1434.352547,-1915.238745,-2368.659014,13027.624579
1434.352866,-1378.971896,-2664.741391,14878.139434
1434.353185,-459.657299,-1924.535449,14137.933492
1434.353503,1225.752797,-962.267725,13323.706956
1434.353822,1685.410096,222.061783,11843.295072
1434.354141,2528.115143,1628.453072,9400.615463
1434.354459,3217.601092,1850.514855,6957.935855
1434.354778,2987.772442,1850.514855,5773.606348
1434.355097,3064.381992,1184.329507,4589.276840
1434.355416,2604.724693,1406.391290,4367.215058
1434.355734,1991.848295,1258.350101,4885.359217
1434.356053,842.705048,-0.000000,7698.141797
1434.356372,76.609550,-1924.535449,9696.697840
1434.356690,-1149.143247,-2812.782580,11843.295072
1434.357009,-1532.190996,-2664.741391,13175.665768
1434.357328,-1455.581446,-2072.576638,13619.789333
1434.357647,-306.438199,-1036.288319,13397.727550
1434.357965,842.705048,222.061783,12213.398043
1434.358284,2145.067394,1036.288319,9844.739029
1434.358603,2298.286494,1036.288319,7772.162391
1434.358922,2911.162892,2072.576638,5699.585753
1434.359240,3370.820191,2368.659014,4589.276840
1434.359559,2528.115143,2294.638420,3775.050304
1434.359878,1302.362347,1776.494261,3997.112087
1434.360196,0.000000,1332.370696,5329.482782
1434.360515,-842.705048,518.144159,7550.100608
1434.360834,-1378.971896,-962.267725,9696.697840
1434.361153,-2451.505594,-1776.494261,11399.171507
1434.361471,-2911.162892,-814.226536,12731.542202
1434.361790,-2834.553343,-2220.617826,13915.871710
1434.362109,-2451.505594,-2220.617826,13989.892304
1434.362427,-1455.581446,-1480.411884,12879.583391
1434.362746,0.000000,370.102971,10362.883188
1434.363065,995.924147,1998.556043,6957.935855
1434.363384,2221.676944,2442.679609,5625.565159
1434.363702,2681.334243,2442.679609,4885.359217
1434.364021,2528.115143,2516.700203,4293.194464
1434.364340,1762.019645,2368.659014,4367.215058
1434.364659,612.876398,1702.473667,6587.832884
1434.364977,-383.047749,296.082377,9400.615463
1434.365296,-1072.533697,-1480.411884,11177.109724
1434.365615,-1685.410096,-1332.370696,12953.603985
1434.365933,-995.924147,-1332.370696,14804.118840
1434.366252,-536.266849,-1036.288319,14508.036463
1434.366571,536.266849,-222.061783,13767.830521
1434.366890,1149.143247,888.247130,12213.398043
1434.367208,1991.848295,1554.432478,9696.697840
1434.367527,2374.896044,2146.597232,7179.997637
1434.367846,2911.162892,2738.761985,5847.626942
1434.368164,3064.381992,3034.844362,4885.359217
1434.368483,2681.334243,2590.720797,5033.400406
1434.368802,1915.238745,2220.617826,6291.750507
1434.369121,919.314598,888.247130,8364.327145
1434.369439,153.219100,518.144159,9770.718434
1434.369758,-689.485948,-518.144159,11843.295072
1434.370077,-766.095498,-666.185348,13693.809927
1434.370396,-459.657299,-444.123565,14434.015869
1434.370714,229.828649,-1036.288319,13989.892304
1434.371033,76.609550,-370.102971,13175.665768
1434.371352,1072.533697,148.041188,11769.274478
1434.371670,1762.019645,962.267725,8956.491898
1434.371989,2528.115143,1332.370696,6957.935855
1434.372308,2451.505594,1998.556043,5625.565159
1434.372627,2145.067394,1554.432478,4663.297435
1434.372945,1608.800546,888.247130,4737.318029
1434.373264,842.705048,-74.020594,6957.935855
1434.373583,-689.485948,-1036.288319,8438.347739
1434.373901,-1302.362347,-1332.370696,10140.821405
1434.374220,-1762.019645,-2590.720797,11843.295072
1434.374539,-2221.676944,-2590.720797,13619.789333
1434.374858,-1455.581446,-2738.761985,14508.036463
1434.375176,-1225.752797,-2516.700203,13545.768739
1434.375495,0.000000,-1036.288319,11991.336260
1434.375814,1149.143247,740.205942,9770.718434
1434.376133,1762.019645,1628.453072,7772.162391
1434.376451,2068.457845,1924.535449,5847.626942
1434.376770,2451.505594,2368.659014,5255.462188
1434.377089,1991.848295,2294.638420,3997.112087
1434.377407,1685.410096,1702.473667,5033.400406
1434.377726,1762.019645,962.267725,6439.791695
1434.378045,612.876398,-370.102971,8216.285956
1434.378364,-842.705048,-2442.679609,9474.636058
1434.378682,-1149.143247,-2368.659014,11547.212695
1434.379001,-689.485948,-2146.597232,13101.645173
1434.379320,-995.924147,-1776.494261,11621.233289
1434.379638,-306.438199,-814.226536,11991.336260
1434.379957,-306.438199,222.061783,10214.842000
1434.380276,612.876398,1406.391290,8142.265362
1434.380595,842.705048,1258.350101,6587.832884
1434.380913,1302.362347,1998.556043,6217.729913
1434.381232,1302.362347,2368.659014,4811.338623
1434.381551,766.095498,1924.535449,4515.256246
1434.381870,842.705048,1258.350101,6365.771101
1434.382188,0.000000,-0.000000,8512.368333
1434.382507,-383.047749,-296.082377,9474.636058
1434.382826,-842.705048,-592.164754,11029.068536
1434.383144,-842.705048,-888.247130,12583.501014
1434.383463,-383.047749,-1184.329507,13323.706956
1434.383782,76.609550,-1110.308913,12583.501014
1434.384101,842.705048,-814.226536,11473.192101
1434.384419,1072.533697,-370.102971,10140.821405
1434.384738,1608.800546,518.144159,7920.203579
1434.385057,2221.676944,1628.453072,5995.668130
1434.385375,2298.286494,1924.535449,5773.606348
1434.385694,1685.410096,1924.535449,6143.709319
1434.386013,1455.581446,1998.556043,6217.729913
1434.386332,689.485948,1480.411884,7698.141797
1434.386650,0.000000,962.267725,10362.883188
1434.386969,-459.657299,-0.000000,11325.150913
1434.387288,-766.095498,-814.226536,13249.686362
1434.387607,-306.438199,-592.164754,14211.954086
1434.387925,995.924147,-74.020594,14211.954086
1434.388244,1915.238745,-0.000000,12805.562797
1434.388563,2604.724693,1184.329507,11695.253884
1434.388881,2987.772442,1998.556043,9178.553681
1434.389200,3140.991542,2886.803174,6439.791695
1434.389519,2911.162892,2812.782580,5551.544565
1434.389838,2451.505594,3552.988522,5107.421000
1434.390157,1685.410096,3330.926739,4515.256246
1434.390475,612.876398,2146.597232,6143.709319
1434.390794,-689.485948,740.205942,8660.409521
1434.391113,-1455.581446,-814.226536,10732.986159
1434.391432,-2451.505594,-2072.576638,12213.398043
1434.391750,-2451.505594,-2072.576638,14285.974681
1434.392069,-1915.238745,-1406.391290,14878.139434
1434.392388,-995.924147,-1480.411884,13693.809927
1434.392707,459.657299,-444.123565,12657.521608
1434.393025,1608.800546,740.205942,10955.047942
1434.393344,2298.286494,2442.679609,7105.977043
1434.393663,2757.943793,2368.659014,5329.482782
1434.393982,2221.676944,2738.761985,4885.359217
1434.394300,1608.800546,1924.535449,4145.153275
1434.394619,612.876398,592.164754,4663.297435
1434.394938,-689.485948,-814.226536,7105.977043
1434.395257,-1762.019645,-1850.514855,9400.615463
1434.395576,-2681.334243,-2146.597232,10881.027347
1434.395894,-3140.991542,-2738.761985,13175.665768
1434.396213,-2528.115143,-2886.803174,14359.995275
1434.396532,-2221.676944,-2368.659014,14508.036463
1434.396851,-306.438199,-1850.514855,13989.892304
1434.397169,689.485948,-814.226536,11473.192101
1434.397488,2298.286494,1480.411884,8956.491898
1434.397807,3294.210641,1850.514855,6291.750507
1434.398126,3600.648841,1702.473667,4737.318029
1434.398444,3217.601092,1924.535449,3923.091493
1434.398763,3064.381992,2368.659014,3182.885551
1434.399082,2528.115143,1850.514855,3923.091493
1434.399401,1991.848295,1258.350101,6217.729913
1434.399720,229.828649,-74.020594,8512.368333
1434.400038,0.000000,-1924.535449,10584.944971
1434.400357,-1455.581446,-2368.659014,12805.562797
1434.400676,-1302.362347,-2294.638420,14063.912898
1434.400995,-1455.581446,-1258.350101,13323.706956
1434.401313,-612.876398,-592.164754,13027.624579
1434.401632,459.657299,592.164754,11177.109724
1434.401951,1072.533697,2294.638420,8290.306550
1434.402270,2221.676944,2516.700203,5329.482782
1434.402588,2374.896044,3478.967927,4293.194464
1434.402907,2221.676944,2960.823768,3552.988522
1434.403226,1532.190996,2664.741391,3478.967927
1434.403545,995.924147,1776.494261,5551.544565
1434.403863,-229.828649,-0.000000,7994.224174
1434.404182,-1532.190996,-1998.556043,10436.903782
1434.404501,-1685.410096,-3330.926739,12879.583391
1434.404820,-2221.676944,-2960.823768,14804.118840
1434.405139,-2068.457845,-1776.494261,14804.118840
1434.405457,-1302.362347,-1036.288319,13693.809927
1434.405776,-689.485948,-444.123565,12361.439231
1434.406095,383.047749,518.144159,10881.027347
1434.406414,842.705048,1998.556043,8142.265362
1434.406732,1915.238745,2738.761985,5625.565159
1434.407051,2068.457845,2664.741391,4959.379811
1434.407370,1838.629195,2442.679609,4663.297435
1434.407689,1302.362347,1554.432478,5773.606348
1434.408007,76.609550,666.185348,7698.141797
1434.408326,-536.266849,-222.061783,10066.800811
1434.408645,-766.095498,-444.123565,11547.212695
1434.408964,-842.705048,-592.164754,13101.645173
1434.409283,-612.876398,-666.185348,14434.015869
1434.409601,-306.438199,-222.061783,14063.912898
1434.409920,536.266849,148.041188,13175.665768
1434.410239,2068.457845,1406.391290,11399.171507
1434.410558,2528.115143,2886.803174,8586.388927
1434.410876,2681.334243,3478.967927,5699.585753
1434.411195,2987.772442,4145.153275,4663.297435
1434.411514,2987.772442,4219.173869,3849.070898
1434.411833,1915.238745,3627.009116,3256.906145
1434.412151,1608.800546,2442.679609,5477.523971
1434.412470,459.657299,1850.514855,7920.203579
1434.412789,-536.266849,814.226536,9252.574275
1434.413108,-1455.581446,-888.247130,11695.253884
1434.413426,-2145.067394,-1702.473667,13915.871710
1434.413745,-1685.410096,-1036.288319,14434.015869
1434.414064,-1378.971896,-1702.473667,14211.954086
1434.414383,-766.095498,-1036.288319,13175.665768
1434.414702,229.828649,-0.000000,11769.274478
1434.415020,1302.362347,1184.329507,8364.327145
1434.415339,1378.971896,1628.453072,5995.668130
1434.415658,2068.457845,1628.453072,5403.503377
1434.415977,1915.238745,1998.556043,4367.215058
1434.416295,1149.143247,1036.288319,4367.215058
1434.416614,229.828649,-148.041188,6809.894666
1434.416933,-459.657299,-1036.288319,9030.512492
1434.417252,-1302.362347,-2220.617826,10881.027347
1434.417570,-1838.629195,-3330.926739,12435.459826
1434.417889,-2451.505594,-3552.988522,14804.118840
1434.418208,-1915.238745,-2738.761985,15322.262999
1434.418527,-842.705048,-1776.494261,14285.974681
1434.418846,383.047749,-518.144159,12583.501014
1434.419164,1762.019645,1184.329507,10362.883188
1434.419483,2604.724693,2072.576638,7179.997637
1434.419802,2834.553343,1850.514855,5033.400406
1434.420121,3294.210641,1850.514855,3923.091493
1434.420439,2068.457845,2072.576638,3923.091493
1434.420758,1608.800546,962.267725,4737.318029
1434.421077,536.266849,370.102971,5847.626942
1434.421396,-153.219100,-222.061783,8586.388927
1434.421714,-919.314598,-1110.308913,10807.006753
1434.422033,-1225.752797,-1480.411884,11769.274478
1434.422352,-1455.581446,-1184.329507,13323.706956
1434.422671,-919.314598,-518.144159,14063.912898
1434.422989,-306.438199,-370.102971,12213.398043
1434.423308,842.705048,1110.308913,11029.068536
1434.423627,1915.238745,2368.659014,9178.553681
1434.423946,1915.238745,2812.782580,6365.771101
1434.424265,2451.505594,2590.720797,4367.215058
1434.424583,2298.286494,2516.700203,3849.070898
1434.424902,1302.362347,2220.617826,3923.091493
1434.425221,306.438199,1184.329507,4367.215058
1434.425540,-536.266849,-0.000000,7624.121203
1434.425858,-1762.019645,-1036.288319,9696.697840
1434.426177,-2374.896044,-2072.576638,11621.233289
1434.426496,-2528.115143,-2072.576638,13989.892304
1434.426815,-1915.238745,-1702.473667,15322.262999
1434.427133,-1378.971896,-1406.391290,14211.954086
1434.427452,0.000000,-592.164754,13249.686362
1434.427771,919.314598,-0.000000,11547.212695
1434.428090,2145.067394,1924.535449,7772.162391
1434.428408,3140.991542,2886.803174,5625.565159
1434.428727,4060.306139,2886.803174,3478.967927
1434.429046,2757.943793,2886.803174,3552.988522
1434.429365,1838.629195,2516.700203,3552.988522
1434.429684,919.314598,1554.432478,5921.647536
1434.430002,0.000000,370.102971,9252.574275
1434.430321,-1991.848295,-592.164754,11843.295072
1434.430640,-3294.210641,-2146.597232,13989.892304
1434.430959,-2987.772442,-2146.597232,15766.386565
1434.431277,-1915.238745,-1332.370696,16284.530724
1434.431596,-689.485948,-518.144159,14952.160028
1434.431915,612.876398,444.123565,13027.624579
1434.432234,1915.238745,1776.494261,11399.171507
1434.432552,3600.648841,3108.864956,7105.977043
1434.432871,4290.134789,3478.967927,4959.379811
1434.433190,4366.744339,4811.338623,3256.906145
1434.433509,4136.915689,4219.173869,2590.720797
1434.433828,3064.381992,2960.823768,3330.926739
1434.434146,1991.848295,2072.576638,6291.750507
1434.434465,689.485948,296.082377,9400.615463
1434.434784,-842.705048,-740.205942,10881.027347
1434.435103,-1685.410096,-2220.617826,13471.748144
1434.435421,-2298.286494,-2812.782580,16136.489536
1434.435740,-2298.286494,-2516.700203,16358.551318
1434.436059,-1762.019645,-2590.720797,15248.242405
1434.436378,-689.485948,-1184.329507,13471.748144
1434.436696,1072.533697,370.102971,10510.924376
1434.437015,2451.505594,1850.514855,7105.977043
1434.437334,3447.429741,2442.679609,4737.318029
1434.437653,3600.648841,2294.638420,3108.864956
1434.437971,3370.820191,2368.659014,2590.720797
1434.438290,2298.286494,962.267725,4071.132681
1434.438609,1072.533697,-0.000000,6365.771101
1434.438928,-306.438199,-814.226536,8956.491898
1434.439247,-2221.676944,-1924.535449,11177.109724
1434.439565,-2604.724693,-2960.823768,14137.933492
1434.439884,-3217.601092,-2664.741391,15470.304188
1434.440203,-2911.162892,-2442.679609,15174.221811
1434.440522,-1915.238745,-1332.370696,13915.871710
1434.440840,-612.876398,-0.000000,11843.295072
1434.441159,842.705048,740.205942,8882.471304
1434.441478,1532.190996,1406.391290,5921.647536
1434.441797,2145.067394,1480.411884,4145.153275
1434.442115,2451.505594,1998.556043,2812.782580
1434.442434,1915.238745,2516.700203,1850.514855
1434.442753,1915.238745,2072.576638,3923.091493
1434.443072,919.314598,1702.473667,6809.894666
1434.443391,0.000000,-0.000000,8290.306550
1434.443709,-1225.752797,-888.247130,10658.965565
1434.444028,-1685.410096,-1628.453072,13693.809927
1434.444347,-1915.238745,-1480.411884,14211.954086
1434.444666,-1455.581446,-1036.288319,13397.727550
1434.444984,-689.485948,-666.185348,12657.521608
1434.445303,0.000000,740.205942,11029.068536
1434.445622,1302.362347,2220.617826,8068.244768
1434.445941,2068.457845,2294.638420,5625.565159
1434.446259,2451.505594,2220.617826,4515.256246
1434.446578,2374.896044,1480.411884,4071.132681
1434.446897,1915.238745,1036.288319,4441.235652
1434.447216,1302.362347,-74.020594,6143.709319
1434.447534,76.609550,-222.061783,8512.368333
1434.447853,-306.438199,-1850.514855,10214.842000
1434.448172,-766.095498,-2442.679609,12805.562797
1434.448491,-842.705048,-2442.679609,14804.118840
1434.448810,-689.485948,-2368.659014,14952.160028
1434.449128,0.000000,-1628.453072,13915.871710
1434.449447,459.657299,-0.000000,12583.501014
1434.449766,1685.410096,1628.453072,10807.006753
1434.450085,1991.848295,2146.597232,7994.224174
1434.450403,2298.286494,2886.803174,5921.647536
1434.450722,2451.505594,3182.885551,4589.276840
1434.451041,1991.848295,2590.720797,4589.276840
1434.451360,1149.143247,1184.329507,5625.565159
1434.451678,0.000000,-0.000000,7846.182985
1434.451997,-995.924147,-370.102971,10066.800811
1434.452316,-1991.848295,-1480.411884,11843.295072
1434.452635,-1762.019645,-1332.370696,14508.036463
1434.452954,-919.314598,-74.020594,13915.871710
1434.453272,76.609550,666.185348,13619.789333
1434.453591,919.314598,1184.329507,12879.583391
1434.453910,1991.848295,1998.556043,10881.027347
1434.454229,2911.162892,2886.803174,7698.141797
1434.454547,4060.306139,3701.029710,5403.503377
1434.454866,3294.210641,3256.906145,4071.132681
1434.455185,3140.991542,3627.009116,3775.050304
1434.455504,2451.505594,2812.782580,4145.153275
1434.455822,995.924147,1850.514855,5551.544565
1434.456141,-459.657299,1036.288319,8586.388927
1434.456460,-1685.410096,-222.061783,10807.006753
1434.456779,-2528.115143,-1406.391290,12805.562797
1434.457097,-3370.820191,-2886.803174,14952.160028
1434.457416,-2604.724693,-2442.679609,15470.304188
1434.457735,-1302.362347,-1628.453072,13989.892304
1434.458054,76.609550,-888.247130,13027.624579
1434.458373,1762.019645,518.144159,10807.006753
1434.458691,2757.943793,2072.576638,7179.997637
1434.459010,4136.915689,2442.679609,4885.359217
1434.459329,4213.525239,2368.659014,4589.276840
1434.459648,3140.991542,1480.411884,3478.967927
1434.459966,2145.067394,370.102971,4663.297435
1434.460285,919.314598,-666.185348,7476.080014
1434.460604,-1072.533697,-1036.288319,9770.718434
1434.460923,-2068.457845,-1998.556043,11547.212695
1434.461241,-3140.991542,-3256.906145,13693.809927
1434.461560,-2911.162892,-4145.153275,16062.468941
1434.461879,-2834.553343,-3627.009116,15322.262999
1434.462198,-2068.457845,-2442.679609,14063.912898
1434.462517,-459.657299,-814.226536,12879.583391
1434.462835,612.876398,740.205942,9622.677246
1434.463154,1762.019645,1110.308913,6735.874072
1434.463473,3294.210641,1924.535449,5107.421000
1434.463792,3753.867940,2590.720797,3701.029710
1434.464110,3600.648841,2886.803174,2368.659014
1434.464429,2528.115143,2294.638420,3256.906145
1434.464748,1991.848295,1850.514855,5625.565159
1434.465067,459.657299,370.102971,8142.265362
1434.465385,-919.314598,-740.205942,10288.862594
1434.465704,-1685.410096,-1184.329507,12213.398043
1434.466023,-1991.848295,-1184.329507,12953.603985
1434.466342,-1455.581446,-1258.350101,13027.624579
1434.466660,-1685.410096,-1554.432478,12879.583391
1434.466979,-919.314598,-666.185348,11177.109724
1434.467298,0.000000,444.123565,8734.430116
1434.467617,689.485948,1036.288319,6439.791695
1434.467936,2145.067394,2072.576638,4959.379811
1434.468254,2221.676944,2664.741391,3552.988522
1434.468573,2451.505594,2072.576638,3701.029710
1434.468892,1685.410096,1702.473667,5181.441594
1434.469211,1072.533697,444.123565,7698.141797
1434.469529,612.876398,-0.000000,9400.615463
1434.469848,-536.266849,-666.185348,11103.089130
1434.470167,-1225.752797,-1702.473667,13101.645173
1434.470486,-919.314598,-1554.432478,14804.118840
1434.470804,-1225.752797,-1184.329507,13841.851115
1434.471123,0.000000,-444.123565,12583.501014
1434.471442,306.438199,740.205942,11103.089130
1434.471761,842.705048,1480.411884,9178.553681
1434.472080,1915.238745,1480.411884,7031.956449
1434.472398,1838.629195,1628.453072,5699.585753
1434.472717,1838.629195,1628.453072,5699.585753
1434.473036,1455.581446,1702.473667,5773.606348
1434.473355,995.924147,1258.350101,7402.059420
1434.473673,306.438199,296.082377,9474.636058
1434.473992,-689.485948,-74.020594,10881.027347
1434.474311,-919.314598,-666.185348,12213.398043
1434.474630,-689.485948,-0.000000,13841.851115
1434.474948,76.609550,666.185348,14285.974681
1434.475267,306.438199,1110.308913,13249.686362
1434.475586,1455.581446,2368.659014,11473.192101
1434.475905,1915.238745,2368.659014,10584.944971
1434.476223,2221.676944,2812.782580,7994.224174
1434.476542,3064.381992,2738.761985,5995.668130
1434.476861,2451.505594,2368.659014,5181.441594
1434.477180,1838.629195,2072.576638,5329.482782
1434.477499,1685.410096,1184.329507,5921.647536
1434.477817,536.266849,518.144159,7698.141797
1434.478136,-229.828649,-814.226536,9622.677246
1434.478455,-919.314598,-1110.308913,11251.130318
1434.478774,-1072.533697,-1036.288319,12953.603985
1434.479092,-612.876398,-2072.576638,13915.871710
1434.479411,-919.314598,-1924.535449,13989.892304
1434.479730,-383.047749,-1776.494261,13545.768739
1434.480049,995.924147,-0.000000,11843.295072
1434.480367,1225.752797,962.267725,9252.574275
1434.480686,2068.457845,1702.473667,6735.874072
1434.481005,1991.848295,1924.535449,5551.544565
1434.481324,1378.971896,2146.597232,5181.441594
1434.481643,1225.752797,1258.350101,5847.626942
1434.481961,153.219100,296.082377,6883.915261
1434.482280,-536.266849,-518.144159,9252.574275
1434.482599,-1915.238745,-1480.411884,10658.965565
1434.482918,-2068.457845,-2664.741391,11473.192101
1434.483236,-1915.238745,-3256.906145,13397.727550
1434.483555,-1685.410096,-3034.844362,13323.706956
1434.483874,-459.657299,-2146.597232,11917.315666
1434.484193,536.266849,-592.164754,10140.821405
1434.484511,1378.971896,666.185348,9030.512492
1434.484830,2221.676944,1776.494261,6439.791695
1434.485149,2451.505594,2960.823768,3627.009116
1434.485468,2528.115143,3108.864956,3627.009116
1434.485786,2068.457845,2812.782580,4219.173869
1434.486105,1532.190996,2886.803174,4293.194464
1434.486424,459.657299,1628.453072,5995.668130
1434.486743,-536.266849,518.144159,9104.533087
1434.487062,-1149.143247,-296.082377,10362.883188
1434.487380,-1838.629195,-1776.494261,11621.233289
1434.487699,-1608.800546,-1776.494261,13175.665768
1434.488018,-919.314598,-1628.453072,12731.542202
1434.488337,-306.438199,-444.123565,11251.130318
1434.488656,766.095498,-296.082377,10510.924376
1434.488974,1608.800546,1036.288319,8290.306550
1434.489293,1915.238745,1628.453072,5847.626942
1434.489612,2604.724693,2368.659014,4515.256246
1434.489931,2681.334243,2146.597232,4589.276840
1434.490250,2451.505594,1628.453072,4959.379811
1434.490569,1608.800546,370.102971,6069.688724
1434.490887,383.047749,-296.082377,8882.471304
1434.491206,-612.876398,-888.247130,11103.089130
1434.491525,-1302.362347,-2146.597232,12435.459826
1434.491844,-1149.143247,-2368.659014,14063.912898
1434.492163,-1149.143247,-2442.679609,15174.221811
1434.492482,-1072.533697,-1924.535449,14508.036463
1434.492800,0.000000,-1480.411884,12657.521608
1434.493119,995.924147,-222.061783,11103.089130
1434.493438,1608.800546,1110.308913,8586.388927
1434.493757,1762.019645,1184.329507,6661.853478
1434.494076,2145.067394,2072.576638,5329.482782
1434.494394,2068.457845,2146.597232,5551.544565
1434.494713,1302.362347,1702.473667,5625.565159
1434.495032,536.266849,1702.473667,7031.956449
1434.495351,-612.876398,1036.288319,9474.636058
1434.495670,-1378.971896,-0.000000,11103.089130
1434.495989,-1685.410096,-592.164754,13397.727550
1434.496307,-1762.019645,-74.020594,14359.995275
1434.496626,-1225.752797,814.226536,13841.851115
1434.496945,-536.266849,1036.288319,12879.583391
1434.497264,766.095498,1332.370696,11917.315666
1434.497583,1225.752797,2220.617826,9474.636058
1434.497902,2298.286494,3330.926739,6883.915261
1434.498220,2987.772442,3478.967927,5329.482782
1434.498539,3140.991542,3330.926739,4515.256246
1434.498858,3447.429741,3404.947333,4515.256246
1434.499177,2451.505594,2664.741391,5181.441594
1434.499496,1455.581446,1332.370696,7402.059420
1434.499815,689.485948,148.041188,9474.636058
1434.500133,0.000000,-666.185348,10807.006753
1434.500452,-766.095498,-1776.494261,12657.521608
1434.500771,-919.314598,-1776.494261,13915.871710
1434.501090,-766.095498,-1184.329507,13693.809927
1434.501409,-153.219100,-592.164754,12583.501014
1434.501728,612.876398,370.102971,11917.315666
1434.502046,1072.533697,1480.411884,9474.636058
1434.502365,1455.581446,2146.597232,6883.915261
1434.502684,1608.800546,2368.659014,5255.462188
1434.503003,1455.581446,814.226536,5995.668130
1434.503322,689.485948,444.123565,5625.565159
1434.503641,0.000000,-370.102971,6661.853478
1434.503959,-459.657299,-1406.391290,9252.574275
1434.504278,-1685.410096,-2294.638420,10362.883188
1434.504597,-1838.629195,-2886.803174,11547.212695
1434.504916,-2145.067394,-2442.679609,12953.603985
1434.505235,-1532.190996,-1628.453072,13545.768739
1434.505553,-995.924147,-888.247130,12361.439231
1434.505872,76.609550,222.061783,10584.944971
1434.506191,383.047749,1628.453072,9474.636058
1434.506510,1378.971896,1998.556043,7105.977043
1434.506829,1302.362347,1924.535449,5033.400406
1434.507148,1685.410096,1924.535449,4959.379811
1434.507466,1225.752797,2294.638420,4737.318029
1434.507785,842.705048,1554.432478,5033.400406
1434.508104,306.438199,296.082377,6513.812290
1434.508423,-153.219100,-740.205942,9474.636058
1434.508742,-1608.800546,-1628.453072,10436.903782
1434.509061,-1532.190996,-1924.535449,11843.295072
1434.509379,-1455.581446,-1406.391290,12879.583391
1434.509698,0.000000,-962.267725,13397.727550
1434.510017,153.219100,-296.082377,11769.274478
1434.510336,1072.533697,370.102971,9844.739029
1434.510655,1915.238745,1332.370696,8586.388927
1434.510974,2604.724693,1850.514855,5773.606348
1434.511292,2987.772442,1924.535449,4959.379811
1434.511611,2987.772442,1776.494261,4959.379811
1434.511930,1685.410096,1184.329507,5699.585753
1434.512249,1149.143247,518.144159,6957.935855
1434.512568,689.485948,-0.000000,9474.636058
1434.512887,0.000000,-740.205942,11103.089130
1434.513205,-612.876398,-1480.411884,12213.398043
1434.513524,-919.314598,-1776.494261,14211.954086
1434.513843,-383.047749,-1702.473667,14508.036463
1434.514162,-306.438199,-1110.308913,12879.583391
1434.514481,153.219100,-888.247130,11917.315666
1434.514800,1455.581446,-0.000000,10510.924376
1434.515118,1991.848295,1628.453072,7624.121203
1434.515437,1991.848295,2960.823768,5107.421000
1434.515756,2757.943793,2516.700203,4737.318029
1434.516075,1762.019645,3034.844362,5107.421000
1434.516394,995.924147,2664.741391,5477.523971
1434.516712,0.000000,1184.329507,7772.162391
1434.517031,-1532.190996,444.123565,10140.821405
1434.517350,-2451.505594,-962.267725,12065.356855
1434.517669,-3217.601092,-888.247130,13545.768739
1434.517988,-2298.286494,-296.082377,14285.974681
1434.518307,-1991.848295,-74.020594,14211.954086
1434.518625,-229.828649,666.185348,12953.603985
1434.518944,919.314598,1332.370696,11251.130318
1434.519263,1991.848295,2220.617826,8956.491898
1434.519582,2987.772442,2812.782580,6661.853478
1434.519901,3370.820191,3256.906145,4219.173869
1434.520220,3370.820191,2812.782580,4663.297435
1434.520538,2604.724693,2960.823768,4071.132681
1434.520857,1991.848295,2220.617826,4737.318029
1434.521176,1072.533697,740.205942,7254.018232
1434.521495,-306.438199,-74.020594,10288.862594
1434.521814,-1302.362347,-1628.453072,12139.377449
1434.522133,-2298.286494,-1924.535449,14211.954086
1434.522451,-2298.286494,-1702.473667,15322.262999
1434.522770,-1608.800546,-962.267725,14656.077652
1434.523089,-612.876398,-666.185348,13101.645173
1434.523408,612.876398,-0.000000,11621.233289
1434.523727,2374.896044,592.164754,9104.533087
1434.524046,2681.334243,814.226536,5921.647536
1434.524364,2987.772442,1036.288319,5033.400406
1434.524683,2757.943793,814.226536,4885.359217
1434.525002,2221.676944,962.267725,3775.050304
1434.525321,1072.533697,-0.000000,5033.400406
1434.525640,153.219100,-666.185348,8512.368333
1434.525959,-1302.362347,-1258.350101,10807.006753
1434.526277,-1991.848295,-2590.720797,12435.459826
1434.526596,-2834.553343,-2294.638420,14137.933492
1434.526915,-2757.943793,-2220.617826,15174.221811
1434.527234,-1991.848295,-1332.370696,13989.892304
1434.527553,-919.314598,-296.082377,11325.150913
1434.527871,766.095498,296.082377,9696.697840
1434.528190,1762.019645,2146.597232,7402.059420
1434.528509,3370.820191,2812.782580,3849.070898
1434.528828,3370.820191,2590.720797,2516.700203
1434.529147,2451.505594,2146.597232,3034.844362
1434.529466,2451.505594,1776.494261,4293.194464
1434.529784,1225.752797,814.226536,4959.379811
1434.530103,0.000000,-74.020594,7772.162391
1434.530422,-842.705048,-1258.350101,10436.903782
1434.530741,-1838.629195,-1554.432478,12065.356855
1434.531060,-1378.971896,-2294.638420,13841.851115
1434.531379,-1915.238745,-1924.535449,14434.015869
1434.531697,-1072.533697,-888.247130,13841.851115
1434.532016,536.266849,-0.000000,12361.439231
1434.532335,1532.190996,2294.638420,9326.594869
1434.532654,2681.334243,2664.741391,6957.935855
1434.532973,3140.991542,2368.659014,5329.482782
1434.533292,3524.039291,2072.576638,4219.173869
1434.533610,2987.772442,814.226536,4071.132681
1434.533929,1608.800546,296.082377,5107.421000
1434.534248,689.485948,-0.000000,7179.997637
1434.534567,-842.705048,-1850.514855,9548.656652
1434.534886,-1302.362347,-1924.535449,11991.336260
1434.535205,-2298.286494,-2960.823768,13989.892304
1434.535523,-2681.334243,-2664.741391,15100.201217
1434.535842,-2604.724693,-1702.473667,14359.995275
1434.536161,-1532.190996,-888.247130,13027.624579
1434.536480,153.219100,296.082377,11917.315666
1434.536799,842.705048,1998.556043,9696.697840
1434.537118,2068.457845,3108.864956,6291.750507
1434.537436,2834.553343,4071.132681,4145.153275
1434.537755,2987.772442,4219.173869,4219.173869
1434.538074,2757.943793,3701.029710,4515.256246
1434.538393,1378.971896,2442.679609,5403.503377
1434.538712,306.438199,1924.535449,7772.162391
1434.539030,-766.095498,296.082377,11177.109724
1434.539349,-1225.752797,-148.041188,12213.398043
1434.539668,-1762.019645,-666.185348,13175.665768
1434.539987,-1378.971896,-1184.329507,14434.015869
1434.540306,-1302.362347,-296.082377,14211.954086
1434.540625,0.000000,-370.102971,12583.501014
1434.540943,1225.752797,814.226536,11177.109724
1434.541262,2604.724693,2294.638420,8364.327145
1434.541581,3140.991542,2960.823768,4959.379811
1434.541900,3907.087040,2960.823768,3627.009116
1434.542219,4213.525239,1924.535449,4737.318029
1434.542538,3217.601092,1998.556043,4737.318029
1434.542856,2451.505594,1406.391290,6069.688724
1434.543175,842.705048,-0.000000,9400.615463
1434.543494,0.000000,-1036.288319,11843.295072
1434.543813,-1072.533697,-2368.659014,14063.912898
1434.544132,-1225.752797,-2738.761985,15766.386565
1434.544451,-1149.143247,-3182.885551,15914.427753
1434.544769,-612.876398,-2590.720797,14878.139434
1434.545088,612.876398,-1776.494261,12953.603985
1434.545407,1608.800546,-148.041188,10288.862594
1434.545726,2374.896044,296.082377,7105.977043
1434.546045,3064.381992,962.267725,5181.441594
1434.546364,3370.820191,1258.350101,4441.235652
1434.546682,2987.772442,1332.370696,3182.885551
1434.547001,1838.629195,1036.288319,3701.029710
1434.547320,995.924147,148.041188,6957.935855
1434.547639,-612.876398,-592.164754,8660.409521
1434.547958,-2451.505594,-1184.329507,10362.883188
1434.548277,-2834.553343,-1776.494261,13101.645173
1434.548595,-2987.772442,-666.185348,14508.036463
1434.548914,-2604.724693,-666.185348,14211.954086
1434.549233,-2145.067394,-592.164754,12583.501014
1434.549552,-1378.971896,740.205942,11547.212695
1434.549871,0.000000,888.247130,9030.512492
1434.550189,459.657299,1258.350101,5477.523971
1434.550508,1685.410096,1850.514855,4959.379811
1434.550827,2757.943793,3256.906145,3701.029710
1434.551146,1608.800546,4441.235652,592.164754
1434.551465,1991.848295,2220.617826,3256.906145
1434.551784,1072.533697,-0.000000,7402.059420
1434.552102,-459.657299,296.082377,8290.306550
1434.552421,-1455.581446,-1332.370696,10066.800811
1434.552740,-2757.943793,-1036.288319,12435.459826
1434.553059,-2221.676944,-1628.453072,14508.036463
1434.553378,-1762.019645,-1184.329507,13101.645173
1434.553697,-1072.533697,-1480.411884,13323.706956
1434.554015,76.609550,-740.205942,12139.377449
1434.554334,383.047749,1554.432478,7772.162391
1434.554653,1915.238745,1702.473667,6513.812290
1434.554972,2528.115143,1628.453072,5699.585753
1434.555291,2298.286494,2368.659014,4737.318029
1434.555610,2145.067394,592.164754,5107.421000
1434.555928,1455.581446,296.082377,6661.853478
1434.556247,536.266849,-370.102971,9400.615463
1434.556566,229.828649,-1258.350101,11029.068536
1434.556885,-153.219100,-370.102971,11917.315666
1434.557204,-459.657299,-2368.659014,13989.892304
1434.557523,-1072.533697,-1776.494261,14359.995275
1434.557841,306.438199,-1258.350101,14508.036463
1434.558160,1225.752797,-0.000000,12361.439231
1434.558479,1838.629195,2220.617826,9548.656652
1434.558798,2604.724693,2590.720797,7772.162391
1434.559117,2681.334243,2738.761985,5921.647536
1434.559436,2604.724693,2368.659014,5773.606348
1434.559754,2528.115143,2072.576638,5773.606348
1434.560073,1302.362347,2368.659014,5773.606348
1434.560392,919.314598,1998.556043,7031.956449
1434.560711,76.609550,888.247130,9326.594869
1434.561030,-1378.971896,-666.185348,12213.398043
1434.561348,-1455.581446,-1998.556043,13915.871710
1434.561667,-1378.971896,-814.226536,14211.954086
1434.561986,-459.657299,-0.000000,14137.933492
1434.562305,536.266849,814.226536,12657.521608
1434.562624,1838.629195,1406.391290,11325.150913
1434.562943,2451.505594,2146.597232,8364.327145
1434.563261,3753.867940,2368.659014,5995.668130
1434.563580,3753.867940,2886.803174,4737.318029
1434.563899,3524.039291,2960.823768,4293.194464
1434.564218,2451.505594,2442.679609,4219.173869
1434.564537,1378.971896,1036.288319,6143.709319
1434.564856,-919.314598,-444.123565,8512.368333
1434.565174,-1608.800546,-1332.370696,11029.068536
1434.565493,-2451.505594,-2368.659014,12213.398043
1434.565812,-3140.991542,-2294.638420,14211.954086
1434.566131,-2681.334243,-2368.659014,15100.201217
1434.566450,-2298.286494,-2146.597232,14804.118840
1434.566769,-689.485948,-1258.350101,12583.501014
1434.567087,842.705048,74.020594,10807.006753
1434.567406,2451.505594,1554.432478,7846.182985
1434.567725,3677.258390,1998.556043,5181.441594
1434.568044,3830.477490,2368.659014,3849.070898
1434.568363,2987.772442,1924.535449,3775.050304
1434.568682,2451.505594,1184.329507,4293.194464
1434.569000,1072.533697,962.267725,5403.503377
1434.569319,-536.266849,-0.000000,7994.224174
1434.569638,-2145.067394,-740.205942,9992.780217
1434.569957,-2834.553343,-1924.535449,12435.459826
1434.570276,-3983.696590,-2590.720797,13841.851115
1434.570595,-3907.087040,-2812.782580,14952.160028
1434.570913,-3447.429741,-2738.761985,14211.954086
1434.571232,-2068.457845,-1628.453072,12657.521608
1434.571551,-842.705048,-0.000000,10066.800811
1434.571870,1225.752797,2220.617826,6883.915261
1434.572189,2757.943793,2590.720797,4293.194464
1434.572507,3140.991542,2738.761985,3923.091493
1434.572826,3677.258390,2960.823768,3330.926739
1434.573145,3830.477490,3182.885551,2886.803174
1434.573464,2604.724693,1924.535449,4885.359217
1434.573783,1532.190996,222.061783,8142.265362
1434.574102,-459.657299,-518.144159,10140.821405
1434.574420,-1378.971896,-1628.453072,11547.212695
1434.574739,-2221.676944,-1628.453072,14285.974681
1434.575058,-1685.410096,-1702.473667,15692.365970
1434.575377,-1149.143247,-1480.411884,14434.015869
1434.575696,-306.438199,-1332.370696,12287.418637
1434.576015,1302.362347,-222.061783,11473.192101
1434.576333,1685.410096,1110.308913,7772.162391
1434.576652,3294.210641,1036.288319,5329.482782
1434.576971,3983.696590,1850.514855,4737.318029
1434.577290,3907.087040,1998.556043,4811.338623
1434.577609,4060.306139,666.185348,4811.338623
1434.577928,3217.601092,518.144159,6661.853478
1434.578246,2145.067394,-222.061783,9474.636058
1434.578565,229.828649,-740.205942,10140.821405
1434.578884,-383.047749,-814.226536,12657.521608
1434.579203,-1608.800546,-1184.329507,14137.933492
1434.579522,-1838.629195,-814.226536,14359.995275
1434.579841,-1915.238745,-592.164754,13323.706956
1434.580159,-1149.143247,518.144159,12287.418637
1434.580478,-919.314598,740.205942,10214.842000
1434.580797,-306.438199,1554.432478,7772.162391
1434.581116,-459.657299,2146.597232,5995.668130
1434.581435,306.438199,2146.597232,5255.462188
1434.581754,76.609550,2664.741391,5033.400406
1434.582072,229.828649,1776.494261,6809.894666
1434.582391,-689.485948,666.185348,8438.347739
1434.582710,-842.705048,814.226536,9622.677246
1434.583029,-1149.143247,518.144159,11325.150913
1434.583348,-1072.533697,962.267725,11843.295072
1434.583666,-689.485948,1406.391290,12361.439231
1434.583985,153.219100,1406.391290,12287.418637
1434.584304,76.609550,1702.473667,10881.027347
1434.584623,536.266849,1702.473667,9326.594869
1434.584942,689.485948,1998.556043,7846.182985
1434.585261,919.314598,2072.576638,6513.812290
1434.585579,1225.752797,1850.514855,6217.729913
1434.585898,919.314598,1924.535449,6365.771101
1434.586217,306.438199,1998.556043,6513.812290
1434.586536,459.657299,370.102971,8734.430116
1434.586855,383.047749,148.041188,10362.883188
1434.587174,153.219100,-962.267725,11621.233289
1434.587492,306.438199,-1110.308913,12213.398043
1434.587811,383.047749,-1258.350101,13471.748144
1434.588130,1302.362347,-1480.411884,12953.603985
1434.588449,1685.410096,-888.247130,11917.315666
1434.588768,2604.724693,370.102971,10658.965565
1434.589087,2911.162892,1332.370696,8438.347739
1434.589405,3217.601092,1850.514855,6291.750507
1434.589724,2911.162892,1406.391290,5403.503377
1434.590043,2298.286494,1406.391290,5699.585753
1434.590362,1378.971896,370.102971,6217.729913
1434.590681,306.438199,-370.102971,7550.100608
1434.591000,-766.095498,-1406.391290,9844.739029
1434.591318,-1991.848295,-2368.659014,11251.130318
1434.591637,-2451.505594,-2886.803174,11991.336260
1434.591956,-2528.115143,-2590.720797,13471.748144
1434.592275,-1838.629195,-2146.597232,13767.830521
1434.592594,0.000000,-1332.370696,12287.418637
1434.592913,536.266849,296.082377,10066.800811
1434.593231,2221.676944,1776.494261,8438.347739
1434.593550,3064.381992,1998.556043,6439.791695
1434.593869,3294.210641,2146.597232,3849.070898
1434.594187,3524.039291,2294.638420,3775.050304
1434.594506,2604.724693,1628.453072,4145.153275
1434.594825,1685.410096,1184.329507,5033.400406
1434.595144,306.438199,444.123565,6661.853478
1434.595462,-1302.362347,-296.082377,9104.533087
1434.595781,-2451.505594,-1924.535449,11399.171507
1434.596100,-3140.991542,-1998.556043,12509.480420
1434.596418,-3447.429741,-1776.494261,13841.851115
1434.596737,-2911.162892,-1702.473667,14434.015869
1434.597056,-2068.457845,-2220.617826,12583.501014
1434.597375,-766.095498,-592.164754,11547.212695
1434.597693,459.657299,296.082377,8956.491898
1434.598012,1608.800546,666.185348,6883.915261
1434.598331,2834.553343,1554.432478,4589.276840
1434.598649,3677.258390,2072.576638,3701.029710
1434.598968,3524.039291,2368.659014,4293.194464
1434.599287,2757.943793,1480.411884,4885.359217
1434.599606,1455.581446,370.102971,7328.038826
1434.599924,76.609550,-222.061783,9622.677246
1434.600243,-1532.190996,-666.185348,11251.130318
1434.600562,-2834.553343,-1036.288319,12879.583391
1434.600881,-2528.115143,-592.164754,13989.892304
1434.601199,-2374.896044,-1036.288319,14285.974681
1434.601518,-1685.410096,-1110.308913,12583.501014
1434.601837,-766.095498,222.061783,11399.171507
1434.602155,306.438199,1332.370696,9252.574275
1434.602474,995.924147,1998.556043,6735.874072
1434.602793,1762.019645,1998.556043,5995.668130
1434.603112,2221.676944,2886.803174,5625.565159
1434.603430,2451.505594,3330.926739,5181.441594
1434.603749,2834.553343,3256.906145,6365.771101
1434.604068,2451.505594,2664.741391,8290.306550
1434.604386,1532.190996,1998.556043,9696.697840
1434.604705,689.485948,1110.308913,10807.006753
1434.605024,76.609550,-0.000000,12435.459826
1434.605343,0.000000,-148.041188,13989.892304
1434.605661,76.609550,444.123565,13323.706956
1434.605980,766.095498,444.123565,11769.274478
1434.606299,1225.752797,1258.350101,10732.986159
1434.606618,1455.581446,1554.432478,9326.594869
1434.606936,1991.848295,1406.391290,7254.018232
1434.607255,2221.676944,1554.432478,6143.709319
1434.607574,2451.505594,1480.411884,6143.709319
1434.607892,1685.410096,1554.432478,6735.874072
1434.608211,995.924147,370.102971,7846.182985
1434.608530,306.438199,-148.041188,9622.677246
1434.608849,0.000000,-888.247130,11621.233289
1434.609167,-536.266849,-962.267725,11843.295072
1434.609486,-459.657299,-1258.350101,13027.624579
1434.609805,-459.657299,-1776.494261,13841.851115
1434.610123,-383.047749,-962.267725,12435.459826
1434.610442,153.219100,-592.164754,10732.986159
1434.610761,689.485948,1110.308913,8660.409521
1434.611080,842.705048,1258.350101,7254.018232
1434.611398,919.314598,1036.288319,5995.668130
1434.611717,612.876398,888.247130,5699.585753
1434.612036,229.828649,-370.102971,6143.709319
1434.612355,-459.657299,-74.020594,7105.977043
1434.612673,-766.095498,-1036.288319,8586.388927
1434.612992,-1072.533697,-1406.391290,9918.759623
1434.613311,-1302.362347,-1554.432478,10807.006753
1434.613629,-689.485948,-1628.453072,11843.295072
1434.613948,0.000000,-1036.288319,11917.315666
1434.614267,1378.971896,-296.082377,11325.150913
1434.614586,2298.286494,296.082377,9918.759623
1434.614904,2528.115143,1258.350101,8438.347739
1434.615223,2757.943793,2072.576638,6587.832884
1434.615542,2528.115143,2368.659014,4145.153275
1434.615860,2604.724693,2220.617826,4145.153275
1434.616179,1838.629195,1850.514855,4367.215058
1434.616498,459.657299,1406.391290,4959.379811
1434.616817,0.000000,518.144159,7031.956449
1434.617135,-1762.019645,-518.144159,9252.574275
1434.617454,-3064.381992,-1776.494261,11103.089130
1434.617773,-3907.087040,-3330.926739,12953.603985
1434.618091,-3370.820191,-2886.803174,14211.954086
1434.618410,-3064.381992,-2368.659014,13915.871710
1434.618729,-1302.362347,-1480.411884,12509.480420
1434.619048,0.000000,-518.144159,10510.924376
1434.619366,1608.800546,222.061783,9326.594869
1434.619685,2987.772442,1036.288319,7254.018232
1434.620004,2834.553343,1998.556043,4737.318029
1434.620323,3447.429741,2516.700203,3849.070898
1434.620641,3370.820191,3034.844362,3997.112087
1434.620960,2528.115143,1702.473667,5625.565159
1434.621279,919.314598,592.164754,7846.182985
1434.621597,0.000000,-370.102971,10066.800811
1434.621916,-1225.752797,-1332.370696,11843.295072
1434.622235,-1608.800546,-1850.514855,14063.912898
1434.622554,-1532.190996,-2294.638420,14804.118840
1434.622872,-1149.143247,-1332.370696,14434.015869
1434.623191,0.000000,-1480.411884,13323.706956
1434.623510,842.705048,-148.041188,11251.130318
1434.623828,2145.067394,1036.288319,8956.491898
1434.624147,3217.601092,2738.761985,6143.709319
1434.624466,3753.867940,3478.967927,4589.276840
1434.624785,3600.648841,3701.029710,4737.318029
1434.625103,3524.039291,4071.132681,5107.421000
1434.625422,2911.162892,2738.761985,6439.791695
1434.625741,2451.505594,2294.638420,8734.430116
1434.626060,1149.143247,1554.432478,10436.903782
1434.626378,76.609550,-0.000000,11917.315666
1434.626697,-766.095498,-962.267725,13619.789333
1434.627016,-153.219100,-740.205942,14359.995275
1434.627334,-229.828649,-518.144159,13249.686362
1434.627653,842.705048,444.123565,11991.336260
1434.627972,1302.362347,518.144159,10658.965565
1434.628291,1608.800546,1184.329507,8364.327145
1434.628609,1072.533697,1036.288319,6661.853478
1434.628928,536.266849,1110.308913,5255.462188
1434.629247,0.000000,1332.370696,5625.565159
1434.629565,-689.485948,1480.411884,5847.626942
1434.629884,-1608.800546,666.185348,8068.244768
1434.630203,-2604.724693,-444.123565,10881.027347
1434.630522,-3370.820191,-1258.350101,12657.521608
1434.630840,-3370.820191,-1184.329507,13175.665768
1434.631159,-3677.258390,-1036.288319,13915.871710
1434.631478,-2298.286494,-1554.432478,13989.892304
1434.631796,-1762.019645,-666.185348,13101.645173
1434.632115,-612.876398,-0.000000,10732.986159
1434.632434,766.095498,1406.391290,8734.430116
1434.632753,1838.629195,1702.473667,5773.606348
1434.633071,2757.943793,1184.329507,4145.153275
1434.633390,2221.676944,1406.391290,4293.194464
1434.633709,1532.190996,888.247130,4737.318029
1434.634028,689.485948,666.185348,5329.482782
1434.634346,-153.219100,-74.020594,7624.121203
1434.634665,-766.095498,-370.102971,10066.800811
1434.634984,-842.705048,-444.123565,11177.109724
1434.635302,-842.705048,-0.000000,11695.253884
1434.635621,-153.219100,-740.205942,13323.706956
1434.635940,1072.533697,-1110.308913,13397.727550
1434.636259,2068.457845,-592.164754,11547.212695
1434.636577,3677.258390,1480.411884,9474.636058
1434.636896,4903.011187,2072.576638,6661.853478
1434.637215,5592.497135,2368.659014,4663.297435
1434.637533,5362.668486,1998.556043,2886.803174
1434.637852,5132.839837,2146.597232,3330.926739
1434.638171,4136.915689,1184.329507,4293.194464
1434.638490,2528.115143,740.205942,6439.791695
1434.638808,1072.533697,-592.164754,8660.409521
1434.639127,-766.095498,-1628.453072,11325.150913
1434.639446,-2451.505594,-2886.803174,12953.603985
1434.639765,-2987.772442,-2812.782580,14211.954086
1434.640083,-2528.115143,-2368.659014,15026.180623
1434.640402,-2145.067394,-1998.556043,14211.954086
1434.640721,-1225.752797,-962.267725,11917.315666
1434.641039,306.438199,148.041188,10658.965565
1434.641358,1378.971896,814.226536,8142.265362
1434.641677,1838.629195,1850.514855,5033.400406
1434.641996,1685.410096,1850.514855,3997.112087
1434.642314,1378.971896,2886.803174,4219.173869
1434.642633,1149.143247,1924.535449,4663.297435
1434.642952,-459.657299,740.205942,6439.791695
1434.643270,-1378.971896,-814.226536,10066.800811
1434.643589,-2911.162892,-1776.494261,11325.150913
1434.643908,-3983.696590,-2146.597232,13027.624579
1434.644227,-3983.696590,-2294.638420,14656.077652
1434.644545,-3294.210641,-1480.411884,14730.098246
1434.644864,-2298.286494,-518.144159,13027.624579
1434.645183,-153.219100,370.102971,11843.295072
1434.645502,536.266849,1924.535449,9474.636058
1434.645820,2834.553343,2590.720797,6661.853478
1434.646139,3217.601092,3552.988522,3552.988522
1434.646458,3983.696590,3775.050304,3330.926739
1434.646776,3907.087040,3182.885551,3627.009116
1434.647095,2987.772442,2886.803174,4367.215058
1434.647414,2298.286494,1036.288319,6957.935855
1434.647733,612.876398,-74.020594,10510.924376
1434.648051,-612.876398,-1110.308913,12435.459826
1434.648370,-1302.362347,-1628.453072,14063.912898
1434.648689,-1378.971896,-1628.453072,15692.365970
1434.649007,-1149.143247,-1258.350101,15174.221811
1434.649326,612.876398,-296.082377,13249.686362
1434.649645,1225.752797,518.144159,11547.212695
1434.649964,2757.943793,1184.329507,9178.553681
1434.650282,3294.210641,1776.494261,6587.832884
1434.650601,4136.915689,2072.576638,4663.297435
1434.650920,4443.353888,1998.556043,4145.153275
1434.651238,3370.820191,1776.494261,3923.091493
1434.651557,2298.286494,888.247130,5995.668130
1434.651876,1225.752797,592.164754,8142.265362
1434.652195,153.219100,-0.000000,10140.821405
1434.652513,-995.924147,-1184.329507,12139.377449
1434.652832,-1915.238745,-1776.494261,14211.954086
1434.653151,-2681.334243,-2516.700203,15692.365970
1434.653470,-1915.238745,-1480.411884,14359.995275
1434.653788,-1302.362347,-222.061783,12361.439231
1434.654107,-153.219100,1110.308913,10510.924376
1434.654426,766.095498,1850.514855,7920.203579
1434.654744,1455.581446,1998.556043,5403.503377
1434.655063,2451.505594,2368.659014,4071.132681
1434.655382,2681.334243,2442.679609,3849.070898
1434.655701,1838.629195,2368.659014,3923.091493
1434.656019,1225.752797,1998.556043,5255.462188
1434.656338,-383.047749,740.205942,8512.368333
1434.656657,-919.314598,-370.102971,10436.903782
1434.656975,-1762.019645,-962.267725,11695.253884
1434.657294,-2221.676944,-888.247130,13471.748144
1434.657613,-2068.457845,-518.144159,14211.954086
1434.657932,-1532.190996,-1184.329507,13619.789333
1434.658250,-842.705048,-518.144159,12139.377449
1434.658569,-153.219100,222.061783,10140.821405
1434.658888,383.047749,1110.308913,7772.162391
1434.659207,1532.190996,1776.494261,5329.482782
1434.659525,2221.676944,1258.350101,4885.359217
1434.659844,2221.676944,1332.370696,4663.297435
1434.660163,1685.410096,888.247130,5329.482782
1434.660481,1225.752797,-296.082377,7254.018232
1434.660800,153.219100,-1258.350101,9992.780217
1434.661119,-383.047749,-1702.473667,11695.253884
1434.661438,-842.705048,-2220.617826,12879.583391
1434.661756,-1302.362347,-1850.514855,14211.954086
1434.662075,-919.314598,-1628.453072,13767.830521
1434.662394,0.000000,-888.247130,11769.274478
1434.662712,1072.533697,740.205942,10288.862594
1434.663031,1915.238745,962.267725,8660.409521
1434.663350,1378.971896,1406.391290,6513.812290
1434.663669,1225.752797,1554.432478,5477.523971
1434.663987,1608.800546,1850.514855,4811.338623
1434.664306,1225.752797,1702.473667,5477.523971
1434.664625,536.266849,1036.288319,7105.977043
1434.664944,-383.047749,518.144159,8512.368333
1434.665262,-689.485948,-148.041188,9918.759623
1434.665581,-1532.190996,-1184.329507,11399.171507
1434.665900,-1685.410096,-1332.370696,13471.748144
1434.666218,-612.876398,-518.144159,13175.665768
1434.666537,0.000000,740.205942,11843.295072
1434.666856,1149.143247,740.205942,10807.006753
1434.667175,1838.629195,1406.391290,9474.636058
1434.667493,2604.724693,2072.576638,7179.997637
1434.667812,2911.162892,2442.679609,5033.400406
1434.668131,3140.991542,2738.761985,5033.400406
1434.668449,3064.381992,2442.679609,5033.400406
1434.668768,2145.067394,1998.556043,5699.585753
1434.669087,1225.752797,1258.350101,7105.977043
1434.669406,153.219100,222.061783,9844.739029
1434.669724,-153.219100,-1036.288319,11991.336260
1434.670043,-919.314598,-1554.432478,12879.583391
1434.670362,-842.705048,-1850.514855,13841.851115
1434.670680,-536.266849,-1850.514855,14211.954086
1434.670999,536.266849,-1110.308913,13545.768739
1434.671318,1685.410096,-0.000000,10807.006753
1434.671637,2834.553343,2294.638420,8290.306550
1434.671955,3447.429741,2590.720797,6513.812290
1434.672274,3524.039291,3256.906145,5255.462188
1434.672593,2528.115143,2072.576638,4737.318029
1434.672912,1149.143247,2146.597232,5181.441594
1434.673230,-383.047749,1184.329507,6587.832884
1434.673549,-2528.115143,-962.267725,9474.636058
1434.673868,-3294.210641,-1184.329507,11695.253884
1434.674186,-4290.134789,-1702.473667,12509.480420
1434.674505,-4519.963438,-1480.411884,14137.933492
1434.674824,-3907.087040,-1924.535449,15322.262999
1434.675143,-3524.039291,-1110.308913,14878.139434
1434.675461,-1685.410096,148.041188,12583.501014
1434.675780,-306.438199,1258.350101,10288.862594
1434.676099,842.705048,2294.638420,8586.388927
1434.676417,2298.286494,2590.720797,5773.606348
1434.676736,2911.162892,3182.885551,3701.029710
1434.677055,3677.258390,3108.864956,3775.050304
1434.677374,2681.334243,2664.741391,3404.947333
1434.677692,1991.848295,1332.370696,5625.565159
1434.678011,229.828649,518.144159,7994.224174
1434.678330,-766.095498,-370.102971,9918.759623
1434.678649,-1685.410096,-1332.370696,11917.315666
1434.678967,-3447.429741,-888.247130,13249.686362
1434.679286,-2451.505594,-1702.473667,15618.345376
1434.679605,-1685.410096,-592.164754,14285.974681
1434.679923,-306.438199,-444.123565,13397.727550
1434.680242,1378.971896,-296.082377,11843.295072
1434.680561,2298.286494,1776.494261,8438.347739
1434.680880,4136.915689,1480.411884,5699.585753
1434.681198,4903.011187,1628.453072,4145.153275
1434.681517,4979.620737,1554.432478,4293.194464
1434.681836,4979.620737,1184.329507,3775.050304
1434.682154,3983.696590,1258.350101,4515.256246
1434.682473,3064.381992,666.185348,7254.018232
1434.682792,1532.190996,-222.061783,9474.636058
1434.683111,-459.657299,-888.247130,10807.006753
1434.683429,-1225.752797,-2146.597232,13619.789333
1434.683748,-2221.676944,-2294.638420,14063.912898
1434.684067,-2145.067394,-2294.638420,13989.892304
1434.684385,-1608.800546,-1554.432478,12879.583391
1434.684704,-1302.362347,148.041188,11473.192101
1434.685023,-459.657299,-296.082377,8290.306550
1434.685342,153.219100,666.185348,6957.935855
1434.685660,766.095498,1850.514855,6143.709319
1434.685979,689.485948,2072.576638,4959.379811
1434.686298,1072.533697,2368.659014,5181.441594
1434.686617,1302.362347,1406.391290,6439.791695
1434.686935,153.219100,888.247130,8956.491898
1434.687254,-459.657299,-666.185348,9474.636058
1434.687573,-842.705048,-888.247130,10732.986159
1434.687891,-1762.019645,-814.226536,11843.295072
1434.688210,-1532.190996,-1036.288319,12065.356855
1434.688529,-1149.143247,-444.123565,11621.233289
1434.688848,-995.924147,148.041188,10807.006753
1434.689166,-536.266849,962.267725,8808.450710
1434.689485,-306.438199,1924.535449,7254.018232
1434.689804,383.047749,2590.720797,6957.935855
1434.690122,536.266849,1850.514855,5403.503377
1434.690441,766.095498,1776.494261,6291.750507
1434.690760,459.657299,296.082377,8438.347739
1434.691079,459.657299,-0.000000,9104.533087
1434.691397,612.876398,666.185348,9844.739029
1434.691716,459.657299,-74.020594,11029.068536
1434.692035,689.485948,-0.000000,12361.439231
1434.692353,1378.971896,-0.000000,12213.398043
1434.692672,2145.067394,814.226536,11251.130318
1434.692991,2528.115143,1184.329507,10584.944971
1434.693310,2834.553343,1850.514855,9770.718434
1434.693628,2604.724693,1998.556043,7624.121203
1434.693947,2298.286494,1258.350101,6513.812290
1434.694266,2221.676944,962.267725,6957.935855
1434.694584,1915.238745,814.226536,6809.894666
1434.694903,995.924147,666.185348,6809.894666
1434.695222,306.438199,740.205942,9178.553681
1434.695540,0.000000,-666.185348,10584.944971
1434.695859,-766.095498,-1258.350101,11473.192101
1434.696178,-536.266849,-592.164754,13027.624579
1434.696496,-153.219100,-370.102971,13619.789333
1434.696815,306.438199,-0.000000,13027.624579
1434.697134,1378.971896,-444.123565,11843.295072
1434.697452,2221.676944,-148.041188,11029.068536
1434.697771,2528.115143,814.226536,8438.347739
1434.698090,2911.162892,1110.308913,6365.771101
1434.698409,2834.553343,1628.453072,5403.503377
1434.698727,2528.115143,1702.473667,5033.400406
1434.699046,1762.019645,1110.308913,5625.565159
1434.699365,306.438199,370.102971,6883.915261
1434.699683,-1149.143247,-518.144159,9252.574275
1434.700002,-2221.676944,-1036.288319,11325.150913
1434.700321,-3524.039291,-1554.432478,12065.356855
1434.700639,-2451.505594,-1702.473667,13767.830521
1434.700958,-2604.724693,-2294.638420,13619.789333
1434.701277,-1838.629195,-2516.700203,14508.036463
1434.701595,-536.266849,-888.247130,11843.295072
1434.701914,1455.581446,666.185348,9548.656652
1434.702233,2757.943793,1998.556043,7994.224174
1434.702552,3447.429741,2886.803174,5625.565159
1434.702870,3983.696590,2516.700203,4589.276840
1434.703189,2681.334243,3478.967927,3256.906145
1434.703508,3600.648841,2368.659014,5551.544565
1434.703826,1608.800546,1258.350101,6291.750507
1434.704145,689.485948,444.123565,7846.182985
1434.704464,-1225.752797,-1110.308913,9844.739029
1434.704782,-1915.238745,-2072.576638,12361.439231
1434.705101,-2757.943793,-2960.823768,13545.768739
1434.705420,-2834.553343,-1332.370696,12509.480420
1434.705738,-2145.067394,-444.123565,12287.418637
1434.706057,-1378.971896,-444.123565,11917.315666
1434.706376,-995.924147,592.164754,9696.697840
1434.706694,0.000000,1258.350101,7624.121203
1434.707013,536.266849,1924.535449,6143.709319
1434.707332,1685.410096,2516.700203,5403.503377
1434.707651,1685.410096,2590.720797,5255.462188
1434.707969,1532.190996,1776.494261,4811.338623
1434.708288,1225.752797,592.164754,7179.997637
1434.708607,766.095498,518.144159,8808.450710
1434.708925,459.657299,-148.041188,9696.697840
1434.709244,0.000000,-148.041188,11029.068536
1434.709563,-153.219100,-444.123565,12657.521608
1434.709881,76.609550,-1110.308913,11991.336260
1434.710200,0.000000,-222.061783,11473.192101
1434.710519,536.266849,-0.000000,10881.027347
1434.710837,995.924147,888.247130,8882.471304
1434.711156,1455.581446,1776.494261,7031.956449
1434.711475,1915.238745,1406.391290,6661.853478
1434.711793,1532.190996,814.226536,6513.812290
1434.712112,2068.457845,814.226536,6883.915261
1434.712431,1991.848295,-0.000000,7920.203579
1434.712750,2221.676944,-0.000000,9770.718434
