#time,accel_x,accel_y,accel_z
1985.622802,689.485948,222.061783,9474.636058
1985.623119,766.095498,-74.020594,9474.636058
1985.623436,842.705048,222.061783,9474.636058
1985.623754,1072.533697,148.041188,9178.553681
1985.624071,536.266849,296.082377,9400.615463
1985.624388,766.095498,518.144159,9474.636058
1985.624705,1378.971896,-0.000000,9548.656652
1985.625022,766.095498,148.041188,9252.574275
1985.625340,842.705048,296.082377,9474.636058
1985.625657,766.095498,222.061783,9474.636058
1985.625974,842.705048,-0.000000,9474.636058
1985.626291,766.095498,148.041188,9400.615463
1985.626609,766.095498,222.061783,9400.615463
1985.626926,536.266849,148.041188,9400.615463
1985.627243,995.924147,444.123565,9474.636058
1985.627560,995.924147,296.082377,9400.615463
1985.627877,689.485948,222.061783,9696.697840
1985.628195,612.876398,-0.000000,9400.615463
1985.628512,689.485948,-0.000000,9326.594869
1985.628829,612.876398,370.102971,9400.615463
1985.629146,459.657299,296.082377,9474.636058
1985.629463,459.657299,-0.000000,9400.615463
1985.629781,842.705048,222.061783,9400.615463
1985.630098,995.924147,296.082377,9326.594869
1985.630415,842.705048,-0.000000,9400.615463
1985.630732,612.876398,222.061783,9400.615463
1985.631050,689.485948,148.041188,9474.636058
1985.631367,766.095498,296.082377,9474.636058
1985.631684,1072.533697,222.061783,9326.594869
1985.632001,842.705048,296.082377,9474.636058
1985.632318,766.095498,296.082377,9474.636058
1985.632636,842.705048,296.082377,9252.574275
1985.632953,612.876398,148.041188,9548.656652
1985.633270,995.924147,370.102971,9252.574275
1985.633587,766.095498,296.082377,9400.615463
1985.633904,995.924147,-148.041188,9326.594869
1985.634222,612.876398,148.041188,9474.636058
1985.634539,919.314598,296.082377,9474.636058
1985.634856,766.095498,222.061783,9474.636058
1985.635173,919.314598,-0.000000,9326.594869
1985.635490,383.047749,-0.000000,9178.553681
1985.635808,842.705048,-0.000000,9326.594869
1985.636125,459.657299,-0.000000,9326.594869
1985.636442,689.485948,296.082377,9474.636058
1985.636759,1072.533697,222.061783,9474.636058
1985.637077,766.095498,148.041188,9474.636058
1985.637394,842.705048,-0.000000,9474.636058
1985.637711,612.876398,296.082377,9474.636058
1985.638028,919.314598,296.082377,9326.594869
1985.638345,536.266849,-0.000000,9326.594869
1985.638663,842.705048,-0.000000,9474.636058
1985.638980,995.924147,370.102971,9252.574275
1985.639297,689.485948,74.020594,9474.636058
1985.639614,689.485948,296.082377,9326.594869
1985.639931,689.485948,148.041188,9696.697840
1985.640249,766.095498,-0.000000,9400.615463
1985.640566,766.095498,222.061783,9474.636058
1985.640883,842.705048,296.082377,9474.636058
1985.641200,766.095498,296.082377,9400.615463
1985.641518,766.095498,296.082377,9326.594869
1985.641835,612.876398,-0.000000,9400.615463
1985.642152,919.314598,222.061783,9252.574275
1985.642469,612.876398,296.082377,9548.656652
1985.642786,612.876398,-0.000000,9400.615463
1985.643104,689.485948,74.020594,9474.636058
1985.643421,689.485948,148.041188,9622.677246
1985.643738,612.876398,222.061783,9474.636058
1985.644055,689.485948,518.144159,9474.636058
1985.644372,383.047749,518.144159,9474.636058
1985.644690,76.609550,370.102971,9474.636058
1985.645007,689.485948,592.164754,9400.615463
1985.645324,536.266849,518.144159,9548.656652
1985.645641,689.485948,518.144159,9548.656652
1985.645958,383.047749,518.144159,9696.697840
1985.646276,536.266849,666.185348,9770.718434
1985.646593,536.266849,518.144159,9696.697840
1985.646910,612.876398,814.226536,9622.677246
1985.647227,689.485948,888.247130,9770.718434
1985.647545,229.828649,962.267725,9622.677246
1985.647862,153.219100,1036.288319,9844.739029
1985.648179,536.266849,962.267725,9844.739029
1985.648496,229.828649,1036.288319,9474.636058
1985.648813,306.438199,740.205942,9770.718434
1985.649131,0.000000,888.247130,9474.636058
1985.649448,-536.266849,1258.350101,9030.512492
1985.649765,-919.314598,1406.391290,9326.594869
1985.650082,-1072.533697,1184.329507,9030.512492
1985.650399,-1762.019645,592.164754,9474.636058
1985.650717,-2298.286494,222.061783,9622.677246
1985.651034,-2911.162892,592.164754,9770.718434
1985.651351,-3140.991542,740.205942,9622.677246
1985.651668,-3753.867940,1184.329507,9474.636058
1985.651985,-3600.648841,1480.411884,9696.697840
1985.652303,-3983.696590,1998.556043,9030.512492
1985.652620,-4290.134789,2368.659014,9178.553681
1985.652937,-4060.306139,2072.576638,9400.615463
1985.653254,-4596.572988,2220.617826,9178.553681
1985.653572,-4519.963438,2294.638420,9104.533087
1985.653889,-4903.011187,2294.638420,8956.491898
1985.654206,-5362.668486,2368.659014,9104.533087
1985.654523,-5439.278036,2960.823768,8882.471304
1985.654840,-4903.011187,3330.926739,8216.285956
1985.655158,-5132.839837,3997.112087,8142.265362
1985.655475,-5056.230287,4293.194464,8438.347739
1985.655792,-4903.011187,4441.235652,8142.265362
1985.656109,-4673.182538,4293.194464,8660.409521
1985.656426,-3907.087040,4293.194464,8660.409521
1985.656744,-3524.039291,4441.235652,8956.491898
1985.657061,-2451.505594,4885.359217,9030.512492
1985.657378,-2757.943793,6143.709319,8216.285956
1985.657695,-1608.800546,5921.647536,7476.080014
1985.658013,-1072.533697,6883.915261,7846.182985
1985.658330,229.828649,7550.100608,6883.915261
1985.658647,0.000000,8142.265362,5033.400406
1985.658964,153.219100,6291.750507,7476.080014
1985.659281,-766.095498,6513.812290,7846.182985
1985.659599,-1762.019645,4811.338623,8290.306550
1985.659916,-2145.067394,5181.441594,9104.533087
1985.660233,-3064.381992,4589.276840,9548.656652
1985.660550,-3140.991542,5477.523971,9770.718434
1985.660867,-2451.505594,5921.647536,9696.697840
1985.661185,-2834.553343,5921.647536,9696.697840
1985.661502,-2757.943793,6513.812290,9178.553681
1985.661819,-3600.648841,5329.482782,9400.615463
1985.662136,-4519.963438,4441.235652,10362.883188
1985.662453,-4596.572988,2812.782580,12287.418637
1985.662771,-5286.058936,2442.679609,11991.336260
1985.663088,-4596.572988,2886.803174,12287.418637
1985.663405,-3447.429741,3404.947333,12139.377449
1985.663722,-2298.286494,3701.029710,11177.109724
1985.664040,-919.314598,3923.091493,10881.027347
1985.664357,-1455.581446,3923.091493,10288.862594
1985.664674,-1072.533697,2960.823768,10140.821405
1985.664991,-1608.800546,2146.597232,10214.842000
1985.665308,-1225.752797,1480.411884,11399.171507
1985.665626,-1149.143247,2220.617826,11399.171507
1985.665943,-766.095498,2368.659014,11473.192101
1985.666260,-383.047749,2294.638420,12361.439231
1985.666577,-229.828649,1776.494261,12509.480420
1985.666894,229.828649,1628.453072,12583.501014
1985.667212,306.438199,962.267725,11917.315666
1985.667529,1532.190996,1776.494261,11769.274478
1985.667846,1991.848295,2368.659014,9622.677246
1985.668163,2451.505594,2368.659014,9696.697840
1985.668481,2221.676944,1554.432478,10140.821405
1985.668798,1378.971896,1258.350101,10436.903782
1985.669115,1149.143247,1554.432478,10140.821405
1985.669432,0.000000,1480.411884,10510.924376
1985.669749,-306.438199,1110.308913,10955.047942
1985.670067,-459.657299,666.185348,10510.924376
1985.670384,-459.657299,-0.000000,10140.821405
1985.670701,-536.266849,-222.061783,9918.759623
1985.671018,76.609550,-74.020594,8956.491898
1985.671335,459.657299,222.061783,8142.265362
1985.671653,842.705048,-222.061783,8216.285956
1985.671970,0.000000,-0.000000,7772.162391
1985.672287,-919.314598,518.144159,7105.977043
1985.672604,-1378.971896,814.226536,7698.141797
1985.672921,-1685.410096,444.123565,8734.430116
1985.673239,-2145.067394,444.123565,8438.347739
1985.673556,-2221.676944,-0.000000,8290.306550
1985.673873,-2374.896044,-74.020594,7698.141797
1985.674190,-1915.238745,-296.082377,7550.100608
1985.674508,-1302.362347,-222.061783,7994.224174
1985.674825,-1455.581446,592.164754,7031.956449
1985.675142,-1838.629195,1776.494261,6513.812290
1985.675459,-1915.238745,2368.659014,5699.585753
1985.675776,-2145.067394,2368.659014,6291.750507
1985.676094,-2834.553343,1628.453072,7105.977043
1985.676411,-3447.429741,1332.370696,7698.141797
1985.676728,-3983.696590,814.226536,7920.203579
1985.677045,-4136.915689,592.164754,8068.244768
1985.677362,-3600.648841,370.102971,8438.347739
1985.677680,-2528.115143,592.164754,8364.327145
1985.677997,-1915.238745,1036.288319,7846.182985
1985.678314,-1072.533697,1924.535449,6883.915261
1985.678631,-995.924147,2516.700203,6587.832884
1985.678949,-1149.143247,2442.679609,7698.141797
1985.679266,-1762.019645,2590.720797,7920.203579
1985.679583,-2757.943793,2738.761985,8364.327145
1985.679900,-3524.039291,2886.803174,9104.533087
1985.680217,-3217.601092,3775.050304,9474.636058
1985.680535,-2451.505594,3849.070898,10214.842000
1985.680852,-1838.629195,3775.050304,10510.924376
1985.681169,-1378.971896,4145.153275,10584.944971
1985.681486,-383.047749,4367.215058,10732.986159
1985.681803,612.876398,4885.359217,9770.718434
1985.682121,459.657299,5033.400406,9030.512492
1985.682438,1072.533697,4589.276840,9844.739029
1985.682755,919.314598,4885.359217,9474.636058
1985.683072,612.876398,4515.256246,9696.697840
1985.683389,689.485948,4071.132681,11251.130318
1985.683707,0.000000,4071.132681,11029.068536
1985.684024,-459.657299,3701.029710,10881.027347
1985.684341,-689.485948,3330.926739,10807.006753
1985.684658,-1302.362347,2738.761985,10955.047942
1985.684976,-383.047749,2442.679609,11843.295072
1985.685293,153.219100,2368.659014,11695.253884
1985.685610,689.485948,2072.576638,11991.336260
1985.685928,689.485948,2146.597232,12879.583391
1985.686245,689.485948,2294.638420,12509.480420
1985.686562,612.876398,1776.494261,13397.727550
1985.686880,766.095498,2294.638420,13471.748144
1985.687197,1072.533697,2960.823768,13249.686362
1985.687514,1915.238745,2590.720797,12731.542202
1985.687832,3447.429741,1850.514855,12361.439231
1985.688149,4366.744339,1258.350101,11029.068536
1985.688466,4903.011187,592.164754,10362.883188
1985.688784,5056.230287,-370.102971,10066.800811
1985.689101,4290.134789,-1554.432478,9696.697840
1985.689418,3753.867940,-1924.535449,10584.944971
1985.689735,2757.943793,-1332.370696,10140.821405
1985.690053,2145.067394,-1258.350101,10881.027347
1985.690370,1455.581446,-1554.432478,11399.171507
1985.690687,1072.533697,-1036.288319,11103.089130
1985.691005,919.314598,-1924.535449,10955.047942
1985.691322,536.266849,-1776.494261,10955.047942
1985.691639,1608.800546,-2368.659014,10955.047942
1985.691957,2068.457845,-1702.473667,10214.842000
1985.692274,3524.039291,-1924.535449,9400.615463
1985.692591,3830.477490,-1924.535449,9030.512492
1985.692909,4060.306139,-740.205942,7698.141797
1985.693226,3064.381992,-888.247130,7179.997637
1985.693543,2298.286494,-1628.453072,6957.935855
1985.693861,1302.362347,-1554.432478,6513.812290
1985.694178,-536.266849,-1554.432478,6143.709319
1985.694495,-1378.971896,-1998.556043,6143.709319
1985.694813,-2298.286494,-2664.741391,6513.812290
1985.695130,-1838.629195,-3108.864956,6883.915261
1985.695447,-1838.629195,-3478.967927,6439.791695
1985.695765,-2145.067394,-3849.070898,7476.080014
1985.696082,-1838.629195,-4145.153275,8142.265362
1985.696399,-2221.676944,-3849.070898,7624.121203
1985.696717,-1608.800546,-2220.617826,7179.997637
1985.697034,-153.219100,-1110.308913,6587.832884
1985.697351,0.000000,296.082377,6217.729913
1985.697668,1378.971896,1110.308913,5625.565159
1985.697986,1838.629195,1406.391290,5403.503377
1985.698303,1532.190996,222.061783,5403.503377
1985.698620,1608.800546,-296.082377,6365.771101
1985.698938,995.924147,-296.082377,5773.606348
1985.699255,0.000000,-1258.350101,6735.874072
1985.699572,-76.609550,-1258.350101,7846.182985
1985.699890,-229.828649,-1554.432478,8660.409521
1985.700207,-383.047749,-1258.350101,8808.450710
1985.700524,-689.485948,-1850.514855,10140.821405
1985.700842,-766.095498,-1480.411884,10140.821405
1985.701159,0.000000,-1184.329507,10140.821405
1985.701476,842.705048,-444.123565,10066.800811
1985.701794,2451.505594,444.123565,9992.780217
1985.702111,3370.820191,1554.432478,9178.553681
1985.702428,4826.401637,2368.659014,7772.162391
1985.702746,5592.497135,2442.679609,7698.141797
1985.703063,5362.668486,2886.803174,8068.244768
1985.703380,4366.744339,2590.720797,8734.430116
1985.703698,2987.772442,2368.659014,8808.450710
1985.704015,1072.533697,2368.659014,10066.800811
1985.704332,-612.876398,2220.617826,11103.089130
1985.704650,-2145.067394,2146.597232,11177.109724
1985.704967,-2298.286494,1776.494261,12213.398043
1985.705284,-2987.772442,666.185348,13693.809927
1985.705602,-3217.601092,592.164754,13249.686362
1985.705919,-3140.991542,888.247130,12657.521608
1985.706236,-2757.943793,666.185348,12953.603985
1985.706553,-1532.190996,1036.288319,13471.748144
1985.706871,-612.876398,1554.432478,12435.459826
1985.707188,612.876398,2664.741391,11103.089130
1985.707505,1608.800546,3404.947333,10807.006753
1985.707823,1762.019645,3775.050304,10436.903782
1985.708140,2374.896044,3849.070898,9696.697840
1985.708457,1685.410096,4367.215058,9326.594869
1985.708775,1302.362347,3997.112087,9622.677246
1985.709092,153.219100,3627.009116,9622.677246
1985.709409,-306.438199,3034.844362,10214.842000
1985.709727,-459.657299,2220.617826,11399.171507
1985.710044,-1838.629195,1332.370696,11917.315666
1985.710361,-2528.115143,-0.000000,13027.624579
1985.710679,-1915.238745,-296.082377,13323.706956
1985.710996,-1838.629195,-740.205942,13693.809927
1985.711313,-1225.752797,-814.226536,13545.768739
1985.711631,-536.266849,-148.041188,12805.562797
1985.711948,1838.629195,888.247130,11325.150913
1985.712265,2528.115143,1554.432478,9770.718434
1985.712583,3907.087040,1406.391290,8660.409521
1985.712900,5286.058936,592.164754,8068.244768
1985.713217,5132.839837,666.185348,7031.956449
1985.713535,4826.401637,74.020594,7105.977043
1985.713852,4519.963438,-0.000000,7624.121203
1985.714169,3370.820191,518.144159,7698.141797
1985.714487,2528.115143,-222.061783,8956.491898
1985.714804,1072.533697,-888.247130,9474.636058
1985.715121,229.828649,-1480.411884,9918.759623
1985.715438,0.000000,-2220.617826,9696.697840
1985.715756,0.000000,-3034.844362,10732.986159
1985.716073,766.095498,-3034.844362,10214.842000
1985.716390,1455.581446,-2812.782580,8512.368333
1985.716708,1838.629195,-2072.576638,7402.059420
1985.717025,1685.410096,-2146.597232,7179.997637
1985.717342,2145.067394,-1406.391290,6809.894666
1985.717660,2451.505594,-666.185348,5847.626942
1985.717977,2451.505594,-666.185348,6069.688724
1985.718294,2068.457845,-1036.288319,6291.750507
1985.718612,1608.800546,-1480.411884,6735.874072
1985.718929,1532.190996,-1924.535449,6365.771101
1985.719246,766.095498,-3182.885551,7179.997637
1985.719564,612.876398,-3997.112087,8142.265362
1985.719881,0.000000,-3256.906145,7624.121203
1985.720198,-536.266849,-3034.844362,7846.182985
1985.720516,459.657299,-3478.967927,8956.491898
1985.720833,153.219100,-2812.782580,8660.409521
1985.721150,536.266849,-2368.659014,7772.162391
1985.721468,536.266849,-1702.473667,7105.977043
1985.721785,229.828649,-1702.473667,7476.080014
1985.722102,1302.362347,-2590.720797,8956.491898
1985.722420,153.219100,-1924.535449,6809.894666
1985.722737,536.266849,-2516.700203,8586.388927
1985.723054,842.705048,-1628.453072,8660.409521
1985.723372,919.314598,-1554.432478,8364.327145
1985.723689,1838.629195,-2368.659014,9326.594869
1985.724006,1378.971896,-1628.453072,11399.171507
1985.724323,689.485948,-1776.494261,10732.986159
1985.724641,689.485948,-1850.514855,10288.862594
1985.724958,1685.410096,-814.226536,10881.027347
1985.725275,1915.238745,-222.061783,10658.965565
1985.725593,3064.381992,1554.432478,9548.656652
1985.725910,3830.477490,2072.576638,8512.368333
1985.726227,4213.525239,1776.494261,8364.327145
1985.726545,3983.696590,1480.411884,8364.327145
1985.726862,2987.772442,962.267725,7994.224174
1985.727179,2298.286494,-444.123565,8586.388927
1985.727497,459.657299,-518.144159,9622.677246
1985.727814,-383.047749,-1036.288319,10658.965565
1985.728131,-842.705048,296.082377,10584.944971
1985.728449,-1455.581446,-0.000000,12213.398043
1985.728766,-1991.848295,-370.102971,12657.521608
1985.729083,-1838.629195,-0.000000,12953.603985
1985.729401,-1149.143247,740.205942,12805.562797
1985.729718,-459.657299,1258.350101,12657.521608
1985.730035,689.485948,2590.720797,12065.356855
1985.730353,2451.505594,4145.153275,10362.883188
1985.730670,3677.258390,5255.462188,8290.306550
1985.730987,4749.792088,5107.421000,8512.368333
1985.731305,3830.477490,3923.091493,8882.471304
1985.731622,3370.820191,3923.091493,7179.997637
1985.731939,1915.238745,2368.659014,7624.121203
1985.732257,0.000000,1628.453072,8956.491898
1985.732574,-1225.752797,666.185348,10066.800811
1985.732891,-2374.896044,148.041188,10510.924376
1985.733208,-3370.820191,-0.000000,10881.027347
1985.733526,-4136.915689,-444.123565,12509.480420
1985.733843,-4290.134789,-740.205942,13175.665768
1985.734160,-3217.601092,-296.082377,13471.748144
1985.734478,-2987.772442,-0.000000,12953.603985
1985.734795,-1302.362347,1110.308913,12657.521608
1985.735112,-153.219100,1998.556043,11103.089130
1985.735430,1915.238745,3034.844362,10140.821405
1985.735747,3677.258390,3849.070898,8734.430116
1985.736064,4596.572988,3478.967927,7698.141797
1985.736382,4826.401637,3552.988522,6143.709319
1985.736699,5362.668486,2812.782580,5847.626942
1985.737016,4596.572988,1702.473667,5921.647536
1985.737334,3907.087040,-0.000000,6957.935855
1985.737651,1838.629195,-888.247130,7328.038826
1985.737968,229.828649,-1554.432478,8364.327145
1985.738286,-1455.581446,-2960.823768,9918.759623
1985.738603,-2451.505594,-3997.112087,11177.109724
1985.738920,-3830.477490,-3775.050304,11473.192101
1985.739238,-3217.601092,-3256.906145,12435.459826
1985.739555,-2374.896044,-2072.576638,11843.295072
1985.739872,-689.485948,-1332.370696,10658.965565
1985.740190,1532.190996,-222.061783,9104.533087
1985.740507,2757.943793,370.102971,8068.244768
1985.740824,3447.429741,148.041188,7031.956449
1985.741142,4519.963438,962.267725,6217.729913
1985.741459,4596.572988,1036.288319,5403.503377
1985.741776,4826.401637,962.267725,5847.626942
1985.742093,3677.258390,148.041188,6365.771101
1985.742411,2604.724693,-518.144159,6809.894666
1985.742728,995.924147,-1480.411884,7254.018232
1985.743045,-229.828649,-2886.803174,9474.636058
1985.743363,-1532.190996,-4219.173869,10510.924376
1985.743680,-2298.286494,-4293.194464,10732.986159
1985.743997,-2221.676944,-3552.988522,11029.068536
1985.744315,-1915.238745,-3478.967927,10955.047942
1985.744632,-842.705048,-2812.782580,10140.821405
1985.744949,229.828649,-1332.370696,9400.615463
1985.745267,1302.362347,-518.144159,8586.388927
1985.745584,1915.238745,-74.020594,8364.327145
1985.745901,2451.505594,-222.061783,8068.244768
1985.746219,3294.210641,-222.061783,7772.162391
1985.746536,3983.696590,370.102971,8068.244768
1985.746853,4213.525239,888.247130,7550.100608
1985.747171,4213.525239,1184.329507,7550.100608
1985.747488,3447.429741,1184.329507,8068.244768
1985.747805,3217.601092,518.144159,9178.553681
1985.748123,1762.019645,296.082377,9770.718434
1985.748440,995.924147,-148.041188,10066.800811
1985.748757,612.876398,-444.123565,10584.944971
1985.749075,0.000000,-370.102971,10955.047942
1985.749392,306.438199,444.123565,10510.924376
1985.749709,0.000000,962.267725,9844.739029
1985.750027,-306.438199,1036.288319,9696.697840
1985.750344,0.000000,962.267725,9030.512492
1985.750661,153.219100,1036.288319,9622.677246
1985.750978,383.047749,888.247130,9548.656652
1985.751296,383.047749,888.247130,9622.677246
1985.751613,153.219100,1258.350101,9696.697840
1985.751930,153.219100,1702.473667,10140.821405
1985.752248,153.219100,1924.535449,10732.986159
1985.752565,-536.266849,1628.453072,10955.047942
1985.752882,-153.219100,1924.535449,11769.274478
1985.753200,-229.828649,2664.741391,10807.006753
1985.753517,383.047749,3034.844362,10362.883188
1985.753834,612.876398,3182.885551,10510.924376
1985.754152,459.657299,3034.844362,9400.615463
1985.754469,612.876398,3330.926739,8290.306550
1985.754786,536.266849,2368.659014,8290.306550
1985.755104,76.609550,1406.391290,8734.430116
1985.755421,-689.485948,1184.329507,9178.553681
1985.755738,-1838.629195,814.226536,8956.491898
1985.756056,-2221.676944,740.205942,9474.636058
1985.756373,-2834.553343,-0.000000,10584.944971
1985.756690,-2834.553343,370.102971,10807.006753
1985.757008,-2987.772442,814.226536,10584.944971
1985.757325,-2604.724693,740.205942,11695.253884
1985.757642,-2221.676944,1258.350101,11325.150913
1985.757960,-1378.971896,1924.535449,10436.903782
1985.758277,-383.047749,2812.782580,10362.883188
1985.758594,919.314598,3552.988522,10066.800811
1985.758911,1378.971896,4145.153275,9104.533087
1985.759229,2298.286494,3627.009116,8438.347739
1985.759546,2374.896044,3034.844362,7772.162391
1985.759863,2221.676944,2294.638420,7402.059420
1985.760181,1685.410096,1628.453072,7328.038826
1985.760498,842.705048,-0.000000,8438.347739
1985.760815,383.047749,-74.020594,8364.327145
1985.761133,306.438199,-0.000000,8512.368333
1985.761450,-229.828649,-1110.308913,9696.697840
1985.761767,-995.924147,-2294.638420,10510.924376
1985.762085,-1378.971896,-2146.597232,10510.924376
1985.762402,-1072.533697,-1258.350101,10584.944971
1985.762719,-459.657299,-962.267725,11399.171507
1985.763037,842.705048,-148.041188,10881.027347
1985.763354,1149.143247,1554.432478,9326.594869
1985.763671,2911.162892,2294.638420,7772.162391
1985.763989,3677.258390,1850.514855,7476.080014
1985.764306,4596.572988,1406.391290,7328.038826
1985.764623,4290.134789,1480.411884,7254.018232
1985.764941,3907.087040,740.205942,7476.080014
1985.765258,2987.772442,-0.000000,7994.224174
1985.765575,2145.067394,-444.123565,7698.141797
1985.765893,1532.190996,-370.102971,8882.471304
1985.766210,76.609550,-962.267725,9622.677246
1985.766527,-919.314598,-2220.617826,10732.986159
1985.766845,-1225.752797,-2590.720797,11251.130318
1985.767162,-1838.629195,-2442.679609,11177.109724
1985.767479,-1378.971896,-2886.803174,12065.356855
1985.767796,-766.095498,-2220.617826,11177.109724
1985.768114,383.047749,-1554.432478,9992.780217
1985.768431,1608.800546,-370.102971,9474.636058
1985.768748,2604.724693,666.185348,8808.450710
1985.769066,3524.039291,1036.288319,7994.224174
1985.769383,3524.039291,222.061783,6957.935855
1985.769700,2911.162892,740.205942,7179.997637
1985.770018,2757.943793,148.041188,7846.182985
1985.770335,1991.848295,-0.000000,8142.265362
1985.770652,1149.143247,-296.082377,8734.430116
1985.770970,383.047749,-148.041188,9696.697840
1985.771287,-612.876398,-444.123565,10214.842000
1985.771604,-1072.533697,-1850.514855,11325.150913
1985.771922,-1378.971896,-2516.700203,12287.418637
1985.772239,-2068.457845,-1998.556043,11991.336260
1985.772556,-1302.362347,-1776.494261,12139.377449
1985.772874,-229.828649,-592.164754,10288.862594
1985.773191,842.705048,148.041188,9622.677246
1985.773508,1685.410096,888.247130,8808.450710
1985.773826,2068.457845,2146.597232,8068.244768
1985.774143,3140.991542,2368.659014,6957.935855
1985.774460,2834.553343,1776.494261,7105.977043
1985.774778,2834.553343,1702.473667,8142.265362
1985.775095,2068.457845,1184.329507,8364.327145
1985.775412,1838.629195,1998.556043,8364.327145
1985.775730,766.095498,814.226536,9622.677246
1985.776047,76.609550,1332.370696,10881.027347
1985.776364,-306.438199,1406.391290,10140.821405
1985.776681,-229.828649,1184.329507,10214.842000
1985.776999,-1072.533697,592.164754,10436.903782
1985.777316,-919.314598,-0.000000,11103.089130
1985.777633,-536.266849,-0.000000,9770.718434
1985.777951,0.000000,592.164754,9400.615463
1985.778268,0.000000,-148.041188,9178.553681
1985.778585,153.219100,296.082377,8956.491898
1985.778903,-76.609550,740.205942,7476.080014
1985.779220,306.438199,1184.329507,8290.306550
1985.779537,689.485948,1628.453072,8068.244768
1985.779855,459.657299,1554.432478,8290.306550
1985.780172,459.657299,1258.350101,8956.491898
1985.780489,-229.828649,962.267725,9696.697840
1985.780807,-383.047749,666.185348,10214.842000
1985.781124,-153.219100,592.164754,10510.924376
1985.781441,-536.266849,1184.329507,10436.903782
1985.781759,0.000000,1554.432478,10881.027347
1985.782076,842.705048,1332.370696,10288.862594
1985.782393,1149.143247,1110.308913,9252.574275
1985.782711,1608.800546,1332.370696,9770.718434
1985.783028,1378.971896,518.144159,9178.553681
1985.783345,1072.533697,888.247130,7920.203579
1985.783663,1149.143247,444.123565,7994.224174
1985.783980,612.876398,222.061783,8586.388927
1985.784297,-306.438199,-222.061783,9474.636058
1985.784615,76.609550,-296.082377,9696.697840
1985.784932,459.657299,-592.164754,10288.862594
1985.785249,0.000000,-518.144159,11029.068536
1985.785566,536.266849,-518.144159,11177.109724
1985.785884,383.047749,-222.061783,10658.965565
1985.786201,995.924147,296.082377,10436.903782
1985.786518,1915.238745,1332.370696,10436.903782
1985.786836,2604.724693,1702.473667,9326.594869
1985.787153,3600.648841,1924.535449,8882.471304
1985.787470,3677.258390,1998.556043,8142.265362
1985.787788,3677.258390,814.226536,8734.430116
1985.788105,1455.581446,444.123565,7179.997637
1985.788422,1225.752797,-1406.391290,9326.594869
1985.788740,-766.095498,-1628.453072,8734.430116
1985.789057,-536.266849,-1998.556043,9918.759623
1985.789374,-1302.362347,-2294.638420,9770.718434
1985.789692,-1378.971896,-1480.411884,10807.006753
1985.790009,-1302.362347,-2146.597232,10955.047942
1985.790326,-1762.019645,-1702.473667,10362.883188
1985.790644,-612.876398,-1554.432478,11473.192101
1985.790961,-383.047749,-962.267725,10584.944971
1985.791278,1302.362347,-444.123565,10510.924376
1985.791596,2451.505594,296.082377,9104.533087
1985.791913,3600.648841,1184.329507,8808.450710
1985.792230,4596.572988,2368.659014,7624.121203
1985.792548,4519.963438,1554.432478,7328.038826
1985.792865,3983.696590,1332.370696,7105.977043
1985.793182,3294.210641,592.164754,7920.203579
1985.793500,2374.896044,-148.041188,8364.327145
1985.793817,1762.019645,-222.061783,8438.347739
1985.794134,842.705048,-1258.350101,9474.636058
1985.794451,0.000000,-1184.329507,10140.821405
1985.794769,-612.876398,-2368.659014,11251.130318
1985.795086,-995.924147,-2368.659014,11177.109724
1985.795403,-689.485948,-2516.700203,11547.212695
1985.795721,0.000000,-1702.473667,10881.027347
1985.796038,842.705048,-1258.350101,10288.862594
1985.796355,1838.629195,-0.000000,9252.574275
1985.796673,2681.334243,370.102971,8290.306550
1985.796990,2987.772442,1110.308913,7772.162391
1985.797307,3524.039291,1110.308913,7624.121203
1985.797625,3524.039291,1184.329507,6513.812290
1985.797942,2681.334243,592.164754,7698.141797
1985.798259,1685.410096,-370.102971,8586.388927
1985.798577,612.876398,-740.205942,9178.553681
1985.798894,-306.438199,-666.185348,9400.615463
1985.799211,-1532.190996,-1628.453072,10807.006753
1985.799529,-1991.848295,-1332.370696,11473.192101
1985.799846,-2528.115143,-1110.308913,10658.965565
1985.800163,-2068.457845,-814.226536,10436.903782
1985.800481,-1762.019645,-740.205942,10658.965565
1985.800798,-1072.533697,-814.226536,10436.903782
1985.801115,-153.219100,-74.020594,9474.636058
1985.801433,153.219100,222.061783,8734.430116
1985.801750,1149.143247,1036.288319,8512.368333
1985.802067,1685.410096,1184.329507,7994.224174
1985.802384,2298.286494,1258.350101,6809.894666
1985.802702,1762.019645,1702.473667,7550.100608
1985.803019,1302.362347,1554.432478,8364.327145
1985.803336,1149.143247,1850.514855,8216.285956
1985.803654,1455.581446,1850.514855,8734.430116
1985.803971,536.266849,888.247130,9474.636058
1985.804288,-383.047749,-0.000000,11103.089130
1985.804606,-689.485948,296.082377,10288.862594
1985.804923,-306.438199,-0.000000,10881.027347
1985.805240,0.000000,-222.061783,11325.150913
1985.805558,612.876398,888.247130,10807.006753
1985.805875,1532.190996,1628.453072,9252.574275
1985.806192,1991.848295,2072.576638,8290.306550
1985.806510,2757.943793,1702.473667,8364.327145
1985.806827,3140.991542,1184.329507,7920.203579
1985.807144,2681.334243,444.123565,7550.100608
1985.807462,2068.457845,148.041188,8142.265362
1985.807779,1455.581446,-444.123565,9474.636058
1985.808096,995.924147,-222.061783,9844.739029
1985.808414,229.828649,370.102971,10436.903782
1985.808731,-153.219100,814.226536,10732.986159
1985.809048,-383.047749,518.144159,11473.192101
1985.809366,-459.657299,518.144159,10881.027347
1985.809683,229.828649,370.102971,11621.233289
1985.810000,1455.581446,518.144159,11695.253884
1985.810317,1072.533697,370.102971,10881.027347
1985.810635,2068.457845,888.247130,9104.533087
1985.810952,2374.896044,148.041188,9622.677246
1985.811269,2298.286494,-0.000000,9474.636058
1985.811587,2221.676944,-148.041188,8512.368333
1985.811904,1915.238745,-0.000000,7624.121203
1985.812221,842.705048,-444.123565,8586.388927
1985.812539,76.609550,-740.205942,9104.533087
1985.812856,76.609550,-1406.391290,9104.533087
1985.813173,-306.438199,-1554.432478,9474.636058
1985.813491,-689.485948,-1850.514855,11251.130318
1985.813808,-995.924147,-1184.329507,11177.109724
1985.814125,-383.047749,-518.144159,10436.903782
1985.814443,766.095498,-74.020594,10140.821405
1985.814760,536.266849,-222.061783,10658.965565
1985.815077,1225.752797,370.102971,9622.677246
1985.815395,2528.115143,518.144159,8512.368333
1985.815712,2987.772442,1036.288319,7624.121203
1985.816029,3600.648841,740.205942,7846.182985
1985.816347,3370.820191,148.041188,6883.915261
1985.816664,2068.457845,-740.205942,6957.935855
1985.816981,1149.143247,-1110.308913,7772.162391
1985.817299,689.485948,-1036.288319,8068.244768
1985.817616,0.000000,-1036.288319,8438.347739
1985.817933,-919.314598,-1258.350101,9474.636058
1985.818251,-1838.629195,-1924.535449,10807.006753
1985.818568,-1915.238745,-2146.597232,11177.109724
1985.818885,-1685.410096,-1628.453072,11029.068536
1985.819202,-689.485948,-592.164754,10362.883188
1985.819520,153.219100,-518.144159,10807.006753
1985.819837,1532.190996,740.205942,9548.656652
1985.820154,2834.553343,962.267725,8438.347739
1985.820472,3600.648841,1850.514855,7476.080014
1985.820789,4060.306139,1332.370696,7402.059420
1985.821106,3907.087040,740.205942,6883.915261
1985.821424,2681.334243,-0.000000,7031.956449
1985.821741,1532.190996,-148.041188,7846.182985
1985.822058,995.924147,-444.123565,8956.491898
1985.822376,-306.438199,-0.000000,8290.306550
1985.822693,-1149.143247,-592.164754,9622.677246
1985.823010,-1762.019645,-1110.308913,11029.068536
1985.823328,-2451.505594,-1406.391290,11325.150913
1985.823645,-2298.286494,-1924.535449,11029.068536
1985.823962,-1915.238745,-962.267725,11843.295072
1985.824280,-766.095498,-222.061783,11695.253884
1985.824597,1149.143247,666.185348,10214.842000
1985.824914,1762.019645,1554.432478,9178.553681
1985.825232,2987.772442,1924.535449,9178.553681
1985.825549,3600.648841,2886.803174,8438.347739
1985.825866,3907.087040,2886.803174,6957.935855
1985.826184,3753.867940,2590.720797,7402.059420
1985.826501,2681.334243,1924.535449,8956.491898
1985.826818,1225.752797,814.226536,8956.491898
1985.827135,612.876398,814.226536,9400.615463
1985.827453,-612.876398,222.061783,10658.965565
1985.827770,-766.095498,-148.041188,11473.192101
1985.828087,-1915.238745,222.061783,11177.109724
1985.828405,-1532.190996,-148.041188,11843.295072
1985.828722,-1378.971896,-370.102971,11325.150913
1985.829039,-766.095498,148.041188,10732.986159
1985.829357,229.828649,666.185348,10214.842000
1985.829674,1455.581446,1776.494261,9252.574275
1985.829991,2451.505594,1554.432478,9104.533087
1985.830309,3370.820191,1702.473667,8882.471304
1985.830626,2987.772442,1850.514855,7624.121203
1985.830943,3064.381992,1258.350101,7920.203579
1985.831261,2221.676944,1850.514855,8734.430116
1985.831578,1762.019645,1776.494261,8734.430116
1985.831895,1072.533697,1924.535449,9326.594869
1985.832213,-383.047749,1258.350101,9992.780217
1985.832530,-1072.533697,592.164754,10955.047942
1985.832847,-1302.362347,296.082377,11177.109724
1985.833165,-1302.362347,370.102971,10807.006753
1985.833482,-1532.190996,-74.020594,11177.109724
1985.833799,-1378.971896,-222.061783,11769.274478
1985.834117,-383.047749,-0.000000,10140.821405
1985.834434,306.438199,666.185348,9104.533087
1985.834751,995.924147,1184.329507,8586.388927
1985.835069,1455.581446,1036.288319,7920.203579
1985.835386,2145.067394,1332.370696,7031.956449
1985.835703,1915.238745,1110.308913,7254.018232
1985.836020,1378.971896,666.185348,8142.265362
1985.836338,612.876398,222.061783,8808.450710
1985.836655,153.219100,-0.000000,9178.553681
1985.836972,-383.047749,148.041188,9992.780217
1985.837290,-995.924147,444.123565,10881.027347
1985.837607,-919.314598,1110.308913,10288.862594
1985.837924,-536.266849,1554.432478,10066.800811
1985.838242,0.000000,962.267725,10066.800811
1985.838559,689.485948,740.205942,9992.780217
1985.838876,766.095498,740.205942,8956.491898
1985.839194,1455.581446,444.123565,8142.265362
1985.839511,1762.019645,-0.000000,8290.306550
1985.839828,2145.067394,-666.185348,8068.244768
1985.840146,2145.067394,-1036.288319,7105.977043
1985.840463,1455.581446,-1036.288319,7476.080014
1985.840780,689.485948,-1258.350101,8808.450710
1985.841098,536.266849,-666.185348,8734.430116
1985.841415,-229.828649,-814.226536,9104.533087
1985.841732,-995.924147,-1258.350101,10362.883188
1985.842050,-1455.581446,-1110.308913,11473.192101
1985.842367,-1455.581446,-666.185348,11103.089130
1985.842684,-383.047749,222.061783,10881.027347
1985.843002,536.266849,-0.000000,11029.068536
1985.843319,1302.362347,592.164754,10658.965565
1985.843636,2221.676944,740.205942,9400.615463
1985.843953,2834.553343,-0.000000,8882.471304
1985.844271,3294.210641,-148.041188,8956.491898
1985.844588,3217.601092,-296.082377,7550.100608
1985.844905,2604.724693,148.041188,6809.894666
1985.845223,2298.286494,-370.102971,7624.121203
1985.845540,1149.143247,-814.226536,8438.347739
1985.845857,536.266849,-666.185348,8808.450710
1985.846175,-383.047749,-1036.288319,9770.718434
1985.846492,-1455.581446,-1480.411884,11103.089130
1985.846809,-1455.581446,-1850.514855,11843.295072
1985.847127,-1685.410096,-888.247130,11473.192101
1985.847444,-1532.190996,-814.226536,11991.336260
1985.847761,-153.219100,444.123565,11399.171507
1985.848079,612.876398,1332.370696,10140.821405
1985.848396,2528.115143,2368.659014,9104.533087
1985.848713,4136.915689,2294.638420,8512.368333
1985.849031,3677.258390,2294.638420,7846.182985
1985.849348,3524.039291,2072.576638,7031.956449
1985.849665,3217.601092,1628.453072,7105.977043
1985.849983,2451.505594,814.226536,7476.080014
1985.850300,1685.410096,296.082377,8660.409521
1985.850617,536.266849,518.144159,8512.368333
1985.850935,-612.876398,-0.000000,8808.450710
1985.851252,-1838.629195,-592.164754,10732.986159
1985.851569,-2528.115143,-1258.350101,12139.377449
1985.851887,-2604.724693,-888.247130,11251.130318
1985.852204,-2145.067394,-296.082377,11695.253884
1985.852521,-1532.190996,-0.000000,11991.336260
1985.852838,383.047749,888.247130,11029.068536
1985.853156,1608.800546,2146.597232,9104.533087
1985.853473,2681.334243,2368.659014,8586.388927
1985.853790,3447.429741,2886.803174,7994.224174
1985.854108,4213.525239,2664.741391,6661.853478
1985.854425,3907.087040,1924.535449,6883.915261
1985.854742,2834.553343,1184.329507,7994.224174
1985.855060,1608.800546,740.205942,8216.285956
1985.855377,1072.533697,740.205942,7994.224174
1985.855694,-306.438199,-296.082377,9622.677246
1985.856012,-1762.019645,-888.247130,11325.150913
1985.856329,-2757.943793,-1184.329507,11843.295072
1985.856646,-2681.334243,-296.082377,10955.047942
1985.856964,-2374.896044,-222.061783,11399.171507
1985.857281,-1762.019645,518.144159,11177.109724
1985.857598,-842.705048,444.123565,10510.924376
1985.857916,459.657299,888.247130,9770.718434
1985.858233,1072.533697,740.205942,9622.677246
1985.858550,1685.410096,1332.370696,9696.697840
1985.858868,2528.115143,1924.535449,8142.265362
1985.859185,2834.553343,2664.741391,7328.038826
1985.859502,2221.676944,1850.514855,7994.224174
1985.859820,2298.286494,1702.473667,8068.244768
1985.860137,1455.581446,1258.350101,8512.368333
1985.860454,306.438199,740.205942,9326.594869
1985.860771,-383.047749,74.020594,10214.842000
1985.861089,-1149.143247,-518.144159,10362.883188
1985.861406,-1991.848295,-518.144159,10881.027347
1985.861723,-2068.457845,-1480.411884,11177.109724
1985.862041,-1455.581446,-1036.288319,10955.047942
1985.862358,-536.266849,-666.185348,9992.780217
1985.862675,306.438199,370.102971,9030.512492
1985.862993,1378.971896,888.247130,9178.553681
1985.863310,2145.067394,444.123565,8586.388927
1985.863627,2604.724693,148.041188,7846.182985
1985.863945,2834.553343,518.144159,8290.306550
1985.864262,2451.505594,888.247130,9104.533087
1985.864579,2451.505594,1258.350101,8586.388927
1985.864897,2221.676944,1406.391290,8882.471304
1985.865214,2145.067394,370.102971,9622.677246
1985.865531,459.657299,-74.020594,10510.924376
1985.865849,0.000000,-814.226536,10288.862594
1985.866166,229.828649,-888.247130,10510.924376
1985.866483,153.219100,-518.144159,10584.944971
1985.866801,306.438199,-888.247130,10288.862594
1985.867118,1149.143247,-1480.411884,9548.656652
1985.867435,612.876398,-2146.597232,9474.636058
1985.867753,1149.143247,-1850.514855,9178.553681
1985.868070,1225.752797,-1850.514855,8882.471304
1985.868387,1149.143247,-740.205942,8290.306550
1985.868705,1455.581446,-1184.329507,8734.430116
1985.869022,995.924147,-1184.329507,9326.594869
1985.869339,536.266849,-1924.535449,10066.800811
1985.869656,1072.533697,-1110.308913,9992.780217
1985.869974,536.266849,-888.247130,10510.924376
1985.870291,995.924147,-148.041188,10658.965565
1985.870608,689.485948,-148.041188,10214.842000
1985.870926,1378.971896,444.123565,9992.780217
1985.871243,1608.800546,222.061783,9696.697840
1985.871560,1915.238745,-0.000000,9252.574275
1985.871878,2911.162892,592.164754,8142.265362
1985.872195,2911.162892,814.226536,7402.059420
1985.872512,2604.724693,-74.020594,7846.182985
1985.872830,1991.848295,-814.226536,7254.018232
1985.873147,1455.581446,-0.000000,6809.894666
1985.873464,1225.752797,222.061783,7772.162391
1985.873782,306.438199,518.144159,8142.265362
1985.874099,306.438199,-0.000000,8290.306550
1985.874416,-536.266849,296.082377,9326.594869
1985.874734,-842.705048,148.041188,9918.759623
1985.875051,-1455.581446,-296.082377,11251.130318
1985.875368,-995.924147,-74.020594,10955.047942
1985.875686,-919.314598,518.144159,10807.006753
1985.876003,229.828649,1036.288319,10658.965565
1985.876320,1072.533697,1332.370696,10658.965565
1985.876638,2068.457845,1776.494261,8808.450710
1985.876955,2911.162892,1850.514855,8586.388927
1985.877272,3064.381992,2664.741391,7179.997637
1985.877589,3140.991542,1406.391290,7402.059420
1985.877907,2681.334243,888.247130,6883.915261
1985.878224,1991.848295,148.041188,7105.977043
1985.878541,766.095498,-444.123565,8586.388927
1985.878859,-306.438199,-1332.370696,9696.697840
1985.879176,-842.705048,-1258.350101,9622.677246
1985.879493,-1915.238745,-1184.329507,10658.965565
1985.879811,-1762.019645,-1184.329507,12139.377449
1985.880128,-1915.238745,-1110.308913,11621.233289
1985.880445,-1608.800546,-1258.350101,11103.089130
1985.880763,0.000000,-74.020594,12213.398043
1985.881080,383.047749,740.205942,11251.130318
1985.881397,2068.457845,1776.494261,10584.944971
1985.881715,2987.772442,2590.720797,9400.615463
1985.882032,3753.867940,2294.638420,9548.656652
1985.882349,3677.258390,2738.761985,7772.162391
1985.882667,3830.477490,2294.638420,6883.915261
1985.882984,3217.601092,1628.453072,7772.162391
1985.883301,2528.115143,740.205942,8882.471304
1985.883619,1378.971896,-222.061783,8808.450710
1985.883936,0.000000,-518.144159,9252.574275
1985.884253,-919.314598,-1628.453072,11029.068536
1985.884571,-1608.800546,-1850.514855,10584.944971
1985.884888,-2604.724693,-1628.453072,10881.027347
1985.885205,-2298.286494,-1258.350101,11769.274478
1985.885523,-2068.457845,-666.185348,11473.192101
1985.885840,-919.314598,-0.000000,10362.883188
1985.886157,229.828649,814.226536,9844.739029
1985.886474,1072.533697,1406.391290,9252.574275
1985.886792,919.314598,1702.473667,8290.306550
1985.887109,2681.334243,1332.370696,7772.162391
1985.887426,2911.162892,666.185348,8586.388927
1985.887744,2528.115143,814.226536,8216.285956
1985.888061,2757.943793,-0.000000,8586.388927
1985.888379,1915.238745,666.185348,7698.141797
1985.888696,1608.800546,-0.000000,9104.533087
1985.889014,919.314598,-0.000000,9030.512492
1985.889331,0.000000,-888.247130,9400.615463
1985.889649,229.828649,-1258.350101,9918.759623
1985.889966,0.000000,-2072.576638,10214.842000
1985.890284,0.000000,-1036.288319,9548.656652
1985.890601,229.828649,-518.144159,10140.821405
1985.890919,612.876398,-370.102971,9918.759623
1985.891236,919.314598,-148.041188,8734.430116
1985.891554,1378.971896,148.041188,9030.512492
1985.891871,1838.629195,518.144159,8808.450710
1985.892188,1762.019645,518.144159,9178.553681
1985.892506,2068.457845,-444.123565,9104.533087
1985.892823,1991.848295,-0.000000,9178.553681
1985.893141,1915.238745,814.226536,9030.512492
1985.893458,1762.019645,814.226536,9918.759623
1985.893776,1149.143247,-74.020594,10362.883188
1985.894093,766.095498,-592.164754,9696.697840
1985.894411,536.266849,444.123565,9178.553681
1985.894728,76.609550,-0.000000,9696.697840
1985.895046,536.266849,-0.000000,9844.739029
1985.895363,842.705048,444.123565,7698.141797
1985.895681,1149.143247,888.247130,7179.997637
1985.895998,689.485948,666.185348,7698.141797
1985.896316,842.705048,-74.020594,8068.244768
1985.896633,0.000000,-1036.288319,7105.977043
1985.896951,0.000000,-1554.432478,8512.368333
1985.897268,-1455.581446,-1998.556043,11029.068536
1985.897586,-1532.190996,-1998.556043,11251.130318
1985.897903,-1455.581446,-1036.288319,10510.924376
1985.898221,-1302.362347,-0.000000,10807.006753
1985.898538,-1225.752797,888.247130,11251.130318
1985.898856,-536.266849,1702.473667,10066.800811
1985.899173,76.609550,1480.411884,9548.656652
1985.899491,1149.143247,2072.576638,9178.553681
1985.899808,2221.676944,1850.514855,9030.512492
1985.900126,2757.943793,1776.494261,8586.388927
1985.900443,2911.162892,1406.391290,8290.306550
1985.900760,2834.553343,888.247130,7920.203579
1985.901078,2604.724693,814.226536,7846.182985
1985.901395,1915.238745,222.061783,7105.977043
1985.901713,1378.971896,-444.123565,8586.388927
1985.902030,383.047749,-740.205942,9696.697840
1985.902348,-229.828649,370.102971,9474.636058
1985.902665,-536.266849,370.102971,10510.924376
1985.902983,-536.266849,296.082377,11399.171507
1985.903300,-766.095498,-0.000000,12361.439231
1985.903618,-229.828649,666.185348,11843.295072
1985.903935,306.438199,1184.329507,11547.212695
1985.904253,1532.190996,1554.432478,11399.171507
1985.904570,2451.505594,2368.659014,10658.965565
1985.904888,3753.867940,2812.782580,8808.450710
1985.905205,3983.696590,2516.700203,7846.182985
1985.905523,3447.429741,1702.473667,7772.162391
1985.905840,3677.258390,1332.370696,6957.935855
1985.906158,2757.943793,740.205942,6883.915261
1985.906475,1149.143247,-296.082377,8364.327145
1985.906793,0.000000,-1036.288319,9252.574275
1985.907110,-1149.143247,-962.267725,9326.594869
1985.907428,-1915.238745,-740.205942,9844.739029
1985.907745,-2145.067394,-888.247130,11029.068536
1985.908063,-2681.334243,-814.226536,11843.295072
1985.908380,-2221.676944,-740.205942,11547.212695
1985.908698,-1455.581446,-592.164754,11621.233289
1985.909015,-1455.581446,-444.123565,12213.398043
1985.909332,229.828649,222.061783,11621.233289
1985.909650,1608.800546,1184.329507,9696.697840
1985.909967,2528.115143,2072.576638,8956.491898
1985.910285,3524.039291,1850.514855,8734.430116
1985.910602,3753.867940,1702.473667,7624.121203
1985.910920,3600.648841,1036.288319,6291.750507
1985.911237,2834.553343,370.102971,7624.121203
1985.911555,2145.067394,-592.164754,8882.471304
1985.911872,842.705048,-814.226536,8512.368333
1985.912190,-536.266849,-1554.432478,9104.533087
1985.912507,-1455.581446,-1776.494261,10288.862594
1985.912825,-1915.238745,-2146.597232,10881.027347
1985.913142,-1838.629195,-1850.514855,10436.903782
1985.913460,-1378.971896,-1480.411884,10510.924376
1985.913777,-536.266849,-814.226536,11103.089130
1985.914095,612.876398,-148.041188,10362.883188
1985.914412,1915.238745,-222.061783,9400.615463
1985.914730,2068.457845,-0.000000,8956.491898
1985.915047,2451.505594,962.267725,8660.409521
1985.915365,3064.381992,1184.329507,8216.285956
1985.915682,2987.772442,1258.350101,7698.141797
1985.916000,2757.943793,740.205942,8438.347739
1985.916317,1685.410096,444.123565,8882.471304
1985.916635,766.095498,518.144159,8290.306550
1985.916952,612.876398,-0.000000,7920.203579
1985.917269,0.000000,-814.226536,9474.636058
1985.917587,-1149.143247,-1036.288319,9252.574275
1985.917904,-1532.190996,-1110.308913,9104.533087
1985.918222,-1072.533697,-1036.288319,9622.677246
1985.918539,-1072.533697,-814.226536,9844.739029
1985.918857,-229.828649,444.123565,9548.656652
1985.919174,306.438199,1332.370696,8512.368333
1985.919492,1149.143247,1258.350101,8438.347739
1985.919809,842.705048,1184.329507,8956.491898
1985.920127,1455.581446,1258.350101,8364.327145
1985.920444,1455.581446,1184.329507,8290.306550
1985.920762,1072.533697,1702.473667,9104.533087
1985.921079,1149.143247,1776.494261,9474.636058
1985.921397,842.705048,2294.638420,9178.553681
1985.921714,536.266849,2072.576638,9696.697840
1985.922032,76.609550,1480.411884,10066.800811
1985.922349,0.000000,962.267725,9844.739029
1985.922667,0.000000,592.164754,9474.636058
1985.922984,-536.266849,-296.082377,10066.800811
1985.923302,0.000000,-74.020594,10066.800811
1985.923619,459.657299,370.102971,8734.430116
1985.923937,919.314598,1110.308913,8364.327145
1985.924254,1302.362347,1554.432478,8290.306550
1985.924572,1532.190996,1258.350101,8512.368333
1985.924889,766.095498,444.123565,8956.491898
1985.925207,0.000000,296.082377,9622.677246
1985.925524,-842.705048,222.061783,10658.965565
1985.925841,-919.314598,740.205942,11843.295072
1985.926159,-842.705048,1036.288319,11325.150913
1985.926476,-766.095498,1702.473667,11843.295072
1985.926794,-842.705048,1628.453072,12361.439231
1985.927111,0.000000,1554.432478,11251.130318
1985.927429,1072.533697,1406.391290,11103.089130
1985.927746,1532.190996,740.205942,11399.171507
1985.928064,1762.019645,740.205942,10732.986159
1985.928381,2374.896044,1184.329507,9474.636058
1985.928699,3370.820191,1924.535449,8364.327145
1985.929016,3907.087040,2072.576638,8216.285956
1985.929334,3907.087040,1924.535449,7624.121203
1985.929651,3217.601092,962.267725,7328.038826
1985.929969,2145.067394,-0.000000,8216.285956
1985.930286,1225.752797,-592.164754,9548.656652
1985.930604,0.000000,-740.205942,9844.739029
1985.930921,-1149.143247,-666.185348,10362.883188
1985.931239,-1685.410096,-296.082377,11473.192101
1985.931556,-1608.800546,370.102971,12139.377449
1985.931874,-1302.362347,370.102971,12065.356855
1985.932191,-76.609550,888.247130,11251.130318
1985.932509,766.095498,888.247130,11177.109724
1985.932826,1608.800546,1184.329507,10362.883188
1985.933144,3140.991542,1184.329507,9178.553681
1985.933461,3830.477490,1184.329507,7994.224174
1985.933779,4366.744339,666.185348,7402.059420
1985.934096,3217.601092,592.164754,6587.832884
1985.934413,2911.162892,-0.000000,6069.688724
1985.934731,2068.457845,-518.144159,6883.915261
1985.935048,536.266849,-1850.514855,8216.285956
1985.935366,-536.266849,-2516.700203,8808.450710
1985.935683,-1838.629195,-2812.782580,9474.636058
1985.936001,-2604.724693,-3478.967927,10658.965565
1985.936318,-2681.334243,-3404.947333,11621.233289
1985.936636,-2221.676944,-1998.556043,10510.924376
1985.936953,-1608.800546,-1702.473667,10510.924376
1985.937271,-306.438199,-1184.329507,11103.089130
1985.937588,842.705048,-370.102971,10214.842000
1985.937906,2451.505594,518.144159,8734.430116
1985.938223,3600.648841,666.185348,7698.141797
1985.938541,3753.867940,444.123565,7254.018232
1985.938858,3907.087040,296.082377,7105.977043
1985.939176,3907.087040,-0.000000,5995.668130
1985.939493,3064.381992,-0.000000,6735.874072
1985.939811,2374.896044,-296.082377,7698.141797
1985.940128,1378.971896,-148.041188,7624.121203
1985.940446,306.438199,-888.247130,7994.224174
1985.940763,-842.705048,-1332.370696,9178.553681
1985.941081,-2221.676944,-1998.556043,9992.780217
1985.941398,-2374.896044,-1776.494261,10732.986159
1985.941716,-2298.286494,-1480.411884,10732.986159
1985.942033,-1838.629195,-814.226536,10807.006753
1985.942350,-536.266849,-74.020594,10732.986159
1985.942668,689.485948,1036.288319,9622.677246
1985.942985,2068.457845,1258.350101,9178.553681
1985.943303,2374.896044,1406.391290,8586.388927
1985.943620,2834.553343,1480.411884,7846.182985
1985.943938,3217.601092,1258.350101,7328.038826
1985.944255,2451.505594,1258.350101,8142.265362
1985.944573,1685.410096,888.247130,8808.450710
1985.944890,1072.533697,1406.391290,8512.368333
1985.945208,153.219100,1702.473667,8660.409521
1985.945525,-306.438199,888.247130,9918.759623
1985.945843,-1072.533697,518.144159,9918.759623
1985.946160,-1455.581446,148.041188,10214.842000
1985.946478,-1608.800546,-222.061783,10584.944971
1985.946795,-919.314598,148.041188,11399.171507
1985.947113,-229.828649,-0.000000,10584.944971
1985.947430,919.314598,1184.329507,9992.780217
1985.947748,1225.752797,1406.391290,9844.739029
1985.948065,1991.848295,962.267725,9770.718434
1985.948383,2451.505594,1110.308913,9474.636058
1985.948700,2068.457845,1184.329507,9696.697840
1985.949018,1608.800546,1332.370696,10584.944971
1985.949335,1302.362347,1702.473667,10658.965565
1985.949653,995.924147,1702.473667,10288.862594
1985.949970,459.657299,2072.576638,10584.944971
1985.950288,76.609550,1850.514855,10955.047942
1985.950605,0.000000,1628.453072,10436.903782
1985.950922,536.266849,1110.308913,10214.842000
1985.951240,536.266849,296.082377,10732.986159
1985.951557,919.314598,296.082377,10732.986159
1985.951875,1455.581446,296.082377,9918.759623
1985.952192,1762.019645,370.102971,9474.636058
1985.952510,2298.286494,814.226536,9252.574275
1985.952827,1838.629195,1332.370696,8586.388927
1985.953145,2298.286494,1480.411884,7846.182985
1985.953462,1608.800546,962.267725,8660.409521
1985.953780,842.705048,1406.391290,9326.594869
1985.954097,153.219100,518.144159,9992.780217
1985.954415,-536.266849,-0.000000,10658.965565
1985.954732,-612.876398,-296.082377,11325.150913
1985.955050,-1302.362347,-296.082377,11991.336260
1985.955367,-995.924147,-0.000000,11251.130318
1985.955685,-1072.533697,888.247130,9918.759623
1985.956002,0.000000,1036.288319,9474.636058
1985.956320,919.314598,814.226536,8882.471304
1985.956637,1378.971896,1258.350101,7920.203579
1985.956955,2221.676944,666.185348,7179.997637
1985.957272,2604.724693,-0.000000,7328.038826
1985.957590,2451.505594,-666.185348,6735.874072
1985.957907,1915.238745,-1036.288319,7105.977043
1985.958225,1149.143247,-1184.329507,7772.162391
1985.958542,-229.828649,-1332.370696,8142.265362
1985.958860,-766.095498,-666.185348,9252.574275
1985.959177,-1072.533697,-888.247130,9548.656652
1985.959494,-1915.238745,-1036.288319,10140.821405
1985.959812,-2298.286494,-1702.473667,11843.295072
1985.960129,-2221.676944,-1406.391290,11103.089130
1985.960447,-995.924147,-1110.308913,10807.006753
1985.960764,-229.828649,-296.082377,10732.986159
1985.961082,1072.533697,-0.000000,10807.006753
1985.961399,2298.286494,518.144159,8586.388927
1985.961717,3753.867940,1036.288319,7179.997637
1985.962034,4826.401637,888.247130,6809.894666
1985.962352,4596.572988,-0.000000,6069.688724
1985.962669,4596.572988,-740.205942,5625.565159
1985.962987,3064.381992,-1258.350101,6661.853478
1985.963304,1455.581446,-1850.514855,7994.224174
1985.963622,536.266849,-2072.576638,9030.512492
1985.963939,-459.657299,-1406.391290,9548.656652
1985.964257,-1378.971896,-1850.514855,11177.109724
1985.964574,-2221.676944,-2146.597232,11843.295072
1985.964892,-1915.238745,-1628.453072,12139.377449
1985.965209,-2068.457845,-1480.411884,12065.356855
1985.965527,-383.047749,-370.102971,12213.398043
1985.965844,919.314598,370.102971,10658.965565
1985.966162,2451.505594,1628.453072,9400.615463
1985.966479,3524.039291,1776.494261,9030.512492
1985.966797,4366.744339,1998.556043,7994.224174
1985.967114,4826.401637,1184.329507,7476.080014
1985.967431,4366.744339,518.144159,7031.956449
1985.967749,3447.429741,-0.000000,7994.224174
1985.968066,2221.676944,-592.164754,9178.553681
1985.968384,1455.581446,-740.205942,9178.553681
1985.968701,153.219100,-888.247130,9178.553681
1985.969019,-919.314598,-1258.350101,10584.944971
1985.969336,-2221.676944,-1480.411884,11029.068536
1985.969654,-2528.115143,-962.267725,10584.944971
1985.969971,-2451.505594,-1036.288319,11843.295072
1985.970289,-1838.629195,-296.082377,12583.501014
1985.970606,-766.095498,148.041188,11547.212695
1985.970924,536.266849,888.247130,10436.903782
1985.971241,2068.457845,1258.350101,9992.780217
1985.971559,2834.553343,1332.370696,9104.533087
1985.971876,3753.867940,962.267725,8290.306550
1985.972194,3600.648841,592.164754,8290.306550
1985.972511,3140.991542,740.205942,7698.141797
1985.972829,2834.553343,518.144159,8660.409521
1985.973146,2145.067394,1036.288319,7772.162391
1985.973464,995.924147,740.205942,8512.368333
1985.973781,-995.924147,222.061783,9474.636058
1985.974099,-1532.190996,148.041188,10066.800811
1985.974416,-2145.067394,222.061783,9474.636058
1985.974734,-2221.676944,592.164754,9918.759623
1985.975051,-1225.752797,666.185348,10510.924376
1985.975369,-383.047749,1110.308913,9622.677246
1985.975686,842.705048,962.267725,8808.450710
1985.976003,1685.410096,1702.473667,8512.368333
1985.976321,2145.067394,2072.576638,8660.409521
1985.976638,2451.505594,1776.494261,7846.182985
1985.976956,2068.457845,1036.288319,7846.182985
1985.977273,1455.581446,1332.370696,8734.430116
1985.977591,995.924147,2220.617826,9104.533087
1985.977908,689.485948,2368.659014,8142.265362
1985.978226,76.609550,1998.556043,8808.450710
1985.978543,-612.876398,1332.370696,9844.739029
1985.978861,-1302.362347,1110.308913,9326.594869
1985.979178,-1838.629195,814.226536,8660.409521
1985.979496,-2145.067394,444.123565,9622.677246
1985.979813,-1225.752797,-0.000000,10214.842000
1985.980131,-766.095498,444.123565,9400.615463
1985.980448,-229.828649,518.144159,9030.512492
1985.980766,306.438199,-0.000000,9326.594869
1985.981083,536.266849,-74.020594,9474.636058
1985.981401,306.438199,-222.061783,9474.636058
1985.981718,0.000000,-296.082377,9252.574275
1985.982036,153.219100,-444.123565,9992.780217
1985.982353,306.438199,-0.000000,10140.821405
1985.982671,229.828649,814.226536,10436.903782
1985.982988,383.047749,666.185348,11177.109724
1985.983306,76.609550,-0.000000,11547.212695
1985.983623,0.000000,148.041188,11547.212695
1985.983941,612.876398,222.061783,10955.047942
1985.984258,919.314598,370.102971,10362.883188
1985.984575,1302.362347,-0.000000,10732.986159
1985.984893,2451.505594,-518.144159,10066.800811
1985.985210,2757.943793,148.041188,8882.471304
1985.985528,4136.915689,-222.061783,8882.471304
1985.985845,4136.915689,-740.205942,8512.368333
1985.986163,3600.648841,-1332.370696,8216.285956
1985.986480,2834.553343,-1332.370696,8956.491898
1985.986798,2298.286494,-1036.288319,9622.677246
1985.987115,1838.629195,-370.102971,9992.780217
1985.987433,1838.629195,222.061783,10140.821405
1985.987750,766.095498,666.185348,10510.924376
1985.988068,229.828649,666.185348,10436.903782
1985.988385,0.000000,518.144159,10584.944971
1985.988703,0.000000,740.205942,9844.739029
1985.989020,612.876398,666.185348,10288.862594
1985.989338,1225.752797,666.185348,10214.842000
1985.989655,2374.896044,740.205942,8808.450710
1985.989973,3217.601092,666.185348,7624.121203
1985.990290,3140.991542,-0.000000,7254.018232
1985.990608,2834.553343,-518.144159,7031.956449
1985.990925,2528.115143,-592.164754,6365.771101
1985.991242,1302.362347,-1110.308913,7254.018232
1985.991560,0.000000,-740.205942,8142.265362
1985.991877,-766.095498,-592.164754,8882.471304
1985.992195,-1378.971896,-666.185348,9104.533087
1985.992512,-2834.553343,-962.267725,9844.739029
1985.992830,-3217.601092,-740.205942,10732.986159
1985.993147,-3217.601092,-296.082377,10732.986159
1985.993465,-2528.115143,-666.185348,10732.986159
1985.993782,-1915.238745,-740.205942,11029.068536
1985.994100,-536.266849,-0.000000,10658.965565
1985.994417,612.876398,518.144159,9178.553681
1985.994735,2221.676944,1480.411884,7846.182985
1985.995052,2834.553343,1332.370696,7550.100608
1985.995370,3447.429741,1258.350101,7476.080014
1985.995687,2987.772442,740.205942,6439.791695
1985.996005,2681.334243,-0.000000,7105.977043
1985.996322,1991.848295,-444.123565,8438.347739
1985.996639,1149.143247,-148.041188,8660.409521
1985.996957,536.266849,296.082377,8512.368333
1985.997274,-459.657299,-296.082377,9844.739029
1985.997592,-1225.752797,-740.205942,10732.986159
1985.997909,-1455.581446,-370.102971,10510.924376
1985.998227,-1762.019645,-222.061783,11029.068536
1985.998544,-1302.362347,-148.041188,11991.336260
1985.998862,-306.438199,592.164754,11399.171507
1985.999179,766.095498,1332.370696,10066.800811
1985.999497,2068.457845,1406.391290,9844.739029
1985.999814,2681.334243,1554.432478,9400.615463
1986.000132,3677.258390,1628.453072,8586.388927
1986.000449,3830.477490,1628.453072,7846.182985
1986.000767,3447.429741,1184.329507,7772.162391
1986.001084,3140.991542,1332.370696,9178.553681
1986.001401,2298.286494,888.247130,8660.409521
1986.001719,1455.581446,962.267725,8438.347739
1986.002036,76.609550,888.247130,9622.677246
1986.002354,-842.705048,370.102971,10140.821405
1986.002671,-1532.190996,-0.000000,10214.842000
1986.002989,-1762.019645,-296.082377,10584.944971
1986.003306,-1608.800546,-518.144159,11695.253884
1986.003624,-995.924147,-518.144159,11399.171507
1986.003941,76.609550,-0.000000,10214.842000
1986.004259,919.314598,814.226536,9252.574275
1986.004576,1762.019645,888.247130,9844.739029
1986.004894,2604.724693,888.247130,8956.491898
1986.005211,2604.724693,888.247130,8290.306550
1986.005529,2681.334243,888.247130,9178.553681
1986.005846,2374.896044,592.164754,9622.677246
1986.006164,1608.800546,666.185348,9770.718434
1986.006481,1302.362347,370.102971,9622.677246
1986.006798,536.266849,296.082377,10362.883188
1986.007116,76.609550,740.205942,10732.986159
1986.007433,0.000000,148.041188,9474.636058
1986.007751,0.000000,222.061783,9622.677246
1986.008068,689.485948,-222.061783,10362.883188
1986.008386,842.705048,-222.061783,9770.718434
1986.008703,1225.752797,-592.164754,9104.533087
1986.009021,1685.410096,-296.082377,8808.450710
1986.009338,1915.238745,-592.164754,8808.450710
1986.009656,2068.457845,-518.144159,8586.388927
1986.009973,1991.848295,-592.164754,8216.285956
1986.010291,1608.800546,-666.185348,9474.636058
1986.010608,1149.143247,-0.000000,9548.656652
1986.010926,919.314598,740.205942,9252.574275
1986.011243,689.485948,1258.350101,9400.615463
1986.011560,153.219100,1184.329507,9696.697840
1986.011878,-306.438199,666.185348,9474.636058
1986.012195,-383.047749,592.164754,9252.574275
1986.012513,-689.485948,148.041188,9474.636058
1986.012830,0.000000,-0.000000,9770.718434
1986.013148,459.657299,-222.061783,9474.636058
1986.013465,842.705048,222.061783,7772.162391
1986.013783,995.924147,148.041188,7846.182985
1986.014100,383.047749,-0.000000,7179.997637
1986.014418,612.876398,-740.205942,7476.080014
1986.014735,306.438199,-666.185348,7846.182985
1986.015053,-689.485948,-888.247130,8586.388927
1986.015370,-995.924147,-962.267725,9622.677246
1986.015688,-1608.800546,-370.102971,9992.780217
1986.016005,-1762.019645,-296.082377,10658.965565
1986.016323,-1838.629195,-0.000000,11399.171507
1986.016640,-1915.238745,592.164754,10955.047942
1986.016957,-919.314598,1332.370696,10066.800811
1986.017275,-229.828649,1036.288319,10288.862594
1986.017592,1149.143247,1258.350101,10066.800811
1986.017910,2528.115143,1702.473667,8734.430116
1986.018227,3600.648841,2220.617826,7254.018232
1986.018545,3983.696590,2072.576638,7179.997637
1986.018862,4366.744339,1258.350101,7105.977043
1986.019180,3830.477490,666.185348,6661.853478
1986.019497,2757.943793,-888.247130,7624.121203
1986.019815,1532.190996,-1776.494261,8882.471304
1986.020132,459.657299,-1332.370696,9696.697840
1986.020450,153.219100,-666.185348,10362.883188
1986.020767,-842.705048,-888.247130,11547.212695
1986.021085,-1455.581446,-740.205942,11695.253884
1986.021402,-1072.533697,-296.082377,12361.439231
1986.021719,-1072.533697,518.144159,11399.171507
1986.022037,76.609550,518.144159,11843.295072
1986.022354,1072.533697,740.205942,11621.233289
1986.022672,1838.629195,1480.411884,10362.883188
1986.022989,2987.772442,1406.391290,9104.533087
1986.023307,3524.039291,1258.350101,8290.306550
1986.023624,3907.087040,1036.288319,7920.203579
1986.023942,3753.867940,148.041188,7105.977043
1986.024259,2987.772442,222.061783,7328.038826
1986.024577,1762.019645,-370.102971,8660.409521
1986.024894,1072.533697,-666.185348,9992.780217
1986.025212,153.219100,-814.226536,9992.780217
1986.025529,-612.876398,-1036.288319,11103.089130
1986.025847,-1378.971896,-666.185348,11769.274478
1986.026164,-2068.457845,-592.164754,11325.150913
1986.026482,-1685.410096,-518.144159,10807.006753
1986.026799,-919.314598,-74.020594,11399.171507
1986.027116,-306.438199,444.123565,10955.047942
1986.027434,842.705048,1184.329507,9474.636058
1986.027751,1685.410096,1332.370696,8660.409521
1986.028069,2451.505594,814.226536,8660.409521
1986.028386,2834.553343,592.164754,8364.327145
1986.028704,1838.629195,-0.000000,7254.018232
1986.029021,1225.752797,-222.061783,8216.285956
1986.029339,536.266849,-518.144159,9326.594869
1986.029656,0.000000,-1036.288319,9548.656652
1986.029974,-766.095498,-444.123565,9474.636058
1986.030291,-1762.019645,-444.123565,10140.821405
1986.030609,-1838.629195,-814.226536,9992.780217
1986.030926,-2145.067394,-518.144159,9474.636058
1986.031244,-1532.190996,-888.247130,9770.718434
1986.031561,-919.314598,-592.164754,9918.759623
1986.031878,-306.438199,-222.061783,9474.636058
1986.032196,1072.533697,-0.000000,9030.512492
1986.032513,1532.190996,740.205942,8068.244768
1986.032831,2451.505594,1480.411884,8142.265362
1986.033148,2451.505594,740.205942,7254.018232
1986.033466,2834.553343,1036.288319,6957.935855
1986.033783,2528.115143,962.267725,7328.038826
1986.034101,1838.629195,1480.411884,8364.327145
1986.034418,1378.971896,1554.432478,8660.409521
1986.034736,536.266849,1850.514855,8660.409521
1986.035053,0.000000,1332.370696,9696.697840
1986.035371,-995.924147,1184.329507,9992.780217
1986.035688,-1302.362347,1036.288319,10362.883188
1986.036006,-1378.971896,592.164754,9622.677246
1986.036323,-306.438199,518.144159,10436.903782
1986.036641,153.219100,518.144159,9474.636058
1986.036958,1149.143247,740.205942,8660.409521
1986.037275,2757.943793,666.185348,7920.203579
1986.037593,2451.505594,-0.000000,8808.450710
1986.037910,2528.115143,-222.061783,8142.265362
1986.038228,1915.238745,-74.020594,7994.224174
1986.038545,1762.019645,-74.020594,9474.636058
1986.038863,612.876398,592.164754,9918.759623
1986.039180,229.828649,1332.370696,9474.636058
1986.039498,306.438199,1628.453072,9696.697840
1986.039815,-306.438199,1332.370696,10436.903782
1986.040133,-612.876398,-0.000000,11177.109724
1986.040450,0.000000,-222.061783,11029.068536
1986.040768,229.828649,-666.185348,11177.109724
1986.041085,995.924147,-814.226536,11991.336260
1986.041403,1685.410096,-666.185348,11103.089130
1986.041720,2528.115143,-0.000000,9622.677246
1986.042037,3524.039291,444.123565,9400.615463
1986.042355,3294.210641,740.205942,8734.430116
1986.042672,3600.648841,740.205942,8660.409521
1986.042990,3064.381992,666.185348,8216.285956
1986.043307,2145.067394,-0.000000,9326.594869
1986.043625,1455.581446,-296.082377,10214.842000
1986.043942,919.314598,-0.000000,10510.924376
1986.044260,766.095498,222.061783,10362.883188
1986.044577,383.047749,296.082377,11029.068536
1986.044895,153.219100,222.061783,11621.233289
1986.045212,153.219100,-0.000000,11547.212695
1986.045530,153.219100,-0.000000,10584.944971
1986.045847,842.705048,222.061783,10955.047942
1986.046165,1072.533697,518.144159,9992.780217
1986.046482,1762.019645,814.226536,8512.368333
1986.046800,2451.505594,888.247130,7772.162391
1986.047117,2451.505594,814.226536,7920.203579
1986.047434,1915.238745,-0.000000,7624.121203
1986.047752,995.924147,-518.144159,7846.182985
1986.048069,0.000000,-1406.391290,9104.533087
1986.048387,-766.095498,-1332.370696,9474.636058
1986.048704,-1225.752797,-592.164754,9474.636058
1986.049022,-2374.896044,-370.102971,9696.697840
1986.049339,-2528.115143,-518.144159,10732.986159
1986.049657,-2451.505594,-222.061783,10288.862594
1986.049974,-2068.457845,-222.061783,10140.821405
1986.050292,-1302.362347,-296.082377,10140.821405
1986.050609,-383.047749,-296.082377,9992.780217
1986.050927,1378.971896,148.041188,8882.471304
1986.051244,3064.381992,592.164754,7846.182985
1986.051562,3600.648841,296.082377,7328.038826
1986.051879,3753.867940,-0.000000,7105.977043
1986.052196,3830.477490,-0.000000,5995.668130
1986.052514,2987.772442,-0.000000,6439.791695
1986.052831,1915.238745,-592.164754,8216.285956
1986.053149,459.657299,-444.123565,8956.491898
1986.053466,-229.828649,-148.041188,9104.533087
1986.053784,-1302.362347,-222.061783,9622.677246
1986.054101,-1991.848295,-444.123565,11177.109724
1986.054419,-2145.067394,-518.144159,11177.109724
1986.054736,-1378.971896,-666.185348,10584.944971
1986.055054,-459.657299,-370.102971,10214.842000
1986.055371,459.657299,-296.082377,10066.800811
1986.055689,1532.190996,148.041188,9696.697840
1986.056006,2681.334243,888.247130,8142.265362
1986.056324,3140.991542,888.247130,7994.224174
1986.056641,3447.429741,740.205942,7994.224174
1986.056959,2681.334243,370.102971,7550.100608
1986.057276,1608.800546,-0.000000,8142.265362
1986.057593,842.705048,-148.041188,9326.594869
1986.057911,-383.047749,-74.020594,9548.656652
1986.058228,-536.266849,370.102971,9400.615463
1986.058546,-1378.971896,296.082377,10066.800811
1986.058863,-2145.067394,-0.000000,10436.903782
1986.059181,-2298.286494,-148.041188,10510.924376
1986.059498,-2145.067394,-74.020594,10955.047942
1986.059816,-1302.362347,-74.020594,10807.006753
1986.060133,-306.438199,-0.000000,10732.986159
1986.060451,842.705048,370.102971,9918.759623
1986.060768,1838.629195,740.205942,9474.636058
1986.061086,2757.943793,1036.288319,9030.512492
1986.061403,3217.601092,592.164754,8734.430116
1986.061721,3447.429741,1258.350101,8216.285956
1986.062038,3140.991542,1480.411884,8438.347739
1986.062355,2528.115143,1702.473667,9030.512492
1986.062673,1608.800546,1628.453072,9326.594869
1986.062990,1225.752797,1850.514855,9252.574275
1986.063308,0.000000,1702.473667,9992.780217
1986.063625,-459.657299,1554.432478,10732.986159
1986.063943,-995.924147,1110.308913,10362.883188
1986.064260,-1302.362347,814.226536,10955.047942
1986.064578,-536.266849,-0.000000,11695.253884
1986.064895,306.438199,-0.000000,10807.006753
1986.065213,1608.800546,222.061783,9696.697840
1986.065530,2604.724693,-222.061783,9696.697840
1986.065848,3294.210641,222.061783,9474.636058
1986.066165,2987.772442,296.082377,8734.430116
1986.066483,2528.115143,962.267725,8438.347739
1986.066800,2298.286494,1480.411884,8734.430116
1986.067118,1838.629195,1924.535449,9474.636058
1986.067435,1685.410096,2368.659014,9770.718434
1986.067752,536.266849,1702.473667,9400.615463
1986.068070,-153.219100,1406.391290,9918.759623
1986.068387,-306.438199,740.205942,10436.903782
1986.068705,-689.485948,518.144159,9844.739029
1986.069022,-306.438199,-444.123565,9918.759623
1986.069340,0.000000,-592.164754,10584.944971
1986.069657,306.438199,-518.144159,9992.780217
1986.069975,1072.533697,444.123565,8734.430116
1986.070292,1532.190996,518.144159,8512.368333
1986.070610,2221.676944,-0.000000,8660.409521
1986.070927,1072.533697,-0.000000,8290.306550
1986.071245,306.438199,-222.061783,8512.368333
1986.071562,0.000000,-296.082377,9474.636058
1986.071880,-536.266849,222.061783,9918.759623
1986.072197,-842.705048,740.205942,9918.759623
1986.072514,-1225.752797,1036.288319,9770.718434
1986.072832,-1532.190996,444.123565,9918.759623
1986.073149,-1608.800546,-0.000000,9918.759623
1986.073467,-383.047749,-148.041188,9844.739029
1986.073784,-383.047749,-740.205942,9918.759623
1986.074102,536.266849,-444.123565,9474.636058
1986.074419,1072.533697,-370.102971,8808.450710
1986.074737,2451.505594,-592.164754,8364.327145
1986.075054,3140.991542,-518.144159,7920.203579
1986.075372,3294.210641,-74.020594,7328.038826
1986.075689,3064.381992,-0.000000,6809.894666
1986.076007,2451.505594,-296.082377,7031.956449
1986.076324,1685.410096,-666.185348,8882.471304
1986.076642,766.095498,-444.123565,9104.533087
1986.076959,0.000000,-1184.329507,9474.636058
1986.077277,-1072.533697,-888.247130,9992.780217
1986.077594,-1455.581446,-740.205942,11177.109724
1986.077911,-1225.752797,-740.205942,11473.192101
1986.078229,-689.485948,-962.267725,11251.130318
1986.078546,-153.219100,-370.102971,10436.903782
1986.078864,766.095498,-74.020594,10140.821405
1986.079181,2451.505594,370.102971,9104.533087
1986.079499,4826.401637,370.102971,7920.203579
1986.079816,5132.839837,-0.000000,7846.182985
1986.080134,5362.668486,148.041188,7254.018232
1986.080451,4979.620737,-222.061783,6661.853478
1986.080769,3447.429741,-296.082377,6957.935855
1986.081086,2298.286494,-666.185348,8586.388927
1986.081404,919.314598,-444.123565,9474.636058
1986.081721,0.000000,-148.041188,9474.636058
1986.082039,-842.705048,-222.061783,10140.821405
1986.082356,-1991.848295,-592.164754,10881.027347
1986.082673,-2221.676944,-888.247130,11399.171507
1986.082991,-1685.410096,-814.226536,11029.068536
1986.083308,-1149.143247,-962.267725,11695.253884
1986.083626,0.000000,-296.082377,11177.109724
1986.083943,1302.362347,666.185348,10140.821405
1986.084261,3217.601092,1628.453072,9252.574275
1986.084578,2911.162892,1554.432478,8956.491898
1986.084896,2834.553343,1850.514855,7994.224174
1986.085213,2221.676944,1850.514855,7328.038826
1986.085531,1532.190996,1406.391290,8290.306550
1986.085848,689.485948,592.164754,8512.368333
1986.086166,153.219100,666.185348,9104.533087
1986.086483,-1072.533697,518.144159,9474.636058
1986.086801,-2145.067394,-296.082377,9992.780217
1986.087118,-3064.381992,-370.102971,10584.944971
1986.087436,-3217.601092,-1332.370696,11325.150913
1986.087753,-3064.381992,-1332.370696,11769.274478
1986.088071,-2604.724693,-814.226536,12139.377449
1986.088388,-1149.143247,-74.020594,11251.130318
1986.088706,306.438199,518.144159,9918.759623
1986.089023,2374.896044,1332.370696,9104.533087
1986.089341,3753.867940,888.247130,8808.450710
1986.089658,4596.572988,962.267725,8142.265362
1986.089976,4596.572988,888.247130,7550.100608
1986.090293,4673.182538,888.247130,8290.306550
1986.090611,3677.258390,1702.473667,9104.533087
1986.090928,2604.724693,1924.535449,8808.450710
1986.091246,1608.800546,2368.659014,8364.327145
1986.091563,766.095498,1406.391290,9326.594869
1986.091881,-153.219100,814.226536,10584.944971
1986.092198,-1225.752797,296.082377,10362.883188
1986.092516,-842.705048,-296.082377,10658.965565
1986.092833,-1302.362347,-370.102971,11103.089130
1986.093151,-459.657299,-148.041188,10732.986159
1986.093468,919.314598,-148.041188,9474.636058
1986.093786,1685.410096,666.185348,8660.409521
1986.094103,2451.505594,1036.288319,8882.471304
1986.094421,2451.505594,814.226536,8660.409521
1986.094738,1991.848295,962.267725,8216.285956
1986.095056,2145.067394,888.247130,8956.491898
1986.095373,1378.971896,1480.411884,9400.615463
1986.095691,842.705048,1406.391290,9400.615463
1986.096008,76.609550,2294.638420,8734.430116
1986.096326,-1072.533697,2294.638420,8290.306550
1986.096643,-1302.362347,2072.576638,9474.636058
1986.096961,-1838.629195,1628.453072,9326.594869
1986.097278,-1685.410096,666.185348,9474.636058
1986.097596,-1685.410096,-296.082377,10140.821405
1986.097913,-689.485948,-740.205942,10214.842000
1986.098231,0.000000,-1258.350101,9548.656652
1986.098548,766.095498,-1702.473667,9474.636058
1986.098866,1302.362347,-1554.432478,9548.656652
1986.099183,2145.067394,-1332.370696,8882.471304
1986.099501,2068.457845,-518.144159,9104.533087
1986.099818,1532.190996,-370.102971,9252.574275
1986.100136,1608.800546,888.247130,9400.615463
1986.100453,2068.457845,1258.350101,9326.594869
1986.100771,1225.752797,1406.391290,9178.553681
1986.101088,919.314598,1036.288319,9548.656652
1986.101406,383.047749,296.082377,9992.780217
1986.101723,229.828649,-0.000000,9696.697840
1986.102041,689.485948,-444.123565,10288.862594
1986.102358,1455.581446,-370.102971,10362.883188
1986.102676,1838.629195,-814.226536,10288.862594
1986.102993,2528.115143,-592.164754,9178.553681
1986.103311,2757.943793,-518.144159,9252.574275
1986.103628,2374.896044,-592.164754,9104.533087
1986.103946,2068.457845,-1036.288319,9622.677246
1986.104263,1072.533697,-518.144159,9104.533087
1986.104581,995.924147,-666.185348,10214.842000
1986.104898,229.828649,518.144159,9918.759623
1986.105216,306.438199,1110.308913,10288.862594
1986.105533,153.219100,1258.350101,9770.718434
1986.105851,76.609550,888.247130,9844.739029
1986.106168,-1072.533697,1332.370696,8734.430116
1986.106486,-229.828649,666.185348,9474.636058
1986.106803,383.047749,148.041188,9474.636058
1986.107121,842.705048,-74.020594,9252.574275
1986.107438,1532.190996,-0.000000,8364.327145
1986.107756,2068.457845,296.082377,7328.038826
1986.108073,2068.457845,444.123565,7328.038826
1986.108391,919.314598,-0.000000,7402.059420
1986.108708,0.000000,-1036.288319,7698.141797
1986.109026,-689.485948,-1184.329507,8290.306550
1986.109343,-2681.334243,-814.226536,9770.718434
1986.109661,-3753.867940,-370.102971,10510.924376
1986.109978,-3370.820191,-962.267725,11325.150913
1986.110296,-3983.696590,-1554.432478,12213.398043
1986.110613,-4673.182538,-1480.411884,11769.274478
1986.110931,-4136.915689,-296.082377,10510.924376
1986.111248,-1915.238745,518.144159,11621.233289
1986.111566,-995.924147,-0.000000,10658.965565
1986.111883,842.705048,444.123565,9474.636058
1986.112201,2834.553343,962.267725,8808.450710
1986.112518,4596.572988,1702.473667,8364.327145
1986.112836,6358.592633,1332.370696,7624.121203
1986.113153,6281.983084,740.205942,6587.832884
1986.113471,5898.935335,370.102971,7179.997637
1986.113788,5056.230287,296.082377,7698.141797
1986.114106,3907.087040,-222.061783,9104.533087
1986.114423,3064.381992,-444.123565,10288.862594
1986.114741,1225.752797,296.082377,9696.697840
1986.115058,383.047749,814.226536,9770.718434
1986.115376,-536.266849,-0.000000,11843.295072
1986.115693,-766.095498,-740.205942,10658.965565
1986.116011,-153.219100,370.102971,9622.677246
1986.116328,76.609550,296.082377,10955.047942
1986.116646,1072.533697,-370.102971,10732.986159
1986.116963,1991.848295,-222.061783,9252.574275
1986.117281,3064.381992,962.267725,9030.512492
1986.117598,3677.258390,370.102971,8586.388927
1986.117916,3830.477490,1184.329507,7105.977043
1986.118233,3830.477490,1110.308913,6735.874072
1986.118551,2834.553343,814.226536,8290.306550
1986.118868,1762.019645,592.164754,8586.388927
1986.119186,536.266849,1184.329507,8438.347739
1986.119503,-383.047749,1628.453072,8734.430116
1986.119821,-1608.800546,1406.391290,9178.553681
1986.120138,-2451.505594,1258.350101,9030.512492
1986.120456,-2911.162892,222.061783,10066.800811
1986.120774,-3140.991542,-148.041188,10288.862594
1986.121091,-2604.724693,-148.041188,10510.924376
1986.121409,-1991.848295,296.082377,9770.718434
1986.121726,-1225.752797,-518.144159,10214.842000
1986.122044,0.000000,-1184.329507,10362.883188
1986.122361,229.828649,-370.102971,9548.656652
1986.122679,536.266849,592.164754,9400.615463
1986.122996,1072.533697,148.041188,10140.821405
1986.123314,1149.143247,222.061783,9770.718434
1986.123631,766.095498,1036.288319,9400.615463
1986.123949,612.876398,1924.535449,10214.842000
1986.124266,459.657299,1776.494261,10066.800811
1986.124584,842.705048,2072.576638,9252.574275
1986.124901,766.095498,1850.514855,9400.615463
1986.125219,229.828649,1110.308913,9696.697840
1986.125536,153.219100,444.123565,9548.656652
1986.125854,689.485948,-296.082377,9918.759623
1986.126171,1378.971896,-1036.288319,10288.862594
1986.126489,1991.848295,-444.123565,9992.780217
1986.126806,2451.505594,-370.102971,8808.450710
1986.127124,2298.286494,-888.247130,9474.636058
1986.127441,2374.896044,-1628.453072,10214.842000
1986.127759,1149.143247,-1480.411884,9918.759623
1986.128076,1532.190996,-962.267725,9992.780217
1986.128394,536.266849,296.082377,10807.006753
1986.128711,536.266849,1554.432478,10807.006753
1986.129029,383.047749,2294.638420,9622.677246
1986.129346,766.095498,1702.473667,9030.512492
1986.129664,842.705048,1184.329507,8956.491898
1986.129981,766.095498,1036.288319,9326.594869
1986.130299,995.924147,-0.000000,9178.553681
1986.130616,1302.362347,-666.185348,8808.450710
1986.130934,2374.896044,-814.226536,9252.574275
1986.131251,2834.553343,-296.082377,8512.368333
1986.131569,2681.334243,-0.000000,7402.059420
1986.131886,2374.896044,-148.041188,7254.018232
1986.132204,2145.067394,-0.000000,7402.059420
1986.132521,1762.019645,370.102971,8586.388927
1986.132839,766.095498,444.123565,9400.615463
1986.133156,-306.438199,518.144159,9622.677246
1986.133474,-766.095498,370.102971,9918.759623
1986.133791,-1072.533697,740.205942,10362.883188
1986.134109,-1149.143247,444.123565,10732.986159
1986.134426,-689.485948,-0.000000,9992.780217
1986.134744,0.000000,296.082377,9770.718434
1986.135061,612.876398,-0.000000,9252.574275
1986.135379,1685.410096,-370.102971,9696.697840
1986.135696,2834.553343,-296.082377,8660.409521
1986.136014,3600.648841,-148.041188,7476.080014
1986.136331,3677.258390,-148.041188,7476.080014
1986.136649,3830.477490,-0.000000,7328.038826
1986.136966,2221.676944,-370.102971,7624.121203
1986.137284,919.314598,-444.123565,8290.306550
1986.137601,-459.657299,-1258.350101,9918.759623
1986.137919,-1762.019645,-740.205942,10288.862594
1986.138236,-1991.848295,-666.185348,10807.006753
1986.138554,-2451.505594,-370.102971,10955.047942
1986.138871,-2374.896044,-444.123565,11399.171507
1986.139189,-2221.676944,-962.267725,11399.171507
1986.139506,-1838.629195,-888.247130,10732.986159
1986.139824,-612.876398,-592.164754,10140.821405
1986.140141,1532.190996,-444.123565,10214.842000
1986.140459,2451.505594,592.164754,9252.574275
1986.140776,3600.648841,814.226536,7994.224174
1986.141094,4290.134789,1628.453072,7624.121203
1986.141411,4136.915689,962.267725,7254.018232
1986.141729,3907.087040,518.144159,7994.224174
1986.142046,2757.943793,-0.000000,8068.244768
1986.142364,1149.143247,-0.000000,8734.430116
1986.142681,306.438199,-74.020594,9622.677246
1986.142999,-689.485948,666.185348,9844.739029
1986.143316,-1072.533697,1110.308913,9326.594869
1986.143634,-1455.581446,666.185348,10584.944971
1986.143951,-1455.581446,814.226536,10658.965565
1986.144269,-1302.362347,444.123565,10510.924376
1986.144586,-842.705048,296.082377,10362.883188
1986.144904,76.609550,-444.123565,11251.130318
1986.145221,1302.362347,222.061783,9770.718434
1986.145539,2757.943793,518.144159,8586.388927
1986.145856,3524.039291,1258.350101,9104.533087
1986.146174,3830.477490,1406.391290,9030.512492
1986.146491,3677.258390,2146.597232,7920.203579
1986.146809,3217.601092,1998.556043,7698.141797
1986.147126,2528.115143,2220.617826,8216.285956
1986.147444,1225.752797,2072.576638,8512.368333
1986.147761,306.438199,1554.432478,8882.471304
1986.148079,-383.047749,1110.308913,9474.636058
1986.148396,-1685.410096,296.082377,10881.027347
1986.148714,-2068.457845,-148.041188,10955.047942
1986.149031,-1608.800546,-666.185348,10807.006753
1986.149349,-1225.752797,-1332.370696,11621.233289
1986.149666,-306.438199,-1110.308913,11177.109724
1986.149984,1072.533697,-148.041188,9918.759623
1986.150301,1762.019645,370.102971,8660.409521
1986.150619,2298.286494,148.041188,8882.471304
1986.150936,2068.457845,666.185348,8586.388927
1986.151254,1991.848295,1258.350101,8438.347739
1986.151571,1149.143247,1480.411884,8290.306550
1986.151889,612.876398,1036.288319,9696.697840
1986.152206,-76.609550,1776.494261,9622.677246
1986.152524,-459.657299,1776.494261,9622.677246
1986.152841,-1149.143247,2368.659014,9474.636058
1986.153159,-919.314598,1036.288319,9918.759623
1986.153477,-1225.752797,592.164754,9474.636058
1986.153794,-1225.752797,-518.144159,9622.677246
1986.154112,-689.485948,-1036.288319,11251.130318
1986.154429,-383.047749,-1554.432478,10510.924376
1986.154747,0.000000,-888.247130,9474.636058
1986.155064,-612.876398,-0.000000,8290.306550
1986.155382,766.095498,-296.082377,9770.718434
1986.155699,536.266849,-666.185348,8956.491898
1986.156017,-459.657299,370.102971,8956.491898
1986.156334,-919.314598,-370.102971,9548.656652
1986.156652,-536.266849,1184.329507,9622.677246
1986.156969,0.000000,-370.102971,10214.842000
1986.157287,-1762.019645,-0.000000,10362.883188
1986.157604,-1302.362347,1480.411884,9474.636058
1986.157922,-229.828649,2664.741391,9400.615463
1986.158239,842.705048,1406.391290,9918.759623
1986.158557,1149.143247,444.123565,9474.636058
1986.158874,2374.896044,-148.041188,9992.780217
1986.159192,2681.334243,-0.000000,9770.718434
1986.159509,4290.134789,-222.061783,8586.388927
1986.159827,5515.887586,-1554.432478,9104.533087
1986.160144,5592.497135,-518.144159,8364.327145
1986.160462,4749.792088,666.185348,8142.265362
1986.160779,3753.867940,962.267725,8512.368333
1986.161097,3830.477490,-0.000000,9474.636058
1986.161414,2604.724693,1480.411884,7994.224174
1986.161732,1685.410096,1702.473667,9252.574275
1986.162049,689.485948,1184.329507,9400.615463
1986.162367,612.876398,-444.123565,9326.594869
1986.162684,383.047749,-0.000000,9770.718434
1986.163002,383.047749,-0.000000,10066.800811
1986.163319,-1225.752797,-592.164754,8586.388927
1986.163637,1685.410096,-2590.720797,9992.780217
1986.163954,612.876398,-1776.494261,9918.759623
1986.164272,1991.848295,-1480.411884,10732.986159
1986.164589,459.657299,-1258.350101,7476.080014
1986.164907,1608.800546,-592.164754,9400.615463
1986.165224,-306.438199,-1184.329507,10140.821405
1986.165542,-1532.190996,-1036.288319,8364.327145
1986.165859,-1608.800546,-222.061783,9992.780217
1986.166177,-3064.381992,888.247130,9992.780217
1986.166494,-1685.410096,296.082377,9918.759623
1986.166812,-2374.896044,814.226536,9992.780217
1986.167129,-2451.505594,-0.000000,11251.130318
1986.167447,-2145.067394,-666.185348,10066.800811
1986.167764,-536.266849,-1998.556043,9400.615463
1986.168082,612.876398,-1406.391290,9622.677246
1986.168399,2068.457845,-1332.370696,9918.759623
1986.168717,3294.210641,-1184.329507,9030.512492
1986.169034,4519.963438,-814.226536,8438.347739
1986.169352,5209.449386,518.144159,8438.347739
1986.169669,4519.963438,2368.659014,6809.894666
1986.169987,4673.182538,1924.535449,8364.327145
1986.170304,3217.601092,2220.617826,7476.080014
1986.170622,1685.410096,592.164754,8586.388927
1986.170939,766.095498,1480.411884,9622.677246
1986.171257,-153.219100,814.226536,10584.944971
1986.171574,-842.705048,296.082377,9770.718434
1986.171892,-995.924147,-592.164754,11029.068536
1986.172209,-1455.581446,-370.102971,11769.274478
1986.172527,-1225.752797,-962.267725,10066.800811
1986.172844,0.000000,-1628.453072,11103.089130
1986.173162,689.485948,-1480.411884,10955.047942
1986.173479,2068.457845,-222.061783,9770.718434
1986.173797,3140.991542,296.082377,8438.347739
1986.174114,3753.867940,592.164754,9400.615463
1986.174432,3983.696590,1258.350101,8216.285956
1986.174749,3983.696590,2368.659014,6883.915261
1986.175067,3140.991542,2812.782580,6883.915261
1986.175384,1072.533697,1702.473667,8068.244768
1986.175702,0.000000,1554.432478,8364.327145
1986.176019,-1378.971896,1776.494261,8512.368333
1986.176337,-2145.067394,1702.473667,9770.718434
1986.176654,-2604.724693,-0.000000,11177.109724
1986.176972,-3217.601092,-888.247130,10584.944971
1986.177289,-2221.676944,-666.185348,11177.109724
1986.177607,-1991.848295,-1036.288319,11399.171507
1986.177924,-536.266849,-1998.556043,11991.336260
1986.178242,689.485948,-518.144159,10436.903782
1986.178559,1838.629195,962.267725,9474.636058
1986.178877,2604.724693,1332.370696,9400.615463
1986.179194,3064.381992,1702.473667,8956.491898
1986.179512,3217.601092,2072.576638,7920.203579
1986.179829,2834.553343,2960.823768,7846.182985
1986.180147,1608.800546,2590.720797,8216.285956
1986.180464,919.314598,1924.535449,8364.327145
1986.180782,536.266849,1258.350101,8808.450710
1986.181099,0.000000,518.144159,9696.697840
1986.181417,-459.657299,74.020594,9992.780217
1986.181734,-995.924147,-888.247130,9844.739029
1986.182052,-995.924147,-2220.617826,10140.821405
1986.182369,-536.266849,-2072.576638,11251.130318
1986.182687,76.609550,-1628.453072,11843.295072
1986.183004,612.876398,-1480.411884,10658.965565
1986.183322,1608.800546,-962.267725,9992.780217
1986.183639,2068.457845,-74.020594,10362.883188
1986.183957,2298.286494,666.185348,9474.636058
1986.184274,3064.381992,814.226536,9178.553681
1986.184592,2374.896044,740.205942,8956.491898
1986.184909,1532.190996,888.247130,9400.615463
1986.185227,1532.190996,1924.535449,8512.368333
1986.185544,1378.971896,1184.329507,8734.430116
1986.185862,1302.362347,1110.308913,8586.388927
1986.186180,1072.533697,1110.308913,8660.409521
1986.186497,306.438199,1110.308913,8068.244768
1986.186815,842.705048,-444.123565,8586.388927
1986.187132,842.705048,-1480.411884,9548.656652
1986.187450,919.314598,-2072.576638,10140.821405
1986.187767,1225.752797,-1850.514855,9918.759623
1986.188085,1378.971896,-1924.535449,9548.656652
1986.188402,2145.067394,-1258.350101,10140.821405
1986.188720,1762.019645,296.082377,9326.594869
1986.189037,1455.581446,1184.329507,8734.430116
1986.189355,995.924147,1776.494261,8734.430116
1986.189674,536.266849,1924.535449,8882.471304
1986.189992,766.095498,2516.700203,8142.265362
1986.190309,459.657299,3034.844362,7402.059420
1986.190627,229.828649,2368.659014,8142.265362
1986.190944,229.828649,888.247130,8438.347739
1986.191262,689.485948,444.123565,8364.327145
1986.191579,919.314598,-518.144159,8438.347739
1986.191897,766.095498,-1776.494261,9326.594869
1986.192214,1378.971896,-1776.494261,9400.615463
1986.192532,1532.190996,-1628.453072,8882.471304
1986.192849,1762.019645,-1184.329507,9104.533087
1986.193167,842.705048,-1110.308913,9474.636058
1986.193484,0.000000,-74.020594,9030.512492
1986.193802,-995.924147,518.144159,9104.533087
1986.194119,-1838.629195,444.123565,9770.718434
1986.194437,-2681.334243,370.102971,10807.006753
1986.194754,-3064.381992,444.123565,10362.883188
1986.195072,-3294.210641,518.144159,10584.944971
1986.195389,-2451.505594,962.267725,10140.821405
1986.195707,-2221.676944,444.123565,10066.800811
1986.196024,-1532.190996,-222.061783,10066.800811
1986.196342,-229.828649,-814.226536,10510.924376
1986.196659,919.314598,-1036.288319,10807.006753
1986.196977,2145.067394,-1110.308913,10214.842000
1986.197294,2987.772442,-444.123565,9770.718434
1986.197612,3524.039291,-0.000000,9178.553681
1986.197929,3140.991542,666.185348,9178.553681
1986.198247,2911.162892,1628.453072,8660.409521
1986.198564,2374.896044,1776.494261,8586.388927
1986.198882,1302.362347,1998.556043,8512.368333
1986.199199,383.047749,1480.411884,9548.656652
1986.199517,0.000000,740.205942,9844.739029
1986.199834,-459.657299,222.061783,10436.903782
1986.200152,-766.095498,-296.082377,11029.068536
1986.200469,-995.924147,-814.226536,10881.027347
1986.200787,-153.219100,-1110.308913,10732.986159
1986.201104,383.047749,-1332.370696,10881.027347
1986.201422,1838.629195,-814.226536,10658.965565
1986.201739,3370.820191,-518.144159,10436.903782
1986.202057,4519.963438,518.144159,9474.636058
1986.202374,4903.011187,1258.350101,8734.430116
1986.202692,5592.497135,2664.741391,7772.162391
1986.203009,5209.449386,3256.906145,6957.935855
1986.203327,4596.572988,3182.885551,6661.853478
1986.203644,3370.820191,2590.720797,7105.977043
1986.203962,1838.629195,1628.453072,7772.162391
1986.204279,306.438199,1184.329507,8512.368333
1986.204597,-1072.533697,222.061783,9548.656652
1986.204914,-1838.629195,-370.102971,9844.739029
1986.205232,-2757.943793,-1184.329507,10288.862594
1986.205550,-3524.039291,-2368.659014,11029.068536
1986.205867,-2528.115143,-3330.926739,11621.233289
1986.206185,-1991.848295,-2812.782580,11769.274478
1986.206502,-383.047749,-2442.679609,11325.150913
1986.206820,1302.362347,-1036.288319,10214.842000
1986.207137,2145.067394,-222.061783,9474.636058
1986.207455,3064.381992,888.247130,8808.450710
1986.207772,2757.943793,2072.576638,7254.018232
1986.208090,2834.553343,2072.576638,7476.080014
1986.208407,1915.238745,1406.391290,8216.285956
1986.208725,1149.143247,1480.411884,8142.265362
1986.209042,306.438199,888.247130,8142.265362
1986.209360,-612.876398,370.102971,8660.409521
1986.209677,-995.924147,-222.061783,9548.656652
1986.209995,-1149.143247,-962.267725,9400.615463
1986.210312,-1072.533697,-1850.514855,9474.636058
1986.210630,-919.314598,-2590.720797,10510.924376
1986.210947,-612.876398,-2664.741391,11325.150913
1986.211265,383.047749,-2220.617826,10732.986159
1986.211582,1302.362347,-1036.288319,10658.965565
1986.211900,1991.848295,-0.000000,10214.842000
1986.212217,2681.334243,1332.370696,9770.718434
1986.212535,2834.553343,2146.597232,8512.368333
1986.212852,3140.991542,2368.659014,8142.265362
1986.213170,2681.334243,2294.638420,8364.327145
1986.213487,2221.676944,2738.761985,8068.244768
1986.213805,1991.848295,2516.700203,7254.018232
1986.214122,1378.971896,2146.597232,7698.141797
1986.214440,842.705048,1258.350101,8364.327145
1986.214757,0.000000,-0.000000,8068.244768
1986.215075,0.000000,-0.000000,8512.368333
1986.215392,-229.828649,-888.247130,9622.677246
1986.215710,-536.266849,-1480.411884,10214.842000
1986.216027,-612.876398,-2072.576638,10584.944971
1986.216345,-383.047749,-1776.494261,10584.944971
1986.216662,229.828649,-962.267725,10732.986159
1986.216980,459.657299,-0.000000,10510.924376
1986.217297,612.876398,814.226536,9844.739029
1986.217615,459.657299,888.247130,9844.739029
1986.217932,383.047749,1702.473667,9622.677246
1986.218250,76.609550,1924.535449,9474.636058
1986.218567,459.657299,1850.514855,9326.594869
1986.218885,306.438199,1924.535449,9326.594869
1986.219202,306.438199,1332.370696,9030.512492
1986.219520,612.876398,296.082377,9178.553681
1986.219837,766.095498,-962.267725,9326.594869
1986.220155,1302.362347,-1628.453072,9770.718434
1986.220472,2145.067394,-1850.514855,9992.780217
1986.220790,2068.457845,-1554.432478,9548.656652
1986.221107,2298.286494,-1332.370696,9548.656652
1986.221425,2145.067394,-740.205942,10214.842000
1986.221742,1685.410096,-222.061783,10140.821405
1986.222060,919.314598,666.185348,9548.656652
1986.222377,76.609550,1184.329507,10140.821405
1986.222695,-459.657299,1332.370696,10584.944971
1986.223012,-612.876398,2368.659014,9992.780217
1986.223330,-306.438199,1998.556043,9992.780217
1986.223647,-229.828649,1332.370696,9844.739029
1986.223965,536.266849,370.102971,10140.821405
1986.224282,919.314598,-370.102971,9474.636058
1986.224600,1378.971896,-888.247130,9474.636058
1986.224917,2374.896044,-888.247130,9622.677246
1986.225235,2834.553343,-814.226536,9622.677246
1986.225552,3217.601092,-0.000000,8586.388927
1986.225870,3294.210641,222.061783,8438.347739
1986.226187,2834.553343,1184.329507,8660.409521
1986.226505,2221.676944,1480.411884,8216.285956
1986.226822,919.314598,1776.494261,7476.080014
1986.227140,0.000000,1258.350101,8068.244768
1986.227457,-1608.800546,888.247130,8882.471304
1986.227775,-2298.286494,740.205942,9104.533087
1986.228092,-2681.334243,962.267725,9474.636058
1986.228410,-2911.162892,444.123565,10436.903782
1986.228727,-3064.381992,-0.000000,10288.862594
1986.229045,-3140.991542,-814.226536,10658.965565
1986.229362,-2145.067394,-1406.391290,11399.171507
1986.229680,-1302.362347,-1554.432478,11103.089130
1986.229997,0.000000,-1554.432478,10510.924376
1986.230315,1915.238745,-148.041188,9844.739029
1986.230632,2911.162892,1110.308913,9030.512492
1986.230950,4060.306139,1924.535449,8290.306550
1986.231267,4596.572988,1480.411884,7698.141797
1986.231585,3677.258390,2220.617826,6735.874072
1986.231902,3294.210641,1998.556043,7550.100608
1986.232220,2221.676944,2368.659014,7105.977043
1986.232537,1378.971896,2146.597232,8216.285956
1986.232855,1455.581446,962.267725,8586.388927
1986.233172,76.609550,-0.000000,9548.656652
1986.233490,0.000000,-888.247130,9992.780217
1986.233807,0.000000,-1554.432478,9918.759623
1986.234125,229.828649,-2146.597232,10881.027347
1986.234442,306.438199,-2072.576638,11325.150913
1986.234760,1149.143247,-1702.473667,10881.027347
1986.235077,1838.629195,-814.226536,10066.800811
1986.235395,2451.505594,-148.041188,10066.800811
1986.235712,3217.601092,1332.370696,9622.677246
1986.236030,2987.772442,2146.597232,8438.347739
1986.236347,2145.067394,2516.700203,7994.224174
1986.236665,1378.971896,2294.638420,8364.327145
1986.236982,383.047749,1776.494261,8512.368333
1986.237300,0.000000,2146.597232,8068.244768
1986.237617,-689.485948,1480.411884,8660.409521
1986.237935,-1608.800546,-0.000000,9474.636058
1986.238252,-1455.581446,-666.185348,10066.800811
1986.238570,-1378.971896,-1110.308913,10066.800811
1986.238887,-2145.067394,-2220.617826,11177.109724
1986.239205,-1532.190996,-2664.741391,11547.212695
1986.239522,-842.705048,-2368.659014,11769.274478
1986.239840,306.438199,-1628.453072,11399.171507
1986.240157,1378.971896,-148.041188,10436.903782
1986.240475,1838.629195,740.205942,9770.718434
1986.240792,2451.505594,2368.659014,8438.347739
1986.241110,2374.896044,2590.720797,7920.203579
1986.241427,2145.067394,2738.761985,8142.265362
1986.241745,1915.238745,2368.659014,7772.162391
1986.242063,1915.238745,1850.514855,7772.162391
1986.242380,1378.971896,592.164754,8586.388927
1986.242698,919.314598,-518.144159,9548.656652
1986.243015,689.485948,-888.247130,9178.553681
1986.243333,766.095498,-1332.370696,9474.636058
1986.243650,766.095498,-1702.473667,10066.800811
1986.243968,842.705048,-2368.659014,10436.903782
1986.244285,1072.533697,-2146.597232,10510.924376
1986.244603,1302.362347,-1702.473667,10807.006753
1986.244920,1532.190996,-962.267725,11029.068536
1986.245238,1455.581446,148.041188,10510.924376
1986.245555,1302.362347,1332.370696,9548.656652
1986.245873,919.314598,1998.556043,9400.615463
1986.246190,1608.800546,2368.659014,9178.553681
1986.246508,1149.143247,2294.638420,8808.450710
1986.246825,1302.362347,2442.679609,8364.327145
1986.247143,1225.752797,1998.556043,8290.306550
1986.247460,1072.533697,1258.350101,7920.203579
1986.247778,842.705048,-296.082377,8142.265362
1986.248095,459.657299,-888.247130,8290.306550
1986.248413,1072.533697,-1258.350101,9252.574275
1986.248730,1149.143247,-1184.329507,9030.512492
1986.249048,1378.971896,-1776.494261,9252.574275
1986.249365,459.657299,-1184.329507,8808.450710
1986.249683,153.219100,-222.061783,9548.656652
1986.250000,-612.876398,148.041188,9400.615463
1986.250318,-1072.533697,962.267725,8956.491898
1986.250635,-842.705048,1406.391290,9400.615463
1986.250953,-2145.067394,1924.535449,9326.594869
1986.251270,-2221.676944,1036.288319,9770.718434
1986.251588,-1838.629195,740.205942,9844.739029
1986.251905,-1455.581446,-0.000000,9844.739029
1986.252223,-1149.143247,-0.000000,9770.718434
1986.252540,-689.485948,-74.020594,9474.636058
1986.252858,229.828649,-370.102971,9326.594869
1986.253175,1455.581446,-518.144159,9104.533087
1986.253493,2298.286494,-518.144159,8956.491898
1986.253810,2757.943793,-222.061783,8956.491898
1986.254128,3753.867940,-0.000000,8290.306550
1986.254445,2681.334243,518.144159,7846.182985
1986.254763,2068.457845,592.164754,8734.430116
1986.255080,1762.019645,1332.370696,8882.471304
1986.255398,459.657299,1332.370696,8808.450710
1986.255715,-153.219100,1554.432478,9770.718434
1986.256033,-689.485948,962.267725,10658.965565
1986.256350,-612.876398,962.267725,10510.924376
1986.256668,-306.438199,296.082377,10584.944971
1986.256985,0.000000,-370.102971,11399.171507
1986.257303,76.609550,-444.123565,10584.944971
1986.257620,1532.190996,-962.267725,10584.944971
1986.257938,2451.505594,-814.226536,11029.068536
1986.258255,4213.525239,-518.144159,10584.944971
1986.258573,4443.353888,370.102971,9770.718434
1986.258890,5056.230287,962.267725,8808.450710
1986.259208,4673.182538,1332.370696,8512.368333
1986.259525,4213.525239,1776.494261,7994.224174
1986.259843,2757.943793,1998.556043,7772.162391
1986.260160,1762.019645,2590.720797,7328.038826
1986.260478,766.095498,2294.638420,7994.224174
1986.260795,-306.438199,1776.494261,8438.347739
1986.261113,-995.924147,962.267725,9400.615463
1986.261430,-1608.800546,-370.102971,10214.842000
1986.261748,-2604.724693,-1036.288319,11103.089130
1986.262065,-2451.505594,-2072.576638,11695.253884
1986.262383,-2298.286494,-2072.576638,12213.398043
1986.262700,-536.266849,-2368.659014,12213.398043
1986.263018,76.609550,-1924.535449,11547.212695
1986.263335,1302.362347,-888.247130,10732.986159
1986.263653,2298.286494,-0.000000,9918.759623
1986.263970,2681.334243,1406.391290,8512.368333
1986.264288,3294.210641,1776.494261,8068.244768
1986.264605,1838.629195,2220.617826,7254.018232
1986.264923,1915.238745,1702.473667,7402.059420
1986.265240,1149.143247,1406.391290,7328.038826
1986.265558,383.047749,518.144159,7698.141797
1986.265875,0.000000,-222.061783,8364.327145
1986.266193,-1149.143247,-1332.370696,8956.491898
1986.266510,-1532.190996,-2442.679609,9918.759623
1986.266828,-1685.410096,-3256.906145,10658.965565
1986.267145,-1302.362347,-3256.906145,11547.212695
1986.267463,-306.438199,-3182.885551,11843.295072
1986.267780,229.828649,-2146.597232,11399.171507
1986.268098,919.314598,-814.226536,10732.986159
1986.268415,1991.848295,370.102971,10362.883188
1986.268733,2757.943793,1480.411884,9548.656652
1986.269050,2757.943793,2368.659014,8512.368333
1986.269368,2451.505594,2960.823768,7920.203579
1986.269685,2451.505594,2738.761985,7550.100608
1986.270003,2298.286494,2664.741391,7105.977043
1986.270320,1915.238745,1924.535449,7031.956449
1986.270638,1838.629195,962.267725,6809.894666
1986.270955,842.705048,74.020594,6957.935855
1986.271273,306.438199,-1036.288319,7920.203579
1986.271590,229.828649,-2072.576638,8586.388927
1986.271908,76.609550,-2368.659014,9104.533087
1986.272225,0.000000,-2442.679609,10140.821405
1986.272543,-306.438199,-1850.514855,10140.821405
1986.272860,0.000000,-666.185348,10140.821405
1986.273178,0.000000,592.164754,10214.842000
1986.273495,0.000000,1702.473667,9548.656652
1986.273813,-383.047749,2738.761985,9400.615463
1986.274130,-536.266849,2960.823768,8956.491898
1986.274448,-153.219100,2812.782580,9400.615463
1986.274765,0.000000,2664.741391,9030.512492
1986.275083,153.219100,1480.411884,8438.347739
1986.275400,0.000000,1332.370696,8586.388927
1986.275718,153.219100,444.123565,9030.512492
1986.276035,76.609550,-592.164754,8808.450710
1986.276353,229.828649,-1258.350101,9252.574275
1986.276670,766.095498,-1702.473667,9918.759623
1986.276988,1072.533697,-1998.556043,10436.903782
1986.277305,766.095498,-1998.556043,10214.842000
1986.277623,995.924147,-1332.370696,10214.842000
1986.277940,842.705048,-296.082377,10510.924376
1986.278258,689.485948,222.061783,10288.862594
1986.278576,306.438199,962.267725,10066.800811
1986.278893,0.000000,1554.432478,10732.986159
1986.279211,0.000000,1924.535449,10362.883188
1986.279528,76.609550,2516.700203,10658.965565
1986.279846,459.657299,2294.638420,10510.924376
1986.280163,919.314598,1924.535449,10066.800811
1986.280481,1608.800546,1332.370696,10140.821405
1986.280798,2221.676944,444.123565,9918.759623
1986.281116,2221.676944,-666.185348,10066.800811
1986.281433,3447.429741,-1480.411884,9992.780217
1986.281751,3753.867940,-1258.350101,10214.842000
1986.282068,4060.306139,-1110.308913,9844.739029
1986.282386,3983.696590,-0.000000,9252.574275
1986.282703,3983.696590,962.267725,9178.553681
1986.283021,3140.991542,2146.597232,8512.368333
1986.283338,2145.067394,2590.720797,7402.059420
1986.283656,919.314598,2146.597232,7920.203579
1986.283973,-306.438199,2072.576638,8882.471304
1986.284291,-766.095498,1554.432478,9178.553681
1986.284608,-842.705048,1258.350101,9474.636058
1986.284926,-1455.581446,666.185348,10140.821405
1986.285243,-1455.581446,-296.082377,10658.965565
1986.285561,-1378.971896,-1258.350101,11103.089130
1986.285878,-1072.533697,-1702.473667,10658.965565
1986.286196,-383.047749,-2072.576638,11769.274478
1986.286513,612.876398,-1258.350101,10807.006753
1986.286831,1532.190996,-222.061783,9474.636058
1986.287148,2451.505594,296.082377,8290.306550
1986.287466,2528.115143,1258.350101,7772.162391
1986.287783,2298.286494,1332.370696,6957.935855
1986.288101,1302.362347,1110.308913,6513.812290
1986.288418,612.876398,222.061783,7105.977043
1986.288736,-842.705048,-0.000000,7254.018232
1986.289053,-1378.971896,-666.185348,8438.347739
1986.289371,-2298.286494,-962.267725,9252.574275
1986.289688,-2528.115143,-1628.453072,9844.739029
1986.290006,-2145.067394,-1628.453072,10214.842000
1986.290323,-1915.238745,-2368.659014,10807.006753
1986.290641,-1225.752797,-2590.720797,11473.192101
1986.290958,0.000000,-2072.576638,12065.356855
1986.291276,1072.533697,-814.226536,10955.047942
1986.291593,2374.896044,-296.082377,10362.883188
1986.291911,2757.943793,1184.329507,9844.739029
1986.292228,3753.867940,2442.679609,8660.409521
1986.292545,4060.306139,3552.988522,6809.894666
1986.292863,3370.820191,3182.885551,6143.709319
1986.293180,2451.505594,2664.741391,6217.729913
1986.293498,1532.190996,1776.494261,6291.750507
1986.293815,689.485948,814.226536,6809.894666
1986.294133,-612.876398,-222.061783,7402.059420
1986.294450,-1225.752797,-1184.329507,9400.615463
1986.294768,-1915.238745,-1998.556043,9992.780217
1986.295085,-2221.676944,-1998.556043,9918.759623
1986.295403,-1455.581446,-2738.761985,11695.253884
1986.295720,-1608.800546,-2368.659014,12805.562797
1986.296038,0.000000,-1184.329507,12361.439231
1986.296355,919.314598,814.226536,11399.171507
1986.296672,1532.190996,2146.597232,10955.047942
1986.296990,2374.896044,2960.823768,9918.759623
1986.297307,2451.505594,4071.132681,8882.471304
1986.297625,2451.505594,4441.235652,7994.224174
1986.297942,2604.724693,3701.029710,7550.100608
1986.298260,2451.505594,2664.741391,7846.182985
1986.298577,1991.848295,1554.432478,7920.203579
1986.298895,1302.362347,222.061783,8068.244768
1986.299212,1225.752797,-1036.288319,8290.306550
1986.299530,76.609550,-2294.638420,9400.615463
1986.299847,459.657299,-2590.720797,10066.800811
1986.300165,536.266849,-2442.679609,10214.842000
1986.300482,459.657299,-2590.720797,11399.171507
1986.300799,766.095498,-1924.535449,11843.295072
1986.301117,1608.800546,-370.102971,10955.047942
1986.301434,1685.410096,1110.308913,10881.027347
1986.301752,1455.581446,2368.659014,10362.883188
1986.302069,1378.971896,2146.597232,10362.883188
1986.302387,1378.971896,2738.761985,9918.759623
1986.302704,1455.581446,2738.761985,10214.842000
1986.303022,766.095498,2294.638420,9548.656652
1986.303339,1072.533697,1998.556043,9474.636058
1986.303657,1378.971896,1036.288319,9104.533087
1986.303974,1072.533697,518.144159,8734.430116
1986.304292,919.314598,-592.164754,9326.594869
1986.304609,766.095498,-1998.556043,9104.533087
1986.304926,995.924147,-2220.617826,9622.677246
1986.305244,536.266849,-2220.617826,9696.697840
1986.305561,1149.143247,-1554.432478,9770.718434
1986.305879,919.314598,-962.267725,9548.656652
1986.306196,1608.800546,444.123565,9178.553681
1986.306514,536.266849,1776.494261,8660.409521
1986.306831,229.828649,1776.494261,8882.471304
1986.307149,-383.047749,1850.514855,9178.553681
1986.307466,-995.924147,1998.556043,9326.594869
1986.307784,-766.095498,1924.535449,9474.636058
1986.308101,-1225.752797,1628.453072,9326.594869
1986.308419,-1915.238745,518.144159,8956.491898
1986.308736,-459.657299,148.041188,9104.533087
1986.309053,-153.219100,-888.247130,9696.697840
1986.309371,229.828649,-1480.411884,9252.574275
1986.309688,1072.533697,-2294.638420,9622.677246
1986.310006,1225.752797,-2368.659014,9992.780217
1986.310323,1532.190996,-1998.556043,9548.656652
1986.310641,1838.629195,-888.247130,8364.327145
1986.310958,2221.676944,-74.020594,8068.244768
1986.311276,1762.019645,1554.432478,7476.080014
1986.311593,1455.581446,1702.473667,7105.977043
1986.311911,766.095498,2146.597232,7328.038826
1986.312228,306.438199,1406.391290,8068.244768
1986.312546,-306.438199,1184.329507,8586.388927
1986.312863,-383.047749,444.123565,8956.491898
1986.313181,-689.485948,518.144159,9696.697840
1986.313498,-383.047749,-518.144159,10807.006753
1986.313815,-76.609550,-1110.308913,10584.944971
1986.314133,1225.752797,-1924.535449,11547.212695
1986.314450,1455.581446,-2220.617826,11103.089130
1986.314768,2374.896044,-1998.556043,11399.171507
1986.315085,2757.943793,-1480.411884,9844.739029
1986.315403,3217.601092,-74.020594,9252.574275
1986.315720,3294.210641,518.144159,8586.388927
1986.316038,2834.553343,1776.494261,7476.080014
1986.316355,2604.724693,2368.659014,6957.935855
1986.316673,1532.190996,2220.617826,6957.935855
1986.316990,1072.533697,1554.432478,7920.203579
1986.317308,383.047749,518.144159,8364.327145
1986.317625,0.000000,-222.061783,9474.636058
1986.317942,-1225.752797,-814.226536,9622.677246
1986.318260,-1838.629195,-1110.308913,10807.006753
1986.318577,-919.314598,-1480.411884,11621.233289
1986.318895,-995.924147,-1110.308913,11769.274478
1986.319212,-459.657299,-1184.329507,12435.459826
1986.319530,229.828649,-222.061783,12805.562797
1986.319847,842.705048,592.164754,11843.295072
1986.320165,2068.457845,1628.453072,10807.006753
1986.320482,1915.238745,2146.597232,9252.574275
1986.320800,2221.676944,2516.700203,8586.388927
1986.321117,1838.629195,2960.823768,7179.997637
1986.321435,2221.676944,3330.926739,6513.812290
1986.321752,1532.190996,1998.556043,6957.935855
1986.322069,306.438199,1258.350101,7031.956449
1986.322387,-689.485948,296.082377,7994.224174
1986.322704,-1685.410096,-1184.329507,8882.471304
1986.323022,-2528.115143,-2368.659014,10584.944971
1986.323339,-2834.553343,-3034.844362,11843.295072
1986.323657,-2451.505594,-2442.679609,11991.336260
1986.323974,-1685.410096,-2294.638420,12583.501014
1986.324292,-766.095498,-1110.308913,12879.583391
1986.324609,383.047749,814.226536,11843.295072
1986.324927,1991.848295,1850.514855,10807.006753
1986.325244,3294.210641,3034.844362,9770.718434
1986.325562,3600.648841,3182.885551,8956.491898
1986.325879,3524.039291,3627.009116,7550.100608
1986.326196,3294.210641,3182.885551,7402.059420
1986.326514,3600.648841,2590.720797,6587.832884
1986.326831,3294.210641,1998.556043,6587.832884
1986.327149,2987.772442,740.205942,6587.832884
1986.327466,1991.848295,-222.061783,7328.038826
1986.327784,1532.190996,-1924.535449,8142.265362
1986.328101,383.047749,-2664.741391,9030.512492
1986.328419,76.609550,-2886.803174,10214.842000
1986.328736,-383.047749,-3256.906145,11251.130318
1986.329054,-459.657299,-1998.556043,11843.295072
1986.329371,0.000000,-666.185348,11695.253884
1986.329689,612.876398,962.267725,11547.212695
1986.330006,1072.533697,2442.679609,10807.006753
1986.330323,1149.143247,2960.823768,9844.739029
1986.330641,1378.971896,2960.823768,8438.347739
1986.330958,1608.800546,2664.741391,8882.471304
1986.331276,2221.676944,2368.659014,7920.203579
1986.331593,2374.896044,1924.535449,7105.977043
1986.331911,1838.629195,1332.370696,6513.812290
1986.332228,1915.238745,-222.061783,6883.915261
1986.332546,1072.533697,-1554.432478,7624.121203
1986.332863,153.219100,-2812.782580,8364.327145
1986.333181,-229.828649,-3552.988522,9178.553681
1986.333498,-1149.143247,-3182.885551,10066.800811
1986.333816,-919.314598,-3034.844362,10807.006753
1986.334133,-689.485948,-2442.679609,10510.924376
1986.334450,-612.876398,-1184.329507,10214.842000
1986.334768,-612.876398,-0.000000,10732.986159
1986.335085,-536.266849,1258.350101,9844.739029
1986.335403,0.000000,2072.576638,9178.553681
1986.335720,-383.047749,2220.617826,9770.718434
1986.336038,-153.219100,1924.535449,9696.697840
1986.336355,0.000000,1554.432478,9252.574275
1986.336673,612.876398,888.247130,9474.636058
1986.336990,1149.143247,-0.000000,9770.718434
1986.337308,1532.190996,-296.082377,8956.491898
1986.337625,1302.362347,-1184.329507,8734.430116
1986.337943,1302.362347,-1628.453072,9178.553681
1986.338260,1991.848295,-2146.597232,9548.656652
1986.338577,1532.190996,-1850.514855,8956.491898
1986.338895,1685.410096,-1406.391290,9770.718434
1986.339212,1149.143247,-444.123565,9696.697840
1986.339530,842.705048,740.205942,9252.574275
1986.339847,689.485948,1258.350101,9770.718434
1986.340165,0.000000,1332.370696,9474.636058
1986.340482,306.438199,1258.350101,10140.821405
1986.340800,612.876398,2220.617826,9474.636058
1986.341117,995.924147,2220.617826,9918.759623
1986.341435,1225.752797,1258.350101,9844.739029
1986.341752,1838.629195,814.226536,9474.636058
1986.342070,2528.115143,296.082377,10362.883188
1986.342387,2681.334243,-370.102971,9992.780217
1986.342704,2911.162892,-518.144159,9474.636058
1986.343022,3140.991542,296.082377,9548.656652
1986.343339,3370.820191,888.247130,8808.450710
1986.343657,2604.724693,1036.288319,7624.121203
1986.343974,2068.457845,1184.329507,7994.224174
1986.344292,1149.143247,1110.308913,8956.491898
1986.344609,0.000000,518.144159,8364.327145
1986.344927,-995.924147,518.144159,8660.409521
1986.345244,-1838.629195,-0.000000,10066.800811
1986.345562,-2528.115143,222.061783,10214.842000
1986.345879,-2834.553343,-74.020594,10732.986159
1986.346197,-2298.286494,-296.082377,10881.027347
1986.346514,-2451.505594,-518.144159,11547.212695
1986.346831,-1455.581446,-0.000000,11029.068536
1986.347149,-383.047749,592.164754,10955.047942
1986.347466,689.485948,370.102971,10807.006753
1986.347784,1608.800546,-0.000000,11029.068536
1986.348101,1532.190996,814.226536,9252.574275
1986.348419,2528.115143,1480.411884,9326.594869
1986.348736,3064.381992,1998.556043,8068.244768
1986.349054,2987.772442,1998.556043,7476.080014
1986.349371,2221.676944,1702.473667,6957.935855
1986.349689,1685.410096,1480.411884,7402.059420
1986.350006,766.095498,888.247130,7105.977043
1986.350324,766.095498,-148.041188,7772.162391
1986.350641,0.000000,-814.226536,8586.388927
1986.350958,-1072.533697,-1184.329507,9622.677246
1986.351276,-1225.752797,-1480.411884,10436.903782
1986.351593,-1225.752797,-1924.535449,10955.047942
1986.351911,-536.266849,-1776.494261,11843.295072
1986.352228,612.876398,-1258.350101,12361.439231
1986.352546,1149.143247,-0.000000,11621.233289
1986.352863,1915.238745,1184.329507,10658.965565
1986.353181,2987.772442,1850.514855,9622.677246
1986.353498,3600.648841,3108.864956,8882.471304
1986.353816,3294.210641,3108.864956,8068.244768
1986.354133,2987.772442,2442.679609,7105.977043
1986.354451,2374.896044,1776.494261,7179.997637
1986.354768,1915.238745,814.226536,7624.121203
1986.355085,1072.533697,-0.000000,7254.018232
1986.355403,689.485948,-1110.308913,7846.182985
1986.355720,0.000000,-1924.535449,8808.450710
1986.356038,-612.876398,-2886.803174,9696.697840
1986.356355,-1072.533697,-2886.803174,10140.821405
1986.356673,-1302.362347,-2664.741391,10955.047942
1986.356990,-612.876398,-2368.659014,11991.336260
1986.357308,-536.266849,-962.267725,12065.356855
1986.357625,0.000000,-0.000000,10955.047942
1986.357943,306.438199,962.267725,10584.944971
1986.358260,1072.533697,2072.576638,10066.800811
1986.358578,1225.752797,2886.803174,9178.553681
1986.358895,1915.238745,2812.782580,8438.347739
1986.359212,2068.457845,2294.638420,7846.182985
1986.359530,1838.629195,1258.350101,7698.141797
1986.359847,1685.410096,888.247130,7476.080014
1986.360165,1838.629195,-0.000000,7105.977043
1986.360482,1072.533697,-1332.370696,7772.162391
1986.360800,76.609550,-2146.597232,9030.512492
1986.361117,-689.485948,-2294.638420,9622.677246
1986.361435,-1072.533697,-2442.679609,9918.759623
1986.361752,-919.314598,-2146.597232,11399.171507
1986.362070,-383.047749,-1628.453072,11473.192101
1986.362387,-229.828649,-0.000000,10140.821405
1986.362705,0.000000,1110.308913,10436.903782
1986.363022,689.485948,2146.597232,9918.759623
1986.363339,1225.752797,3034.844362,9030.512492
1986.363657,1915.238745,2738.761985,9030.512492
1986.363974,1149.143247,3034.844362,8586.388927
1986.364292,1685.410096,2146.597232,8808.450710
1986.364609,1302.362347,1332.370696,8660.409521
1986.364927,995.924147,666.185348,8882.471304
1986.365244,919.314598,-0.000000,9622.677246
1986.365562,-153.219100,-740.205942,8956.491898
1986.365879,0.000000,-1480.411884,9548.656652
1986.366197,306.438199,-2146.597232,10362.883188
1986.366514,153.219100,-2294.638420,10140.821405
1986.366832,-153.219100,-1554.432478,9992.780217
1986.367149,0.000000,-592.164754,9992.780217
1986.367466,76.609550,296.082377,9918.759623
1986.367784,-383.047749,740.205942,9844.739029
1986.368101,-612.876398,2146.597232,9474.636058
1986.368419,-612.876398,2146.597232,9696.697840
1986.368736,-153.219100,2368.659014,9252.574275
1986.369054,-153.219100,2072.576638,9326.594869
1986.369371,76.609550,2146.597232,9770.718434
1986.369689,842.705048,1332.370696,9844.739029
1986.370006,919.314598,148.041188,10214.842000
1986.370324,1455.581446,-74.020594,9918.759623
1986.370641,1608.800546,-222.061783,9548.656652
1986.370959,2145.067394,-0.000000,9548.656652
1986.371276,2528.115143,-74.020594,9622.677246
1986.371593,3140.991542,-148.041188,9474.636058
1986.371911,2834.553343,-0.000000,7920.203579
1986.372228,2298.286494,1184.329507,7550.100608
1986.372546,2681.334243,1184.329507,8068.244768
1986.372863,1915.238745,740.205942,7624.121203
1986.373181,1532.190996,666.185348,7772.162391
1986.373498,689.485948,296.082377,8882.471304
1986.373816,459.657299,148.041188,9622.677246
1986.374133,536.266849,-0.000000,9918.759623
1986.374451,612.876398,-0.000000,10066.800811
1986.374768,383.047749,-148.041188,10955.047942
1986.375086,459.657299,-148.041188,11103.089130
1986.375403,612.876398,148.041188,10658.965565
1986.375720,1838.629195,444.123565,10807.006753
1986.376038,2298.286494,666.185348,10955.047942
1986.376355,2757.943793,814.226536,10436.903782
1986.376673,2834.553343,962.267725,8586.388927
1986.376990,2987.772442,814.226536,8438.347739
1986.377308,2374.896044,592.164754,8216.285956
1986.377625,1685.410096,370.102971,7772.162391
1986.377943,1072.533697,222.061783,7179.997637
1986.378260,153.219100,-0.000000,8142.265362
1986.378578,-1149.143247,-666.185348,8734.430116
1986.378895,-1532.190996,-1184.329507,9326.594869
1986.379213,-1762.019645,-2072.576638,10214.842000
1986.379530,-2681.334243,-2072.576638,11621.233289
1986.379847,-2604.724693,-2072.576638,11695.253884
1986.380165,-2068.457845,-1702.473667,11399.171507
1986.380482,-1378.971896,-1776.494261,12065.356855
1986.380800,-459.657299,-444.123565,11991.336260
1986.381117,1072.533697,296.082377,10658.965565
1986.381435,1685.410096,1702.473667,9252.574275
1986.381752,2528.115143,2146.597232,8586.388927
1986.382070,2911.162892,2368.659014,7550.100608
1986.382387,1915.238745,2220.617826,6439.791695
1986.382705,1838.629195,1554.432478,6217.729913
1986.383022,995.924147,740.205942,6661.853478
1986.383340,766.095498,-296.082377,7105.977043
1986.383657,306.438199,-1406.391290,7920.203579
1986.383974,0.000000,-2220.617826,9030.512492
1986.384292,-689.485948,-2664.741391,9992.780217
1986.384609,-766.095498,-3034.844362,10288.862594
1986.384927,-766.095498,-2072.576638,11103.089130
1986.385244,153.219100,-1480.411884,11399.171507
1986.385562,766.095498,222.061783,10955.047942
1986.385879,1915.238745,1850.514855,10288.862594
1986.386197,2451.505594,3182.885551,9326.594869
1986.386514,2987.772442,3997.112087,8586.388927
1986.386832,2911.162892,3775.050304,8290.306550
1986.387149,2681.334243,3034.844362,7846.182985
1986.387467,2221.676944,1850.514855,7920.203579
1986.387784,1608.800546,814.226536,8438.347739
1986.388101,1149.143247,-0.000000,8808.450710
1986.388419,766.095498,-1258.350101,9104.533087
1986.388736,689.485948,-1554.432478,8956.491898
1986.389054,-153.219100,-1628.453072,9918.759623
1986.389371,-995.924147,-1702.473667,9992.780217
1986.389689,-842.705048,-1554.432478,10362.883188
1986.390006,-842.705048,-1258.350101,10807.006753
1986.390323,-612.876398,-222.061783,10732.986159
1986.390641,0.000000,1036.288319,10140.821405
1986.390958,306.438199,1850.514855,9548.656652
1986.391275,689.485948,2368.659014,9622.677246
1986.391593,995.924147,2738.761985,9548.656652
1986.391910,1149.143247,2812.782580,9326.594869
1986.392227,766.095498,2516.700203,9326.594869
1986.392545,536.266849,1998.556043,9696.697840
1986.392862,689.485948,962.267725,9622.677246
1986.393179,0.000000,814.226536,9474.636058
1986.393497,76.609550,-444.123565,10066.800811
1986.393814,-306.438199,-1258.350101,10510.924376
1986.394132,-306.438199,-1776.494261,10362.883188
1986.394449,229.828649,-1554.432478,10807.006753
1986.394766,612.876398,-1332.370696,10584.944971
1986.395084,1532.190996,-370.102971,10066.800811
1986.395401,1838.629195,296.082377,9400.615463
1986.395718,2221.676944,1332.370696,8808.450710
1986.396036,2451.505594,1110.308913,8882.471304
1986.396353,2374.896044,1332.370696,8512.368333
1986.396670,2221.676944,1776.494261,8216.285956
1986.396988,1838.629195,1702.473667,8290.306550
1986.397305,1608.800546,1332.370696,8660.409521
1986.397622,1302.362347,1258.350101,9030.512492
1986.397940,229.828649,740.205942,9548.656652
1986.398257,459.657299,-0.000000,10214.842000
1986.398574,-459.657299,-1110.308913,10955.047942
1986.398892,0.000000,-2072.576638,11177.109724
1986.399209,-766.095498,-2368.659014,11843.295072
1986.399526,76.609550,-2146.597232,11843.295072
1986.399844,995.924147,-962.267725,10732.986159
1986.400161,1532.190996,-74.020594,9400.615463
1986.400478,2451.505594,592.164754,8882.471304
1986.400796,2681.334243,1480.411884,7254.018232
1986.401113,2757.943793,2220.617826,6513.812290
1986.401431,2374.896044,2146.597232,6513.812290
1986.401748,2221.676944,1850.514855,7105.977043
1986.402065,2068.457845,1332.370696,7105.977043
1986.402383,612.876398,666.185348,7698.141797
1986.402700,0.000000,-370.102971,9252.574275
1986.403017,-919.314598,-1110.308913,9992.780217
1986.403335,-995.924147,-1258.350101,10881.027347
1986.403652,-995.924147,-1776.494261,11029.068536
1986.403969,-1302.362347,-1406.391290,11843.295072
1986.404287,-842.705048,-1110.308913,12065.356855
1986.404604,0.000000,-74.020594,10807.006753
1986.404921,1072.533697,518.144159,10288.862594
1986.405239,1838.629195,592.164754,9030.512492
1986.405556,1302.362347,1776.494261,7624.121203
1986.405873,2451.505594,1924.535449,6957.935855
1986.406191,2374.896044,1702.473667,5921.647536
1986.406508,1915.238745,1036.288319,6439.791695
1986.406825,1762.019645,444.123565,6217.729913
1986.407143,842.705048,444.123565,6883.915261
1986.407460,766.095498,-740.205942,7920.203579
1986.407777,0.000000,-1924.535449,8956.491898
1986.408095,-995.924147,-2368.659014,10881.027347
1986.408412,-1608.800546,-2516.700203,11621.233289
1986.408729,-1532.190996,-2072.576638,11843.295072
1986.409047,-1378.971896,-740.205942,12213.398043
1986.409364,-229.828649,-148.041188,12435.459826
1986.409682,766.095498,1184.329507,11177.109724
1986.409999,1302.362347,1850.514855,10140.821405
1986.410316,995.924147,1554.432478,9770.718434
1986.410634,1915.238745,1258.350101,9030.512492
1986.410951,2298.286494,1332.370696,8068.244768
1986.411268,2221.676944,1184.329507,8068.244768
1986.411586,1532.190996,444.123565,7550.100608
1986.411903,1225.752797,-0.000000,7328.038826
1986.412220,1225.752797,-296.082377,8364.327145
1986.412538,842.705048,-1258.350101,9252.574275
1986.412855,153.219100,-1554.432478,9622.677246
1986.413172,-383.047749,-1702.473667,10288.862594
1986.413490,-383.047749,-1406.391290,11621.233289
1986.413807,76.609550,-592.164754,11547.212695
1986.414124,1225.752797,222.061783,11251.130318
1986.414442,1225.752797,1702.473667,10807.006753
1986.414759,1685.410096,2294.638420,10362.883188
1986.415076,1685.410096,2664.741391,9474.636058
1986.415394,1532.190996,2812.782580,9178.553681
1986.415711,2068.457845,2738.761985,9104.533087
1986.416028,1608.800546,2442.679609,8364.327145
1986.416346,1685.410096,2146.597232,7920.203579
1986.416663,1991.848295,1332.370696,7772.162391
1986.416981,1762.019645,148.041188,8734.430116
