#time,accel_x,accel_y,accel_z
1646.869905,1149.143247,370.102971,9474.636058
1646.870223,153.219100,-0.000000,9474.636058
1646.870540,842.705048,148.041188,9326.594869
1646.870857,842.705048,296.082377,9474.636058
1646.871174,842.705048,370.102971,9400.615463
1646.871491,766.095498,222.061783,9474.636058
1646.871808,766.095498,222.061783,9548.656652
1646.872126,842.705048,-0.000000,9326.594869
1646.872443,842.705048,222.061783,9474.636058
1646.872760,689.485948,296.082377,9474.636058
1646.873077,536.266849,148.041188,9548.656652
1646.873394,919.314598,296.082377,9326.594869
1646.873712,383.047749,148.041188,9474.636058
1646.874029,766.095498,-0.000000,9326.594869
1646.874346,766.095498,-0.000000,9326.594869
1646.874663,842.705048,148.041188,9474.636058
1646.874980,766.095498,-0.000000,9326.594869
1646.875297,919.314598,-0.000000,9400.615463
1646.875615,612.876398,148.041188,9326.594869
1646.875932,536.266849,444.123565,9548.656652
1646.876249,766.095498,296.082377,9548.656652
1646.876566,689.485948,-0.000000,9252.574275
1646.876883,842.705048,296.082377,9400.615463
1646.877200,842.705048,148.041188,9400.615463
1646.877518,842.705048,-0.000000,9400.615463
1646.877835,612.876398,-0.000000,9548.656652
1646.878152,842.705048,222.061783,9474.636058
1646.878469,689.485948,370.102971,9474.636058
1646.878786,612.876398,222.061783,9474.636058
1646.879104,919.314598,-0.000000,9474.636058
1646.879421,1302.362347,-0.000000,9474.636058
1646.879738,766.095498,148.041188,9474.636058
1646.880055,766.095498,296.082377,9252.574275
1646.880372,689.485948,148.041188,9474.636058
1646.880689,919.314598,296.082377,9474.636058
1646.881007,536.266849,-0.000000,9474.636058
1646.881324,689.485948,296.082377,9474.636058
1646.881641,766.095498,222.061783,9474.636058
1646.881958,612.876398,222.061783,9474.636058
1646.882275,689.485948,222.061783,9400.615463
1646.882593,612.876398,148.041188,9252.574275
1646.882910,689.485948,222.061783,9252.574275
1646.883227,536.266849,222.061783,9474.636058
1646.883544,766.095498,148.041188,9400.615463
1646.883861,842.705048,-0.000000,9252.574275
1646.884178,842.705048,370.102971,9474.636058
1646.884496,919.314598,296.082377,9474.636058
1646.884813,612.876398,148.041188,9474.636058
1646.885130,1072.533697,222.061783,9474.636058
1646.885447,919.314598,444.123565,9474.636058
1646.885764,766.095498,148.041188,9474.636058
1646.886081,612.876398,296.082377,9326.594869
1646.886399,689.485948,222.061783,9474.636058
1646.886716,919.314598,148.041188,9474.636058
1646.887033,842.705048,-0.000000,9400.615463
1646.887350,612.876398,-0.000000,9400.615463
1646.887667,842.705048,-0.000000,9400.615463
1646.887985,689.485948,222.061783,9326.594869
1646.888302,1072.533697,296.082377,9474.636058
1646.888619,842.705048,370.102971,9474.636058
1646.888936,842.705048,370.102971,9252.574275
1646.889253,689.485948,222.061783,9474.636058
1646.889570,766.095498,222.061783,9252.574275
1646.889888,459.657299,-0.000000,9474.636058
1646.890205,842.705048,-0.000000,9474.636058
1646.890522,766.095498,-0.000000,9474.636058
1646.890839,842.705048,222.061783,9474.636058
1646.891156,689.485948,-0.000000,9474.636058
1646.891474,842.705048,370.102971,9326.594869
1646.891791,536.266849,444.123565,9474.636058
1646.892108,766.095498,222.061783,9252.574275
1646.892425,612.876398,444.123565,9548.656652
1646.892742,995.924147,-74.020594,9474.636058
1646.893059,995.924147,222.061783,9474.636058
1646.893377,766.095498,-0.000000,9400.615463
1646.893694,766.095498,148.041188,9400.615463
1646.894011,995.924147,444.123565,9474.636058
1646.894328,689.485948,148.041188,9400.615463
1646.894645,689.485948,222.061783,9474.636058
1646.894962,689.485948,148.041188,9326.594869
1646.895280,612.876398,296.082377,9326.594869
1646.895597,689.485948,148.041188,9400.615463
1646.895914,766.095498,-0.000000,9326.594869
1646.896231,689.485948,222.061783,9770.718434
1646.896548,919.314598,222.061783,9400.615463
1646.896866,612.876398,222.061783,9474.636058
1646.897183,995.924147,148.041188,9844.739029
1646.897500,612.876398,296.082377,9474.636058
1646.897817,612.876398,-0.000000,9326.594869
1646.898134,459.657299,148.041188,9400.615463
1646.898451,689.485948,222.061783,9326.594869
1646.898769,842.705048,-0.000000,9474.636058
1646.899086,689.485948,148.041188,9474.636058
1646.899403,766.095498,296.082377,9326.594869
1646.899720,842.705048,148.041188,9474.636058
1646.900037,689.485948,370.102971,9622.677246
1646.900355,612.876398,-0.000000,9474.636058
1646.900672,919.314598,222.061783,9400.615463
1646.900989,842.705048,296.082377,9474.636058
1646.901306,689.485948,148.041188,9178.553681
1646.901623,689.485948,148.041188,9400.615463
1646.901940,1149.143247,-0.000000,9696.697840
1646.902258,995.924147,370.102971,9474.636058
1646.902575,459.657299,74.020594,9326.594869
1646.902892,689.485948,444.123565,9400.615463
1646.903209,689.485948,444.123565,9474.636058
1646.903526,1455.581446,-0.000000,9400.615463
1646.903843,689.485948,222.061783,9252.574275
1646.904161,689.485948,296.082377,9400.615463
1646.904478,766.095498,-0.000000,9252.574275
1646.904795,995.924147,-0.000000,9400.615463
1646.905112,0.000000,148.041188,9474.636058
1646.905429,612.876398,-0.000000,9474.636058
1646.905747,689.485948,222.061783,9474.636058
1646.906064,536.266849,296.082377,9548.656652
1646.906381,612.876398,148.041188,9252.574275
1646.906698,842.705048,592.164754,9474.636058
1646.907015,536.266849,296.082377,9474.636058
1646.907332,612.876398,148.041188,9400.615463
1646.907650,612.876398,222.061783,9400.615463
1646.907967,306.438199,296.082377,9770.718434
1646.908284,689.485948,148.041188,9474.636058
1646.908601,919.314598,296.082377,9252.574275
1646.908918,536.266849,148.041188,9622.677246
1646.909236,766.095498,296.082377,9400.615463
1646.909553,1072.533697,296.082377,9326.594869
1646.909870,842.705048,148.041188,9474.636058
1646.910187,689.485948,148.041188,9474.636058
1646.910504,766.095498,-0.000000,9400.615463
1646.910821,689.485948,222.061783,9326.594869
1646.911139,689.485948,-0.000000,9104.533087
1646.911456,459.657299,-148.041188,9252.574275
1646.911773,306.438199,-592.164754,9400.615463
1646.912090,229.828649,-592.164754,9104.533087
1646.912407,-76.609550,-518.144159,9104.533087
1646.912725,-306.438199,-592.164754,9474.636058
1646.913042,0.000000,-518.144159,9400.615463
1646.913359,0.000000,-592.164754,9178.553681
1646.913676,-383.047749,-444.123565,8956.491898
1646.913993,-306.438199,-518.144159,8956.491898
1646.914310,-689.485948,-888.247130,8512.368333
1646.914628,-995.924147,-1184.329507,8882.471304
1646.914945,-1378.971896,-1554.432478,9104.533087
1646.915262,-1225.752797,-1702.473667,9548.656652
1646.915579,-1455.581446,-1702.473667,9326.594869
1646.915896,-842.705048,-1628.453072,9474.636058
1646.916213,-1149.143247,-1036.288319,8956.491898
1646.916531,-1302.362347,-740.205942,8438.347739
1646.916848,-1149.143247,-592.164754,8216.285956
1646.917165,-1149.143247,-740.205942,7772.162391
1646.917482,-919.314598,-1332.370696,8068.244768
1646.917799,-1302.362347,-1628.453072,8734.430116
1646.918117,-1072.533697,-2220.617826,9400.615463
1646.918434,-1225.752797,-2368.659014,9622.677246
1646.918751,-995.924147,-2442.679609,9918.759623
1646.919068,-1225.752797,-2220.617826,9918.759623
1646.919385,-1072.533697,-1332.370696,9474.636058
1646.919702,-842.705048,-1036.288319,8882.471304
1646.920020,-1149.143247,-888.247130,8882.471304
1646.920337,-995.924147,-1480.411884,8438.347739
1646.920654,-1608.800546,-2220.617826,9252.574275
1646.920971,-2068.457845,-3034.844362,9474.636058
1646.921288,-2528.115143,-3849.070898,10510.924376
1646.921606,-2834.553343,-4515.256246,10732.986159
1646.921923,-3217.601092,-4219.173869,11029.068536
1646.922240,-3447.429741,-4219.173869,10732.986159
1646.922557,-3524.039291,-3923.091493,10732.986159
1646.922874,-3447.429741,-3701.029710,10732.986159
1646.923191,-3524.039291,-3478.967927,10658.965565
1646.923509,-3677.258390,-3775.050304,10732.986159
1646.923826,-3983.696590,-3997.112087,10584.944971
1646.924143,-3983.696590,-4293.194464,10658.965565
1646.924460,-4673.182538,-4367.215058,10362.883188
1646.924777,-4596.572988,-4737.318029,10510.924376
1646.925094,-4903.011187,-4367.215058,10584.944971
1646.925412,-4826.401637,-3923.091493,10436.903782
1646.925729,-4596.572988,-3478.967927,11029.068536
1646.926046,-4366.744339,-4071.132681,11325.150913
1646.926363,-4366.744339,-3849.070898,11769.274478
1646.926680,-4366.744339,-3404.947333,11103.089130
1646.926998,-3983.696590,-3034.844362,10807.006753
1646.927315,-3907.087040,-2368.659014,10362.883188
1646.927632,-2757.943793,-2590.720797,9844.739029
1646.927949,-3140.991542,-2146.597232,9474.636058
1646.928266,-2604.724693,-2664.741391,9474.636058
1646.928583,-2451.505594,-3701.029710,10066.800811
1646.928901,-1915.238745,-4145.153275,10362.883188
1646.929218,-1455.581446,-4441.235652,10140.821405
1646.929535,-842.705048,-3775.050304,9844.739029
1646.929852,-383.047749,-3256.906145,9400.615463
1646.930169,536.266849,-2960.823768,8660.409521
1646.930487,1225.752797,-2368.659014,8216.285956
1646.930804,2604.724693,-2072.576638,7476.080014
1646.931121,2298.286494,-2590.720797,7698.141797
1646.931438,2145.067394,-2738.761985,8068.244768
1646.931755,1991.848295,-2886.803174,7624.121203
1646.932072,2068.457845,-2442.679609,7846.182985
1646.932390,919.314598,-2516.700203,7772.162391
1646.932707,919.314598,-2072.576638,7772.162391
1646.933024,689.485948,-1924.535449,7328.038826
1646.933341,766.095498,-1924.535449,8438.347739
1646.933658,76.609550,-2368.659014,9326.594869
1646.933975,689.485948,-2368.659014,9622.677246
1646.934293,-536.266849,-1924.535449,9252.574275
1646.934610,76.609550,-1184.329507,9844.739029
1646.934927,0.000000,-148.041188,8734.430116
1646.935244,689.485948,222.061783,8142.265362
1646.935561,612.876398,666.185348,8364.327145
1646.935879,383.047749,962.267725,8290.306550
1646.936196,229.828649,666.185348,8364.327145
1646.936513,-153.219100,1036.288319,7328.038826
1646.936830,-459.657299,518.144159,8290.306550
1646.937147,-919.314598,-444.123565,8660.409521
1646.937464,-1225.752797,-888.247130,9326.594869
1646.937782,-1302.362347,-1110.308913,10140.821405
1646.938099,-1302.362347,-666.185348,10658.965565
1646.938416,-1378.971896,888.247130,9770.718434
1646.938733,-1532.190996,1628.453072,9548.656652
1646.939050,-1838.629195,1776.494261,9178.553681
1646.939368,-2528.115143,1924.535449,9178.553681
1646.939685,-3217.601092,1776.494261,8808.450710
1646.940002,-3600.648841,1850.514855,8512.368333
1646.940319,-4060.306139,222.061783,9474.636058
1646.940636,-4826.401637,-962.267725,11029.068536
1646.940953,-4979.620737,-2072.576638,11843.295072
1646.941271,-5209.449386,-2516.700203,12361.439231
1646.941588,-5669.106685,-2294.638420,12583.501014
1646.941905,-4979.620737,-1628.453072,12805.562797
1646.942222,-4903.011187,-444.123565,12435.459826
1646.942539,-4443.353888,-0.000000,11547.212695
1646.942856,-3830.477490,-0.000000,10955.047942
1646.943174,-3217.601092,370.102971,10510.924376
1646.943491,-2911.162892,-0.000000,10510.924376
1646.943808,-2681.334243,-888.247130,10658.965565
1646.944125,-2528.115143,-1850.514855,10658.965565
1646.944442,-2374.896044,-2442.679609,10510.924376
1646.944760,-1302.362347,-3552.988522,11103.089130
1646.945077,-1838.629195,-3701.029710,11029.068536
1646.945394,-842.705048,-3775.050304,11103.089130
1646.945711,-536.266849,-3182.885551,9474.636058
1646.946028,-459.657299,-2960.823768,9844.739029
1646.946345,-1378.971896,-3849.070898,10658.965565
1646.946663,-1455.581446,-3775.050304,11251.130318
1646.946980,-1455.581446,-4441.235652,11621.233289
1646.947297,-1685.410096,-4293.194464,11769.274478
1646.947614,-1608.800546,-4071.132681,12509.480420
1646.947931,-842.705048,-3775.050304,11843.295072
1646.948249,459.657299,-3182.885551,10881.027347
1646.948566,1532.190996,-2960.823768,9918.759623
1646.948883,2528.115143,-3108.864956,10066.800811
1646.949200,3447.429741,-3034.844362,8734.430116
1646.949517,3677.258390,-3923.091493,8216.285956
1646.949834,3294.210641,-4071.132681,7624.121203
1646.950152,2834.553343,-4071.132681,7476.080014
1646.950469,2757.943793,-3478.967927,5995.668130
1646.950786,1608.800546,-3108.864956,5625.565159
1646.951103,842.705048,-4663.297435,7105.977043
1646.951421,0.000000,-5255.462188,7772.162391
1646.951738,-229.828649,-5107.421000,7550.100608
1646.952056,-1225.752797,-4959.379811,8216.285956
1646.952373,-2374.896044,-5625.565159,9252.574275
1646.952690,-1762.019645,-4959.379811,9178.553681
1646.953008,-1762.019645,-3478.967927,8660.409521
1646.953325,-306.438199,-2664.741391,8956.491898
1646.953643,-1072.533697,-2738.761985,8512.368333
1646.953960,-536.266849,-1924.535449,7328.038826
1646.954277,-842.705048,-1480.411884,6661.853478
1646.954595,-1302.362347,-2220.617826,5699.585753
1646.954912,-1225.752797,-2738.761985,5255.462188
1646.955230,-2068.457845,-3627.009116,5181.441594
1646.955547,-2757.943793,-4219.173869,5699.585753
1646.955865,-4060.306139,-5255.462188,6365.771101
1646.956182,-5669.106685,-6217.729913,7994.224174
1646.956499,-5898.935335,-5699.585753,9178.553681
1646.956817,-5745.716235,-5403.503377,10658.965565
1646.957134,-6358.592633,-4959.379811,9696.697840
1646.957452,-5822.325785,-4219.173869,12139.377449
1646.957769,-4673.182538,-2294.638420,11695.253884
1646.958086,-2757.943793,-0.000000,9696.697840
1646.958404,-995.924147,1110.308913,9696.697840
1646.958721,612.876398,1776.494261,9326.594869
1646.959039,995.924147,1702.473667,6439.791695
1646.959356,1838.629195,814.226536,6291.750507
1646.959673,2068.457845,592.164754,7402.059420
1646.959991,1149.143247,-592.164754,6883.915261
1646.960308,612.876398,-1184.329507,7402.059420
1646.960626,0.000000,-2220.617826,9622.677246
1646.960943,-306.438199,-2368.659014,10732.986159
1646.961260,-1455.581446,-1998.556043,11621.233289
1646.961578,-1302.362347,-1924.535449,13767.830521
1646.961895,-842.705048,592.164754,13545.768739
1646.962213,383.047749,2442.679609,12731.542202
1646.962530,1762.019645,2886.803174,11917.315666
1646.962848,2374.896044,4737.318029,10436.903782
1646.963165,3524.039291,5625.565159,9770.718434
1646.963482,4519.963438,5477.523971,7772.162391
1646.963800,5209.449386,3849.070898,7698.141797
1646.964117,4903.011187,2368.659014,9178.553681
1646.964435,3907.087040,1184.329507,9178.553681
1646.964752,3524.039291,-0.000000,10881.027347
1646.965069,2681.334243,-370.102971,11251.130318
1646.965387,2604.724693,-0.000000,12139.377449
1646.965704,2068.457845,1110.308913,12361.439231
1646.966022,1991.848295,2812.782580,12139.377449
1646.966339,1685.410096,3552.988522,11621.233289
1646.966656,1532.190996,4737.318029,11029.068536
1646.966974,1762.019645,5625.565159,10510.924376
1646.967291,1762.019645,5033.400406,10214.842000
1646.967609,1762.019645,3701.029710,10066.800811
1646.967926,2298.286494,2368.659014,10288.862594
1646.968244,2757.943793,1554.432478,10510.924376
1646.968561,2604.724693,444.123565,10510.924376
1646.968878,2221.676944,-888.247130,11177.109724
1646.969196,2145.067394,-74.020594,10362.883188
1646.969513,1991.848295,962.267725,9696.697840
1646.969831,1532.190996,1406.391290,10214.842000
1646.970148,1225.752797,2738.761985,9474.636058
1646.970465,459.657299,3701.029710,9104.533087
1646.970783,-383.047749,3849.070898,9474.636058
1646.971100,-1225.752797,3404.947333,9474.636058
1646.971418,-1378.971896,2590.720797,9252.574275
1646.971735,-1838.629195,1628.453072,9844.739029
1646.972052,-2221.676944,518.144159,10436.903782
1646.972370,-1685.410096,-0.000000,9918.759623
1646.972687,-919.314598,-444.123565,8956.491898
1646.973005,0.000000,-740.205942,8438.347739
1646.973322,0.000000,-1628.453072,8290.306550
1646.973639,-153.219100,-1998.556043,7994.224174
1646.973957,-536.266849,-1258.350101,7698.141797
1646.974274,-919.314598,-962.267725,7105.977043
1646.974592,-1685.410096,-1184.329507,8364.327145
1646.974909,-2757.943793,-1110.308913,9400.615463
1646.975227,-3447.429741,-1258.350101,9992.780217
1646.975544,-3294.210641,-1184.329507,9992.780217
1646.975861,-2604.724693,-1406.391290,10362.883188
1646.976179,-1608.800546,-1258.350101,10066.800811
1646.976496,-229.828649,-1480.411884,9252.574275
1646.976814,536.266849,-1628.453072,8882.471304
1646.977131,2221.676944,-2072.576638,8142.265362
1646.977448,2834.553343,-2368.659014,7846.182985
1646.977766,2834.553343,-3034.844362,7550.100608
1646.978083,2911.162892,-2516.700203,7254.018232
1646.978401,2298.286494,-2516.700203,7179.997637
1646.978718,2221.676944,-2960.823768,7698.141797
1646.979035,1608.800546,-2960.823768,8364.327145
1646.979353,1608.800546,-3404.947333,9696.697840
1646.979670,612.876398,-2886.803174,10066.800811
1646.979988,1225.752797,-2442.679609,10362.883188
1646.980305,1455.581446,-1554.432478,10510.924376
1646.980622,2528.115143,-1554.432478,10658.965565
1646.980940,3447.429741,-1184.329507,10510.924376
1646.981257,4060.306139,296.082377,8586.388927
1646.981575,5362.668486,592.164754,7846.182985
1646.981892,5439.278036,1110.308913,6809.894666
1646.982210,5362.668486,296.082377,5773.606348
1646.982527,5132.839837,-444.123565,5847.626942
1646.982844,4366.744339,-1702.473667,7624.121203
1646.983162,2987.772442,-1332.370696,7105.977043
1646.983479,2604.724693,-1480.411884,7994.224174
1646.983797,1762.019645,-1480.411884,9696.697840
1646.984114,1532.190996,-666.185348,10362.883188
1646.984431,766.095498,-148.041188,10214.842000
1646.984749,612.876398,1036.288319,11029.068536
1646.985066,76.609550,2146.597232,10807.006753
1646.985384,0.000000,3552.988522,9252.574275
1646.985701,612.876398,4071.132681,8438.347739
1646.986018,76.609550,3627.009116,8216.285956
1646.986336,229.828649,2738.761985,7994.224174
1646.986653,153.219100,2072.576638,7476.080014
1646.986971,-306.438199,740.205942,8142.265362
1646.987288,-536.266849,-222.061783,9474.636058
1646.987605,-1532.190996,296.082377,9104.533087
1646.987923,-842.705048,370.102971,10510.924376
1646.988240,-1149.143247,962.267725,11251.130318
1646.988558,-1915.238745,1332.370696,11473.192101
1646.988875,-1762.019645,3256.906145,11547.212695
1646.989193,-689.485948,3849.070898,11621.233289
1646.989510,-1532.190996,4663.297435,10214.842000
1646.989827,-1072.533697,5403.503377,9622.677246
1646.990145,-1149.143247,4885.359217,10066.800811
1646.990462,-1302.362347,4367.215058,9178.553681
1646.990780,-153.219100,3627.009116,9030.512492
1646.991097,306.438199,2368.659014,9252.574275
1646.991414,0.000000,1406.391290,9474.636058
1646.991732,0.000000,1036.288319,9918.759623
1646.992049,153.219100,666.185348,10807.006753
1646.992367,459.657299,962.267725,11473.192101
1646.992684,76.609550,2294.638420,11547.212695
1646.993001,0.000000,3256.906145,11991.336260
1646.993319,-153.219100,4441.235652,11695.253884
1646.993636,153.219100,4589.276840,10807.006753
1646.993954,153.219100,4367.215058,10584.944971
1646.994271,995.924147,3256.906145,10362.883188
1646.994589,1762.019645,2664.741391,9992.780217
1646.994906,2451.505594,1702.473667,9400.615463
1646.995223,2911.162892,962.267725,9770.718434
1646.995541,2911.162892,-0.000000,9992.780217
1646.995858,2911.162892,-148.041188,10362.883188
1646.996176,2834.553343,592.164754,9548.656652
1646.996493,3217.601092,1184.329507,9474.636058
1646.996810,3294.210641,1258.350101,9474.636058
1646.997128,2834.553343,1332.370696,9696.697840
1646.997445,2757.943793,444.123565,9104.533087
1646.997763,1762.019645,1628.453072,9104.533087
1646.998080,2374.896044,-0.000000,10214.842000
1646.998397,1991.848295,222.061783,9622.677246
1646.998715,2681.334243,-148.041188,10140.821405
1646.999032,2757.943793,-1110.308913,10362.883188
1646.999350,3064.381992,-518.144159,9918.759623
1646.999667,4213.525239,-1036.288319,10214.842000
1646.999984,3217.601092,-222.061783,8660.409521
1647.000302,3140.991542,-518.144159,8512.368333
1647.000619,2911.162892,-74.020594,7328.038826
1647.000937,2834.553343,-0.000000,6735.874072
1647.001254,2834.553343,148.041188,7476.080014
1647.001572,2451.505594,-740.205942,7550.100608
1647.001889,1608.800546,-1036.288319,8364.327145
1647.002206,1072.533697,-2590.720797,9474.636058
1647.002524,-459.657299,-2960.823768,10140.821405
1647.002841,-536.266849,-3108.864956,10288.862594
1647.003159,-229.828649,-1628.453072,9696.697840
1647.003476,306.438199,-962.267725,9770.718434
1647.003793,995.924147,-0.000000,9104.533087
1647.004111,1302.362347,1628.453072,7031.956449
1647.004428,1762.019645,814.226536,6883.915261
1647.004746,1149.143247,-148.041188,6735.874072
1647.005063,842.705048,-518.144159,6143.709319
1647.005380,383.047749,-370.102971,5995.668130
1647.005698,-459.657299,-444.123565,7031.956449
1647.006015,0.000000,-1776.494261,8660.409521
1647.006333,-1225.752797,-1036.288319,9696.697840
1647.006650,-1838.629195,-888.247130,10140.821405
1647.006967,-1838.629195,-518.144159,11103.089130
1647.007285,-1915.238745,-0.000000,10881.027347
1647.007602,-306.438199,592.164754,10066.800811
1647.007920,-766.095498,1480.411884,9030.512492
1647.008237,-383.047749,1850.514855,9104.533087
1647.008555,0.000000,1850.514855,8068.244768
1647.008872,153.219100,1924.535449,7328.038826
1647.009189,459.657299,1998.556043,7179.997637
1647.009507,-459.657299,1480.411884,7772.162391
1647.009824,-1149.143247,222.061783,7254.018232
1647.010142,-1685.410096,-814.226536,9474.636058
1647.010459,-2145.067394,-1554.432478,11103.089130
1647.010776,-2451.505594,-888.247130,11621.233289
1647.011094,-1991.848295,-592.164754,12731.542202
1647.011411,-1532.190996,444.123565,12731.542202
1647.011729,-383.047749,1480.411884,12213.398043
1647.012046,153.219100,1628.453072,11621.233289
1647.012363,1225.752797,2738.761985,10362.883188
1647.012681,2145.067394,3404.947333,9622.677246
1647.012998,2681.334243,3552.988522,8290.306550
1647.013316,2987.772442,2368.659014,8290.306550
1647.013633,2987.772442,962.267725,8142.265362
1647.013951,1991.848295,-74.020594,8734.430116
1647.014268,2145.067394,-740.205942,9104.533087
1647.014585,1762.019645,-666.185348,9622.677246
1647.014903,1378.971896,-1258.350101,11399.171507
1647.015220,1225.752797,-962.267725,12731.542202
1647.015538,1225.752797,-370.102971,13027.624579
1647.015855,1455.581446,518.144159,13471.748144
1647.016172,1762.019645,1850.514855,12139.377449
1647.016490,2604.724693,2664.741391,10732.986159
1647.016807,3600.648841,3478.967927,9992.780217
1647.017125,3907.087040,3627.009116,8808.450710
1647.017442,4519.963438,2590.720797,7920.203579
1647.017759,4673.182538,1776.494261,7550.100608
1647.018077,4060.306139,962.267725,7328.038826
1647.018394,3600.648841,-888.247130,7772.162391
1647.018712,3064.381992,-1480.411884,7994.224174
1647.019029,2221.676944,-1998.556043,8660.409521
1647.019346,1225.752797,-1628.453072,9474.636058
1647.019664,383.047749,-1554.432478,10510.924376
1647.019981,-689.485948,-1110.308913,11103.089130
1647.020299,-1149.143247,-0.000000,10214.842000
1647.020616,-1455.581446,814.226536,10584.944971
1647.020934,-1838.629195,370.102971,10436.903782
1647.021251,-1838.629195,-0.000000,9474.636058
1647.021568,-1302.362347,-0.000000,9918.759623
1647.021886,-919.314598,-0.000000,9474.636058
1647.022203,459.657299,296.082377,7846.182985
1647.022521,1302.362347,-148.041188,7105.977043
1647.022838,1378.971896,-1110.308913,7031.956449
1647.023155,919.314598,-1702.473667,6809.894666
1647.023473,766.095498,-1554.432478,6661.853478
1647.023790,76.609550,-1184.329507,6735.874072
1647.024108,-306.438199,-1184.329507,7772.162391
1647.024425,-1915.238745,-1184.329507,8808.450710
1647.024742,-2911.162892,-1480.411884,10732.986159
1647.025060,-3064.381992,-1850.514855,11547.212695
1647.025377,-3524.039291,-1480.411884,11029.068536
1647.025695,-2374.896044,-1406.391290,11769.274478
1647.026012,-1302.362347,-592.164754,11473.192101
1647.026329,0.000000,-0.000000,10362.883188
1647.026647,1532.190996,1184.329507,8734.430116
1647.026964,3217.601092,1924.535449,7402.059420
1647.027282,3447.429741,1184.329507,5921.647536
1647.027599,3370.820191,518.144159,5921.647536
1647.027917,2757.943793,296.082377,6291.750507
1647.028234,1762.019645,-296.082377,5921.647536
1647.028551,995.924147,-1776.494261,7994.224174
1647.028869,-842.705048,-3034.844362,10658.965565
1647.029186,-2221.676944,-3627.009116,12435.459826
1647.029504,-2451.505594,-2516.700203,13471.748144
1647.029821,-2068.457845,-1258.350101,13915.871710
1647.030138,-536.266849,-0.000000,12731.542202
1647.030456,229.828649,1036.288319,12287.418637
1647.030773,536.266849,2072.576638,10288.862594
1647.031091,2451.505594,2960.823768,8882.471304
1647.031408,3983.696590,2812.782580,7328.038826
1647.031725,4136.915689,2220.617826,5921.647536
1647.032043,3524.039291,1036.288319,5847.626942
1647.032360,3370.820191,-518.144159,7476.080014
1647.032678,1991.848295,-2220.617826,7994.224174
1647.032995,1455.581446,-2368.659014,9252.574275
1647.033313,383.047749,-2368.659014,10584.944971
1647.033630,-612.876398,-3404.947333,12879.583391
1647.033947,-919.314598,-3552.988522,14063.912898
1647.034265,-306.438199,-2072.576638,14508.036463
1647.034582,0.000000,296.082377,13841.851115
1647.034900,-229.828649,2368.659014,10955.047942
1647.035217,766.095498,3330.926739,10288.862594
1647.035534,1838.629195,3552.988522,8438.347739
1647.035852,2911.162892,3034.844362,7476.080014
1647.036169,4136.915689,2368.659014,6069.688724
1647.036487,3217.601092,666.185348,5699.585753
1647.036804,2757.943793,-1924.535449,7550.100608
1647.037121,2298.286494,-3034.844362,8512.368333
1647.037439,1302.362347,-3404.947333,8956.491898
1647.037756,689.485948,-3182.885551,9474.636058
1647.038074,-689.485948,-2960.823768,11325.150913
1647.038391,-1149.143247,-1702.473667,13027.624579
1647.038708,-1455.581446,-444.123565,13027.624579
1647.039026,-689.485948,296.082377,12731.542202
1647.039343,-1455.581446,2368.659014,9992.780217
1647.039661,-1991.848295,2072.576638,9696.697840
1647.039978,-1302.362347,2590.720797,8882.471304
1647.040296,-383.047749,2886.803174,6957.935855
1647.040613,1378.971896,3108.864956,6365.771101
1647.040930,536.266849,1258.350101,4737.318029
1647.041248,612.876398,-592.164754,6735.874072
1647.041565,1302.362347,-3108.864956,9548.656652
1647.041883,766.095498,-3552.988522,10140.821405
1647.042200,-383.047749,-3775.050304,8290.306550
1647.042517,-1225.752797,-2516.700203,9474.636058
1647.042835,-2987.772442,-1628.453072,10288.862594
1647.043152,-2298.286494,-444.123565,11621.233289
1647.043470,-1762.019645,740.205942,11177.109724
1647.043787,-1838.629195,1702.473667,10214.842000
1647.044104,-2145.067394,2294.638420,8660.409521
1647.044422,-1762.019645,1998.556043,8956.491898
1647.044739,-306.438199,2294.638420,7846.182985
1647.045057,1608.800546,1850.514855,6439.791695
1647.045374,1915.238745,1480.411884,4589.276840
1647.045691,1991.848295,-518.144159,7402.059420
1647.046009,2911.162892,-1998.556043,8808.450710
1647.046326,3064.381992,-1480.411884,8068.244768
1647.046644,2757.943793,-1628.453072,8142.265362
1647.046961,536.266849,-2294.638420,8438.347739
1647.047279,-1302.362347,-3108.864956,11029.068536
1647.047596,-995.924147,-1924.535449,12731.542202
1647.047913,-383.047749,148.041188,12287.418637
1647.048231,-306.438199,2442.679609,10584.944971
1647.048548,842.705048,3478.967927,10881.027347
1647.048866,1608.800546,3552.988522,9844.739029
1647.049183,1685.410096,2368.659014,8438.347739
1647.049500,4903.011187,962.267725,7179.997637
1647.049818,3370.820191,1332.370696,6661.853478
1647.050135,4596.572988,888.247130,6735.874072
1647.050453,3677.258390,-1554.432478,6661.853478
1647.050770,2834.553343,-1628.453072,9474.636058
1647.051087,3217.601092,-4663.297435,11177.109724
1647.051405,229.828649,-2146.597232,10732.986159
1647.051722,536.266849,-3256.906145,12361.439231
1647.052040,-1838.629195,-518.144159,11177.109724
1647.052357,689.485948,-1258.350101,13989.892304
1647.052675,766.095498,1924.535449,14211.954086
1647.052992,842.705048,1332.370696,11103.089130
1647.053309,612.876398,2146.597232,11621.233289
1647.053627,766.095498,2960.823768,10066.800811
1647.053944,3677.258390,2146.597232,11325.150913
1647.054262,4136.915689,3997.112087,5403.503377
1647.054579,3983.696590,148.041188,6587.832884
1647.054896,1378.971896,-0.000000,5477.523971
1647.055214,3370.820191,-2516.700203,9622.677246
1647.055531,2528.115143,-1258.350101,8734.430116
1647.055849,3677.258390,-3034.844362,9400.615463
1647.056166,-153.219100,-592.164754,8512.368333
1647.056483,0.000000,-1924.535449,12879.583391
1647.056801,-919.314598,-1406.391290,13915.871710
1647.057118,1225.752797,370.102971,13767.830521
1647.057436,-306.438199,3034.844362,11029.068536
1647.057753,-1072.533697,6587.832884,9104.533087
1647.058071,459.657299,4737.318029,8512.368333
1647.058388,612.876398,5403.503377,5699.585753
1647.058705,2451.505594,2368.659014,5477.523971
1647.059023,0.000000,1998.556043,4737.318029
1647.059340,-383.047749,-2590.720797,6587.832884
1647.059658,-919.314598,-3627.009116,10140.821405
1647.059975,-229.828649,-5329.482782,10732.986159
1647.060292,-2068.457845,-3701.029710,11177.109724
1647.060610,-2298.286494,-2516.700203,12583.501014
1647.060927,-1838.629195,-1776.494261,13027.624579
1647.061245,-2145.067394,3034.844362,10584.944971
1647.061562,459.657299,3256.906145,11843.295072
1647.061880,-919.314598,5773.606348,7105.977043
1647.062197,76.609550,5033.400406,8586.388927
1647.062514,-229.828649,6365.771101,5847.626942
1647.062832,0.000000,3404.947333,5107.421000
1647.063149,766.095498,2146.597232,5107.421000
1647.063467,689.485948,-1258.350101,6291.750507
1647.063784,0.000000,-3923.091493,9474.636058
1647.064101,-306.438199,-5551.544565,10584.944971
1647.064419,-383.047749,-5625.565159,11695.253884
1647.064736,459.657299,-4589.276840,13027.624579
1647.065054,76.609550,-2220.617826,12583.501014
1647.065371,-459.657299,592.164754,10807.006753
1647.065689,766.095498,3404.947333,11547.212695
1647.066006,1762.019645,5625.565159,9474.636058
1647.066323,2145.067394,6809.894666,8142.265362
1647.066641,2528.115143,6365.771101,7402.059420
1647.066958,2528.115143,6513.812290,5551.544565
1647.067276,4136.915689,3849.070898,4219.173869
1647.067593,3600.648841,1332.370696,3701.029710
1647.067910,2528.115143,-3256.906145,6439.791695
1647.068228,1225.752797,-5773.606348,10510.924376
1647.068545,-153.219100,-6883.915261,11695.253884
1647.068863,0.000000,-4885.359217,10955.047942
1647.069180,-689.485948,-3997.112087,12583.501014
1647.069498,-1455.581446,-3182.885551,15544.324782
1647.069815,-1072.533697,-962.267725,13619.789333
1647.070132,-689.485948,2516.700203,10807.006753
1647.070450,1225.752797,4293.194464,9696.697840
1647.070767,1378.971896,5477.523971,10288.862594
1647.071085,3217.601092,6957.935855,7846.182985
1647.071402,4519.963438,6439.791695,3923.091493
1647.071719,4903.011187,5255.462188,2590.720797
1647.072037,3677.258390,-0.000000,5551.544565
1647.072354,2604.724693,-3552.988522,9400.615463
1647.072672,1991.848295,-6957.935855,11251.130318
1647.072989,1532.190996,-5181.441594,10214.842000
1647.073307,689.485948,-6809.894666,11769.274478
1647.073624,-1685.410096,-5329.482782,13101.645173
1647.073941,-1762.019645,-5773.606348,15396.283594
1647.074259,-689.485948,-1554.432478,16284.530724
1647.074576,612.876398,3108.864956,10732.986159
1647.074894,1991.848295,6883.915261,7994.224174
1647.075211,766.095498,7105.977043,7920.203579
1647.075528,3753.867940,6883.915261,10362.883188
1647.075846,4443.353888,8216.285956,3997.112087
1647.076163,5669.106685,7624.121203,4515.256246
1647.076481,4136.915689,3997.112087,3627.009116
1647.076798,3140.991542,1036.288319,5329.482782
1647.077116,3064.381992,-3404.947333,9622.677246
1647.077433,459.657299,-5107.421000,8808.450710
1647.077750,-612.876398,-7179.997637,10584.944971
1647.078068,-3983.696590,-6291.750507,11621.233289
1647.078385,-3677.258390,-6735.874072,16876.695478
1647.078703,-2987.772442,-3627.009116,16654.633695
1647.079020,-2221.676944,296.082377,13175.665768
1647.079337,-1608.800546,3182.885551,11251.130318
1647.079655,-2528.115143,6587.832884,8512.368333
1647.079972,229.828649,8956.491898,7846.182985
1647.080290,2604.724693,10955.047942,6439.791695
1647.080607,4979.620737,11399.171507,1998.556043
1647.080925,2374.896044,9548.656652,-1406.391290
1647.081242,3294.210641,3108.864956,5403.503377
1647.081559,1455.581446,-3923.091493,9178.553681
1647.081877,1149.143247,-6809.894666,10288.862594
1647.082194,383.047749,-9696.697840,11473.192101
1647.082512,-3753.867940,-8512.368333,12287.418637
1647.082829,-2911.162892,-11769.274478,18801.230927
1647.083146,-2681.334243,-7105.977043,19837.519246
1647.083464,-1532.190996,-1776.494261,16136.489536
1647.083781,612.876398,5403.503377,10881.027347
1647.084099,-383.047749,9992.780217,5699.585753
1647.084416,1838.629195,11695.253884,6365.771101
1647.084733,4290.134789,13175.665768,3552.988522
1647.085051,6971.469032,13175.665768,-148.041188
1647.085368,5822.325785,10140.821405,-2516.700203
1647.085686,4903.011187,2812.782580,3775.050304
1647.086003,2834.553343,-4441.235652,9252.574275
1647.086321,2604.724693,-9548.656652,9918.759623
1647.086638,306.438199,-13693.809927,14804.118840
1647.086955,-4903.011187,-14285.974681,16358.551318
1647.087273,-5745.716235,-12287.418637,20725.766376
1647.087590,-3753.867940,-7105.977043,20873.807564
1647.087908,-995.924147,-2516.700203,17320.819043
1647.088225,-306.438199,3478.967927,14359.995275
1647.088542,-383.047749,9030.512492,7402.059420
1647.088860,153.219100,13767.830521,3849.070898
1647.089177,5975.544884,16136.489536,2220.617826
1647.089495,6971.469032,16580.613101,-1110.308913
1647.089812,6511.811733,13619.789333,-3256.906145
1647.090130,6358.592633,5329.482782,0.000000
1647.090447,3524.039291,-3701.029710,9030.512492
1647.090764,3294.210641,-12509.480420,13027.624579
1647.091082,995.924147,-15396.283594,13175.665768
1647.091399,-2221.676944,-17838.963202,15396.283594
1647.091717,-6052.154434,-14730.098246,17468.860231
1647.092034,-995.924147,-12139.377449,23612.569550
1647.092351,-3294.210641,-3701.029710,16802.674883
1647.092669,0.000000,2886.803174,10140.821405
1647.092986,919.314598,8956.491898,8808.450710
1647.093304,-1608.800546,15396.283594,1258.350101
1647.093621,5132.839837,14211.954086,4663.297435
1647.093939,4136.915689,15914.427753,-2590.720797
1647.094256,4749.792088,12509.480420,-2664.741391
1647.094573,4903.011187,8216.285956,-1110.308913
1647.094891,3447.429741,-1110.308913,7402.059420
1647.095208,3830.477490,-11991.336260,14878.139434
1647.095526,536.266849,-15026.180623,14063.912898
1647.095843,-2068.457845,-18949.272115,18061.024985
1647.096160,-7507.735880,-14730.098246,16802.674883
1647.096478,-3140.991542,-11177.109724,23686.590144
1647.096795,-4136.915689,-2738.761985,15396.283594
1647.097113,-1378.971896,222.061783,10066.800811
1647.097430,-995.924147,6069.688724,11547.212695
1647.097748,-3753.867940,12805.562797,1480.411884
1647.098065,2451.505594,15100.201217,4959.379811
1647.098382,4519.963438,15470.304188,888.247130
1647.098700,3830.477490,15174.221811,-4441.235652
1647.099017,4366.744339,10584.944971,-1776.494261
1647.099335,2451.505594,1406.391290,5181.441594
1647.099652,2681.334243,-10436.903782,15248.242405
1647.099969,2604.724693,-13619.789333,14285.974681
1647.100287,306.438199,-15692.365970,15618.345376
1647.100604,-5132.839837,-17468.860231,16284.530724
1647.100922,-3753.867940,-13249.686362,22428.240043
1647.101239,-4213.525239,-7328.038826,17616.901420
1647.101557,-2374.896044,-444.123565,9474.636058
1647.101874,459.657299,5033.400406,11251.130318
1647.102191,-4749.792088,13397.727550,2960.823768
1647.102509,919.314598,14508.036463,6957.935855
1647.102826,4213.525239,16358.551318,3182.885551
1647.103144,4136.915689,17172.777854,-2516.700203
1647.103461,3830.477490,12731.542202,-2516.700203
1647.103778,2374.896044,5329.482782,222.061783
1647.104096,2681.334243,-7254.018232,14508.036463
1647.104413,1915.238745,-11695.253884,12657.521608
1647.104731,2374.896044,-18283.086767,15988.448347
1647.105048,-6128.763984,-20799.786970,17690.922014
1647.105366,-5822.325785,-18283.086767,24056.693115
1647.105683,-3600.648841,-10362.883188,21984.116477
1647.106000,-2145.067394,-3478.967927,17172.777854
1647.106318,612.876398,2664.741391,11843.295072
1647.106635,-766.095498,12065.356855,4811.338623
1647.106953,612.876398,17172.777854,4145.153275
1647.107270,7354.516781,18431.127956,4441.235652
1647.107587,5898.935335,19541.436869,-4589.276840
1647.107905,8120.612279,17690.922014,-1554.432478
1647.108222,6971.469032,9622.677246,-5181.441594
1647.108540,4366.744339,-2812.782580,1036.288319
1647.108857,4979.620737,-16432.571912,17690.922014
1647.109175,919.314598,-19393.395680,15840.407159
1647.109492,-2987.772442,-22724.322419,15988.448347
1647.109809,-3064.381992,-18801.230927,23094.425390
1647.110127,-3370.820191,-13397.727550,25611.125593
1647.110444,-4519.963438,-7105.977043,19615.457463
1647.110762,-306.438199,740.205942,11843.295072
1647.111079,1302.362347,10510.924376,8364.327145
1647.111396,-1072.533697,21762.054695,-148.041188
1647.111714,6971.469032,21021.848753,5699.585753
1647.112031,7201.297681,22132.157666,-222.061783
1647.112349,7354.516781,22354.219448,-8290.306550
1647.112666,7584.345430,13471.748144,-5847.626942
1647.112983,2834.553343,1406.391290,-1110.308913
1647.113301,2374.896044,-15988.448347,18875.251521
1647.113618,842.705048,-18875.251521,15544.324782
1647.113936,-2987.772442,-23464.528361,13323.706956
1647.114253,-6281.983084,-21762.054695,23612.569550
1647.114571,-6281.983084,-18949.272115,25315.043216
1647.114888,-4903.011187,-10140.821405,20207.622217
1647.115205,-2145.067394,-3478.967927,14285.974681
1647.115523,-612.876398,9252.574275,9104.533087
1647.115840,-1838.629195,18209.066173,518.144159
1647.116158,1455.581446,23242.466579,3034.844362
1647.116475,6281.983084,22132.157666,1628.453072
1647.116792,6281.983084,25389.063811,-6069.688724
1647.117110,7354.516781,17912.983796,-9918.759623
1647.117427,3370.820191,6069.688724,-2664.741391
1647.117745,2604.724693,-11843.295072,19985.560434
1647.118062,229.828649,-20503.704593,14285.974681
1647.118380,229.828649,-22798.343014,13175.665768
1647.118697,-5132.839837,-22576.281231,23094.425390
1647.119014,-8886.707777,-21614.013506,24278.754898
1647.119332,-5822.325785,-15618.345376,22206.178260
1647.119649,-4366.744339,-4367.215058,19837.519246
1647.119967,-1991.848295,5921.647536,10140.821405
1647.120284,-1532.190996,15174.221811,4663.297435
1647.120601,-1991.848295,19985.560434,3256.906145
1647.120919,2451.505594,21317.931130,4737.318029
1647.121236,5592.497135,22280.198854,-1554.432478
1647.121554,9116.536426,20651.745782,-6143.709319
1647.121871,6281.983084,11177.109724,-7550.100608
1647.122189,6128.763984,-5847.626942,11621.233289
1647.122506,3294.210641,-17912.983796,15840.407159
1647.122823,2681.334243,-22206.178260,11917.315666
1647.123141,-4136.915689,-25315.043216,18431.127956
1647.123458,-8733.488677,-23094.425390,23390.507767
1647.123776,-6588.421283,-14878.139434,24870.919651
1647.124093,-4903.011187,-9400.615463,19911.539840
1647.124410,-4519.963438,-3701.029710,12435.459826
1647.124728,-1072.533697,6143.709319,13619.789333
1647.125045,-3217.601092,18283.086767,4811.338623
1647.125363,3600.648841,20059.581028,4367.215058
1647.125680,6052.154434,21910.095883,1702.473667
1647.125998,10265.679673,27387.619854,-4145.153275
1647.126315,11951.089769,19837.519246,-10584.944971
1647.126632,10112.460574,3552.988522,-5181.441594
1647.126950,7354.516781,-14730.098246,13841.851115
1647.127267,3370.820191,-18801.230927,9400.615463
1647.127585,-383.047749,-24130.713709,10584.944971
1647.127902,-5592.497135,-23686.590144,21465.972318
1647.128219,-9346.365076,-19319.375086,23020.404796
1647.128537,-7507.735880,-15174.221811,22502.260637
1647.128854,-5132.839837,-10881.027347,21169.889941
1647.129172,-4366.744339,-0.000000,14434.015869
1647.129489,-2068.457845,10584.944971,11843.295072
1647.129807,459.657299,20799.786970,5551.544565
1647.130124,5975.544884,22872.363608,6809.894666
1647.130441,5822.325785,30126.381839,-2072.576638
1647.130759,12180.918418,28868.031738,-8438.347739
1647.131076,12487.356617,15766.386565,-11621.233289
1647.131394,8580.269578,1258.350101,-5181.441594
1647.131711,8886.707777,-17246.798449,16580.613101
1647.132028,-153.219100,-21539.992912,5921.647536
1647.132346,-5439.278036,-25241.022622,13027.624579
1647.132663,-6741.640382,-27091.537477,28127.825796
1647.132981,-12947.013916,-18283.086767,21021.848753
1647.133298,-7814.174080,-18653.189738,24426.796086
1647.133616,-8273.831378,-8364.327145,15618.345376
1647.133933,-4826.401637,3997.112087,16358.551318
1647.134250,-2221.676944,15618.345376,13323.706956
1647.134568,306.438199,26721.434506,7254.018232
1647.134885,5286.058936,30792.567187,3552.988522
1647.135203,7814.174080,36048.029375,-6957.935855
1647.135520,13406.671215,29460.196492,-14804.118840
1647.135837,10572.117872,12805.562797,-10436.903782
1647.136155,9576.193725,-3478.967927,814.226536
1647.136472,7507.735880,-16876.695478,9918.759623
1647.136790,0.000000,-21984.116477,12879.583391
1647.137107,-5822.325785,-22132.157666,18431.127956
1647.137425,-9116.536426,-25537.104999,28497.928767
1647.137742,-10112.460574,-20281.642811,27683.702231
1647.138059,-9806.022374,-17690.922014,29608.237680
1647.138377,-7890.783629,-4589.276840,16210.510130
1647.138694,-3524.039291,10362.883188,14211.954086
1647.139012,229.828649,19615.457463,11843.295072
1647.139329,2451.505594,29090.093521,4959.379811
1647.139646,6435.202183,35974.008781,-370.102971
1647.139964,9882.631924,36492.152941,-9844.739029
1647.140281,11491.432470,21910.095883,-15988.448347
1647.140599,12870.404366,5403.503377,-8068.244768
1647.140916,7814.174080,-11769.274478,11177.109724
1647.141233,4290.134789,-21465.972318,5107.421000
1647.141551,1455.581446,-25907.207970,15470.304188
1647.141868,-6281.983084,-27831.743419,30792.567187
1647.142186,-11721.261119,-23834.631332,29386.175897
1647.142503,-10878.556072,-18061.024985,25833.187376
1647.142821,-7507.735880,-13101.645173,27905.764013
1647.143138,-6128.763984,3404.947333,16432.571912
1647.143455,383.047749,11843.295072,13101.645173
1647.143773,1302.362347,22354.219448,5847.626942
1647.144090,4903.011187,31088.649564,1998.556043
1647.144408,7890.783629,35455.864622,-5033.400406
1647.144725,12487.356617,33161.226202,-13323.706956
1647.145042,15398.519510,14434.015869,-15322.262999
1647.145360,10265.679673,-3775.050304,-5329.482782
1647.145677,8656.879127,-22354.219448,17098.757260
1647.145995,-1225.752797,-22428.240043,7254.018232
1647.146312,-2604.724693,-25759.166782,13249.686362
1647.146630,-3907.087040,-24056.693115,32939.164419
1647.146947,-11797.870669,-16432.571912,30052.361245
1647.147264,-10878.556072,-20725.766376,25907.207970
1647.147582,-9116.536426,-10362.883188,19319.375086
1647.147899,-2604.724693,5773.606348,16062.468941
1647.148217,-1762.019645,18505.148550,9992.780217
1647.148534,3217.601092,21169.889941,6143.709319
1647.148851,3447.429741,33013.185013,-370.102971
1647.149169,8044.002729,38786.791361,-7994.224174
1647.149486,13176.842566,24648.857869,-15470.304188
1647.149804,10801.946522,5255.462188,-8586.388927
1647.150121,5898.935335,-9844.739029,4811.338623
1647.150439,4060.306139,-18135.045579,5921.647536
1647.150756,-3294.210641,-21984.116477,8660.409521
1647.151073,-8503.660028,-27831.743419,23168.445985
1647.151391,-9193.145976,-27387.619854,29608.237680
1647.151708,-12334.137518,-18801.230927,27757.722825
1647.152026,-9959.241474,-15766.386565,23538.548956
1647.152343,-7277.907231,-5329.482782,16136.489536
1647.152660,-1762.019645,4959.379811,20281.642811
1647.152978,1149.143247,18949.272115,12731.542202
1647.153295,2911.162892,30126.381839,2960.823768
1647.153613,4903.011187,33087.205607,2146.597232
1647.153930,10878.556072,34345.555709,-10140.821405
1647.154248,15551.738609,22946.384202,-14508.036463
1647.154565,14019.547613,3627.009116,-15544.324782
1647.154882,11644.651570,-12583.501014,2368.659014
1647.155200,4673.182538,-20725.766376,3108.864956
1647.155517,-3983.696590,-28423.908173,9992.780217
1647.155834,-4749.792088,-29756.278868,30422.464216
1647.156152,-11951.089769,-21688.034101,25018.960840
1647.156469,-11644.651570,-21836.075289,28423.908173
1647.156787,-9806.022374,-17394.839637,28423.908173
1647.157104,-7660.954980,222.061783,17838.963202
1647.157421,-1225.752797,10066.800811,16580.613101
1647.157739,2374.896044,24574.837274,6217.729913
1647.158056,3753.867940,30940.608376,6735.874072
1647.158374,6588.421283,38712.770767,-3997.112087
1647.158691,12793.794817,33975.452738,-15322.262999
1647.159008,16471.053207,17246.798449,-15322.262999
1647.159326,11108.384721,-1776.494261,-9696.697840
1647.159643,9959.241474,-16358.551318,10436.903782
1647.159960,76.609550,-17912.983796,0.000000
1647.160278,-4826.401637,-24352.775492,15174.221811
1647.160595,-6052.154434,-29534.217086,36492.152941
1647.160913,-12104.308868,-21762.054695,29682.258274
1647.161230,-11644.651570,-20133.601622,27683.702231
1647.161547,-8427.050478,-16210.510130,26351.331535
1647.161865,-6818.249932,2220.617826,15914.427753
1647.162182,1991.848295,14211.954086,14952.160028
1647.162500,4596.572988,31532.773129,1036.288319
1647.162817,5132.839837,35455.864622,-1406.391290
1647.163134,9346.365076,39897.100274,-7402.059420
1647.163452,13330.061665,30200.402434,-18949.272115
1647.163769,14709.033562,12509.480420,-18579.169144
1647.164086,7660.954980,-6587.832884,666.185348
1647.164404,8427.050478,-23168.445985,18061.024985
1647.164721,-4596.572988,-22428.240043,2812.782580
1647.165039,-4749.792088,-22724.322419,19467.416275
1647.165356,-4596.572988,-28942.052332,38046.585419
1647.165673,-12257.527968,-22502.260637,28423.908173
1647.165991,-7507.735880,-22132.157666,29904.320057
1647.166308,-7124.688131,-4737.318029,20281.642811
1647.166626,459.657299,8512.368333,15396.283594
1647.166943,1685.410096,22132.157666,6957.935855
1647.167260,4826.401637,29312.155303,5551.544565
1647.167578,6358.592633,38786.791361,-2664.741391
1647.167895,9269.755526,41525.553346,-14656.077652
1647.168212,16471.053207,23686.590144,-13989.892304
1647.168530,13483.280765,3552.988522,-17320.819043
1647.168847,7354.516781,-14211.954086,8586.388927
1647.169165,3140.991542,-22872.363608,6587.832884
1647.169482,-5056.230287,-28423.908173,13101.645173
1647.169799,-8580.269578,-30052.361245,32124.937883
1647.170117,-12027.699319,-25315.043216,31384.731941
1647.170434,-11797.870669,-19393.395680,31088.649564
1647.170752,-7967.393179,-16654.633695,29386.175897
1647.171069,-8963.317327,-888.247130,19023.292709
1647.171386,-1608.800546,11769.274478,17246.798449
1647.171704,383.047749,26943.496289,6217.729913
1647.172021,4673.182538,34123.493926,3997.112087
1647.172338,7201.297681,40711.326810,-7698.141797
1647.172656,14019.547613,36122.049970,-19171.333898
1647.172973,19152.387450,17024.736666,-16136.489536
1647.173291,12640.575717,-1998.556043,-14804.118840
1647.173608,9729.412825,-17764.942608,6217.729913
1647.173925,1455.581446,-22798.343014,8512.368333
1647.174243,-7584.345430,-26055.249158,16358.551318
1647.174560,-5286.058936,-28275.866984,34937.720462
1647.174878,-18309.682402,-20873.807564,29090.093521
1647.175195,-10035.851024,-26795.455100,34271.535115
1647.175512,-11338.213370,-13767.830521,22132.157666
1647.175830,-5209.449386,888.247130,16210.510130
1647.176147,1608.800546,10807.006753,13027.624579
1647.176464,1378.971896,30348.443622,2220.617826
1647.176782,6205.373534,36492.152941,1480.411884
1647.177099,7660.954980,41673.594535,-11251.130318
1647.177417,12563.966167,26869.475695,-18135.045579
1647.177734,12947.013916,8216.285956,-18875.251521
1647.178051,6511.811733,-9326.594869,1184.329507
1647.178369,6741.640382,-25092.981434,14211.954086
1647.178686,-5209.449386,-27091.537477,6957.935855
1647.179004,-7431.126331,-29016.072926,22354.219448
1647.179321,-9346.365076,-29830.299463,36492.152941
1647.179638,-12870.404366,-23834.631332,30718.546593
1647.179956,-7967.393179,-20281.642811,25463.084405
1647.180273,-6971.469032,-5995.668130,17616.901420
1647.180590,229.828649,9918.759623,17838.963202
1647.180908,2298.286494,24648.857869,5625.565159
1647.181225,2298.286494,29090.093521,-2442.679609
1647.181543,4136.915689,33605.349767,-3701.029710
1647.181860,9039.926876,34937.720462,-12953.603985
1647.182177,17620.196454,19689.478057,-18061.024985
1647.182495,9193.145976,-2886.803174,-10584.944971
1647.182812,10495.508323,-27017.516883,22576.281231
1647.183130,-383.047749,-26425.352129,4959.379811
1647.183447,-2298.286494,-25611.125593,13545.768739
1647.183764,-919.314598,-26721.434506,36344.111752
1647.184082,-10572.117872,-20503.704593,28201.846390
1647.184399,-5515.887586,-17320.819043,25167.002028
1647.184716,-4519.963438,-5033.400406,22872.363608
1647.185034,-383.047749,10881.027347,16876.695478
1647.185351,2911.162892,20799.786970,5329.482782
1647.185669,3830.477490,25685.146187,2516.700203
1647.185986,3064.381992,27091.537477,592.164754
1647.186303,4290.134789,35899.988187,-15988.448347
1647.186621,11874.480219,27905.764013,-19615.457463
1647.186938,9576.193725,962.267725,-7920.203579
1647.187256,6588.421283,-21317.931130,19911.539840
1647.187573,1915.238745,-24352.775492,11029.068536
1647.187890,-5745.716235,-24204.734303,10140.821405
1647.188208,-6358.592633,-28127.825796,32346.999665
1647.188525,-8733.488677,-23464.528361,33087.205607
1647.188842,-8197.221829,-14878.139434,25241.022622
1647.189160,-4673.182538,-1184.329507,17172.777854
1647.189477,-1838.629195,8956.491898,8734.430116
1647.189795,1532.190996,16136.489536,6217.729913
1647.190112,2145.067394,21614.013506,5921.647536
1647.190429,4366.744339,23760.610738,1776.494261
1647.190747,1302.362347,34567.617491,-16506.592507
1647.191064,10648.727422,29904.320057,-12213.398043
1647.191382,7737.564530,11769.274478,-8216.285956
1647.191699,5515.887586,-11473.192101,12065.356855
1647.192016,3447.429741,-27609.681637,26129.269753
1647.192334,-2528.115143,-22058.137072,10584.944971
1647.192651,-2068.457845,-22650.301825,20577.725188
1647.192968,-7124.688131,-19985.560434,27165.558071
1647.193286,-4979.620737,-13841.851115,29682.258274
1647.193603,-2834.553343,-2960.823768,15322.262999
1647.193921,-919.314598,9400.615463,4293.194464
1647.194238,2451.505594,14878.139434,6217.729913
1647.194555,536.266849,21169.889941,1184.329507
1647.194873,5822.325785,21243.910535,1184.329507
1647.195190,2374.896044,22502.260637,-6069.688724
1647.195508,2911.162892,26351.331535,-7476.080014
1647.195825,5056.230287,14508.036463,-9178.553681
1647.196142,3600.648841,-5921.647536,3108.864956
1647.196460,1762.019645,-25833.187376,24278.754898
1647.196777,-3294.210641,-24796.899057,21021.848753
1647.197094,-4060.306139,-23390.507767,20133.601622
1647.197412,-6281.983084,-21688.034101,26055.249158
1647.197729,-8503.660028,-14359.995275,28645.969955
1647.198047,-4519.963438,-5181.441594,18801.230927
1647.198364,-1378.971896,6735.874072,6291.750507
1647.198681,-2145.067394,14211.954086,1628.453072
1647.198999,-2604.724693,14804.118840,6735.874072
1647.199316,2757.943793,18579.169144,4293.194464
1647.199634,5515.887586,18505.148550,1554.432478
1647.199951,5362.668486,22206.178260,-3923.091493
1647.200268,4213.525239,18727.210333,-10584.944971
1647.200586,8580.269578,-1924.535449,5107.421000
1647.200903,6052.154434,-21762.054695,23686.590144
1647.201220,3524.039291,-25315.043216,23982.672521
1647.201538,2451.505594,-22946.384202,15692.365970
1647.201855,-842.705048,-16432.571912,21614.013506
1647.202173,0.000000,-11251.130318,25018.960840
1647.202490,-2604.724693,666.185348,7328.038826
1647.202807,536.266849,4737.318029,7105.977043
1647.203125,1225.752797,10362.883188,5329.482782
1647.203442,-3983.696590,15026.180623,-3330.926739
1647.203760,459.657299,8956.491898,3552.988522
1647.204077,6435.202183,4515.256246,14730.098246
1647.204394,1838.629195,16654.633695,1332.370696
1647.204712,2145.067394,14952.160028,-5921.647536
1647.205029,3677.258390,-0.000000,9548.656652
1647.205346,-306.438199,-11843.295072,14656.077652
1647.205664,1532.190996,-12435.459826,15470.304188
1647.205981,229.828649,-18209.066173,19319.375086
1647.206299,-4443.353888,-20207.622217,22132.157666
1647.206616,-3064.381992,-14359.995275,19911.539840
1647.206933,-7660.954980,-5181.441594,9622.677246
1647.207251,-4979.620737,-2516.700203,6365.771101
1647.207568,-4060.306139,2294.638420,7624.121203
1647.207886,-4903.011187,5181.441594,4959.379811
1647.208203,-6052.154434,6143.709319,2886.803174
1647.208520,3140.991542,9400.615463,9844.739029
1647.208838,7737.564530,12583.501014,12435.459826
1647.209155,6741.640382,11251.130318,0.000000
1647.209472,7201.297681,9252.574275,-296.082377
1647.209790,6665.030833,5033.400406,5995.668130
1647.210107,9116.536426,-1554.432478,11029.068536
1647.210425,9346.365076,-11769.274478,9400.615463
1647.210742,8427.050478,-14434.015869,17764.942608
1647.211059,1838.629195,-9326.594869,14359.995275
1647.211377,2068.457845,-1036.288319,9104.533087
1647.211694,-4290.134789,-2072.576638,5921.647536
1647.212012,-4519.963438,-1332.370696,6661.853478
1647.212329,-4826.401637,1258.350101,5773.606348
1647.212646,-7967.393179,3478.967927,1924.535449
1647.212964,-3294.210641,-1332.370696,12583.501014
1647.213281,1378.971896,3404.947333,16136.489536
1647.213598,4826.401637,9548.656652,13027.624579
1647.213916,5592.497135,13841.851115,7105.977043
1647.214233,7354.516781,11917.315666,1480.411884
1647.214551,3447.429741,8438.347739,1480.411884
1647.214868,5745.716235,1776.494261,6069.688724
1647.215185,7354.516781,-2072.576638,7994.224174
1647.215503,6205.373534,-6513.812290,11769.274478
1647.215820,1762.019645,-11325.150913,16284.530724
1647.216138,-9652.803275,-5921.647536,5921.647536
1647.216455,-7354.516781,-4737.318029,9696.697840
1647.216772,-7660.954980,-5033.400406,16136.489536
1647.217090,-9422.974625,-6513.812290,11029.068536
1647.217407,-12334.137518,-4737.318029,8290.306550
1647.217724,-7354.516781,3627.009116,10288.862594
1647.218042,383.047749,3404.947333,22058.137072
1647.218359,3064.381992,3404.947333,20651.745782
1647.218677,2221.676944,8438.347739,15766.386565
1647.218994,4596.572988,21688.034101,-4885.359217
1647.219311,7354.516781,20651.745782,-4663.297435
1647.219629,9116.536426,4441.235652,7772.162391
1647.219946,12180.918418,-5477.523971,17468.860231
1647.220264,9806.022374,-1480.411884,7994.224174
1647.220581,5669.106685,-4441.235652,11103.089130
1647.220898,-1685.410096,-10288.862594,12805.562797
1647.221216,-4596.572988,-7476.080014,10436.903782
1647.221533,-2987.772442,-5181.441594,10658.965565
1647.221850,-3370.820191,-2960.823768,12509.480420
1647.222168,-6818.249932,-5699.585753,9918.759623
1647.222485,-2681.334243,962.267725,11103.089130
1647.222803,1455.581446,5403.503377,16580.613101
1647.223120,3217.601092,7476.080014,20059.581028
1647.223437,5975.544884,9548.656652,15248.242405
1647.223755,5515.887586,18431.127956,-5033.400406
1647.224072,3524.039291,18949.272115,-13989.892304
1647.224390,6665.030833,6735.874072,-1554.432478
1647.224707,8886.707777,-5699.585753,17172.777854
1647.225024,6818.249932,-12139.377449,18135.045579
1647.225342,536.266849,-12805.562797,14359.995275
1647.225659,-9959.241474,-9400.615463,11843.295072
1647.225976,-7354.516781,-9844.739029,14952.160028
1647.226294,-3524.039291,-12435.459826,18431.127956
1647.226611,-7660.954980,-5403.503377,12287.418637
1647.226929,-9959.241474,-1554.432478,4589.276840
1647.227246,-3983.696590,5699.585753,3182.885551
1647.227563,2911.162892,1036.288319,18357.107362
1647.227881,3064.381992,-2146.597232,22206.178260
1647.228198,2757.943793,12361.439231,9770.718434
1647.228516,6358.592633,21317.931130,-7624.121203
1647.228833,7431.126331,17690.922014,-6809.894666
1647.229150,10112.460574,592.164754,4071.132681
1647.229468,13330.061665,-2886.803174,8142.265362
1647.229785,12257.527968,-5329.482782,13175.665768
1647.230102,9116.536426,-11769.274478,15766.386565
1647.230420,536.266849,-12435.459826,9474.636058
1647.230737,-3217.601092,-5551.544565,5921.647536
1647.231055,-2987.772442,-5107.421000,9400.615463
1647.231372,-3983.696590,-5477.523971,9918.759623
1647.231689,-9269.755526,-5403.503377,2072.576638
1647.232007,-4060.306139,-1110.308913,7920.203579
1647.232324,-4060.306139,1554.432478,16210.510130
1647.232642,536.266849,4145.153275,23094.425390
1647.232959,4519.963438,5181.441594,19319.375086
1647.233276,2451.505594,17838.963202,-666.185348
1647.233594,1149.143247,17542.880825,-11547.212695
1647.233911,2451.505594,14211.954086,-9252.574275
1647.234228,8197.221829,-1258.350101,11843.295072
1647.234546,8350.440928,-9030.512492,19467.416275
1647.234863,3217.601092,-11991.336260,13101.645173
1647.235181,-6665.030833,-10362.883188,10140.821405
1647.235498,-7890.783629,-12583.501014,14434.015869
1647.235815,-5132.839837,-13175.665768,17024.736666
1647.236133,-9193.145976,-7105.977043,7920.203579
1647.236450,-10878.556072,-5551.544565,6809.894666
1647.236768,-10035.851024,6217.729913,-1406.391290
1647.237085,-2911.162892,3108.864956,12879.583391
1647.237402,153.219100,-222.061783,22724.322419
1647.237720,612.876398,518.144159,25018.960840
1647.238037,-2681.334243,17246.798449,2664.741391
1647.238354,6205.373534,18061.024985,-1554.432478
1647.238672,4979.620737,12879.583391,-7698.141797
1647.238989,9269.755526,2072.576638,10362.883188
1647.239307,12180.918418,-5329.482782,24056.693115
1647.239624,9116.536426,-4071.132681,11621.233289
1647.239941,7507.735880,-5921.647536,8956.491898
1647.240259,-383.047749,-6883.915261,12879.583391
1647.240576,-1225.752797,-7328.038826,11547.212695
1647.240894,-2374.896044,-3701.029710,3182.885551
1647.241211,-6052.154434,-3478.967927,5625.565159
1647.241528,-6818.249932,-3997.112087,8956.491898
1647.241846,-2757.943793,-222.061783,11325.150913
1647.242163,2068.457845,3330.926739,21317.931130
1647.242480,3140.991542,2738.761985,24796.899057
1647.242798,4136.915689,6735.874072,12509.480420
1647.243115,3447.429741,13915.871710,-3404.947333
1647.243433,4903.011187,14434.015869,-5477.523971
1647.243750,8120.612279,10214.842000,-1924.535449
1647.244067,11031.775171,740.205942,11547.212695
1647.244385,9346.365076,-7624.121203,16506.592507
1647.244702,4673.182538,-10584.944971,18283.086767
1647.245020,-7507.735880,-6735.874072,12509.480420
1647.245337,-2145.067394,-9844.739029,14211.954086
1647.245654,-2681.334243,-7698.141797,10658.965565
1647.245972,-7277.907231,-2072.576638,9696.697840
1647.246289,-11491.432470,888.247130,2146.597232
1647.246606,-4749.792088,7846.182985,1702.473667
1647.246924,536.266849,-0.000000,16432.571912
1647.247241,-689.485948,-6735.874072,24722.878463
1647.247559,-2604.724693,-666.185348,19541.436869
1647.247876,-2911.162892,13989.892304,4959.379811
1647.248193,5132.839837,10955.047942,5181.441594
1647.248511,6588.421283,6439.791695,1702.473667
1647.248828,11184.994271,5329.482782,6291.750507
1647.249146,15092.081311,6587.832884,10732.986159
1647.249463,14709.033562,2146.597232,11917.315666
1647.249780,9806.022374,-3478.967927,5847.626942
1647.250098,2834.553343,-6735.874072,6365.771101
1647.250415,2221.676944,-6291.750507,3701.029710
1647.250732,-3677.258390,-3034.844362,0.000000
1647.251050,-7507.735880,-6217.729913,3256.906145
1647.251367,-7890.783629,-7550.100608,10362.883188
1647.251685,-5975.544884,-3923.091493,10510.924376
1647.252002,-5592.497135,-3330.926739,21391.951724
1647.252319,-7737.564530,-5699.585753,24352.775492
1647.252637,-4749.792088,-5625.565159,19837.519246
1647.252954,-4060.306139,5107.421000,6143.709319
1647.253271,1455.581446,11843.295072,6217.729913
1647.253588,5898.935335,16654.633695,-2886.803174
1647.253906,11108.384721,12287.418637,-2812.782580
1647.254223,11108.384721,814.226536,10807.006753
1647.254540,2987.772442,-5181.441594,15322.262999
1647.254857,-2374.896044,-740.205942,6069.688724
1647.255175,4443.353888,-4367.215058,5329.482782
1647.255492,-536.266849,-8808.450710,6957.935855
1647.255809,-3370.820191,-9992.780217,10140.821405
1647.256127,-11031.775171,-3182.885551,-592.164754
1647.256444,-5822.325785,-5033.400406,11103.089130
1647.256761,-3140.991542,-11103.089130,18209.066173
1647.257078,-8733.488677,-4737.318029,16654.633695
1647.257396,-4673.182538,-2368.659014,20355.663405
1647.257713,-5745.716235,7105.977043,8216.285956
1647.258030,1838.629195,4589.276840,7920.203579
1647.258347,3447.429741,5107.421000,12065.356855
1647.258665,7737.564530,11695.253884,5255.462188
1647.258982,14555.814462,15544.324782,0.000000
1647.259299,14938.862211,7994.224174,10066.800811
1647.259616,11797.870669,-3256.906145,15174.221811
1647.259934,7431.126331,-592.164754,5107.421000
1647.260251,8350.440928,-0.000000,1850.514855
1647.260568,5132.839837,-6957.935855,8364.327145
1647.260885,-459.657299,-9400.615463,8142.265362
1647.261203,-5286.058936,-5699.585753,2664.741391
1647.261520,-2298.286494,-4959.379811,14137.933492
1647.261837,-8044.002729,-8290.306550,18875.251521
1647.262154,-8120.612279,-6143.709319,16284.530724
1647.262472,-5592.497135,-3923.091493,15692.365970
1647.262789,-3677.258390,370.102971,12731.542202
1647.263106,76.609550,2664.741391,15470.304188
1647.263424,2528.115143,13915.871710,7179.997637
1647.263741,9499.584175,17172.777854,-3108.864956
1647.264058,13559.890315,15026.180623,-888.247130
1647.264375,6511.811733,2664.741391,10732.986159
1647.264693,4903.011187,592.164754,14730.098246
1647.265010,6818.249932,1850.514855,-296.082377
1647.265327,5286.058936,-1110.308913,3108.864956
1647.265644,536.266849,-12213.398043,15988.448347
1647.265962,-5515.887586,-5995.668130,10140.821405
1647.266279,-8427.050478,1702.473667,-4589.276840
1647.266596,-5898.935335,-6069.688724,14582.057057
1647.266913,-13942.938064,-10658.965565,14656.077652
1647.267231,-12257.527968,-5699.585753,15174.221811
1647.267548,-8733.488677,-0.000000,9252.574275
1647.267865,-7967.393179,-888.247130,15396.283594
1647.268182,-4290.134789,-8882.471304,25685.146187
1647.268500,-3983.696590,8216.285956,11251.130318
1647.268817,5898.935335,22798.343014,740.205942
1647.269134,12180.918418,19911.539840,962.267725
1647.269451,11951.089769,3701.029710,13693.809927
1647.269769,8963.317327,2072.576638,13545.768739
1647.270086,8580.269578,7476.080014,-1110.308913
1647.270403,9882.631924,4737.318029,1480.411884
1647.270721,7431.126331,-10807.006753,14582.057057
1647.271038,3294.210641,-13027.624579,8364.327145
1647.271355,-3524.039291,-4737.318029,-1480.411884
1647.271672,-3370.820191,-5773.606348,11917.315666
1647.271990,-10878.556072,-12435.459826,14730.098246
1647.272307,-9499.584175,-6735.874072,9104.533087
1647.272624,-2834.553343,-0.000000,9992.780217
1647.272941,-5592.497135,-1924.535449,22058.137072
1647.273259,-7048.078582,-6661.853478,17172.777854
1647.273576,-1838.629195,3997.112087,10807.006753
1647.273893,2757.943793,16506.592507,6439.791695
1647.274210,13023.623466,13027.624579,9992.780217
1647.274528,7737.564530,6513.812290,1184.329507
1647.274845,2911.162892,7550.100608,4663.297435
1647.275162,7277.907231,4737.318029,4219.173869
1647.275479,4290.134789,3256.906145,6809.894666
1647.275797,8886.707777,-16062.468941,20651.745782
1647.276114,-306.438199,-14508.036463,8512.368333
1647.276431,-8350.440928,-2738.761985,1924.535449
1647.276748,-5822.325785,-6439.791695,11473.192101
1647.277066,-7431.126331,-13767.830521,17394.839637
1647.277383,-4519.963438,-7624.121203,12213.398043
1647.277700,-5362.668486,4293.194464,3923.091493
1647.278018,-4596.572988,5551.544565,7105.977043
1647.278335,-2911.162892,-6513.812290,18431.127956
1647.278652,1072.533697,-3997.112087,18505.148550
1647.278969,4673.182538,14211.954086,3478.967927
1647.279287,10112.460574,20355.663405,-444.123565
1647.279604,11261.603821,6217.729913,3923.091493
1647.279921,9806.022374,-592.164754,10288.862594
1647.280238,10725.336972,3182.885551,7031.956449
1647.280556,9576.193725,5921.647536,4293.194464
1647.280873,10572.117872,-6809.894666,13175.665768
1647.281190,5132.839837,-11251.130318,10881.027347
1647.281507,-919.314598,-6957.935855,3404.947333
1647.281825,-3294.210641,-4737.318029,10214.842000
1647.282142,-5362.668486,-6883.915261,12731.542202
1647.282459,-7354.516781,-3997.112087,6291.750507
1647.282776,-7277.907231,2516.700203,4811.338623
1647.283094,-5592.497135,1480.411884,10732.986159
1647.283411,-9959.241474,-6735.874072,19763.498651
1647.283728,-3983.696590,-6291.750507,23168.445985
1647.284045,-1685.410096,11473.192101,10436.903782
1647.284363,4060.306139,16728.654289,3330.926739
1647.284680,9346.365076,7179.997637,5181.441594
1647.284997,1378.971896,4737.318029,3552.988522
1647.285315,2987.772442,6809.894666,11399.171507
1647.285632,7201.297681,5403.503377,4367.215058
1647.285949,3217.601092,-2294.638420,8364.327145
1647.286266,4596.572988,-14063.912898,19615.457463
1647.286584,-2451.505594,-6587.832884,11325.150913
1647.286901,-7660.954980,592.164754,3256.906145
1647.287218,-3217.601092,-7550.100608,12361.439231
1647.287535,-8120.612279,-8586.388927,10807.006753
1647.287853,-7431.126331,2738.761985,4145.153275
1647.288170,-4596.572988,7179.997637,4145.153275
1647.288487,-4519.963438,-0.000000,11991.336260
1647.288804,-995.924147,-9474.636058,25241.022622
1647.289122,-153.219100,5773.606348,11843.295072
1647.289439,4979.620737,20725.766376,3478.967927
1647.289756,10801.946522,12435.459826,4959.379811
1647.290073,9193.145976,666.185348,9918.759623
1647.290391,6052.154434,6365.771101,8142.265362
1647.290708,10418.898773,8882.471304,4737.318029
1647.291025,7354.516781,4811.338623,6365.771101
1647.291343,9959.241474,-7624.121203,17764.942608
1647.291660,4749.792088,-6957.935855,12731.542202
1647.291977,-383.047749,-0.000000,518.144159
1647.292294,-2145.067394,-3034.844362,6291.750507
1647.292612,-6665.030833,-8882.471304,10584.944971
1647.292929,-7890.783629,-5107.421000,7698.141797
1647.293246,-5745.716235,2220.617826,6291.750507
1647.293563,-5515.887586,-3034.844362,15026.180623
1647.293881,-8580.269578,-12657.521608,26203.290347
1647.294198,-1991.848295,-4145.153275,19467.416275
1647.294515,1685.410096,16506.592507,9178.553681
1647.294832,8120.612279,16284.530724,4737.318029
1647.295150,9959.241474,7105.977043,4589.276840
1647.295467,4060.306139,8882.471304,-592.164754
1647.295784,10189.070123,10584.944971,7254.018232
1647.296101,8350.440928,4071.132681,2886.803174
1647.296419,7890.783629,-6957.935855,12953.603985
1647.296736,6435.202183,-10288.862594,14285.974681
1647.297053,-1302.362347,-3701.029710,8142.265362
1647.297370,-3907.087040,-6291.750507,7328.038826
1647.297688,-6971.469032,-12435.459826,9622.677246
1647.298005,-11491.432470,-11547.212695,12879.583391
1647.298322,-7507.735880,-444.123565,5477.523971
1647.298640,-5209.449386,-0.000000,11621.233289
1647.298957,-7201.297681,-6735.874072,17987.004391
1647.299274,-2145.067394,-7476.080014,20873.807564
1647.299591,536.266849,11621.233289,10584.944971
1647.299909,5745.716235,20429.683999,2960.823768
1647.300226,12257.527968,10288.862594,3997.112087
1647.300543,5209.449386,4145.153275,222.061783
1647.300860,6205.373534,9770.718434,4367.215058
1647.301178,8886.707777,6365.771101,7105.977043
1647.301495,6665.030833,-3256.906145,11103.089130
1647.301812,10035.851024,-12657.521608,15988.448347
1647.302129,2068.457845,-8216.285956,11621.233289
1647.302447,-4136.915689,-5921.647536,1702.473667
1647.302764,-3140.991542,-13027.624579,10807.006753
1647.303081,-7277.907231,-12287.418637,12879.583391
1647.303398,-6588.421283,-2516.700203,7402.059420
1647.303716,-3600.648841,5699.585753,7846.182985
1647.304033,-3447.429741,666.185348,13767.830521
1647.304350,-3447.429741,-2960.823768,16062.468941
1647.304667,2374.896044,9030.512492,13027.624579
1647.304985,5132.839837,23094.425390,888.247130
1647.305302,9652.803275,15914.427753,-3997.112087
1647.305619,8503.660028,2368.659014,3034.844362
1647.305937,2145.067394,3256.906145,7772.162391
1647.306254,7201.297681,3034.844362,14285.974681
1647.306571,5898.935335,-1036.288319,5995.668130
1647.306888,6511.811733,-12879.583391,16950.716072
1647.307206,153.219100,-11251.130318,16506.592507
1647.307523,-5209.449386,-0.000000,4885.359217
1647.307840,-4826.401637,-4145.153275,6957.935855
1647.308157,-8273.831378,-11251.130318,11695.253884
1647.308475,-10801.946522,-6217.729913,9622.677246
1647.308792,-7967.393179,7846.182985,3182.885551
1647.309109,-6818.249932,4071.132681,10436.903782
1647.309426,-2834.553343,-3256.906145,18209.066173
1647.309744,612.876398,-666.185348,18875.251521
1647.310061,1608.800546,15026.180623,7624.121203
1647.310378,9116.536426,16950.716072,222.061783
1647.310695,8197.221829,6291.750507,4737.318029
1647.311013,7660.954980,-888.247130,16950.716072
1647.311330,7048.078582,8142.265362,6365.771101
1647.311647,7507.735880,6587.832884,3034.844362
1647.311964,6741.640382,-5033.400406,14211.954086
1647.312282,4979.620737,-11103.089130,15470.304188
1647.312599,-229.828649,-7105.977043,8438.347739
1647.312916,-2834.553343,-6587.832884,6513.812290
1647.313234,-6052.154434,-11917.315666,15100.201217
1647.313551,-10189.070123,-8956.491898,10584.944971
1647.313868,-6205.373534,518.144159,7179.997637
1647.314185,-1225.752797,2886.803174,15618.345376
1647.314503,-4903.011187,-444.123565,16580.613101
1647.314820,0.000000,-1036.288319,18579.169144
1647.315137,2987.772442,15248.242405,4737.318029
1647.315454,6971.469032,21984.116477,0.000000
1647.315772,10342.289223,7105.977043,2146.597232
1647.316089,4443.353888,962.267725,2738.761985
1647.316406,1991.848295,2960.823768,11325.150913
1647.316723,3907.087040,3552.988522,6661.853478
1647.317041,0.000000,-5699.585753,8068.244768
1647.317358,3753.867940,-19615.457463,26721.434506
1647.317675,-2451.505594,-12657.521608,18505.148550
1647.317992,-7124.688131,-1258.350101,6291.750507
1647.318310,-6435.202183,-8882.471304,12509.480420
1647.318627,-7737.564530,-12213.398043,12065.356855
1647.318944,-3600.648841,-1332.370696,13471.748144
1647.319261,-5898.935335,10584.944971,3923.091493
1647.319579,0.000000,7550.100608,5847.626942
1647.319896,3907.087040,2590.720797,11399.171507
1647.320213,7048.078582,8290.306550,11473.192101
1647.320531,9269.755526,17468.860231,-1258.350101
1647.320848,12640.575717,16876.695478,-5033.400406
1647.321165,12487.356617,-2072.576638,8290.306550
1647.321482,7431.126331,-3478.967927,12287.418637
1647.321800,7354.516781,1480.411884,4737.318029
1647.322117,6435.202183,-1776.494261,8660.409521
1647.322434,4673.182538,-9252.574275,13027.624579
1647.322751,1991.848295,-12287.418637,14359.995275
1647.323069,-4443.353888,-4885.359217,7179.997637
1647.323386,-3447.429741,-6735.874072,11621.233289
1647.323703,-9576.193725,-9178.553681,6513.812290
1647.324020,-10878.556072,-3849.070898,7105.977043
1647.324338,-6052.154434,296.082377,16432.571912
1647.324655,-4903.011187,2442.679609,13841.851115
1647.324972,-766.095498,3330.926739,12361.439231
1647.325289,3600.648841,10140.821405,9844.739029
1647.325607,4903.011187,20799.786970,1998.556043
1647.325924,12334.137518,19245.354492,-3627.009116
1647.326241,10572.117872,5107.421000,3182.885551
1647.326558,1685.410096,-3108.864956,9696.697840
1647.326876,3600.648841,-0.000000,7772.162391
1647.327193,3370.820191,-962.267725,4737.318029
1647.327510,-842.705048,-13841.851115,15914.427753
1647.327828,1378.971896,-21465.972318,24204.734303
1647.328145,-6741.640382,-1702.473667,6735.874072
1647.328462,-5439.278036,-2960.823768,9030.512492
1647.328779,-8350.440928,-12065.356855,12879.583391
1647.329097,-12180.918418,-11251.130318,11621.233289
1647.329414,-10572.117872,5625.565159,8068.244768
1647.329731,-2681.334243,7031.956449,8660.409521
1647.330048,-2298.286494,5403.503377,9844.739029
1647.330366,3677.258390,2664.741391,17987.004391
1647.330683,7048.078582,14952.160028,7031.956449
1647.331000,9806.022374,24130.713709,-4515.256246
1647.331317,15015.471761,7476.080014,3034.844362
1647.331635,7814.174080,-4441.235652,14730.098246
1647.331952,5286.058936,-2294.638420,13545.768739
1647.332269,6741.640382,7476.080014,1850.514855
1647.332586,3600.648841,-3330.926739,11325.150913
1647.332904,4443.353888,-16062.468941,19911.539840
1647.333221,-229.828649,-10807.006753,13693.809927
1647.333538,-6358.592633,2220.617826,3034.844362
1647.333856,-3600.648841,-9918.759623,15100.201217
1647.334173,-12487.356617,-12509.480420,7105.977043
1647.334490,-8273.831378,-4219.173869,13619.789333
1647.334807,-3677.258390,3182.885551,16876.695478
1647.335125,-2298.286494,4737.318029,15026.180623
1647.335442,2911.162892,3923.091493,12065.356855
1647.335759,7890.783629,16062.468941,6883.915261
1647.336076,9422.974625,29608.237680,-6883.915261
1647.336394,16547.662757,18505.148550,-5033.400406
1647.336711,10112.460574,-3256.906145,7179.997637
1647.337028,0.000000,-6143.709319,13323.706956
1647.337345,3677.258390,-2294.638420,9178.553681
1647.337663,689.485948,-3330.926739,9844.739029
1647.337980,2068.457845,-15914.427753,22798.343014
1647.338297,-766.095498,-16506.592507,20059.581028
1647.338614,-9499.584175,2590.720797,2960.823768
1647.338932,-7048.078582,-1776.494261,5699.585753
1647.339249,-10801.946522,-9400.615463,3997.112087
1647.339566,-8350.440928,-14137.933492,18505.148550
1647.339883,-11568.042020,962.267725,17098.757260
1647.340201,-5132.839837,7402.059420,7994.224174
1647.340518,459.657299,4737.318029,10066.800811
1647.340835,6281.983084,4737.318029,18801.230927
1647.341153,6205.373534,18135.045579,3627.009116
1647.341470,10725.336972,23464.528361,-7624.121203
1647.341787,14402.595362,5255.462188,4885.359217
1647.342104,6741.640382,-4737.318029,10214.842000
1647.342422,7584.345430,-4367.215058,11473.192101
1647.342739,5362.668486,2146.597232,4293.194464
1647.343056,3830.477490,-9178.553681,10436.903782
1647.343373,1378.971896,-15100.201217,16284.530724
1647.343691,-3140.991542,-9252.574275,8142.265362
1647.344008,-6894.859482,-740.205942,6439.791695
1647.344325,-3830.477490,-11177.109724,15100.201217
1647.344642,-11797.870669,-15174.221811,9178.553681
1647.344960,-6205.373534,-4589.276840,15766.386565
1647.345277,-3677.258390,5403.503377,17690.922014
1647.345594,-153.219100,7254.018232,15470.304188
1647.345911,6588.421283,9400.615463,8586.388927
1647.346229,9729.412825,21614.013506,-2886.803174
1647.346546,12257.527968,26129.269753,-9770.718434
1647.346863,10878.556072,13323.706956,-5477.523971
1647.347180,7584.345430,-11991.336260,12065.356855
1647.347498,-1608.800546,-10584.944971,15026.180623
1647.347815,-1532.190996,-3256.906145,8808.450710
1647.348132,-3370.820191,-8808.450710,11399.171507
1647.348450,-2451.505594,-20133.601622,22724.322419
1647.348767,-3677.258390,-14804.118840,18579.169144
1647.349084,-8197.221829,814.226536,2960.823768
1647.349401,-10112.460574,-3330.926739,3701.029710
1647.349719,-6511.811733,-9622.677246,12953.603985
1647.350036,-4290.134789,-5625.565159,17616.901420
1647.350353,-9576.193725,4145.153275,15840.407159
1647.350670,0.000000,11621.233289,4885.359217
1647.350988,4290.134789,13693.809927,6735.874072
1647.351305,10035.851024,12139.377449,8808.450710
1647.351622,12487.356617,17394.839637,-3849.070898
1647.351939,9806.022374,20207.622217,-8290.306550
1647.352257,13023.623466,-1776.494261,13545.768739
1647.352574,8656.879127,-11103.089130,15988.448347
1647.352891,5056.230287,-6957.935855,11769.274478
1647.353208,995.924147,-3182.885551,9770.718434
1647.353526,2528.115143,-7031.956449,12509.480420
1647.353843,-2528.115143,-9474.636058,11177.109724
1647.354160,-5056.230287,-6735.874072,11547.212695
1647.354477,-8963.317327,-2072.576638,8734.430116
1647.354795,-7660.954980,-4959.379811,7846.182985
1647.355112,-7201.297681,-9992.780217,16580.613101
1647.355429,-7507.735880,-7550.100608,21762.054695
1647.355746,-5209.449386,10658.965565,8290.306550
1647.356064,2757.943793,12879.583391,13397.727550
1647.356381,5209.449386,16728.654289,4885.359217
1647.356698,9499.584175,19911.539840,-962.267725
1647.357015,9039.926876,22872.363608,-9474.636058
1647.357332,9576.193725,8734.430116,4589.276840
1647.357650,5822.325785,-13767.830521,18505.148550
1647.357967,-1149.143247,-11103.089130,17838.963202
1647.358284,-3753.867940,-3997.112087,10510.924376
1647.358601,-4519.963438,-7624.121203,10881.027347
1647.358919,-4749.792088,-15174.221811,21391.951724
1647.359236,-4519.963438,-12139.377449,16950.716072
1647.359553,-10572.117872,370.102971,4589.276840
1647.359870,-10112.460574,740.205942,592.164754
1647.360187,-3217.601092,-8364.327145,18949.272115
1647.360505,-3447.429741,-7846.182985,21243.910535
1647.360822,-8733.488677,4885.359217,13175.665768
1647.361139,3294.210641,14508.036463,4293.194464
1647.361456,8427.050478,17764.942608,2812.782580
1647.361774,14785.643111,10955.047942,5255.462188
1647.362091,13406.671215,14063.912898,-5403.503377
1647.362408,11108.384721,16358.551318,-2738.761985
1647.362725,17160.539155,-740.205942,13323.706956
1647.363042,9269.755526,-11029.068536,11917.315666
1647.363360,3294.210641,-10881.027347,12509.480420
1647.363677,-1302.362347,-3552.988522,9844.739029
1647.363994,0.000000,-4737.318029,9918.759623
1647.364311,-3294.210641,-9918.759623,14878.139434
1647.364629,-6511.811733,-8586.388927,10362.883188
1647.364946,-8273.831378,518.144159,3775.050304
1647.365263,-3830.477490,-4811.338623,12657.521608
1647.365580,-6435.202183,-11917.315666,20059.581028
1647.365898,-4979.620737,-9696.697840,22502.260637
1647.366215,-1608.800546,13767.830521,1184.329507
1647.366532,8044.002729,17098.757260,10881.027347
1647.366849,9806.022374,18949.272115,1480.411884
1647.367166,14325.985813,16728.654289,-1554.432478
1647.367484,10648.727422,19615.457463,-12065.356855
1647.367801,14785.643111,6587.832884,6661.853478
1647.368118,8197.221829,-13175.665768,16358.551318
1647.368435,536.266849,-15174.221811,14285.974681
1647.368753,-4213.525239,-8216.285956,5921.647536
1647.369070,-5132.839837,-10214.842000,10807.006753
1647.369387,-4290.134789,-18283.086767,25092.981434
1647.369704,-8273.831378,-8734.430116,11991.336260
1647.370021,-14555.814462,222.061783,0.000000
1647.370339,-10878.556072,-296.082377,2368.659014
1647.370656,-5439.278036,-10732.986159,22428.240043
1647.370973,-11184.994271,-12953.603985,18357.107362
1647.371290,-10112.460574,4071.132681,14434.015869
1647.371608,76.609550,17468.860231,7328.038826
1647.371925,5669.106685,20947.828159,5033.400406
1647.372242,14325.985813,9992.780217,6439.791695
1647.372559,8656.879127,21391.951724,-9326.594869
1647.372876,9959.241474,15470.304188,6661.853478
1647.373194,12717.185267,-5995.668130,12139.377449
1647.373511,6894.859482,-13989.892304,13101.645173
1647.373828,-1762.019645,-10362.883188,14211.954086
1647.374145,-4596.572988,-4737.318029,10955.047942
1647.374463,-3830.477490,-7772.162391,12139.377449
1647.374780,-4903.011187,-12435.459826,12287.418637
1647.375097,-8197.221829,-11103.089130,11621.233289
1647.375414,-8886.707777,-2886.803174,8216.285956
1647.375731,-6052.154434,-4959.379811,12657.521608
1647.376049,-2374.896044,-12213.398043,24870.919651
1647.376366,-4290.134789,-1998.556043,17764.942608
1647.376683,1225.752797,19911.539840,6217.729913
1647.377000,11644.651570,25759.166782,5033.400406
1647.377318,12487.356617,26055.249158,-7105.977043
1647.377635,18079.853753,16580.613101,-1702.473667
1647.377952,11031.775171,18949.272115,-9400.615463
1647.378269,13176.842566,2812.782580,7179.997637
1647.378587,7814.174080,-18357.107362,21169.889941
1647.378904,-2451.505594,-19393.395680,20355.663405
1647.379221,-7354.516781,-15840.407159,17320.819043
1647.379538,-8350.440928,-9474.636058,19023.292709
1647.379855,-4826.401637,-10436.903782,18801.230927
1647.380173,-8580.269578,-6291.750507,7402.059420
1647.380490,-9729.412825,1702.473667,-444.123565
1647.380807,-6511.811733,2368.659014,7402.059420
1647.381124,-3064.381992,-2960.823768,16506.592507
1647.381442,-2374.896044,-11177.109724,20947.828159
1647.381759,-8273.831378,11621.233289,16284.530724
1647.382076,8963.317327,20725.766376,7550.100608
1647.382393,10572.117872,29090.093521,-12139.377449
1647.382710,16164.615008,9030.512492,1702.473667
1647.383028,10418.898773,8808.450710,1036.288319
1647.383345,9346.365076,10584.944971,7179.997637
1647.383662,16854.100956,-7846.182985,15248.242405
1647.383979,3294.210641,-18209.066173,11399.171507
1647.384297,-2681.334243,-19097.313304,22132.157666
1647.384614,-4903.011187,-5403.503377,14285.974681
1647.384931,-2757.943793,814.226536,2516.700203
1647.385248,-4290.134789,-7772.162391,8216.285956
1647.385565,-9193.145976,-6883.915261,5477.523971
1647.385883,-7354.516781,1480.411884,6883.915261
1647.386200,-5132.839837,4071.132681,10510.924376
1647.386517,-1762.019645,-9622.677246,25315.043216
1647.386834,-4519.963438,-4441.235652,21762.054695
1647.387152,3370.820191,14508.036463,13841.851115
1647.387469,9346.365076,30866.587781,-12065.356855
1647.387786,10801.946522,22206.178260,-8216.285956
1647.388103,13330.061665,5033.400406,2590.720797
1647.388421,3294.210641,5477.523971,1258.350101
1647.388738,10035.851024,-2072.576638,16284.530724
1647.389055,3370.820191,-13619.789333,14582.057057
1647.389372,-5822.325785,-24130.713709,23982.672521
1647.389689,-11338.213370,-17542.880825,17987.004391
1647.390007,-11184.994271,-4663.297435,11991.336260
1647.390324,-4443.353888,-8142.265362,11251.130318
1647.390641,-11261.603821,-6143.709319,3034.844362
1647.390958,-11184.994271,-2886.803174,5255.462188
1647.391276,-7737.564530,5699.585753,4811.338623
1647.391593,1685.410096,-1924.535449,25611.125593
1647.391910,0.000000,-11769.274478,19023.292709
1647.392227,-5898.935335,12139.377449,14952.160028
1647.392544,10572.117872,27387.619854,-2368.659014
1647.392862,11874.480219,28053.805202,-16284.530724
1647.393179,16547.662757,-444.123565,7179.997637
1647.393496,10342.289223,-518.144159,6735.874072
1647.393813,7660.954980,8068.244768,7328.038826
1647.394131,12947.013916,-4071.132681,10140.821405
1647.394448,2834.553343,-22058.137072,17616.901420
1647.394765,-2068.457845,-22872.363608,30866.587781
1647.395082,-8427.050478,-3034.844362,13397.727550
1647.395399,-6281.983084,10140.821405,-2812.782580
1647.395717,-5515.887586,-5699.585753,3849.070898
1647.396034,-6818.249932,-8216.285956,2516.700203
1647.396351,-1762.019645,1332.370696,16284.530724
1647.396668,-1915.238745,7105.977043,9992.780217
1647.396986,4749.792088,-7698.141797,21614.013506
1647.397303,-1838.629195,-5181.441594,23464.528361
1647.397620,6128.763984,14211.954086,18061.024985
1647.397937,12027.699319,30644.525999,-14582.057057
1647.398254,13023.623466,25092.981434,-8586.388927
1647.398572,14096.157163,1036.288319,3034.844362
1647.398889,5439.278036,6587.832884,-5477.523971
1647.399206,12027.699319,3997.112087,13471.748144
1647.399523,5056.230287,-16876.695478,19171.333898
1647.399841,-5515.887586,-28942.052332,26573.393318
1647.400158,-12870.404366,-17987.004391,17098.757260
1647.400475,-13176.842566,-296.082377,11177.109724
1647.400792,-6281.983084,-2664.741391,10732.986159
1647.401110,-10418.898773,-7105.977043,2072.576638
1647.401427,-7431.126331,-5255.462188,15396.283594
1647.401744,-7277.907231,5847.626942,11251.130318
1647.402061,3677.258390,2442.679609,16284.530724
1647.402378,0.000000,-5033.400406,18357.107362
1647.402696,229.828649,14804.118840,17172.777854
1647.403013,11797.870669,31754.834912,-12435.459826
1647.403330,10189.070123,29238.134709,-17468.860231
1647.403647,15704.957709,-2886.803174,11177.109724
1647.403965,7584.345430,2590.720797,1480.411884
1647.404282,9193.145976,7550.100608,11769.274478
1647.404599,9806.022374,-12139.377449,12879.583391
1647.404916,-2681.334243,-26647.413912,25092.981434
1647.405233,-6588.421283,-25685.146187,30718.546593
1647.405551,-14249.376263,370.102971,11991.336260
1647.405868,-7814.174080,8660.409521,-3775.050304
1647.406185,-5669.106685,-4811.338623,666.185348
1647.406502,-6205.373534,-8142.265362,8290.306550
1647.406820,-1072.533697,5625.565159,12953.603985
1647.407137,-1991.848295,5551.544565,9844.739029
1647.407454,4366.744339,-6735.874072,22650.301825
1647.407771,766.095498,1554.432478,24352.775492
1647.408088,7048.078582,24648.857869,592.164754
1647.408406,11644.651570,31754.834912,-19097.313304
1647.408723,12717.185267,13693.809927,-5699.585753
1647.409040,10189.070123,-2442.679609,3256.906145
1647.409357,5669.106685,-518.144159,7402.059420
1647.409675,5592.497135,-2886.803174,11325.150913
1647.409992,-2145.067394,-23464.528361,24352.775492
1647.410309,-10572.117872,-31532.773129,33309.267390
1647.410626,-20071.702048,-15692.365970,15840.407159
1647.410943,-12717.185267,1480.411884,6365.771101
1647.411261,-8886.707777,-962.267725,1776.494261
1647.411578,-8350.440928,-6883.915261,5847.626942
1647.411895,-6435.202183,-5181.441594,14137.933492
1647.412212,-7277.907231,7476.080014,9326.594869
1647.412530,8427.050478,-0.000000,27017.516883
1647.412847,4366.744339,-1924.535449,23464.528361
1647.413164,4290.134789,20429.683999,4219.173869
1647.413481,14402.595362,36714.214723,-18875.251521
1647.413799,13023.623466,24204.734303,-9992.780217
1647.414116,18462.901502,-3404.947333,5625.565159
1647.414433,13406.671215,-1702.473667,4219.173869
1647.414750,9269.755526,3923.091493,12361.439231
1647.415067,5132.839837,-18505.148550,12805.562797
1647.415385,-2681.334243,-32791.123231,27609.681637
1647.415702,-8503.660028,-29016.072926,34493.596897
1647.416019,-12793.794817,-3330.926739,12287.418637
1647.416336,-11644.651570,8586.388927,-3478.967927
1647.416654,-5745.716235,-2442.679609,-1628.453072
1647.416971,0.000000,-6883.915261,14359.995275
1647.417288,-383.047749,3701.029710,17987.004391
1647.417605,3140.991542,7994.224174,12287.418637
1647.417922,9806.022374,6513.812290,17542.880825
1647.418240,9116.536426,12139.377449,13101.645173
1647.418557,11261.603821,28423.908173,-9844.739029
1647.418874,14019.547613,27091.537477,-13101.645173
1647.419191,11951.089769,9622.677246,-6513.812290
1647.419509,11568.042020,-6883.915261,3256.906145
1647.419826,2757.943793,-2516.700203,6291.750507
1647.420143,-2604.724693,-9400.615463,11547.212695
1647.420460,-4903.011187,-32050.917289,29016.072926
1647.420777,-13023.623466,-31828.855506,34937.720462
1647.421095,-21067.626195,-18283.086767,18801.230927
1647.421412,-17696.806004,-3330.926739,2368.659014
1647.421729,-12410.747068,2368.659014,3701.029710
1647.422046,-2451.505594,-74.020594,15470.304188
1647.422364,-4826.401637,1924.535449,13767.830521
1647.422681,-1149.143247,11029.068536,7624.121203
1647.422998,8120.612279,16580.613101,17764.942608
1647.423315,11874.480219,18727.210333,6735.874072
1647.423632,6818.249932,29682.258274,-10807.006753
1647.423950,19841.873398,21539.992912,4885.359217
1647.424267,9959.241474,13323.706956,-15766.386565
1647.424584,15015.471761,-7105.977043,2072.576638
1647.424901,10035.851024,-11843.295072,15988.448347
1647.425219,-2451.505594,-7105.977043,4293.194464
1647.425536,6205.373534,-26499.372724,23686.590144
1647.425853,-9959.241474,-25018.960840,33901.432144
1647.426170,-14096.157163,-23242.466579,28201.846390
1647.426488,-17850.025103,-4441.235652,7328.038826
1647.426805,-14555.814462,8808.450710,-7254.018232
1647.427122,-1225.752797,3775.050304,11769.274478
1647.427439,-2298.286494,5625.565159,7550.100608
1647.427756,1685.410096,5699.585753,15100.201217
1647.428074,5286.058936,19541.436869,12435.459826
1647.428391,11108.384721,22280.198854,6513.812290
1647.428708,11721.261119,19985.560434,-4515.256246
1647.429025,10189.070123,14211.954086,-3404.947333
1647.429343,6588.421283,11843.295072,-1332.370696
1647.429660,6818.249932,-2960.823768,5551.544565
1647.429977,4136.915689,-11029.068536,9326.594869
1647.430294,-4443.353888,-12731.542202,11103.089130
1647.430611,-5439.278036,-21021.848753,27905.764013
1647.430929,-13253.452115,-22206.178260,28794.011144
1647.431246,-14555.814462,-23168.445985,29016.072926
1647.431563,-21986.940793,-11473.192101,5477.523971
1647.431880,-13713.109414,-3627.009116,6291.750507
1647.432198,-7967.393179,3552.988522,14582.057057
1647.432515,383.047749,6365.771101,11325.150913
1647.432832,1149.143247,7920.203579,7179.997637
1647.433149,5745.716235,24944.940245,7402.059420
1647.433466,16777.491406,23908.651927,9622.677246
1647.433784,16088.005458,23390.507767,-9252.574275
1647.434101,17773.415554,16136.489536,3182.885551
1647.434418,13330.061665,9696.697840,-2368.659014
1647.434735,13636.499864,-5995.668130,2960.823768
1647.435053,8810.098227,-15692.365970,9622.677246
1647.435370,-2374.896044,-18283.086767,12065.356855
1647.435687,-2145.067394,-18653.189738,25315.043216
1647.436004,-4673.182538,-14434.015869,22872.363608
1647.436321,-9729.412825,-21169.889941,24130.713709
1647.436639,-13866.328514,-18431.127956,19541.436869
1647.436956,-10955.165621,-8290.306550,9178.553681
1647.437273,-7124.688131,6587.832884,12361.439231
1647.437590,2298.286494,14952.160028,9622.677246
1647.437908,8810.098227,14878.139434,5181.441594
1647.438225,9729.412825,23316.487173,666.185348
1647.438542,15092.081311,29238.134709,1554.432478
1647.438859,17466.977354,27017.516883,-12583.501014
1647.439177,17160.539155,8364.327145,-7105.977043
1647.439494,12793.794817,-7624.121203,6069.688724
1647.439811,7048.078582,-11843.295072,18505.148550
1647.440128,-1149.143247,-11325.150913,4293.194464
1647.440445,-4213.525239,-20873.807564,11843.295072
1647.440763,-6052.154434,-20133.601622,28201.846390
1647.441080,-11797.870669,-6069.688724,18209.066173
1647.441397,-9422.974625,-13027.624579,17690.922014
1647.441714,-13713.109414,-13915.871710,8660.409521
1647.442032,-19688.654299,-12805.562797,11325.150913
1647.442349,-14249.376263,3108.864956,10362.883188
1647.442666,-4443.353888,16580.613101,12583.501014
1647.442983,842.705048,17098.757260,8364.327145
1647.443300,7201.297681,16580.613101,8438.347739
1647.443618,12334.137518,21836.075289,-3256.906145
1647.443935,11338.213370,26721.434506,-14656.077652
1647.444252,17466.977354,9844.739029,9770.718434
1647.444569,13176.842566,-7920.203579,14211.954086
1647.444887,4979.620737,-9326.594869,8512.368333
1647.445204,1685.410096,-7698.141797,8956.491898
1647.445521,-4673.182538,-15544.324782,10732.986159
1647.445838,-5209.449386,-19911.539840,17838.963202
1647.446155,-2145.067394,-11991.336260,23686.590144
1647.446473,-6205.373534,-8512.368333,18357.107362
1647.446790,-8427.050478,-6439.791695,12065.356855
1647.447107,-10418.898773,-2368.659014,7402.059420
1647.447424,-11797.870669,5255.462188,10584.944971
1647.447742,1149.143247,13841.851115,11695.253884
1647.448059,5362.668486,17098.757260,888.247130
1647.448376,9269.755526,16728.654289,2960.823768
1647.448693,11874.480219,18801.230927,-592.164754
1647.449011,10955.165621,23316.487173,-6735.874072
1647.449328,15551.738609,5921.647536,13175.665768
1647.449645,10035.851024,-12805.562797,21021.848753
1647.449962,1149.143247,-14804.118840,15840.407159
1647.450279,-5975.544884,-9992.780217,7105.977043
1647.450597,-8656.879127,-9474.636058,8882.471304
1647.450914,-4903.011187,-15322.262999,22502.260637
1647.451231,-6281.983084,-10510.924376,19615.457463
1647.451548,-10725.336972,-3108.864956,12287.418637
1647.451866,-12947.013916,-1850.514855,6217.729913
1647.452183,-13866.328514,-3627.009116,11177.109724
1647.452500,-5975.544884,1258.350101,15100.201217
1647.452817,-995.924147,11325.150913,8290.306550
1647.453135,2834.553343,14952.160028,2220.617826
1647.453452,7507.735880,5699.585753,10362.883188
1647.453769,9806.022374,9474.636058,5329.482782
1647.454086,16317.834107,17246.798449,4663.297435
1647.454404,19075.777900,10807.006753,10584.944971
1647.454721,18692.730151,-592.164754,9622.677246
1647.455038,10035.851024,-8364.327145,5477.523971
1647.455356,383.047749,-7772.162391,4737.318029
1647.455673,76.609550,-10658.965565,8956.491898
1647.455990,-229.828649,-7846.182985,11177.109724
1647.456307,-2528.115143,-6661.853478,16506.592507
1647.456625,-5362.668486,-3701.029710,14211.954086
1647.456942,-10112.460574,-888.247130,9918.759623
1647.457259,-8350.440928,-4145.153275,10362.883188
1647.457576,-7737.564530,-3701.029710,10066.800811
1647.457894,-2604.724693,6513.812290,9770.718434
1647.458211,3294.210641,7328.038826,8586.388927
1647.458528,5362.668486,5255.462188,9104.533087
1647.458846,9576.193725,3627.009116,15026.180623
1647.459163,11338.213370,13471.748144,5477.523971
1647.459480,13942.938064,15100.201217,7328.038826
1647.459797,13789.718964,4663.297435,3775.050304
1647.460115,5745.716235,-2812.782580,2146.597232
1647.460432,1762.019645,-4811.338623,2368.659014
1647.460749,-3140.991542,-4515.256246,0.000000
1647.461067,-5745.716235,-9918.759623,8660.409521
1647.461384,-5898.935335,-14285.974681,20503.704593
1647.461701,-12640.575717,-9474.636058,16136.489536
1647.462018,-14172.766713,-5181.441594,11695.253884
1647.462336,-11031.775171,-9696.697840,12435.459826
1647.462653,-12487.356617,-10881.027347,13471.748144
1647.462970,-7660.954980,-4071.132681,14211.954086
1647.463288,-3447.429741,8364.327145,6217.729913
1647.463605,1685.410096,2960.823768,11325.150913
1647.463922,4443.353888,3849.070898,13545.768739
1647.464239,10265.679673,10214.842000,11695.253884
1647.464557,15245.300410,23390.507767,592.164754
1647.464874,14555.814462,16654.633695,-2886.803174
1647.465191,12257.527968,2442.679609,370.102971
1647.465508,6894.859482,-518.144159,1184.329507
1647.465826,229.828649,-222.061783,3701.029710
1647.466143,-766.095498,-7105.977043,6735.874072
1647.466460,-5592.497135,-13841.851115,16876.695478
1647.466778,-6971.469032,-15618.345376,23094.425390
1647.467095,-9882.631924,-10362.883188,17246.798449
1647.467412,-10572.117872,-7550.100608,13915.871710
1647.467729,-8427.050478,-7402.059420,12361.439231
1647.468047,-7201.297681,-3478.967927,10658.965565
1647.468364,-4903.011187,6735.874072,9326.594869
1647.468681,1455.581446,8808.450710,8586.388927
1647.468999,7124.688131,4737.318029,14730.098246
1647.469316,11797.870669,6883.915261,14656.077652
1647.469633,17160.539155,17024.736666,7254.018232
1647.469950,14938.862211,23094.425390,-5107.421000
1647.470268,15475.129060,12361.439231,-370.102971
1647.470585,9039.926876,592.164754,6513.812290
1647.470902,6205.373534,-2960.823768,5995.668130
1647.471219,1991.848295,-5995.668130,1924.535449
1647.471537,-4060.306139,-10584.944971,11029.068536
1647.471854,-2987.772442,-19023.292709,24796.899057
1647.472171,-8044.002729,-14582.057057,20799.786970
1647.472489,-13176.842566,-9104.533087,13767.830521
1647.472806,-10878.556072,-9178.553681,13027.624579
1647.473123,-17773.415554,-3404.947333,3701.029710
1647.473440,-6281.983084,444.123565,10140.821405
1647.473758,-5056.230287,6291.750507,7698.141797
1647.474075,0.000000,5921.647536,14285.974681
1647.474392,2221.676944,1036.288319,16358.551318
1647.474710,8656.879127,11547.212695,18505.148550
1647.475027,16317.834107,19023.292709,8660.409521
1647.475344,12487.356617,17616.901420,-4441.235652
1647.475661,12257.527968,10955.047942,814.226536
1647.475979,10725.336972,5477.523971,5033.400406
1647.476296,6128.763984,3256.906145,666.185348
1647.476613,4060.306139,-1406.391290,1258.350101
1647.476930,-1455.581446,-9992.780217,11399.171507
1647.477248,-1991.848295,-15618.345376,23686.590144
1647.477565,-5975.544884,-15174.221811,17098.757260
1647.477882,-10112.460574,-13249.686362,12657.521608
1647.478200,-9652.803275,-12361.439231,14952.160028
1647.478517,-10495.508323,-1184.329507,1258.350101
1647.478834,-3524.039291,5107.421000,9992.780217
1647.479151,2528.115143,6957.935855,11991.336260
1647.479469,5515.887586,3701.029710,10881.027347
1647.479786,7890.783629,7402.059420,9252.574275
1647.480103,16547.662757,16950.716072,11547.212695
1647.480421,17083.929605,20947.828159,0.000000
1647.480738,14862.252661,15248.242405,-2664.741391
1647.481055,11338.213370,4515.256246,4737.318029
1647.481372,3140.991542,4071.132681,-814.226536
1647.481690,4903.011187,-2590.720797,1332.370696
1647.482007,0.000000,-9030.512492,9104.533087
1647.482324,-4290.134789,-14952.160028,23242.466579
1647.482642,-8963.317327,-16062.468941,18357.107362
1647.482959,-16241.224558,-12139.377449,12139.377449
1647.483276,-12870.404366,-14878.139434,21095.869347
1647.483593,-18692.730151,-10658.965565,8364.327145
1647.483911,-13789.718964,-2590.720797,7624.121203
1647.484228,-7737.564530,3552.988522,8882.471304
1647.484545,-2757.943793,5255.462188,16284.530724
1647.484862,689.485948,1406.391290,16950.716072
1647.485180,4979.620737,12213.398043,10584.944971
1647.485497,14096.157163,18801.230927,9104.533087
1647.485814,12640.575717,14804.118840,-3404.947333
1647.486132,9346.365076,13471.748144,-962.267725
1647.486449,11568.042020,6217.729913,5625.565159
1647.486766,11184.994271,6661.853478,1702.473667
1647.487083,6435.202183,-3627.009116,1258.350101
1647.487401,2911.162892,-14582.057057,13841.851115
1647.487718,-5286.058936,-17394.839637,18949.272115
1647.488035,-8580.269578,-18357.107362,16802.674883
1647.488353,-13636.499864,-17468.860231,16506.592507
1647.488670,-12257.527968,-16506.592507,16728.654289
1647.488987,-10955.165621,-7031.956449,5847.626942
1647.489304,-8963.317327,-370.102971,9400.615463
1647.489622,-4366.744339,4441.235652,16802.674883
1647.489939,4213.525239,6365.771101,13471.748144
1647.490256,9269.755526,10436.903782,9548.656652
1647.490573,14325.985813,18283.086767,10140.821405
1647.490891,18539.511052,20503.704593,2368.659014
1647.491208,16164.615008,19171.333898,-5773.606348
1647.491525,14096.157163,9030.512492,148.041188
1647.491843,10189.070123,4737.318029,3478.967927
1647.492160,6205.373534,1110.308913,1702.473667
1647.492477,2911.162892,-9622.677246,10732.986159
1647.492794,-5898.935335,-16358.551318,16506.592507
1647.493112,-10418.898773,-16950.716072,21391.951724
1647.493429,-15781.567259,-17542.880825,16728.654289
1647.493746,-19688.654299,-18801.230927,13619.789333
1647.494064,-16777.491406,-17987.004391,16950.716072
1647.494381,-15628.348159,-13101.645173,14359.995275
1647.494698,-8963.317327,-2590.720797,17764.942608
1647.495015,-2681.334243,6069.688724,18061.024985
1647.495333,5132.839837,14063.912898,16654.633695
1647.495650,10495.508323,20651.745782,2960.823768
1647.495967,15168.690860,27091.537477,-666.185348
1647.496284,16930.710506,22576.281231,-888.247130
1647.496602,18769.339701,17542.880825,-7105.977043
1647.496919,20531.359346,16506.592507,-7994.224174
1647.497236,16777.491406,2960.823768,-962.267725
1647.497554,9806.022374,-15322.262999,16654.633695
1647.497871,919.314598,-18283.086767,13915.871710
1647.498188,-4136.915689,-11103.089130,13323.706956
1647.498505,-9346.365076,-14211.954086,18579.169144
1647.498823,-11721.261119,-20577.725188,19689.478057
1647.499140,-15321.909960,-17838.963202,13693.809927
1647.499457,-11797.870669,-11325.150913,13027.624579
1647.499775,-11721.261119,-1554.432478,5625.565159
1647.500092,-6971.469032,4885.359217,17542.880825
1647.500409,5975.544884,14137.933492,21095.869347
1647.500726,9806.022374,28127.825796,-5181.441594
1647.501044,16394.443657,31236.690752,-7402.059420
1647.501361,14938.862211,22132.157666,-1924.535449
1647.501678,13636.499864,14359.995275,-3404.947333
1647.501996,15551.738609,7031.956449,-74.020594
1647.502313,10725.336972,-444.123565,8882.471304
1647.502630,536.266849,-5625.565159,9770.718434
1647.502947,-3753.867940,-20207.622217,17987.004391
1647.503265,-9806.022374,-22280.198854,25759.166782
1647.503582,-13176.842566,-12213.398043,17172.777854
1647.503899,-13636.499864,-12879.583391,13915.871710
1647.504216,-17390.367805,-13545.768739,8068.244768
1647.504534,-15015.471761,-19541.436869,14508.036463
1647.504851,-18462.901502,-7550.100608,11029.068536
1647.505168,-11951.089769,1628.453072,17394.839637
1647.505486,-1762.019645,14582.057057,19097.313304
1647.505803,6665.030833,24278.754898,-666.185348
1647.506120,12793.794817,27017.516883,-7846.182985
1647.506437,14785.643111,22354.219448,-2664.741391
1647.506755,17160.539155,16210.510130,2072.576638
1647.507072,14402.595362,3552.988522,3849.070898
1647.507389,14172.766713,-4959.379811,9844.739029
1647.507707,5362.668486,-5921.647536,8364.327145
1647.508024,-1532.190996,-17024.736666,19393.395680
1647.508341,-3140.991542,-18357.107362,25018.960840
1647.508658,-6128.763984,-10658.965565,13027.624579
1647.508976,-7507.735880,-11399.171507,15914.427753
1647.509293,-11108.384721,-12065.356855,7772.162391
1647.509610,-9806.022374,-10510.924376,15544.324782
1647.509927,-9729.412825,-3404.947333,11325.150913
1647.510245,-8044.002729,2664.741391,9178.553681
1647.510562,0.000000,11843.295072,15248.242405
1647.510879,12257.527968,20873.807564,8142.265362
1647.511197,14938.862211,26573.393318,-7328.038826
1647.511514,18616.120601,15470.304188,-814.226536
1647.511831,15398.519510,12583.501014,-1036.288319
1647.512148,15245.300410,8142.265362,4219.173869
1647.512466,15781.567259,-4145.153275,11251.130318
1647.512783,4596.572988,-9030.512492,8216.285956
1647.513100,383.047749,-15914.427753,16136.489536
1647.513418,-3983.696590,-16358.551318,19023.292709
1647.513735,-6358.592633,-14211.954086,15544.324782
1647.514052,-9422.974625,-10881.027347,14878.139434
1647.514369,-12793.794817,-6143.709319,7254.018232
1647.514687,-14172.766713,-4737.318029,8068.244768
1647.515004,-12870.404366,-4589.276840,8216.285956
1647.515321,-11951.089769,-5033.400406,14952.160028
1647.515638,-7201.297681,3552.988522,16210.510130
1647.515956,3907.087040,15100.201217,14137.933492
1647.516273,10035.851024,19245.354492,-2590.720797
1647.516590,13023.623466,14211.954086,-1998.556043
1647.516908,15321.909960,12509.480420,8734.430116
1647.517225,12257.527968,10510.924376,9992.780217
1647.517542,15015.471761,4071.132681,2590.720797
1647.517859,12180.918418,-1332.370696,592.164754
1647.518177,3983.696590,-13249.686362,15026.180623
1647.518494,153.219100,-14359.995275,15470.304188
1647.518811,-3600.648841,-7994.224174,7920.203579
1647.519129,-7354.516781,-7105.977043,11251.130318
1647.519446,-9116.536426,-11029.068536,14730.098246
1647.519763,-10878.556072,-6883.915261,10584.944971
1647.520080,-10495.508323,-2812.782580,9548.656652
1647.520398,-9193.145976,-1480.411884,5181.441594
1647.520715,-8733.488677,2072.576638,7920.203579
1647.521032,-306.438199,6957.935855,18653.189738
1647.521349,7354.516781,13545.768739,8808.450710
1647.521667,11951.089769,17468.860231,2368.659014
1647.521984,12257.527968,11917.315666,4293.194464
1647.522301,7890.783629,10362.883188,6365.771101
1647.522619,10955.165621,4737.318029,10807.006753
1647.522936,9729.412825,4293.194464,4737.318029
1647.523253,3600.648841,-2146.597232,7994.224174
1647.523570,-229.828649,-9474.636058,5255.462188
1647.523888,-6358.592633,-11251.130318,14508.036463
1647.524205,-6511.811733,-11177.109724,18135.045579
1647.524522,-8044.002729,-9474.636058,14063.912898
1647.524840,-15168.690860,-7105.977043,7846.182985
1647.525157,-13253.452115,-8290.306550,11621.233289
1647.525474,-13176.842566,-5181.441594,9474.636058
1647.525791,-12027.699319,-2442.679609,11547.212695
1647.526109,-3830.477490,2664.741391,10658.965565
1647.526426,2298.286494,8734.430116,13915.871710
1647.526743,6971.469032,8364.327145,10955.047942
1647.527061,11644.651570,7550.100608,8142.265362
1647.527378,14325.985813,14582.057057,7105.977043
1647.527695,14555.814462,12435.459826,8660.409521
1647.528012,14096.157163,7476.080014,2146.597232
1647.528330,13253.452115,6735.874072,-1184.329507
1647.528647,7660.954980,3923.091493,5995.668130
1647.528964,3140.991542,-7105.977043,12509.480420
1647.529281,153.219100,-9844.739029,12657.521608
1647.529599,-6205.373534,-10807.006753,14211.954086
1647.529916,-8656.879127,-11029.068536,17394.839637
1647.530233,-8656.879127,-13545.768739,17172.777854
1647.530551,-9499.584175,-8808.450710,13619.789333
1647.530868,-6435.202183,-4737.318029,8142.265362
1647.531185,-7737.564530,5403.503377,3849.070898
1647.531502,-1302.362347,8512.368333,11843.295072
1647.531820,7124.688131,5699.585753,14211.954086
1647.532137,9499.584175,8216.285956,9400.615463
1647.532454,13942.938064,7698.141797,7772.162391
1647.532772,11797.870669,15100.201217,0.000000
1647.533089,12257.527968,12213.398043,5699.585753
1647.533406,12027.699319,3256.906145,6439.791695
1647.533723,5669.106685,5255.462188,2368.659014
1647.534041,3600.648841,518.144159,1924.535449
1647.534358,-2681.334243,-7254.018232,7846.182985
1647.534675,-4443.353888,-11621.233289,15396.283594
1647.534992,-6205.373534,-13841.851115,18283.086767
1647.535310,-14249.376263,-12657.521608,12953.603985
1647.535627,-17007.320056,-13397.727550,13249.686362
1647.535944,-12640.575717,-13915.871710,15322.262999
1647.536262,-12257.527968,-6513.812290,12509.480420
1647.536579,-4749.792088,-592.164754,14211.954086
1647.536896,-1455.581446,7846.182985,12435.459826
1647.537213,6818.249932,7031.956449,13027.624579
1647.537531,11644.651570,9548.656652,9918.759623
1647.537848,14479.204912,17838.963202,7846.182985
1647.538165,18769.339701,21836.075289,-2738.761985
1647.538483,16088.005458,18209.066173,-7031.956449
1647.538800,14862.252661,11991.336260,-2886.803174
1647.539117,12487.356617,1702.473667,-1036.288319
1647.539434,6665.030833,-4885.359217,7920.203579
1647.539752,-842.705048,-11695.253884,13471.748144
1647.540069,-5975.544884,-16062.468941,14582.057057
1647.540386,-9959.241474,-17764.942608,19837.519246
1647.540703,-10725.336972,-17764.942608,24426.796086
1647.541021,-12257.527968,-16210.510130,18061.024985
1647.541338,-10878.556072,-5625.565159,7476.080014
1647.541655,-10189.070123,666.185348,0.000000
1647.541973,-7124.688131,8956.491898,9030.512492
1647.542290,1838.629195,10214.842000,16284.530724
1647.542607,6894.859482,11769.274478,8586.388927
1647.542924,9193.145976,15174.221811,3775.050304
1647.543242,13176.842566,17912.983796,4959.379811
1647.543559,10265.679673,17690.922014,-1258.350101
1647.543876,11721.261119,8586.388927,4737.318029
1647.544194,7584.345430,4885.359217,7328.038826
1647.544511,1072.533697,3478.967927,3627.009116
1647.544828,-459.657299,-8808.450710,7624.121203
1647.545145,-4826.401637,-15544.324782,16284.530724
1647.545463,-8810.098227,-15914.427753,16062.468941
1647.545780,-12487.356617,-16876.695478,15026.180623
1647.546097,-19765.263848,-17024.736666,10288.862594
1647.546415,-20224.921147,-16580.613101,15322.262999
1647.546732,-16164.615008,-12065.356855,12879.583391
1647.547049,-14325.985813,-4737.318029,13915.871710
1647.547366,-2757.943793,1184.329507,19245.354492
1647.547684,3217.601092,15026.180623,16210.510130
1647.548001,11261.603821,17542.880825,8808.450710
1647.548318,17466.977354,20133.601622,4811.338623
1647.548635,21067.626195,24796.899057,4885.359217
1647.548953,20454.749797,19171.333898,444.123565
1647.549270,17237.148705,11473.192101,-7994.224174
1647.549587,18079.853753,11547.212695,-3775.050304
1647.549905,13100.233016,-1406.391290,10140.821405
1647.550222,6894.859482,-19393.395680,18061.024985
1647.550539,-1762.019645,-16580.613101,11843.295072
1647.550856,-10035.851024,-14211.954086,17320.819043
1647.551174,-12870.404366,-19097.313304,20207.622217
1647.551491,-13023.623466,-23464.528361,21391.951724
1647.551808,-11951.089769,-15470.304188,16950.716072
1647.552126,-8273.831378,-7179.997637,12139.377449
1647.552443,-5592.497135,3034.844362,10510.924376
1647.552760,612.876398,9918.759623,17616.901420
1647.553077,14096.157163,19467.416275,14508.036463
1647.553395,14402.595362,27239.578666,-8734.430116
1647.553712,17083.929605,26647.413912,-3108.864956
1647.554029,18003.244203,20503.704593,-2812.782580
1647.554347,16854.100956,15248.242405,-11325.150913
1647.554664,18233.072852,3256.906145,-1332.370696
1647.554981,7354.516781,-4515.256246,12361.439231
1647.555298,-2145.067394,-12509.480420,13545.768739
1647.555616,-1915.238745,-21688.034101,16728.654289
1647.555933,-11874.480219,-15248.242405,15100.201217
1647.556250,-14402.595362,-17024.736666,22502.260637
1647.556568,-19918.482948,-12879.583391,7846.182985
1647.556885,-22063.550342,-16358.551318,2664.741391
1647.557202,-20454.749797,-16284.530724,14285.974681
1647.557520,-18845.949251,-11103.089130,20281.642811
1647.557837,-7967.393179,-2368.659014,26277.310941
1647.558154,-2451.505594,18135.045579,11843.295072
1647.558472,10342.289223,29608.237680,2738.761985
1647.558789,11031.775171,26055.249158,-7772.162391
1647.559106,12947.013916,20059.581028,2220.617826
1647.559424,20071.702048,19319.375086,-814.226536
1647.559741,19228.997000,19467.416275,-12361.439231
1647.560058,16394.443657,4589.276840,-6069.688724
1647.560375,10955.165621,-9104.533087,17764.942608
1647.560693,612.876398,-20281.642811,20873.807564
1647.561010,-5898.935335,-22354.219448,16506.592507
1647.561327,-11721.261119,-15470.304188,15766.386565
1647.561645,-14785.643111,-19023.292709,19911.539840
1647.561962,-17390.367805,-20873.807564,14508.036463
1647.562279,-12717.185267,-15988.448347,15174.221811
1647.562597,-12334.137518,-12509.480420,16950.716072
1647.562914,-8044.002729,-6957.935855,19911.539840
1647.563231,3294.210641,6291.750507,28127.825796
1647.563549,10495.508323,34123.493926,-1702.473667
1647.563866,17237.148705,45226.583056,-15618.345376
1647.564183,18462.901502,26943.496289,-1628.453072
1647.564501,17926.634653,14952.160028,-4219.173869
1647.564818,22369.988542,15248.242405,-15840.407159
1647.565135,18079.853753,5329.482782,-3034.844362
1647.565453,7660.954980,-18431.127956,13767.830521
1647.565770,-2911.162892,-27683.702231,22132.157666
1647.566087,-6588.421283,-22650.301825,32865.143825
1647.566404,-17160.539155,-15100.201217,23686.590144
1647.566722,-20148.311597,-16210.510130,14211.954086
1647.567039,-18769.339701,-15026.180623,10658.965565
1647.567356,-17160.539155,-13397.727550,17024.736666
1647.567674,-17313.758255,-4589.276840,9400.615463
1647.567991,-9039.926876,-7402.059420,19985.560434
1647.568308,-2987.772442,-3478.967927,31310.711347
1647.568626,4979.620737,23834.631332,13027.624579
1647.568943,14709.033562,43968.232955,-13693.809927
1647.569260,17160.539155,31162.670158,-6513.812290
1647.569578,20148.311597,15026.180623,4663.297435
1647.569895,24055.398637,19985.560434,-10584.944971
1647.570212,22599.817191,19837.519246,-18357.107362
1647.570530,19612.044749,-1702.473667,7031.956449
1647.570847,6511.811733,-29090.093521,19615.457463
1647.571164,-1072.533697,-28868.031738,27017.516883
1647.571481,-9422.974625,-16876.695478,22724.322419
1647.571799,-17696.806004,-11917.315666,10584.944971
1647.572116,-15628.348159,-21465.972318,14137.933492
1647.572433,-13942.938064,-17098.757260,15248.242405
1647.572751,-11951.089769,-7476.080014,18431.127956
1647.573068,-11644.651570,-4959.379811,11251.130318
1647.573385,-2604.724693,-5107.421000,29164.114115
1647.573703,3983.696590,12287.418637,20799.786970
1647.574020,11721.261119,42783.903448,-7179.997637
1647.574337,17083.929605,47225.139100,-11399.171507
1647.574655,16930.710506,25463.084405,-6587.832884
1647.574972,21757.112143,14434.015869,-6069.688724
1647.575289,16777.491406,11103.089130,-13915.871710
1647.575607,14019.547613,-148.041188,2442.679609
1647.575924,2681.334243,-26203.290347,15100.201217
1647.576241,-5362.668486,-32272.979071,26055.249158
1647.576558,-16700.881856,-25611.125593,36714.214723
1647.576876,-21986.940793,-13989.892304,25315.043216
1647.577193,-24668.275036,-20133.601622,6217.729913
1647.577510,-18309.682402,-15248.242405,10658.965565
1647.577828,-16164.615008,-7328.038826,16136.489536
1647.578145,-14785.643111,-2812.782580,10214.842000
1647.578462,-6741.640382,-6587.832884,19319.375086
1647.578780,1915.238745,6883.915261,28201.846390
1647.579097,10955.165621,34937.720462,1628.453072
1647.579414,15398.519510,45004.521274,-12213.398043
1647.579732,17237.148705,27461.640448,-2072.576638
1647.580049,23442.522239,14804.118840,-5403.503377
1647.580366,21757.112143,18579.169144,-21836.075289
1647.580684,19228.997000,7846.182985,-7179.997637
1647.581001,12640.575717,-13693.809927,14211.954086
1647.581318,229.828649,-31680.814318,22280.198854
1647.581635,-7814.174080,-29164.114115,33161.226202
1647.581953,-17160.539155,-16062.468941,27535.661042
1647.582270,-22063.550342,-19393.395680,12435.459826
1647.582587,-16547.662757,-19393.395680,6439.791695
1647.582905,-12180.918418,-11917.315666,16432.571912
1647.583222,-10112.460574,-1184.329507,16358.551318
1647.583539,-4673.182538,-5477.523971,17098.757260
1647.583857,2681.334243,3330.926739,28794.011144
1647.584174,12947.013916,26573.393318,12953.603985
1647.584491,17007.320056,45966.788998,-10436.903782
1647.584809,19612.044749,36344.111752,-6587.832884
1647.585126,24744.884585,24796.899057,-9992.780217
1647.585443,25894.027832,18579.169144,-20725.766376
1647.585761,20454.749797,6143.709319,-9178.553681
1647.586078,12947.013916,-11843.295072,9326.594869
1647.586395,-306.438199,-30496.484810,13915.871710
1647.586712,-4979.620737,-33679.370361,34937.720462
1647.587030,-17007.320056,-24944.940245,33531.329173
1647.587347,-26966.561530,-22206.178260,21243.910535
1647.587664,-22676.426741,-22872.363608,13397.727550
1647.587982,-21297.454844,-18209.066173,20133.601622
1647.588299,-14709.033562,-4737.318029,18801.230927
1647.588616,-7124.688131,-2368.659014,16802.674883
1647.588934,2451.505594,4663.297435,25018.960840
1647.589251,10112.460574,28201.846390,16284.530724
1647.589568,16930.710506,49741.839302,-8290.306550
1647.589886,19841.873398,41007.409187,-14952.160028
1647.590203,22140.159892,29386.175897,-11177.109724
1647.590520,29035.019374,22650.301825,-20651.745782
1647.590838,24974.713235,13841.851115,-23464.528361
1647.591155,15551.738609,-4071.132681,-8882.471304
1647.591472,7048.078582,-26129.269753,22724.322419
1647.591789,-2757.943793,-35011.741057,37676.482448
1647.592107,-10495.508323,-15914.427753,33161.226202
1647.592424,-19228.997000,-20503.704593,30792.567187
1647.592741,-20684.578446,-31236.690752,26425.352129
1647.593059,-14862.252661,-23686.590144,19541.436869
1647.593376,-5898.935335,-6513.812290,26055.249158
1647.593693,-689.485948,10881.027347,17394.839637
1647.594011,7201.297681,23834.631332,9548.656652
1647.594328,9039.926876,45596.686027,-3330.926739
1647.594645,18845.949251,62325.340316,-10066.800811
1647.594963,25281.151434,50259.983462,-21095.869347
1647.595280,24132.008187,21243.910535,-19689.478057
1647.595597,25817.418283,1554.432478,-20725.766376
1647.595915,12563.966167,-10362.883188,-9622.677246
1647.596232,3907.087040,-17838.963202,4219.173869
1647.596549,2068.457845,-26203.290347,34123.493926
1647.596867,-6205.373534,-15174.221811,44338.335926
1647.597184,-20378.140247,-12879.583391,31754.834912
1647.597501,-19075.777900,-19837.519246,31162.670158
1647.597818,-19765.263848,-15396.283594,16654.633695
1647.598136,-14479.204912,-15988.448347,24722.878463
1647.598453,-10418.898773,-10140.821405,20207.622217
1647.598770,-2298.286494,10436.903782,7179.997637
1647.599088,6971.469032,27165.558071,8142.265362
1647.599405,11951.089769,44560.397708,-1184.329507
1647.599722,19305.606550,43376.068201,-11399.171507
1647.600040,20301.530697,29904.320057,-11769.274478
1647.600357,24438.446386,14878.139434,-12213.398043
1647.600674,19152.387450,10436.903782,-15692.365970
1647.600992,17313.758255,-5255.462188,14211.954086
1647.601309,8273.831378,-19171.333898,14137.933492
1647.601626,6281.983084,-19615.457463,23020.404796
1647.601944,-6128.763984,-15322.262999,30940.608376
1647.602261,-11874.480219,-15840.407159,26499.372724
1647.602578,-14632.424012,-23686.590144,17764.942608
1647.602895,-15551.738609,-12139.377449,12583.501014
1647.603213,-7431.126331,-8512.368333,22206.178260
1647.603530,-9499.584175,3182.885551,12953.603985
1647.603847,-4749.792088,2738.761985,9252.574275
1647.604165,2451.505594,15988.448347,13101.645173
1647.604482,9806.022374,31754.834912,-2146.597232
1647.604799,15704.957709,37454.420665,-13471.748144
1647.605117,21757.112143,26943.496289,-4737.318029
1647.605434,22063.550342,17542.880825,-7624.121203
1647.605751,17160.539155,8438.347739,-3034.844362
1647.606069,13942.938064,-3404.947333,14656.077652
1647.606386,5669.106685,-11251.130318,14211.954086
1647.606703,4366.744339,-16728.654289,19467.416275
1647.607021,612.876398,-14063.912898,29534.217086
1647.607338,-8197.221829,-10066.800811,19689.478057
1647.607655,-10955.165621,-12509.480420,11991.336260
1647.607972,-12180.918418,-6957.935855,7105.977043
1647.608290,-11491.432470,-2368.659014,9030.512492
1647.608607,-13483.280765,2294.638420,148.041188
1647.608924,-12334.137518,-2368.659014,4737.318029
1647.609242,-7277.907231,2516.700203,14804.118840
1647.609559,-2068.457845,12287.418637,11103.089130
1647.609876,4826.401637,15322.262999,3330.926739
1647.610194,8273.831378,7920.203579,2220.617826
1647.610511,8580.269578,7920.203579,11991.336260
1647.610828,11338.213370,7550.100608,14878.139434
1647.611146,10112.460574,11769.274478,4589.276840
1647.611463,14862.252661,11103.089130,7105.977043
1647.611780,16241.224558,2590.720797,15322.262999
1647.612098,11797.870669,-5699.585753,11695.253884
1647.612415,8963.317327,-4959.379811,6439.791695
1647.612732,4060.306139,-7920.203579,10881.027347
1647.613049,-1149.143247,-5255.462188,8290.306550
1647.613367,-459.657299,-2664.741391,7994.224174
1647.613684,-5286.058936,4885.359217,444.123565
1647.614001,-5898.935335,666.185348,4441.235652
1647.614319,-6588.421283,-3627.009116,9400.615463
1647.614636,-4213.525239,-4589.276840,12657.521608
1647.614953,2374.896044,740.205942,8808.450710
1647.615271,5592.497135,6365.771101,7772.162391
1647.615588,4443.353888,6143.709319,8808.450710
1647.615905,10112.460574,1480.411884,18875.251521
1647.616223,9959.241474,4959.379811,14359.995275
1647.616540,12257.527968,9178.553681,5033.400406
1647.616857,12257.527968,12065.356855,4663.297435
1647.617175,12717.185267,13915.871710,6957.935855
1647.617492,11874.480219,7105.977043,5699.585753
1647.617809,7814.174080,7105.977043,4145.153275
1647.618126,4979.620737,2960.823768,11621.233289
1647.618444,995.924147,-3404.947333,12065.356855
1647.618761,459.657299,-74.020594,7920.203579
1647.619078,-2451.505594,222.061783,3478.967927
1647.619396,-3447.429741,-0.000000,8142.265362
1647.619713,-4519.963438,-3849.070898,11695.253884
1647.620030,-4826.401637,-3701.029710,7846.182985
1647.620348,-4213.525239,-518.144159,9548.656652
1647.620665,-5286.058936,2146.597232,6439.791695
1647.620982,-766.095498,-222.061783,10658.965565
1647.621300,-459.657299,-1110.308913,13545.768739
1647.621617,1455.581446,-74.020594,16506.592507
1647.621934,76.609550,7698.141797,10584.944971
1647.622252,3447.429741,15470.304188,8586.388927
1647.622569,7660.954980,9178.553681,15026.180623
1647.622886,6281.983084,9104.533087,10510.924376
1647.623203,6128.763984,11473.192101,9622.677246
1647.623521,4979.620737,10436.903782,4737.318029
1647.623838,6511.811733,3849.070898,9178.553681
1647.624155,5822.325785,-222.061783,13397.727550
1647.624473,5669.106685,1406.391290,10436.903782
1647.624790,1378.971896,2886.803174,3034.844362
1647.625107,995.924147,296.082377,6735.874072
1647.625425,-536.266849,-2368.659014,10066.800811
1647.625742,1532.190996,-1776.494261,9178.553681
1647.626059,1455.581446,-1110.308913,6439.791695
1647.626377,-3753.867940,-1480.411884,6513.812290
1647.626694,-3830.477490,-6735.874072,14878.139434
1647.627011,-3830.477490,-6143.709319,18949.272115
1647.627329,-1915.238745,-370.102971,17764.942608
1647.627646,-229.828649,4589.276840,15544.324782
1647.627963,1149.143247,4885.359217,14211.954086
1647.628280,4826.401637,6069.688724,12731.542202
1647.628598,6971.469032,9770.718434,10066.800811
1647.628915,9806.022374,11029.068536,9400.615463
1647.629232,11491.432470,10807.006753,6143.709319
1647.629550,12563.966167,10288.862594,2738.761985
1647.629867,13483.280765,8882.471304,3034.844362
1647.630184,12180.918418,6365.771101,444.123565
1647.630502,8963.317327,5255.462188,0.000000
1647.630819,7814.174080,-370.102971,4737.318029
1647.631136,4060.306139,-3775.050304,7328.038826
1647.631454,153.219100,-6513.812290,7476.080014
1647.631771,-4673.182538,-7328.038826,9252.574275
1647.632088,-8044.002729,-9030.512492,15544.324782
1647.632406,-7737.564530,-9622.677246,18431.127956
1647.632723,-6665.030833,-5403.503377,14508.036463
1647.633040,-6052.154434,-518.144159,11917.315666
1647.633358,-3907.087040,1258.350101,14211.954086
1647.633675,-536.266849,4293.194464,14730.098246
1647.633992,2987.772442,8586.388927,10732.986159
1647.634309,4673.182538,10214.842000,8216.285956
1647.634627,3064.381992,14211.954086,3404.947333
1647.634944,5209.449386,16062.468941,2220.617826
1647.635261,10035.851024,13693.809927,2368.659014
1647.635579,9729.412825,8364.327145,1776.494261
