#time,accel_x,accel_y,accel_z
1723.430157,-459.657299,-0.000000,10362.883188
1723.430474,-383.047749,-74.020594,9992.780217
1723.430791,-306.438199,222.061783,9696.697840
1723.431109,153.219100,370.102971,9548.656652
1723.431426,689.485948,666.185348,9918.759623
1723.431743,919.314598,296.082377,9622.677246
1723.432060,995.924147,814.226536,9104.533087
1723.432377,1302.362347,370.102971,8956.491898
1723.432695,1378.971896,814.226536,8882.471304
1723.433012,1608.800546,296.082377,9104.533087
1723.433329,1762.019645,370.102971,8512.368333
1723.433646,1378.971896,-0.000000,9178.553681
1723.433963,995.924147,-0.000000,9326.594869
1723.434281,612.876398,-148.041188,9326.594869
1723.434598,766.095498,-370.102971,9400.615463
1723.434915,153.219100,-296.082377,9622.677246
1723.435232,0.000000,-296.082377,9622.677246
1723.435549,0.000000,-444.123565,9696.697840
1723.435867,0.000000,-666.185348,10066.800811
1723.436184,-383.047749,-740.205942,10066.800811
1723.436501,0.000000,-222.061783,9696.697840
1723.436818,-536.266849,-74.020594,9474.636058
1723.437135,-383.047749,-74.020594,9474.636058
1723.437453,0.000000,-0.000000,9400.615463
1723.437770,0.000000,-0.000000,9400.615463
1723.438087,0.000000,-74.020594,9104.533087
1723.438404,76.609550,148.041188,9474.636058
1723.438721,383.047749,-148.041188,9326.594869
1723.439039,536.266849,-444.123565,9252.574275
1723.439356,0.000000,-592.164754,9548.656652
1723.439673,459.657299,-444.123565,9622.677246
1723.439990,689.485948,-518.144159,9252.574275
1723.440307,919.314598,-444.123565,9474.636058
1723.440625,766.095498,-148.041188,9474.636058
1723.440942,1225.752797,-0.000000,9326.594869
1723.441259,1302.362347,-222.061783,9104.533087
1723.441576,1302.362347,-148.041188,9326.594869
1723.441893,1608.800546,-0.000000,9326.594869
1723.442211,1455.581446,-74.020594,9474.636058
1723.442528,1532.190996,-0.000000,8956.491898
1723.442845,1378.971896,-0.000000,9252.574275
1723.443162,1225.752797,-0.000000,8882.471304
1723.443479,1302.362347,-0.000000,9104.533087
1723.443797,2068.457845,-148.041188,9252.574275
1723.444114,995.924147,-0.000000,9474.636058
1723.444431,689.485948,-74.020594,9474.636058
1723.444748,842.705048,-148.041188,9474.636058
1723.445065,842.705048,-148.041188,9474.636058
1723.445382,766.095498,-370.102971,9474.636058
1723.445700,919.314598,-222.061783,9400.615463
1723.446017,1149.143247,148.041188,9474.636058
1723.446334,1608.800546,222.061783,9474.636058
1723.446651,1608.800546,444.123565,9178.553681
1723.446968,2068.457845,370.102971,9474.636058
1723.447286,1991.848295,370.102971,9252.574275
1723.447603,1838.629195,592.164754,8956.491898
1723.447920,1608.800546,592.164754,9104.533087
1723.448237,1838.629195,814.226536,9178.553681
1723.448554,1685.410096,222.061783,9030.512492
1723.448872,1685.410096,148.041188,8956.491898
1723.449189,1685.410096,296.082377,9178.553681
1723.449506,1532.190996,222.061783,9178.553681
1723.449823,1685.410096,-0.000000,9400.615463
1723.450140,1455.581446,-74.020594,9844.739029
1723.450458,1149.143247,-222.061783,9696.697840
1723.450775,842.705048,-222.061783,9844.739029
1723.451092,1072.533697,-370.102971,9696.697840
1723.451409,995.924147,-0.000000,9548.656652
1723.451726,1072.533697,444.123565,9622.677246
1723.452044,1072.533697,370.102971,9326.594869
1723.452361,1225.752797,592.164754,9474.636058
1723.452678,1455.581446,592.164754,9400.615463
1723.452995,1378.971896,-0.000000,9400.615463
1723.453312,1455.581446,148.041188,9474.636058
1723.453630,1149.143247,-0.000000,9474.636058
1723.453947,1532.190996,222.061783,9400.615463
1723.454264,1378.971896,296.082377,9400.615463
1723.454581,1378.971896,222.061783,9252.574275
1723.454898,1302.362347,148.041188,9400.615463
1723.455216,1302.362347,444.123565,9474.636058
1723.455533,1455.581446,666.185348,9326.594869
1723.455850,1608.800546,370.102971,9252.574275
1723.456167,1532.190996,666.185348,9400.615463
1723.456484,1915.238745,592.164754,9252.574275
1723.456802,1455.581446,592.164754,9104.533087
1723.457119,1762.019645,592.164754,9178.553681
1723.457436,1762.019645,296.082377,9178.553681
1723.457753,1455.581446,740.205942,9400.615463
1723.458070,1915.238745,814.226536,9030.512492
1723.458388,1455.581446,666.185348,8882.471304
1723.458705,1608.800546,148.041188,9104.533087
1723.459022,1608.800546,518.144159,9400.615463
1723.459339,1378.971896,296.082377,9252.574275
1723.459656,1302.362347,296.082377,9178.553681
1723.459974,1072.533697,-0.000000,9400.615463
1723.460291,1149.143247,-0.000000,9474.636058
1723.460608,995.924147,-0.000000,9474.636058
1723.460925,1149.143247,-0.000000,9474.636058
1723.461242,1072.533697,148.041188,9474.636058
1723.461560,1455.581446,296.082377,9474.636058
1723.461877,1072.533697,296.082377,9252.574275
1723.462194,1225.752797,148.041188,9474.636058
1723.462511,1378.971896,-0.000000,9252.574275
1723.462828,1302.362347,148.041188,9326.594869
1723.463146,1072.533697,-0.000000,9400.615463
1723.463463,995.924147,-0.000000,9474.636058
1723.463780,766.095498,148.041188,9770.718434
1723.464097,1149.143247,222.061783,9770.718434
1723.464414,995.924147,-0.000000,9548.656652
1723.464732,766.095498,222.061783,9622.677246
1723.465049,995.924147,518.144159,9696.697840
1723.465366,995.924147,-0.000000,9548.656652
1723.465683,1072.533697,-0.000000,9622.677246
1723.466000,995.924147,148.041188,9696.697840
1723.466318,1072.533697,296.082377,9400.615463
1723.466635,1378.971896,518.144159,9400.615463
1723.466952,1455.581446,296.082377,9252.574275
1723.467269,1225.752797,222.061783,9104.533087
1723.467586,1302.362347,518.144159,9178.553681
1723.467903,1149.143247,296.082377,9030.512492
1723.468221,1455.581446,370.102971,9104.533087
1723.468538,1378.971896,222.061783,8882.471304
1723.468855,1225.752797,148.041188,9030.512492
1723.469172,1149.143247,-0.000000,9178.553681
1723.469489,1149.143247,296.082377,9104.533087
1723.469807,1302.362347,370.102971,9326.594869
1723.470124,1302.362347,296.082377,9326.594869
1723.470441,1378.971896,444.123565,9326.594869
1723.470758,1455.581446,296.082377,9104.533087
1723.471075,1072.533697,222.061783,9474.636058
1723.471393,1455.581446,444.123565,9178.553681
1723.471710,1378.971896,370.102971,9252.574275
1723.472027,1302.362347,444.123565,9104.533087
1723.472344,1608.800546,444.123565,9178.553681
1723.472661,1455.581446,444.123565,9252.574275
1723.472979,1455.581446,370.102971,9252.574275
1723.473296,1455.581446,370.102971,9326.594869
1723.473613,1532.190996,518.144159,9326.594869
1723.473930,1455.581446,296.082377,9252.574275
1723.474247,1532.190996,222.061783,9474.636058
1723.474565,1225.752797,296.082377,9548.656652
1723.474882,1378.971896,-0.000000,9474.636058
1723.475199,1455.581446,370.102971,9400.615463
1723.475516,1532.190996,-0.000000,9474.636058
1723.475833,1378.971896,148.041188,9474.636058
1723.476151,1072.533697,-0.000000,9474.636058
1723.476468,1072.533697,74.020594,9474.636058
1723.476785,995.924147,222.061783,9400.615463
1723.477102,1302.362347,592.164754,9474.636058
1723.477419,919.314598,444.123565,9548.656652
1723.477737,612.876398,296.082377,9474.636058
1723.478054,919.314598,370.102971,9474.636058
1723.478371,689.485948,148.041188,9474.636058
1723.478688,919.314598,-296.082377,9104.533087
1723.479005,536.266849,-296.082377,9400.615463
1723.479323,383.047749,-518.144159,9178.553681
1723.479640,76.609550,-370.102971,9548.656652
1723.479957,153.219100,-222.061783,9474.636058
1723.480274,383.047749,-296.082377,9400.615463
1723.480591,306.438199,-370.102971,9252.574275
1723.480909,0.000000,-370.102971,9326.594869
1723.481226,0.000000,-222.061783,8734.430116
1723.481543,-229.828649,-444.123565,8512.368333
1723.481860,-229.828649,-888.247130,8734.430116
1723.482177,-612.876398,-814.226536,8734.430116
1723.482495,-612.876398,-1258.350101,8956.491898
1723.482812,-383.047749,-1332.370696,9030.512492
1723.483129,0.000000,-1332.370696,9178.553681
1723.483446,-153.219100,-1036.288319,9326.594869
1723.483763,-153.219100,-592.164754,8734.430116
1723.484081,-459.657299,-740.205942,8734.430116
1723.484398,-766.095498,-888.247130,8290.306550
1723.484715,-995.924147,-1110.308913,8142.265362
1723.485032,-1608.800546,-1406.391290,8364.327145
1723.485349,-1225.752797,-1850.514855,8882.471304
1723.485667,-1302.362347,-2516.700203,9400.615463
1723.485984,-1302.362347,-2664.741391,9918.759623
1723.486301,-1302.362347,-3108.864956,9770.718434
1723.486618,-1608.800546,-2516.700203,9992.780217
1723.486935,-1838.629195,-1850.514855,9474.636058
1723.487253,-1838.629195,-1702.473667,9326.594869
1723.487570,-2068.457845,-1924.535449,9252.574275
1723.487887,-1838.629195,-2516.700203,9178.553681
1723.488204,-2451.505594,-3330.926739,9548.656652
1723.488521,-2451.505594,-3923.091493,10214.842000
1723.488838,-3294.210641,-4663.297435,10362.883188
1723.489156,-3294.210641,-4737.318029,10881.027347
1723.489473,-3753.867940,-4515.256246,10584.944971
1723.489790,-4060.306139,-4219.173869,10658.965565
1723.490107,-4519.963438,-3552.988522,10362.883188
1723.490424,-4060.306139,-3627.009116,10288.862594
1723.490742,-3830.477490,-3923.091493,10288.862594
1723.491059,-4060.306139,-3997.112087,10288.862594
1723.491376,-4136.915689,-4441.235652,10732.986159
1723.491693,-4366.744339,-4367.215058,10584.944971
1723.492010,-4749.792088,-4293.194464,9844.739029
1723.492328,-4596.572988,-4145.153275,9326.594869
1723.492645,-5286.058936,-3849.070898,9918.759623
1723.492962,-5132.839837,-3256.906145,9844.739029
1723.493279,-5209.449386,-3034.844362,9696.697840
1723.493596,-4903.011187,-3108.864956,10288.862594
1723.493914,-4826.401637,-3108.864956,10732.986159
1723.494231,-4213.525239,-2442.679609,10881.027347
1723.494548,-3983.696590,-2072.576638,9844.739029
1723.494865,-3447.429741,-888.247130,9030.512492
1723.495182,-3217.601092,-666.185348,8808.450710
1723.495500,-2528.115143,-666.185348,8512.368333
1723.495817,-2221.676944,-1184.329507,9104.533087
1723.496134,-1608.800546,-1554.432478,9474.636058
1723.496451,-1991.848295,-2738.761985,10140.821405
1723.496768,-1762.019645,-2812.782580,10436.903782
1723.497086,-689.485948,-2664.741391,10362.883188
1723.497403,-842.705048,-2590.720797,9400.615463
1723.497720,-306.438199,-2146.597232,8586.388927
1723.498037,76.609550,-1406.391290,8438.347739
1723.498354,1532.190996,-1702.473667,8808.450710
1723.498672,1225.752797,-2368.659014,8438.347739
1723.498989,919.314598,-2294.638420,9030.512492
1723.499306,0.000000,-3108.864956,9474.636058
1723.499623,0.000000,-3404.947333,9474.636058
1723.499940,-995.924147,-3701.029710,8882.471304
1723.500258,-1072.533697,-2812.782580,9918.759623
1723.500575,-1302.362347,-2738.761985,9696.697840
1723.500892,-766.095498,-1332.370696,9770.718434
1723.501209,-766.095498,-2368.659014,9696.697840
1723.501526,-1608.800546,-3034.844362,10362.883188
1723.501844,-1532.190996,-3108.864956,10362.883188
1723.502161,-1608.800546,-3034.844362,11991.336260
1723.502478,-995.924147,-2368.659014,11177.109724
1723.502795,-153.219100,-888.247130,9844.739029
1723.503112,-306.438199,444.123565,9326.594869
1723.503430,0.000000,740.205942,9770.718434
1723.503747,536.266849,1258.350101,8512.368333
1723.504064,842.705048,148.041188,9104.533087
1723.504381,842.705048,-370.102971,8956.491898
1723.504698,612.876398,-74.020594,8364.327145
1723.505016,995.924147,518.144159,8364.327145
1723.505333,919.314598,-370.102971,8438.347739
1723.505650,383.047749,-0.000000,7994.224174
1723.505967,0.000000,-0.000000,9104.533087
1723.506284,-1149.143247,1184.329507,9400.615463
1723.506602,-1149.143247,444.123565,8808.450710
1723.506919,-2757.943793,592.164754,7994.224174
1723.507236,-4366.744339,-74.020594,9178.553681
1723.507553,-4979.620737,-74.020594,9178.553681
1723.507870,-5439.278036,-1036.288319,9770.718434
1723.508188,-5669.106685,-1554.432478,11029.068536
1723.508505,-5669.106685,-1776.494261,11695.253884
1723.508822,-5515.887586,-962.267725,10807.006753
1723.509139,-5822.325785,-1110.308913,11473.192101
1723.509456,-4749.792088,-814.226536,10658.965565
1723.509774,-4443.353888,-222.061783,10584.944971
1723.510091,-4213.525239,-0.000000,9326.594869
1723.510408,-4366.744339,-962.267725,10214.842000
1723.510725,-2604.724693,-1258.350101,9992.780217
1723.511042,-1302.362347,-1036.288319,10288.862594
1723.511359,-1378.971896,-74.020594,8586.388927
1723.511677,-1149.143247,-740.205942,8660.409521
1723.511994,-1072.533697,-1258.350101,8364.327145
1723.512311,-1532.190996,-2960.823768,9992.780217
1723.512628,-2757.943793,-3108.864956,9474.636058
1723.512945,-2374.896044,-3182.885551,11029.068536
1723.513263,-3064.381992,-3034.844362,10140.821405
1723.513580,-3140.991542,-3256.906145,11177.109724
1723.513897,-3600.648841,-3997.112087,11843.295072
1723.514214,-3447.429741,-4515.256246,12657.521608
1723.514531,-3370.820191,-4515.256246,12361.439231
1723.514849,-3217.601092,-3849.070898,12139.377449
1723.515166,-2145.067394,-3404.947333,11547.212695
1723.515483,-1532.190996,-2664.741391,10881.027347
1723.515800,76.609550,-2516.700203,11103.089130
1723.516117,689.485948,-3404.947333,9844.739029
1723.516435,1915.238745,-3478.967927,9770.718434
1723.516752,2298.286494,-2886.803174,7550.100608
1723.517069,2681.334243,-3923.091493,7846.182985
1723.517386,2757.943793,-5181.441594,8142.265362
1723.517703,1225.752797,-5403.503377,7994.224174
1723.518021,1302.362347,-5107.421000,7772.162391
1723.518338,842.705048,-4071.132681,7179.997637
1723.518655,612.876398,-3997.112087,7920.203579
1723.518972,-459.657299,-3923.091493,9400.615463
1723.519289,-919.314598,-3478.967927,8364.327145
1723.519607,-1991.848295,-4811.338623,9622.677246
1723.519924,-2221.676944,-4737.318029,11769.274478
1723.520241,-1302.362347,-4441.235652,12213.398043
1723.520558,-229.828649,-2220.617826,9622.677246
1723.520875,689.485948,-2442.679609,9030.512492
1723.521193,689.485948,-1850.514855,8956.491898
1723.521510,1149.143247,-2442.679609,8068.244768
1723.521827,1762.019645,-888.247130,6217.729913
1723.522144,1378.971896,-2220.617826,5625.565159
1723.522461,0.000000,-1776.494261,5181.441594
1723.522779,-919.314598,-2368.659014,4959.379811
1723.523096,-1685.410096,-2664.741391,5107.421000
1723.523413,-3140.991542,-4441.235652,5995.668130
1723.523730,-5056.230287,-5625.565159,7994.224174
1723.524048,-6818.249932,-6143.709319,10214.842000
1723.524365,-6741.640382,-5551.544565,12805.562797
1723.524682,-6435.202183,-4367.215058,11917.315666
1723.524999,-6435.202183,-3034.844362,11177.109724
1723.525316,-5898.935335,-888.247130,10214.842000
1723.525634,-4673.182538,-370.102971,9696.697840
1723.525951,-2987.772442,-518.144159,9622.677246
1723.526268,-1915.238745,-666.185348,8290.306550
1723.526585,-1149.143247,-222.061783,7994.224174
1723.526902,-1225.752797,-592.164754,7031.956449
1723.527220,-1378.971896,-1850.514855,7179.997637
1723.527537,-1225.752797,-3330.926739,6883.915261
1723.527854,-2145.067394,-2442.679609,7254.018232
1723.528171,-2374.896044,-2072.576638,8216.285956
1723.528488,-3753.867940,-2146.597232,9252.574275
1723.528806,-3907.087040,-2664.741391,10658.965565
1723.529123,-4136.915689,-2442.679609,12805.562797
1723.529440,-4443.353888,-1554.432478,12953.603985
1723.529757,-3600.648841,-740.205942,13249.686362
1723.530074,-2451.505594,-74.020594,11991.336260
1723.530392,-1532.190996,-0.000000,11103.089130
1723.530709,-306.438199,74.020594,11547.212695
1723.531026,689.485948,-740.205942,10955.047942
1723.531343,1378.971896,-1850.514855,10436.903782
1723.531660,2068.457845,-1332.370696,9178.553681
1723.531978,1838.629195,-1554.432478,8734.430116
1723.532295,1455.581446,-1110.308913,8364.327145
1723.532612,153.219100,-1332.370696,8438.347739
1723.532929,-919.314598,-1110.308913,8956.491898
1723.533246,-1838.629195,-1776.494261,11621.233289
1723.533564,-2451.505594,-962.267725,12065.356855
1723.533881,-3064.381992,-814.226536,11695.253884
1723.534198,-3064.381992,-1480.411884,14211.954086
1723.534515,-2528.115143,-1702.473667,14582.057057
1723.534832,-689.485948,-740.205942,13323.706956
1723.535150,919.314598,-666.185348,12805.562797
1723.535467,1915.238745,-148.041188,11695.253884
1723.535784,2987.772442,814.226536,8882.471304
1723.536101,4596.572988,740.205942,7031.956449
1723.536418,5898.935335,-592.164754,6513.812290
1723.536736,5439.278036,-888.247130,5329.482782
1723.537053,3830.477490,-1110.308913,5033.400406
1723.537370,2528.115143,-1036.288319,5477.523971
1723.537687,-612.876398,-1406.391290,7624.121203
1723.538004,-1762.019645,-2516.700203,10436.903782
1723.538322,-3524.039291,-3182.885551,12583.501014
1723.538639,-4213.525239,-3552.988522,13989.892304
1723.538956,-4826.401637,-2294.638420,13989.892304
1723.539273,-3524.039291,-1924.535449,13471.748144
1723.539590,-1915.238745,-222.061783,12213.398043
1723.539908,383.047749,370.102971,10140.821405
1723.540225,1532.190996,-0.000000,8142.265362
1723.540542,3140.991542,-148.041188,6587.832884
1723.540859,4136.915689,-592.164754,5625.565159
1723.541176,4903.011187,-1850.514855,5107.421000
1723.541494,3447.429741,-3034.844362,4811.338623
1723.541811,1762.019645,-3552.988522,5107.421000
1723.542128,-612.876398,-3256.906145,5477.523971
1723.542445,-2451.505594,-2960.823768,8068.244768
1723.542762,-3753.867940,-3552.988522,9622.677246
1723.543080,-4290.134789,-2886.803174,10066.800811
1723.543397,-4443.353888,-2516.700203,11547.212695
1723.543714,-5056.230287,-1776.494261,11991.336260
1723.544031,-2451.505594,-2146.597232,14582.057057
1723.544348,-1762.019645,-370.102971,10807.006753
1723.544666,1149.143247,-518.144159,9770.718434
1723.544983,3370.820191,-0.000000,8660.409521
1723.545300,4903.011187,-74.020594,7105.977043
1723.545617,6435.202183,-1110.308913,5181.441594
1723.545935,6741.640382,-962.267725,3849.070898
1723.546252,6205.373534,-740.205942,3701.029710
1723.546569,4749.792088,-888.247130,4589.276840
1723.546886,3217.601092,-1184.329507,5847.626942
1723.547203,1072.533697,-1184.329507,7328.038826
1723.547521,-1608.800546,-1702.473667,9992.780217
1723.547838,-3753.867940,-148.041188,10955.047942
1723.548155,-3983.696590,740.205942,12583.501014
1723.548472,-3217.601092,2220.617826,13175.665768
1723.548789,-1762.019645,1554.432478,15026.180623
1723.549107,-689.485948,1406.391290,13767.830521
1723.549424,1838.629195,1850.514855,11399.171507
1723.549741,4749.792088,2220.617826,9104.533087
1723.550058,6971.469032,2072.576638,7031.956449
1723.550375,9193.145976,1776.494261,6217.729913
1723.550693,9116.536426,1628.453072,5107.421000
1723.551010,7584.345430,740.205942,3404.947333
1723.551327,5362.668486,1036.288319,4811.338623
1723.551644,2834.553343,666.185348,7624.121203
1723.551961,-229.828649,1998.556043,8142.265362
1723.552279,-2451.505594,1110.308913,10881.027347
1723.552596,-4979.620737,740.205942,13915.871710
1723.552913,-4979.620737,-0.000000,15914.427753
1723.553230,-4519.963438,1628.453072,15470.304188
1723.553547,-2987.772442,2516.700203,15174.221811
1723.553865,-1378.971896,2664.741391,14878.139434
1723.554182,612.876398,3701.029710,11473.192101
1723.554499,3677.258390,3701.029710,9918.759623
1723.554816,4903.011187,3108.864956,7920.203579
1723.555133,6818.249932,1036.288319,7402.059420
1723.555451,6358.592633,592.164754,6291.750507
1723.555768,5822.325785,592.164754,6217.729913
1723.556085,3983.696590,1110.308913,7254.018232
1723.556402,2374.896044,518.144159,9030.512492
1723.556719,-766.095498,1406.391290,9474.636058
1723.557037,-2834.553343,2294.638420,11251.130318
1723.557354,-5056.230287,4515.256246,9548.656652
1723.557671,-4903.011187,4515.256246,11251.130318
1723.557988,-5745.716235,3034.844362,12953.603985
1723.558305,-4136.915689,1776.494261,15248.242405
1723.558623,-3064.381992,1924.535449,13101.645173
1723.558940,-1608.800546,814.226536,12213.398043
1723.559257,536.266849,-444.123565,11177.109724
1723.559574,2528.115143,-1036.288319,8882.471304
1723.559891,4979.620737,-2294.638420,8512.368333
1723.560209,4749.792088,-1184.329507,6513.812290
1723.560526,4903.011187,-1258.350101,6217.729913
1723.560843,4826.401637,740.205942,6143.709319
1723.561160,3677.258390,1184.329507,6735.874072
1723.561477,1149.143247,962.267725,7105.977043
1723.561795,-1991.848295,370.102971,9622.677246
1723.562112,-4290.134789,2146.597232,9918.759623
1723.562429,-3753.867940,2516.700203,11473.192101
1723.562746,-4213.525239,2590.720797,11029.068536
1723.563063,-2451.505594,518.144159,13545.768739
1723.563381,-1762.019645,592.164754,11251.130318
1723.563698,536.266849,592.164754,9400.615463
1723.564015,3217.601092,-1332.370696,7698.141797
1723.564332,5056.230287,-2442.679609,6735.874072
1723.564649,7048.078582,-2664.741391,6957.935855
1723.564967,7431.126331,-2442.679609,5921.647536
1723.565284,6894.859482,-3182.885551,7920.203579
1723.565601,5515.887586,-3034.844362,8142.265362
1723.565918,4443.353888,-1406.391290,8512.368333
1723.566235,1532.190996,1258.350101,7328.038826
1723.566553,-995.924147,1184.329507,8660.409521
1723.566870,-3370.820191,1776.494261,9326.594869
1723.567187,-3217.601092,1184.329507,12213.398043
1723.567504,-2604.724693,1702.473667,10214.842000
1723.567822,-766.095498,-74.020594,11251.130318
1723.568139,153.219100,-1110.308913,9474.636058
1723.568456,2221.676944,-1702.473667,9252.574275
1723.568773,4136.915689,-2368.659014,8290.306550
1723.569090,4903.011187,-3182.885551,7994.224174
1723.569408,6511.811733,-3552.988522,7476.080014
1723.569725,6818.249932,-2442.679609,6735.874072
1723.570042,6205.373534,-1702.473667,7624.121203
1723.570359,5515.887586,-1036.288319,9030.512492
1723.570676,3983.696590,-518.144159,9030.512492
1723.570994,1455.581446,444.123565,8586.388927
1723.571311,-1991.848295,1406.391290,9104.533087
1723.571628,-4136.915689,2146.597232,9918.759623
1723.571945,-3983.696590,2738.761985,10955.047942
1723.572262,-3064.381992,3182.885551,10807.006753
1723.572580,-3983.696590,3478.967927,9918.759623
1723.572897,-2068.457845,1628.453072,9696.697840
1723.573214,-229.828649,1184.329507,8734.430116
1723.573531,1762.019645,-1110.308913,9696.697840
1723.573848,3370.820191,-2664.741391,9548.656652
1723.574166,3753.867940,-1924.535449,9252.574275
1723.574483,5362.668486,-1110.308913,7920.203579
1723.574800,4979.620737,296.082377,7772.162391
1723.575117,4290.134789,888.247130,7920.203579
1723.575434,3524.039291,2960.823768,8364.327145
1723.575752,229.828649,4071.132681,7994.224174
1723.576069,-2604.724693,4293.194464,9474.636058
1723.576386,-5056.230287,3701.029710,10288.862594
1723.576703,-6435.202183,4663.297435,11325.150913
1723.577020,-6818.249932,3701.029710,12287.418637
1723.577338,-6052.154434,2738.761985,12731.542202
1723.577655,-5132.839837,2516.700203,11473.192101
1723.577972,-1608.800546,2516.700203,10214.842000
1723.578289,-306.438199,2368.659014,8956.491898
1723.578606,2298.286494,592.164754,9326.594869
1723.578924,3064.381992,-740.205942,9252.574275
1723.579241,4136.915689,-1184.329507,8808.450710
1723.579558,4213.525239,-740.205942,9474.636058
1723.579875,4213.525239,222.061783,9474.636058
1723.580192,3217.601092,2146.597232,9548.656652
1723.580510,1225.752797,3330.926739,9400.615463
1723.580827,-2681.334243,4219.173869,10066.800811
1723.581144,-3064.381992,4219.173869,11621.233289
1723.581461,-5898.935335,5477.523971,8956.491898
1723.581778,-5056.230287,3034.844362,11029.068536
1723.582096,-3983.696590,1998.556043,10214.842000
1723.582413,-2528.115143,1702.473667,10584.944971
1723.582730,-995.924147,-1628.453072,11769.274478
1723.583047,1455.581446,-1480.411884,12879.583391
1723.583364,2757.943793,-2368.659014,11473.192101
1723.583682,4903.011187,-2294.638420,12287.418637
1723.583999,6818.249932,-444.123565,11473.192101
1723.584316,5822.325785,-0.000000,9548.656652
1723.584633,8197.221829,2960.823768,9326.594869
1723.584950,7277.907231,4071.132681,7179.997637
1723.585268,6052.154434,3478.967927,7179.997637
1723.585585,3677.258390,2664.741391,7550.100608
1723.585902,612.876398,2294.638420,6809.894666
1723.586219,-1072.533697,-370.102971,8438.347739
1723.586536,-3217.601092,-1406.391290,9474.636058
1723.586854,-3217.601092,-2738.761985,10066.800811
1723.587171,-3983.696590,-1554.432478,9770.718434
1723.587488,-3217.601092,-3701.029710,11325.150913
1723.587805,-2451.505594,-3627.009116,10955.047942
1723.588122,-536.266849,-3923.091493,11769.274478
1723.588440,1608.800546,-3627.009116,12435.459826
1723.588757,3217.601092,-2220.617826,9992.780217
1723.589074,5592.497135,-444.123565,9400.615463
1723.589391,7201.297681,1332.370696,7772.162391
1723.589708,7354.516781,2368.659014,6365.771101
1723.590026,6281.983084,3552.988522,5403.503377
1723.590343,4519.963438,3182.885551,4737.318029
1723.590660,842.705048,1628.453072,3775.050304
1723.590977,-1915.238745,-370.102971,6513.812290
1723.591295,-3830.477490,-1850.514855,8882.471304
1723.591612,-5745.716235,-2442.679609,8586.388927
1723.591929,-5056.230287,-3404.947333,9252.574275
1723.592246,-5439.278036,-3627.009116,9104.533087
1723.592563,-3907.087040,-3775.050304,9770.718434
1723.592881,-1608.800546,-4219.173869,10214.842000
1723.593198,-995.924147,-3330.926739,11029.068536
1723.593515,1149.143247,-2146.597232,11399.171507
1723.593832,3064.381992,370.102971,10732.986159
1723.594149,4903.011187,2294.638420,9474.636058
1723.594467,5362.668486,3849.070898,7994.224174
1723.594784,6052.154434,3552.988522,7105.977043
1723.595101,4903.011187,4145.153275,5181.441594
1723.595418,2451.505594,3552.988522,4663.297435
1723.595735,689.485948,2294.638420,4367.215058
1723.596053,-1762.019645,-444.123565,5551.544565
1723.596370,-3753.867940,-2442.679609,7698.141797
1723.596687,-5822.325785,-4145.153275,9326.594869
1723.597004,-6511.811733,-3775.050304,9918.759623
1723.597321,-6205.373534,-3034.844362,12213.398043
1723.597639,-5362.668486,-2960.823768,13915.871710
1723.597956,-4903.011187,-2220.617826,15470.304188
1723.598273,-2681.334243,-370.102971,16432.571912
1723.598590,153.219100,1628.453072,14952.160028
1723.598907,2987.772442,4071.132681,11029.068536
1723.599225,6665.030833,5551.544565,9178.553681
1723.599542,8503.660028,6217.729913,6365.771101
1723.599859,9039.926876,5551.544565,4885.359217
1723.600176,7737.564530,3775.050304,4293.194464
1723.600493,4903.011187,2072.576638,5403.503377
1723.600811,2528.115143,1480.411884,6143.709319
1723.601128,-689.485948,-0.000000,6809.894666
1723.601445,-3370.820191,-814.226536,8586.388927
1723.601762,-4903.011187,-740.205942,10584.944971
1723.602079,-5669.106685,-1480.411884,11621.233289
1723.602397,-5209.449386,-2516.700203,14063.912898
1723.602714,-3983.696590,-1480.411884,16284.530724
1723.603031,-1762.019645,-1480.411884,18653.189738
1723.603348,153.219100,592.164754,16580.613101
1723.603665,3294.210641,1406.391290,14730.098246
1723.603983,6818.249932,4663.297435,12065.356855
1723.604300,9652.803275,6069.688724,8438.347739
1723.604617,10572.117872,5847.626942,5403.503377
1723.604934,9806.022374,4737.318029,4367.215058
1723.605251,8427.050478,3478.967927,3997.112087
1723.605569,5286.058936,1998.556043,3849.070898
1723.605886,2068.457845,-1184.329507,6143.709319
1723.606203,-1915.238745,-1258.350101,6439.791695
1723.606520,-4443.353888,-962.267725,7550.100608
1723.606837,-6971.469032,-2072.576638,10288.862594
1723.607155,-7277.907231,-4071.132681,14211.954086
1723.607472,-7201.297681,-3997.112087,17320.819043
1723.607789,-6894.859482,-2368.659014,18875.251521
1723.608106,-4519.963438,-888.247130,18653.189738
1723.608423,-1378.971896,1184.329507,15174.221811
1723.608741,2604.724693,2664.741391,12509.480420
1723.609058,6358.592633,3627.009116,9252.574275
1723.609375,9116.536426,3923.091493,6513.812290
1723.609692,10418.898773,3256.906145,3478.967927
1723.610009,10189.070123,2294.638420,2590.720797
1723.610327,7737.564530,1406.391290,1184.329507
1723.610644,2757.943793,518.144159,-518.144159
1723.610961,-612.876398,-2960.823768,1850.514855
1723.611278,-5745.716235,-3849.070898,4959.379811
1723.611595,-10418.898773,-4145.153275,8586.388927
1723.611913,-13866.328514,-5403.503377,9696.697840
1723.612230,-12563.966167,-4589.276840,14730.098246
1723.612547,-11031.775171,-6957.935855,21021.848753
1723.612864,-11031.775171,-7550.100608,19615.457463
1723.613182,-7660.954980,-4959.379811,20947.828159
1723.613499,-4290.134789,666.185348,14952.160028
1723.613816,4673.182538,1628.453072,13915.871710
1723.614133,8810.098227,4367.215058,7105.977043
1723.614450,11491.432470,3923.091493,3849.070898
1723.614768,13176.842566,3701.029710,1776.494261
1723.615085,14555.814462,1406.391290,2294.638420
1723.615402,11951.089769,-0.000000,592.164754
1723.615719,6971.469032,-1184.329507,-370.102971
1723.616037,1915.238745,-222.061783,296.082377
1723.616354,-2145.067394,-0.000000,5329.482782
1723.616671,-6281.983084,-3330.926739,8586.388927
1723.616989,-8273.831378,-3849.070898,9770.718434
1723.617306,-8350.440928,-3478.967927,13323.706956
1723.617623,-7737.564530,-4071.132681,17838.963202
1723.617941,-4290.134789,-8660.409521,21465.972318
1723.618258,-2451.505594,-5255.462188,18135.045579
1723.618575,2681.334243,-3182.885551,17690.922014
1723.618893,5745.716235,1924.535449,12509.480420
1723.619210,9882.631924,2146.597232,10288.862594
1723.619527,13330.061665,4737.318029,6217.729913
1723.619845,14249.376263,7328.038826,370.102971
1723.620162,14325.985813,5403.503377,1332.370696
1723.620479,11261.603821,3849.070898,1850.514855
1723.620797,8350.440928,814.226536,518.144159
1723.621114,1762.019645,-666.185348,0.000000
1723.621431,-3753.867940,-2812.782580,6291.750507
1723.621749,-7048.078582,-3701.029710,9030.512492
1723.622066,-8044.002729,-3182.885551,11325.150913
1723.622383,-9882.631924,-2442.679609,13027.624579
1723.622701,-8963.317327,-4811.338623,21688.034101
1723.623018,-8580.269578,-4589.276840,22206.178260
1723.623335,-4979.620737,-2812.782580,18949.272115
1723.623652,0.000000,518.144159,15100.201217
1723.623970,4366.744339,3701.029710,11917.315666
1723.624287,10189.070123,4737.318029,8438.347739
1723.624604,13406.671215,7105.977043,1776.494261
1723.624922,14019.547613,6957.935855,-296.082377
1723.625239,13559.890315,2960.823768,2738.761985
1723.625556,9193.145976,2442.679609,1554.432478
1723.625874,2221.676944,1258.350101,1258.350101
1723.626191,-4826.401637,666.185348,5329.482782
1723.626508,-8733.488677,-666.185348,10436.903782
1723.626826,-12257.527968,-1184.329507,10807.006753
1723.627143,-12793.794817,-2368.659014,14582.057057
1723.627460,-12870.404366,-1184.329507,16284.530724
1723.627778,-8427.050478,-1850.514855,20947.828159
1723.628095,-6205.373534,-666.185348,18431.127956
1723.628412,-1762.019645,-1184.329507,17394.839637
1723.628730,1072.533697,1036.288319,14211.954086
1723.629047,5056.230287,1406.391290,12065.356855
1723.629364,9422.974625,1628.453072,9696.697840
1723.629682,12334.137518,4737.318029,5847.626942
1723.629999,13330.061665,5551.544565,3701.029710
1723.630316,12487.356617,5033.400406,2664.741391
1723.630633,8197.221829,3775.050304,2072.576638
1723.630951,2834.553343,2368.659014,3849.070898
1723.631268,-2451.505594,592.164754,3330.926739
1723.631585,-6971.469032,1998.556043,4811.338623
1723.631903,-7431.126331,296.082377,8956.491898
1723.632220,-9422.974625,-0.000000,11769.274478
1723.632537,-10189.070123,-3997.112087,16506.592507
1723.632855,-8427.050478,-6217.729913,22206.178260
1723.633172,-8427.050478,-3627.009116,20059.581028
1723.633489,-2374.896044,-1332.370696,18579.169144
1723.633807,306.438199,1702.473667,13767.830521
1723.634124,5515.887586,-0.000000,11769.274478
1723.634441,10342.289223,2368.659014,8882.471304
1723.634759,13330.061665,4663.297435,2146.597232
1723.635076,14019.547613,2516.700203,2294.638420
1723.635393,14785.643111,592.164754,5255.462188
1723.635711,11184.994271,3034.844362,-148.041188
1723.636028,4136.915689,2146.597232,1406.391290
1723.636345,-995.924147,-1110.308913,5329.482782
1723.636663,-7431.126331,-666.185348,7254.018232
1723.636980,-8273.831378,2960.823768,6439.791695
1723.637297,-7431.126331,2812.782580,8142.265362
1723.637615,-8580.269578,-2886.803174,11103.089130
1723.637932,-6511.811733,-7179.997637,21910.095883
1723.638249,-3447.429741,-6291.750507,18875.251521
1723.638566,1225.752797,-2590.720797,16580.613101
1723.638884,6358.592633,148.041188,9992.780217
1723.639201,9729.412825,148.041188,9030.512492
1723.639518,12717.185267,2368.659014,5181.441594
1723.639836,14172.766713,2960.823768,5921.647536
1723.640153,11874.480219,1776.494261,5033.400406
1723.640470,11874.480219,962.267725,8142.265362
1723.640788,8886.707777,7328.038826,-296.082377
1723.641105,3830.477490,4515.256246,666.185348
1723.641422,-5822.325785,1258.350101,1332.370696
1723.641740,-9193.145976,-4145.153275,8438.347739
1723.642057,-10265.679673,-2738.761985,8068.244768
1723.642374,-8503.660028,-1554.432478,9178.553681
1723.642692,-10035.851024,-4663.297435,13545.768739
1723.643009,-9116.536426,-7105.977043,16432.571912
1723.643326,-6588.421283,-8734.430116,21465.972318
1723.643644,-5898.935335,-5699.585753,17468.860231
1723.643961,919.314598,-5551.544565,20059.581028
1723.644278,4213.525239,-0.000000,12731.542202
1723.644596,13100.233016,3256.906145,8586.388927
1723.644913,14632.424012,9104.533087,3182.885551
1723.645230,15015.471761,4515.256246,5403.503377
1723.645547,15858.176809,5107.421000,4145.153275
1723.645865,10265.679673,8586.388927,-2590.720797
1723.646182,6435.202183,4071.132681,888.247130
1723.646499,-1762.019645,296.082377,1998.556043
1723.646817,-7124.688131,-370.102971,5921.647536
1723.647134,-10189.070123,-148.041188,5625.565159
1723.647451,-13636.499864,-222.061783,6809.894666
1723.647769,-13942.938064,-7698.141797,15544.324782
1723.648086,-15092.081311,-10510.924376,21614.013506
1723.648403,-12793.794817,-8586.388927,23686.590144
1723.648721,-8733.488677,-6365.771101,18949.272115
1723.649038,-1608.800546,-3404.947333,21984.116477
1723.649355,3907.087040,-740.205942,18801.230927
1723.649673,9039.926876,4071.132681,10214.842000
1723.649990,13330.061665,9622.677246,4071.132681
1723.650307,15858.176809,6513.812290,6957.935855
1723.650625,17773.415554,4959.379811,7624.121203
1723.650942,14785.643111,8438.347739,370.102971
1723.651259,10495.508323,9030.512492,-3701.029710
1723.651577,4060.306139,6217.729913,-4219.173869
1723.651894,-1991.848295,1332.370696,2368.659014
1723.652211,-6128.763984,888.247130,148.041188
1723.652529,-9193.145976,1776.494261,1258.350101
1723.652846,-11108.384721,-7105.977043,11029.068536
1723.653163,-11184.994271,-13619.789333,21465.972318
1723.653480,-11644.651570,-12065.356855,22206.178260
1723.653798,-10342.289223,-9696.697840,23242.466579
1723.654115,-7737.564530,-6143.709319,26647.413912
1723.654432,-1532.190996,-2664.741391,26425.352129
1723.654750,4060.306139,5995.668130,17172.777854
1723.655067,10495.508323,12657.521608,9696.697840
1723.655384,15245.300410,13915.871710,5625.565159
1723.655702,20301.530697,14137.933492,3552.988522
1723.656019,20148.311597,12879.583391,-1998.556043
1723.656336,18692.730151,10288.862594,-7031.956449
1723.656654,11108.384721,3404.947333,-9178.553681
1723.656971,5286.058936,-2738.761985,814.226536
1723.657288,153.219100,-4071.132681,2368.659014
1723.657606,-5745.716235,1998.556043,-4367.215058
1723.657923,-10418.898773,-2442.679609,3627.009116
1723.658240,-14019.547613,-9474.636058,13693.809927
1723.658558,-16471.053207,-11473.192101,22798.343014
1723.658875,-15015.471761,-14137.933492,27461.640448
1723.659192,-13789.718964,-10436.903782,27091.537477
1723.659510,-6971.469032,-5995.668130,29090.093521
1723.659827,76.609550,5181.441594,23242.466579
1723.660144,8503.660028,11917.315666,9918.759623
1723.660462,12180.918418,12953.603985,5625.565159
1723.660779,16164.615008,9548.656652,8734.430116
1723.661096,18692.730151,10140.821405,5255.462188
1723.661413,18616.120601,12731.542202,-6143.709319
1723.661731,16777.491406,10732.986159,-9326.594869
1723.662048,9806.022374,3849.070898,-6883.915261
1723.662365,2528.115143,296.082377,-4737.318029
1723.662683,-2911.162892,-0.000000,-5773.606348
1723.663000,-8886.707777,-2294.638420,-2220.617826
1723.663317,-12487.356617,-9178.553681,11621.233289
1723.663635,-14862.252661,-14952.160028,18283.086767
1723.663952,-16777.491406,-13841.851115,23760.610738
1723.664269,-16317.834107,-16136.489536,28127.825796
1723.664587,-16241.224558,-10362.883188,22502.260637
1723.664904,-9346.365076,-9252.574275,37454.420665
1723.665221,-3830.477490,2072.576638,26869.475695
1723.665539,4136.915689,12879.583391,11917.315666
1723.665856,13483.280765,15914.427753,11399.171507
1723.666173,18079.853753,15470.304188,11251.130318
1723.666491,20761.187996,15988.448347,-1036.288319
1723.666808,23519.131789,14656.077652,-10066.800811
1723.667125,19382.216099,7179.997637,-8068.244768
1723.667443,14172.766713,-1776.494261,-6587.832884
1723.667760,6588.421283,-1184.329507,-8142.265362
1723.668077,229.828649,592.164754,-8956.491898
1723.668394,-9193.145976,-3182.885551,-444.123565
1723.668712,-16700.881856,-11103.089130,6513.812290
1723.669029,-21680.502593,-14285.974681,17987.004391
1723.669346,-21067.626195,-19985.560434,29756.278868
1723.669664,-25587.589633,-20059.581028,20133.601622
1723.669981,-19995.092498,-20133.601622,37824.523636
1723.670298,-15245.300410,-14285.974681,39526.997303
1723.670616,-5745.716235,4959.379811,22502.260637
1723.670933,7814.174080,9844.739029,17838.963202
1723.671250,11184.994271,17394.839637,18209.066173
1723.671568,17926.634653,16284.530724,12361.439231
1723.671885,24515.055936,22206.178260,1480.411884
1723.672202,24132.008187,24130.713709,5033.400406
1723.672520,27732.657028,16432.571912,-12583.501014
1723.672837,24285.227287,12065.356855,-16358.551318
1723.673154,18233.072852,7994.224174,-15100.201217
1723.673472,6894.859482,2886.803174,-15026.180623
1723.673789,-306.438199,-10807.006753,-10436.903782
1723.674106,-9806.022374,-16432.571912,3552.988522
1723.674424,-13942.938064,-15470.304188,12583.501014
1723.674741,-18156.463303,-22058.137072,14804.118840
1723.675058,-28575.362075,-30718.546593,20133.601622
1723.675376,-30490.600820,-35455.864622,40933.388593
1723.675693,-26353.685131,-23834.631332,43228.027013
1723.676010,-15551.738609,-9622.677246,28794.011144
1723.676327,-2911.162892,6735.874072,27905.764013
1723.676645,5439.278036,18949.272115,20281.642811
1723.676962,11874.480219,21317.931130,13545.768739
1723.677279,20531.359346,24648.857869,15100.201217
1723.677597,26047.246932,30126.381839,2664.741391
1723.677914,29418.067123,31162.670158,-4737.318029
1723.678231,35700.050207,25685.146187,-11399.171507
1723.678549,30950.258119,26203.290347,-23094.425390
1723.678866,28728.581175,8882.471304,-20799.786970
1723.679183,10495.508323,-4293.194464,-21762.054695
1723.679501,-2451.505594,-15988.448347,-9400.615463
1723.679818,-3140.991542,-12435.459826,15026.180623
1723.680135,-18616.120601,-12583.501014,2812.782580
1723.680453,-19612.044749,-25759.166782,16062.468941
1723.680770,-35929.878856,-32124.937883,18949.272115
1723.681087,-39224.089498,-37972.564825,43968.232955
1723.681405,-37232.241203,-35603.905810,41969.676911
1723.681722,-27962.485677,-19023.292709,34493.596897
1723.682039,-18233.072852,-5847.626942,31606.793723
1723.682357,-3064.381992,14137.933492,22206.178260
1723.682674,3600.648841,20651.745782,11103.089130
1723.682991,17620.196454,16728.654289,23316.487173
1723.683308,17773.415554,32569.061448,-148.041188
1723.683626,27502.828378,39156.894332,-14656.077652
1723.683943,37308.850753,39452.976709,-4145.153275
1723.684260,33861.421012,28868.031738,-15174.221811
1723.684578,36389.536155,13693.809927,-19689.478057
1723.684895,20607.968896,11621.233289,-22946.384202
1723.685212,12487.356617,-3034.844362,-18505.148550
1723.685530,-1225.752797,-5995.668130,-17690.922014
1723.685847,-2757.943793,-17616.901420,41895.656317
1723.686164,-20607.968896,-22724.322419,6587.832884
1723.686482,-28651.971625,-32124.937883,11547.212695
1723.686799,-41982.033290,-36122.049970,33013.185013
1723.687116,-45735.901231,-38712.770767,50704.107027
1723.687434,-34321.078310,-42339.779882,40785.347404
1723.687751,-26736.732880,-18727.210333,33679.370361
1723.688068,-16471.053207,962.267725,32050.917289
1723.688386,-2757.943793,17098.757260,14211.954086
1723.688703,14938.862211,16654.633695,13101.645173
1723.689020,23365.912689,15100.201217,13619.789333
1723.689338,22523.207641,38712.770767,-4071.132681
1723.689655,42365.081039,38638.750172,-11325.150913
1723.689972,39683.746796,36566.173535,-18505.148550
1723.690290,40526.451844,17172.777854,-11991.336260
1723.690607,35010.564259,15766.386565,-12953.603985
1723.690924,12487.356617,11695.253884,-28275.866984
1723.691241,15781.567259,-6883.915261,-3997.112087
1723.691559,-5975.544884,3849.070898,-14359.995275
1723.691876,-6511.811733,-19097.313304,44634.418303
1723.692193,-22753.036291,-28349.887579,18949.272115
1723.692511,-29954.333972,-33161.226202,19837.519246
1723.692828,-33861.421012,-38564.729578,40267.203245
1723.693145,-38994.260848,-38860.811955,42191.738694
1723.693463,-24668.275036,-36344.111752,37454.420665
1723.693780,-24438.446386,-9844.739029,24278.754898
1723.694097,-10572.117872,2220.617826,28497.928767
1723.694415,2374.896044,15396.283594,8068.244768
1723.694732,15704.957709,16728.654289,18949.272115
1723.695049,23825.569988,25833.187376,-592.164754
1723.695367,29877.724422,34493.596897,-17320.819043
1723.695684,39453.918147,33753.390955,-22798.343014
1723.696001,34014.640111,21836.075289,-18949.272115
1723.696319,31869.572717,9918.759623,-15248.242405
1723.696636,19075.777900,7698.141797,-18949.272115
1723.696953,12104.308868,2294.638420,-10214.842000
1723.697271,536.266849,814.226536,-5107.421000
1723.697588,-10112.460574,-9474.636058,28349.887579
1723.697905,-14402.595362,-15100.201217,26425.352129
1723.698223,-23442.522239,-25167.002028,22576.281231
1723.698540,-29188.238474,-23834.631332,30792.567187
1723.698857,-31103.477219,-23834.631332,36566.173535
1723.699174,-22293.378992,-26573.393318,38416.688390
1723.699492,-19841.873398,-13619.789333,14804.118840
1723.699809,-9652.803275,2294.638420,18875.251521
1723.700126,-1149.143247,12213.398043,14063.912898
1723.700444,9269.755526,11251.130318,12731.542202
1723.700761,21986.940793,20207.622217,-3997.112087
1723.701078,18769.339701,24278.754898,-7105.977043
1723.701396,26353.685131,22206.178260,-11399.171507
1723.701713,22293.378992,13397.727550,-16876.695478
1723.702030,18462.901502,8512.368333,-6143.709319
1723.702348,14402.595362,2812.782580,-5255.462188
1723.702665,2604.724693,6069.688724,-9474.636058
1723.702982,612.876398,-7846.182985,16802.674883
1723.703300,-9039.926876,-13619.789333,21317.931130
1723.703617,-13100.233016,-16950.716072,19911.539840
1723.703934,-16088.005458,-16580.613101,26425.352129
1723.704252,-17160.539155,-10881.027347,22354.219448
1723.704569,-15015.471761,-14730.098246,26277.310941
1723.704886,-10189.070123,-2516.700203,20577.725188
1723.705204,-3064.381992,5181.441594,14063.912898
1723.705521,3217.601092,13027.624579,3997.112087
1723.705838,7584.345430,7031.956449,10214.842000
1723.706155,12257.527968,6069.688724,12805.562797
1723.706473,14479.204912,9770.718434,-3627.009116
1723.706790,17007.320056,12583.501014,-5107.421000
1723.707107,13023.623466,3775.050304,0.000000
1723.707425,6971.469032,2220.617826,4515.256246
1723.707742,3600.648841,5477.523971,0.000000
1723.708059,459.657299,4663.297435,3923.091493
1723.708377,-3983.696590,2368.659014,7476.080014
1723.708694,-6281.983084,-3775.050304,18949.272115
1723.709011,-8503.660028,-5995.668130,19171.333898
1723.709329,-8503.660028,-7402.059420,20207.622217
1723.709646,-7277.907231,-7031.956449,21021.848753
1723.709963,-2681.334243,-7624.121203,20947.828159
1723.710281,2221.676944,-4441.235652,12435.459826
1723.710598,7584.345430,-0.000000,7698.141797
1723.710915,8580.269578,-148.041188,9918.759623
1723.711233,9422.974625,-148.041188,10140.821405
1723.711550,11644.651570,5847.626942,5403.503377
1723.711867,11568.042020,11177.109724,222.061783
1723.712185,6971.469032,7402.059420,-6439.791695
1723.712502,1072.533697,2368.659014,1702.473667
1723.712819,-4136.915689,-518.144159,11769.274478
1723.713137,-4366.744339,4737.318029,5403.503377
1723.713454,-4443.353888,2294.638420,4293.194464
1723.713771,-5745.716235,-6957.935855,16580.613101
1723.714088,-9346.365076,-12583.501014,17024.736666
1723.714406,-9806.022374,-7772.162391,18949.272115
1723.714723,-8963.317327,-7772.162391,23908.651927
1723.715040,-4979.620737,-3775.050304,20725.766376
1723.715358,3370.820191,1998.556043,15988.448347
1723.715675,6435.202183,7476.080014,10807.006753
1723.715992,8427.050478,5699.585753,6661.853478
1723.716310,13330.061665,1110.308913,6513.812290
1723.716627,13176.842566,2590.720797,4145.153275
1723.716944,14709.033562,5255.462188,296.082377
1723.717261,10725.336972,8734.430116,-9696.697840
1723.717579,4903.011187,3849.070898,-8364.327145
1723.717896,-2298.286494,-5847.626942,6661.853478
1723.718213,-9882.631924,-666.185348,6143.709319
1723.718530,-10878.556072,5551.544565,-148.041188
1723.718848,-8427.050478,592.164754,9030.512492
1723.719165,-10112.460574,-13693.809927,18949.272115
1723.719482,-13100.233016,-17172.777854,17690.922014
1723.719800,-13483.280765,-13249.686362,21391.951724
1723.720117,-10189.070123,-10066.800811,25463.084405
1723.720434,-1302.362347,-4441.235652,25315.043216
1723.720751,5745.716235,8808.450710,14656.077652
1723.721069,10572.117872,12139.377449,8882.471304
1723.721386,11491.432470,12583.501014,6661.853478
1723.721703,17237.148705,6365.771101,12583.501014
1723.722020,20071.702048,7846.182985,6735.874072
1723.722338,18999.168350,14878.139434,-7328.038826
1723.722655,17773.415554,12213.398043,-11251.130318
1723.722972,10495.508323,1776.494261,-10214.842000
1723.723289,3753.867940,-4589.276840,814.226536
1723.723607,-766.095498,-4145.153275,7920.203579
1723.723924,-5669.106685,1110.308913,-3108.864956
1723.724241,-5975.544884,-5403.503377,2738.761985
1723.724558,-8733.488677,-15248.242405,16580.613101
1723.724876,-14249.376263,-21095.869347,22946.384202
1723.725193,-17160.539155,-19689.478057,20873.807564
1723.725510,-16547.662757,-17098.757260,25092.981434
1723.725827,-8963.317327,-9844.739029,30940.608376
1723.726145,-229.828649,3701.029710,22354.219448
1723.726462,3600.648841,15840.407159,11621.233289
1723.726779,8580.269578,15100.201217,12435.459826
1723.727096,11414.822920,12731.542202,14211.954086
1723.727414,16777.491406,13693.809927,13101.645173
1723.727731,16854.100956,23316.487173,1406.391290
1723.728048,19841.873398,21391.951724,-6809.894666
1723.728365,15934.786358,12731.542202,-12879.583391
1723.728683,13483.280765,4663.297435,-5329.482782
1723.729000,2681.334243,3330.926739,-9104.533087
1723.729317,-1532.190996,370.102971,-2590.720797
1723.729634,-7124.688131,-11547.212695,6883.915261
1723.729952,-12257.527968,-8808.450710,9252.574275
1723.730269,-14096.157163,-18135.045579,16950.716072
1723.730586,-28039.095227,-27609.681637,20207.622217
1723.730904,-29801.114872,-30644.525999,32272.979071
1723.731221,-23059.474490,-20799.786970,36048.029375
1723.731538,-14938.862211,-8882.471304,29386.175897
1723.731855,-7354.516781,518.144159,18801.230927
1723.732173,1838.629195,11473.192101,16728.654289
1723.732490,7660.954980,14656.077652,16580.613101
1723.732807,13406.671215,16062.468941,16728.654289
1723.733124,16700.881856,24648.857869,3627.009116
1723.733442,20607.968896,34863.699868,-8512.368333
1723.733759,26277.075581,24056.693115,-370.102971
1723.734076,22753.036291,17764.942608,-10140.821405
1723.734393,21680.502593,16284.530724,-14434.015869
1723.734711,15934.786358,7402.059420,-17468.860231
1723.735028,-383.047749,-3182.885551,-19837.519246
1723.735345,4903.011187,-16580.613101,32865.143825
1723.735662,-11874.480219,-12361.439231,5181.441594
1723.735980,-12947.013916,-25092.981434,11399.171507
1723.736297,-26966.561530,-33679.370361,21243.910535
1723.736614,-33018.715964,-30200.402434,37898.544230
1723.736931,-27732.657028,-32791.123231,38860.811955
1723.737249,-21833.721693,-13397.727550,27831.743419
1723.737566,-15858.176809,-7476.080014,27979.784608
1723.737883,-3447.429741,9474.636058,26055.249158
1723.738200,4443.353888,17320.819043,12435.459826
1723.738518,18309.682402,19023.292709,14211.954086
1723.738835,16164.615008,28423.908173,-2960.823768
1723.739152,29801.114872,30570.505405,-5921.647536
1723.739469,34474.297410,27535.661042,-12731.542202
1723.739787,32022.791816,23464.528361,-16950.716072
1723.740104,31639.744067,10140.821405,-12287.418637
1723.740421,15245.300410,7179.997637,-21614.013506
1723.740738,14019.547613,-5107.421000,-11769.274478
1723.741056,-1225.752797,-888.247130,-7328.038826
1723.741373,-2757.943793,-15692.365970,36196.070564
1723.741690,-17313.758255,-26795.455100,18801.230927
1723.742007,-22906.255390,-30126.381839,15692.365970
1723.742325,-27809.266577,-32495.040854,33235.246796
1723.742642,-30567.210370,-28868.031738,43302.047607
1723.742959,-23978.789087,-30348.443622,29608.237680
1723.743277,-14402.595362,-7402.059420,19911.539840
1723.743594,-10189.070123,5403.503377,18949.272115
1723.743911,2987.772442,19467.416275,13397.727550
1723.744228,10955.165621,20799.786970,2960.823768
1723.744546,18309.682402,20725.766376,5403.503377
1723.744863,23595.741338,23316.487173,-8142.265362
1723.745180,28498.752526,25981.228564,-21910.095883
1723.745497,26813.342430,12953.603985,-11399.171507
1723.745815,24974.713235,2368.659014,-1110.308913
1723.746132,11874.480219,5551.544565,-20651.745782
1723.746449,10112.460574,1258.350101,-5699.585753
1723.746766,-4060.306139,-6809.894666,16802.674883
1723.747084,-5286.058936,-12361.439231,21095.869347
1723.747401,-15934.786358,-19393.395680,17394.839637
1723.747718,-18309.682402,-17764.942608,22872.363608
1723.748035,-24591.665486,-19689.478057,30644.525999
1723.748353,-21986.940793,-23612.569550,36418.132346
1723.748670,-19535.435199,-16136.489536,22354.219448
1723.748987,-8963.317327,1628.453072,15544.324782
1723.749304,-3524.039291,11547.212695,10362.883188
1723.749622,3983.696590,17838.963202,5255.462188
1723.749939,14555.814462,13915.871710,5477.523971
1723.750256,17390.367805,14804.118840,5477.523971
1723.750573,19688.654299,18801.230927,-9770.718434
1723.750891,18692.730151,16210.510130,-14434.015869
1723.751208,17237.148705,8142.265362,-3997.112087
1723.751525,9039.926876,-0.000000,3849.070898
1723.751842,3600.648841,-2146.597232,4071.132681
1723.752160,-3294.210641,-3552.988522,8438.347739
1723.752477,-8963.317327,-7772.162391,17468.860231
1723.752794,-11644.651570,-14804.118840,21317.931130
1723.753111,-12947.013916,-12879.583391,21614.013506
1723.753429,-14632.424012,-10288.862594,16062.468941
1723.753746,-13176.842566,-8142.265362,22206.178260
1723.754063,-7201.297681,3182.885551,21021.848753
1723.754381,2374.896044,9474.636058,10362.883188
1723.754698,6511.811733,13471.748144,2516.700203
1723.755015,6281.983084,8956.491898,5551.544565
1723.755332,7277.907231,2590.720797,8586.388927
1723.755650,12257.527968,4219.173869,6587.832884
1723.755967,11797.870669,4737.318029,2072.576638
1723.756284,8733.488677,3182.885551,-148.041188
1723.756601,5056.230287,3256.906145,444.123565
1723.756919,2757.943793,-444.123565,9178.553681
1723.757236,-2681.334243,-2442.679609,12361.439231
1723.757553,-6971.469032,-148.041188,10214.842000
1723.757870,-7431.126331,740.205942,13323.706956
1723.758188,-7584.345430,-2960.823768,14952.160028
1723.758505,-7967.393179,-6661.853478,17172.777854
1723.758822,-8810.098227,-6291.750507,20651.745782
1723.759139,-7354.516781,-4367.215058,21243.910535
1723.759457,766.095498,2220.617826,13397.727550
1723.759774,8733.488677,6735.874072,12287.418637
1723.760091,9652.803275,5403.503377,7846.182985
1723.760408,13483.280765,2368.659014,6587.832884
1723.760726,13176.842566,2738.761985,592.164754
1723.761043,13330.061665,-0.000000,5255.462188
1723.761360,11951.089769,-74.020594,3182.885551
1723.761677,5286.058936,6217.729913,-8586.388927
1723.761995,2528.115143,962.267725,1480.411884
1723.762312,-4060.306139,-2442.679609,12509.480420
1723.762629,-9269.755526,-2146.597232,13545.768739
1723.762946,-8580.269578,-1184.329507,9992.780217
1723.763264,-8350.440928,-5551.544565,12287.418637
1723.763581,-10648.727422,-10140.821405,15322.262999
1723.763898,-8580.269578,-9104.533087,19319.375086
1723.764215,-8656.879127,-5551.544565,17912.983796
1723.764533,-2834.553343,-1110.308913,20281.642811
1723.764850,3907.087040,6661.853478,11177.109724
1723.765167,10495.508323,7105.977043,13249.686362
1723.765484,11721.261119,8512.368333,7846.182985
1723.765802,14096.157163,3330.926739,1628.453072
1723.766119,11951.089769,-592.164754,740.205942
1723.766436,11414.822920,-3775.050304,3775.050304
1723.766754,7967.393179,2516.700203,-814.226536
1723.767071,3600.648841,2442.679609,-9918.759623
1723.767388,-1991.848295,-4589.276840,740.205942
1723.767705,-10648.727422,-4885.359217,9252.574275
1723.768023,-11031.775171,1110.308913,9770.718434
1723.768340,-9269.755526,518.144159,7772.162391
1723.768657,-9806.022374,-8956.491898,8882.471304
1723.768974,-12104.308868,-14582.057057,17690.922014
1723.769292,-12563.966167,-12213.398043,23020.404796
1723.769609,-9806.022374,-7254.018232,17098.757260
1723.769926,-2911.162892,-814.226536,16580.613101
1723.770243,4443.353888,6735.874072,19615.457463
1723.770561,8580.269578,11621.233289,8142.265362
1723.770878,14402.595362,11843.295072,5181.441594
1723.771195,13559.890315,7328.038826,7031.956449
1723.771512,12257.527968,-148.041188,7846.182985
1723.771830,12257.527968,3849.070898,-370.102971
1723.772147,8427.050478,11769.274478,-7402.059420
1723.772464,4519.963438,2442.679609,-7550.100608
1723.772781,-1608.800546,-7624.121203,6143.709319
1723.773099,-6894.859482,-8142.265362,15470.304188
1723.773416,-9882.631924,1258.350101,4515.256246
1723.773733,-7507.735880,-1924.535449,7624.121203
1723.774050,-8580.269578,-13101.645173,20059.581028
1723.774368,-11644.651570,-17024.736666,19245.354492
1723.774685,-9499.584175,-11843.295072,21984.116477
1723.775002,-9576.193725,-6883.915261,18357.107362
1723.775319,383.047749,2220.617826,19615.457463
1723.775637,12027.699319,9622.677246,17987.004391
1723.775954,12410.747068,16580.613101,2812.782580
1723.776271,14785.643111,13693.809927,5033.400406
1723.776588,14096.157163,7254.018232,8956.491898
1723.776906,14249.376263,2220.617826,11103.089130
1723.777223,12487.356617,6439.791695,444.123565
1723.777540,9499.584175,11473.192101,-5551.544565
1723.777858,2681.334243,2590.720797,-5255.462188
1723.778175,-3294.210641,-5699.585753,7772.162391
1723.778492,-6588.421283,-7328.038826,18061.024985
1723.778809,-11261.603821,3330.926739,4441.235652
1723.779127,-6741.640382,-3849.070898,12509.480420
1723.779444,-8810.098227,-11769.274478,22132.157666
1723.779761,-10572.117872,-14952.160028,21317.931130
1723.780078,-9806.022374,-6587.832884,16580.613101
1723.780396,-6281.983084,-5403.503377,20059.581028
1723.780713,1149.143247,4071.132681,17024.736666
1723.781030,13253.452115,11621.233289,14211.954086
1723.781347,13253.452115,18283.086767,1776.494261
1723.781665,16011.395908,14211.954086,3849.070898
1723.781982,15321.909960,5329.482782,5995.668130
1723.782299,14402.595362,814.226536,5107.421000
1723.782616,13176.842566,7179.997637,-3108.864956
1723.782934,8044.002729,9252.574275,-8734.430116
1723.783251,919.314598,-1036.288319,-4293.194464
1723.783568,-5132.839837,-6883.915261,11103.089130
1723.783885,-9729.412825,-6365.771101,16654.633695
1723.784203,-14019.547613,3478.967927,3330.926739
1723.784520,-8197.221829,-8364.327145,12953.603985
1723.784837,-13942.938064,-11547.212695,14285.974681
1723.785154,-10955.165621,-20059.581028,26795.455100
1723.785472,-15092.081311,-11473.192101,18061.024985
1723.785789,-9193.145976,-4663.297435,21095.869347
1723.786106,-229.828649,6143.709319,19911.539840
1723.786423,9039.926876,13841.851115,9770.718434
1723.786741,11184.994271,17172.777854,5107.421000
1723.787058,13176.842566,10955.047942,7476.080014
1723.787375,14862.252661,2590.720797,13397.727550
1723.787692,13330.061665,4071.132681,3330.926739
1723.788010,13942.938064,11399.171507,-2442.679609
1723.788327,11184.994271,9326.594869,-12213.398043
1723.788644,4903.011187,-962.267725,-9770.718434
1723.788961,-2834.553343,-7550.100608,8882.471304
1723.789279,-10112.460574,-5773.606348,13693.809927
1723.789596,-11568.042020,1184.329507,222.061783
1723.789913,-7967.393179,-4515.256246,7476.080014
1723.790231,-13330.061665,-14137.933492,16136.489536
1723.790548,-16547.662757,-23242.466579,22058.137072
1723.790865,-21603.893044,-20133.601622,19097.313304
1723.791182,-15321.909960,-16950.716072,28053.805202
1723.791500,-2374.896044,-1924.535449,26055.249158
1723.791817,9116.536426,9622.677246,19393.395680
1723.792134,10495.508323,16876.695478,6957.935855
1723.792451,12870.404366,16062.468941,7476.080014
1723.792769,19152.387450,9474.636058,16062.468941
1723.793086,20531.359346,11695.253884,3775.050304
1723.793403,23519.131789,20577.725188,-6439.791695
1723.793720,23595.741338,18949.272115,-13397.727550
1723.794038,18616.120601,6513.812290,-10807.006753
1723.794355,11108.384721,-592.164754,-7105.977043
1723.794672,-229.828649,-888.247130,-2294.638420
1723.794989,-3524.039291,-296.082377,3997.112087
1723.795307,-8350.440928,-5107.421000,6587.832884
1723.795624,-12257.527968,-8882.471304,6069.688724
1723.795941,-19305.606550,-22280.198854,16358.551318
1723.796258,-30797.039020,-30792.567187,26277.310941
1723.796576,-30567.210370,-34049.473332,36492.152941
1723.796893,-23442.522239,-18801.230927,31606.793723
1723.797210,-13559.890315,-8068.244768,29460.196492
1723.797527,-5439.278036,6069.688724,19615.457463
1723.797845,4519.963438,10510.924376,20873.807564
1723.798162,9193.145976,6883.915261,21836.075289
1723.798479,14096.157163,13397.727550,17320.819043
1723.798796,19228.997000,28571.949361,-1480.411884
1723.799114,27579.437928,36122.049970,-1776.494261
1723.799431,38611.213099,24796.899057,-6217.729913
1723.799748,35853.269306,22946.384202,-16876.695478
1723.800065,31333.305868,16728.654289,-14137.933492
1723.800383,19305.606550,8142.265362,-17394.839637
1723.800700,12563.966167,6365.771101,-23908.651927
1723.801017,1991.848295,370.102971,-6513.812290
1723.801335,-5669.106685,-13027.624579,16950.716072
1723.801652,-25587.589633,-17690.922014,222.061783
1723.801969,-32022.791816,-29238.134709,18061.024985
1723.802286,-47344.701776,-38046.585419,29608.237680
1723.802604,-42441.690589,-40489.265027,48927.612766
1723.802921,-38228.165350,-32865.143825,42635.862259
1723.803238,-34321.078310,-16284.530724,33827.411549
1723.803555,-22446.598091,-9474.636058,40193.182651
1723.803873,-11261.603821,5033.400406,22058.137072
1723.804190,11108.384721,10881.027347,19171.333898
1723.804507,15551.738609,11769.274478,40267.203245
1723.804824,24208.617737,39230.914926,-1036.288319
1723.805142,31792.963167,46632.974346,-23168.445985
1723.805459,51328.398366,41747.615129,11251.130318
1723.805776,49719.597820,30718.546593,-10510.924376
1723.806093,62590.002187,22798.343014,-12657.521608
1723.806411,56231.409553,23316.487173,-21539.992912
1723.806728,45965.729880,15692.365970,-19689.478057
1723.807045,46578.606278,5847.626942,-10362.883188
1723.807362,37385.460302,10436.903782,-9400.615463
1723.807680,28039.095227,-8512.368333,3108.864956
1723.807997,4903.011187,-6661.853478,6291.750507
1723.808314,1455.581446,-6809.894666,35899.988187
1723.808631,3753.867940,-10584.944971,30792.567187
1723.808949,9499.584175,-1998.556043,22502.260637
1723.809266,10801.946522,10807.006753,26499.372724
1723.809583,5898.935335,24870.919651,1702.473667
1723.809900,6281.983084,18061.024985,-5107.421000
1723.810218,12027.699319,29904.320057,-4885.359217
1723.810535,12257.527968,35751.946999,-13323.706956
1723.810852,18769.339701,38120.606013,-24130.713709
1723.811169,9959.241474,29830.299463,-21614.013506
1723.811487,2528.115143,9770.718434,2442.679609
1723.811804,-15398.519510,-7179.997637,7031.956449
1723.812121,-25281.151434,-16284.530724,12953.603985
1723.812438,-42135.252390,-15100.201217,9548.656652
1723.812756,-44969.805733,-3478.967927,23168.445985
1723.813073,-47497.920876,8438.347739,16580.613101
1723.813390,-48417.235474,7994.224174,10732.986159
1723.813708,-44663.367533,-10807.006753,30348.443622
1723.814025,-49872.816920,-19393.395680,31902.876100
1723.814342,-48340.625924,-21021.848753,36714.214723
1723.814659,-50792.131517,-13249.686362,28794.011144
1723.814977,-43590.833836,-10288.862594,29608.237680
1723.815294,-35853.269306,-12805.562797,28349.887579
1723.815611,-25204.541884,-4737.318029,23168.445985
1723.815928,-8656.879127,-74.020594,17468.860231
1723.816246,842.705048,-0.000000,23982.672521
1723.816563,15475.129060,-10881.027347,41303.491564
1723.816880,23595.741338,4737.318029,15618.345376
1723.817197,28958.409824,13249.686362,1184.329507
1723.817515,36772.583904,-9844.739029,30792.567187
1723.817832,49030.111872,-18283.086767,38786.791361
1723.818146,54392.780358,1776.494261,19541.436869
1723.818464,57227.333701,19615.457463,8068.244768
1723.818781,59678.839294,29978.340651,-222.061783
1723.819098,64811.679131,25611.125593,-8512.368333
1723.819416,64581.850481,16136.489536,-3997.112087
1723.819733,56231.409553,10807.006753,-10362.883188
1723.820050,47880.968625,12509.480420,-17172.777854
1723.820368,46118.948980,12065.356855,-8290.306550
1723.820685,49872.816920,6883.915261,5921.647536
1723.821003,46961.654027,10066.800811,-1998.556043
1723.821320,39683.746796,17468.860231,-8068.244768
1723.821637,23748.960438,18949.272115,-19911.539840
1723.821955,8810.098227,4811.338623,-13619.789333
1723.822272,1915.238745,-1258.350101,-4293.194464
1723.822590,-7124.688131,3034.844362,-2516.700203
1723.822907,-15628.348159,-1702.473667,-5329.482782
1723.823224,-29264.848024,-4737.318029,-9178.553681
1723.823542,-38381.384450,-23464.528361,8808.450710
1723.823859,-49566.378721,-23020.404796,20947.828159
1723.824176,-52017.884314,-10955.047942,18357.107362
1723.824494,-53243.637111,7402.059420,5033.400406
1723.824811,-51328.398366,19393.395680,-7254.018232
1723.825129,-42901.347888,8290.306550,3997.112087
1723.825446,-44050.491135,-9104.533087,16728.654289
1723.825763,-44893.196183,-22650.301825,30792.567187
1723.826081,-47114.873127,-19171.333898,27313.599260
1723.826398,-42288.471490,-10362.883188,17320.819043
1723.826716,-32099.401366,-5107.421000,20059.581028
1723.827033,-25664.199183,-4145.153275,19023.292709
1723.827350,-22369.988542,-5625.565159,13545.768739
1723.827668,-18386.291952,-11103.089130,16654.633695
1723.827985,-14249.376263,-12213.398043,16062.468941
1723.828302,-2451.505594,-12287.418637,21762.054695
1723.828620,3447.429741,-6809.894666,8142.265362
1723.828937,4443.353888,-16950.716072,5107.421000
1723.829255,10418.898773,-29978.340651,29904.320057
1723.829572,20224.921147,-31162.670158,41895.656317
1723.829889,25664.199183,-6365.771101,15470.304188
1723.830207,36389.536155,11695.253884,5921.647536
1723.830524,53013.808462,7550.100608,28201.846390
1723.830842,57763.600549,9844.739029,7550.100608
1723.831159,64045.583633,9400.615463,15174.221811
1723.831476,60444.934792,22872.363608,9548.656652
1723.831794,54852.437657,27387.619854,4367.215058
1723.832111,55924.971354,21317.931130,-3627.009116
1723.832428,51711.446115,32939.164419,-10658.965565
1723.832746,46425.387179,38342.667796,-17987.004391
1723.833063,32329.230016,30200.402434,-34789.679274
1723.833381,17850.025103,10288.862594,-32939.164419
1723.833698,10801.946522,-5403.503377,2590.720797
1723.834015,-6052.154434,-5181.441594,-6291.750507
1723.834333,-16164.615008,-19171.333898,7920.203579
1723.834650,-39530.527697,-30052.361245,10140.821405
1723.834968,-51558.227015,-34641.638086,24648.857869
1723.835285,-58606.305597,-28794.011144,32198.958477
1723.835602,-64581.850481,-13175.665768,16654.633695
1723.835920,-57763.600549,-8290.306550,24796.899057
1723.836237,-47114.873127,1628.453072,28423.908173
1723.836555,-41905.423741,10288.862594,19911.539840
1723.836872,-31256.696318,12805.562797,21095.869347
1723.837189,-29418.067123,11843.295072,9030.512492
1723.837507,-21680.502593,12139.377449,7476.080014
1723.837824,-10418.898773,14211.954086,8956.491898
1723.838141,766.095498,10658.965565,9918.759623
1723.838459,14249.376263,9326.594869,6661.853478
1723.838776,19995.092498,8364.327145,11473.192101
1723.839094,28651.971625,6735.874072,16728.654289
1723.839411,32405.839565,3627.009116,24278.754898
1723.839728,34397.687860,-4737.318029,27979.784608
1723.840046,34933.954709,-5773.606348,29460.196492
1723.840363,28345.533426,6661.853478,13915.871710
1723.840681,32712.277765,15988.448347,4515.256246
1723.840998,45889.120330,14878.139434,-6217.729913
1723.841315,57074.114601,19689.478057,-17098.757260
1723.841633,60444.934792,17690.922014,-16358.551318
1723.841950,59219.181995,16728.654289,-10436.903782
1723.842267,58453.086497,7105.977043,11843.295072
1723.842585,48264.016374,5921.647536,17616.901420
1723.842902,36312.926605,10214.842000,17542.880825
1723.843220,24821.494135,19393.395680,10510.924376
1723.843537,13406.671215,24722.878463,-4219.173869
1723.843854,5209.449386,12731.542202,1036.288319
1723.844172,383.047749,9992.780217,10584.944971
1723.844489,-5209.449386,14137.933492,6735.874072
1723.844807,-15398.519510,8364.327145,-1998.556043
1723.845124,-25281.151434,-7105.977043,6957.935855
1723.845441,-36312.926605,-18209.066173,22650.301825
1723.845759,-49872.816920,-19097.313304,26055.249158
1723.846076,-57380.552800,-14359.995275,17764.942608
1723.846393,-60138.496593,222.061783,5847.626942
1723.846711,-51251.788816,10214.842000,12583.501014
1723.847028,-44969.805733,15544.324782,9030.512492
1723.847346,-46195.558529,6513.812290,7772.162391
1723.847663,-52017.884314,-3034.844362,12213.398043
1723.847980,-55158.875856,-19763.498651,23168.445985
1723.848298,-54929.047207,-18949.272115,20355.663405
1723.848615,-48723.673673,-9622.677246,14285.974681
1723.848933,-45659.291681,-12879.583391,9474.636058
1723.849250,-35163.783358,-9252.574275,7476.080014
1723.849567,-24361.836836,-10658.965565,19763.498651
1723.849885,-15245.300410,-8586.388927,16210.510130
1723.850202,-8886.707777,-15396.283594,12657.521608
1723.850519,-4443.353888,-19985.560434,15174.221811
1723.850837,-6281.983084,-20429.683999,4885.359217
1723.851154,-8733.488677,-28349.887579,296.082377
1723.851472,-1378.971896,-39452.976709,23908.651927
1723.851789,5362.668486,-34641.638086,24204.734303
1723.852106,13253.452115,-24130.713709,17468.860231
1723.852424,27502.828378,-18505.148550,11843.295072
1723.852741,38074.946251,-22428.240043,19985.560434
1723.853059,37308.850753,-32421.020260,20355.663405
1723.853376,42058.642840,-34345.555709,33235.246796
1723.853693,45123.024832,-22650.301825,26869.475695
1723.854011,53626.684860,-9104.533087,18579.169144
1723.854328,62206.954438,-0.000000,20651.745782
1723.854645,72549.243661,14582.057057,15470.304188
1723.854963,75996.673402,25092.981434,-1850.514855
1723.855280,76073.282951,31014.628970,-11695.253884
1723.855598,72166.195912,37306.379477,-19023.292709
1723.855915,75307.187453,35307.823433,-30052.361245
1723.856232,64735.069581,36270.091158,-52036.477723
1723.856550,52630.760713,21614.013506,-51962.457128
1723.856867,32252.620466,7105.977043,-36418.132346
1723.857185,17390.367805,-4071.132681,-21910.095883
1723.857502,3907.087040,-16654.633695,-27165.558071
1723.857819,-8656.879127,-20873.807564,-12065.356855
1723.858137,-25434.370534,-36196.070564,15174.221811
1723.858454,-34933.954709,-30496.484810,27535.661042
1723.858771,-55005.656756,-19911.539840,6513.812290
1723.859089,-64198.802732,-19911.539840,22280.198854
1723.859406,-65884.212828,-32939.164419,46855.036129
1723.859724,-60751.372991,-19837.519246,39008.853143
1723.860041,-52017.884314,3997.112087,24574.837274
1723.860358,-39224.089498,21317.931130,10732.986159
1723.860676,-33554.982812,20873.807564,4219.173869
1723.860993,-24132.008187,18431.127956,6661.853478
1723.861311,-22293.378992,13989.892304,3330.926739
1723.861628,-13942.938064,17098.757260,7105.977043
1723.861945,-11568.042020,15618.345376,-6365.771101
1723.862263,229.828649,8290.306550,17912.983796
1723.862580,6818.249932,7254.018232,26203.290347
1723.862897,16011.395908,3330.926739,28423.908173
1723.863215,24898.103685,-6217.729913,27683.702231
1723.863532,23902.179538,4071.132681,19763.498651
1723.863850,25970.637382,7179.997637,21836.075289
1723.864167,26889.951980,18653.189738,18949.272115
1723.864484,33631.592362,24648.857869,2812.782580
1723.864802,40220.013645,37824.523636,-20133.601622
1723.865119,41982.033290,33901.432144,-23538.548956
1723.865437,46195.558529,23316.487173,-12583.501014
1723.865754,46501.996729,11029.068536,-1628.453072
1723.866071,37998.336701,9770.718434,9696.697840
1723.866389,32712.277765,16580.613101,25241.022622
1723.866706,29954.333972,27757.722825,23390.507767
1723.867024,18079.853753,29460.196492,15544.324782
1723.867341,6358.592633,26573.393318,13545.768739
1723.867658,-2451.505594,27757.722825,9918.759623
1723.867976,-2374.896044,29016.072926,5033.400406
1723.868293,0.000000,26203.290347,7698.141797
1723.868610,-7354.516781,15174.221811,9178.553681
1723.868928,-19075.777900,-370.102971,18727.210333
1723.869245,-29801.114872,-13471.748144,34271.535115
1723.869563,-36159.707506,-16654.633695,44116.274143
1723.869880,-38764.432199,-8808.450710,34123.493926
1723.870197,-36466.145705,518.144159,22280.198854
1723.870515,-28268.923876,9178.553681,22206.178260
1723.870832,-17160.539155,10955.047942,27313.599260
1723.871150,-13253.452115,7031.956449,28571.949361
1723.871467,-12027.699319,4811.338623,20059.581028
1723.871784,-8503.660028,9474.636058,4219.173869
1723.872102,153.219100,11843.295072,1776.494261
1723.872419,11644.651570,2960.823768,10955.047942
1723.872736,20684.578446,814.226536,12139.377449
1723.873054,28958.409824,-3330.926739,3478.967927
1723.873371,38917.651298,-2294.638420,10214.842000
1723.873689,39530.527697,814.226536,9252.574275
1723.874006,31103.477219,4811.338623,0.000000
1723.874323,19918.482948,4219.173869,-9696.697840
1723.874641,12717.185267,8808.450710,-14508.036463
1723.874958,4903.011187,3108.864956,-9918.759623
1723.875276,-3064.381992,-15100.201217,-2220.617826
1723.875593,-306.438199,-28053.805202,19911.539840
1723.875910,-4903.011187,-21243.910535,13027.624579
1723.876228,-8886.707777,-21614.013506,8364.327145
1723.876545,-11261.603821,-20355.663405,24500.816680
1723.876862,-11338.213370,-19023.292709,29682.258274
1723.877180,-14172.766713,-27535.661042,27091.537477
1723.877497,-8044.002729,-26869.475695,31236.690752
1723.877815,2911.162892,-7772.162391,26499.372724
1723.878132,6511.811733,7920.203579,-1480.411884
1723.878449,11644.651570,6957.935855,1998.556043
1723.878767,16547.662757,13915.871710,518.144159
1723.879084,23059.474490,17172.777854,2664.741391
1723.879402,33095.325514,21614.013506,-15840.407159
1723.879719,29188.238474,15840.407159,-28127.825796
1723.880036,30337.381721,222.061783,-12879.583391
1723.880354,27426.218828,-6365.771101,-12509.480420
1723.880671,17083.929605,-4737.318029,-31754.834912
1723.880988,9269.755526,-4663.297435,-35159.782245
1723.881306,4596.572988,-2368.659014,-21614.013506
1723.881623,-8273.831378,-20059.581028,-2886.803174
1723.881941,-7660.954980,-20429.683999,9918.759623
1723.882258,-30030.943522,-28275.866984,2146.597232
1723.882575,-38534.603549,-34567.617491,21391.951724
1723.882893,-49030.111872,-38194.626607,16580.613101
1723.883210,-45812.510780,-27683.702231,34123.493926
1723.883528,-42518.300139,-27165.558071,33605.349767
1723.883845,-38534.603549,-13101.645173,28868.031738
1723.884162,-30873.648569,-9326.594869,28645.969955
1723.884480,-17696.806004,-1184.329507,30422.464216
1723.884797,-5439.278036,6217.729913,10510.924376
1723.885114,1072.533697,14878.139434,-2294.638420
1723.885432,9576.193725,9178.553681,16432.571912
1723.885749,14555.814462,10881.027347,17394.839637
1723.886067,29418.067123,30718.546593,7698.141797
1723.886384,36849.193454,31976.896694,-2590.720797
1723.886701,39990.184996,31976.896694,-8586.388927
1723.887019,41982.033290,15914.427753,-7772.162391
1723.887336,34321.078310,27461.640448,-22724.322419
1723.887654,18539.511052,18357.107362,-39082.873738
1723.887971,9039.926876,2664.741391,-16580.613101
1723.888288,3447.429741,-17987.004391,28275.866984
1723.888606,-3064.381992,-24352.775492,16802.674883
1723.888923,-20224.921147,-32495.040854,9178.553681
1723.889240,-29188.238474,-29312.155303,31310.711347
1723.889558,-26966.561530,-25463.084405,38638.750172
1723.889875,-26966.561530,-22354.219448,44634.418303
1723.890193,-19228.997000,-14137.933492,48927.612766
1723.890510,-19152.387450,7624.121203,26943.496289
1723.890827,-8886.707777,23760.610738,22872.363608
1723.891145,1762.019645,36788.235317,18653.189738
1723.891462,21144.235745,35381.844028,13471.748144
1723.891780,28881.800275,35307.823433,5551.544565
1723.892097,36772.583904,43450.088795,1998.556043
1723.892414,44050.491135,40489.265027,1480.411884
1723.892732,43514.224286,32791.123231,7920.203579
1723.893049,37921.727151,13989.892304,15100.201217
1723.893366,21757.112143,19541.436869,3034.844362
1723.893684,12563.966167,24352.775492,-7772.162391
1723.894001,-2528.115143,24648.857869,-23242.466579
1723.894319,-10878.556072,-6587.832884,10584.944971
1723.894636,-19765.263848,-19615.457463,21391.951724
1723.894953,-23365.912689,-34641.638086,26425.352129
1723.895271,-26736.732880,-33457.308578,24944.940245
1723.895588,-42594.909689,-32495.040854,19319.375086
1723.895906,-48800.283223,-46929.056723,37528.441259
1723.896223,-49183.330972,-39823.079680,39971.120868
1723.896540,-44356.929334,-23094.425390,31310.711347
1723.896858,-36619.364804,-8364.327145,28423.908173
1723.897175,-17313.758255,2738.761985,34345.555709
1723.897492,-3600.648841,5477.523971,7698.141797
1723.897810,12334.137518,7772.162391,12065.356855
1723.898127,11568.042020,7994.224174,27091.537477
1723.898445,12027.699319,19467.416275,222.061783
1723.898762,18156.463303,31680.814318,-11843.295072
1723.899079,42977.957438,26351.331535,16062.468941
1723.899397,44280.319784,29904.320057,-12583.501014
1723.899714,53167.027561,24648.857869,-7179.997637
1723.900032,50715.521968,22280.198854,-1184.329507
1723.900349,36925.803004,11843.295072,-12139.377449
1723.900666,29494.676673,11325.150913,-19467.416275
1723.900984,18309.682402,15174.221811,-33013.185013
1723.901301,6894.859482,-12139.377449,-19689.478057
1723.901619,-13100.233016,-30126.381839,-5551.544565
1723.901936,-7277.907231,-25759.166782,9844.739029
1723.902253,-17466.977354,-24796.899057,2886.803174
1723.902571,-20991.016645,-27683.702231,6217.729913
1723.902888,-30643.819920,-35529.885216,25981.228564
1723.903205,-34857.345159,-28868.031738,37158.338288
1723.903523,-41828.814191,-30496.484810,15100.201217
1723.903840,-34321.078310,-18801.230927,22798.343014
1723.904158,-22063.550342,-6291.750507,32495.040854
1723.904475,153.219100,9992.780217,20133.601622
1723.904792,3217.601092,1924.535449,-8882.471304
1723.905110,15092.081311,10510.924376,17394.839637
1723.905427,3983.696590,10288.862594,7328.038826
1723.905745,13483.280765,11399.171507,9696.697840
1723.906062,24974.713235,4885.359217,-6217.729913
1723.906379,38611.213099,17024.736666,962.267725
1723.906697,37921.727151,10066.800811,-9548.656652
1723.907014,34933.954709,7179.997637,0.000000
1723.907331,32405.839565,9104.533087,-7402.059420
1723.907649,28268.923876,12731.542202,-12953.603985
1723.907966,15858.176809,10066.800811,-23908.651927
1723.908284,612.876398,-4515.256246,-17912.983796
1723.908601,-23136.084040,-27757.722825,518.144159
1723.908918,-15628.348159,-33457.308578,27609.681637
1723.909236,-24515.055936,-24352.775492,12065.356855
1723.909553,-19612.044749,-36936.276506,25537.104999
1723.909871,-24515.055936,-42783.903448,42635.862259
1723.910188,-28192.314326,-24574.837274,43079.985824
1723.910505,-25434.370534,-14285.974681,30052.361245
1723.910823,-21757.112143,-2590.720797,20429.683999
1723.911140,-3524.039291,17542.880825,25018.960840
1723.911457,7048.078582,36566.173535,29460.196492
1723.911775,19458.825649,46706.994940,-9252.574275
1723.912092,28192.314326,48409.468607,-9400.615463
1723.912410,40986.109143,41969.676911,10658.965565
1723.912727,37998.336701,41747.615129,-9252.574275
1723.913044,41675.595091,38194.626607,-9252.574275
1723.913362,31869.572717,28571.949361,-3997.112087
1723.913679,27043.171079,14359.995275,4071.132681
1723.913997,10342.289223,13323.706956,-22058.137072
1723.914314,-919.314598,2812.782580,-8068.244768
1723.914631,-10342.289223,-14508.036463,18579.169144
1723.914949,-23212.693589,-23538.548956,20577.725188
1723.915266,-29418.067123,-25981.228564,15618.345376
1723.915583,-48187.406824,-35085.761651,17690.922014
1723.915901,-56691.066852,-43968.232955,40489.265027
1723.916218,-61823.906689,-30570.505405,23316.487173
1723.916536,-61287.639840,-10881.027347,12509.480420
1723.916853,-55005.656756,-13397.727550,23834.631332
1723.917170,-52477.541613,-5699.585753,24648.857869
1723.917488,-44127.100685,-10214.842000,25759.166782
1723.917805,-36925.803004,-15766.386565,35381.844028
1723.918123,-39760.356346,-17838.963202,35825.967593
1723.918440,-27426.218828,-7031.956449,24426.796086
1723.918757,-22216.769442,3478.967927,4219.173869
1723.919075,-16164.615008,148.041188,23316.487173
1723.919392,-9269.755526,-74.020594,40341.223839
1723.919709,-9193.145976,8068.244768,10658.965565
1723.920027,-383.047749,5403.503377,-3330.926739
1723.920344,5515.887586,-9104.533087,17542.880825
1723.920662,-3217.601092,-25167.002028,19171.333898
1723.920979,-2451.505594,-34419.576303,9770.718434
1723.921296,-5592.497135,-40267.203245,8586.388927
1723.921614,-7660.954980,-43820.191766,18949.272115
1723.921931,-459.657299,-47299.159694,21836.075289
1723.922249,4903.011187,-30274.423028,6661.853478
1723.922566,11184.994271,-27831.743419,11769.274478
1723.922883,14019.547613,-25537.104999,11843.295072
1723.923201,14555.814462,-25833.187376,15618.345376
1723.923518,26506.904231,-23834.631332,21910.095883
1723.923836,29647.895773,-12361.439231,10288.862594
1723.924153,45659.291681,3404.947333,5625.565159
1723.924470,53856.513509,12435.459826,-1702.473667
1723.924788,67109.965625,11473.192101,-1406.391290
1723.925105,74924.139704,25907.207970,-9030.512492
1723.925422,80593.246390,45300.603650,-20799.786970
1723.925740,80746.465489,50111.942273,-35603.905810
1723.926057,77911.912147,47817.303853,-49297.715737
1723.926375,63892.364533,40267.203245,-52258.539505
1723.926692,46042.339430,30940.608376,-48557.509795
1723.927009,32865.496864,14508.036463,-36936.276506
1723.927327,17926.634653,3775.050304,-31236.690752
1723.927644,-306.438199,-15174.221811,-30200.402434
1723.927962,-10725.336972,-35529.885216,9400.615463
1723.928279,-30643.819920,-49741.839302,23686.590144
1723.928596,-47957.578175,-39378.956114,14285.974681
1723.928914,-60827.982541,-22872.363608,10362.883188
1723.929231,-69101.813920,-27091.537477,40267.203245
1723.929548,-61900.516238,-35529.885216,49445.756926
1723.929866,-61440.858940,-19245.354492,39230.914926
1723.930183,-54775.828107,740.205942,35529.885216
1723.930501,-43361.005187,16580.613101,26425.352129
1723.930818,-34780.735609,19911.539840,15322.262999
1723.931135,-22676.426741,16654.633695,14878.139434
1723.931453,-18616.120601,24574.837274,7031.956449
1723.931770,-9806.022374,21836.075289,5551.544565
1723.932088,-2987.772442,15322.262999,19171.333898
1723.932405,14325.985813,12879.583391,32421.020260
1723.932722,25357.760984,14582.057057,25537.104999
1723.933040,33631.592362,12287.418637,23538.548956
1723.933357,36236.317055,10807.006753,37380.400071
1723.933674,35010.564259,16136.489536,30348.443622
1723.933992,34014.640111,17838.963202,29534.217086
1723.934309,32099.401366,30644.525999,9992.780217
1723.934627,36006.488406,35899.988187,-10807.006753
1723.934944,37845.117601,36714.214723,-17320.819043
1723.935261,36925.803004,26055.249158,-20503.704593
1723.935579,35776.659757,12139.377449,0.000000
1723.935896,29724.505322,1702.473667,15914.427753
1723.936214,24898.103685,5551.544565,20281.642811
1723.936531,18999.168350,22650.301825,19615.457463
1723.936848,11568.042020,26055.249158,22132.157666
1723.937166,4903.011187,23760.610738,12361.439231
1723.937483,-6971.469032,25315.043216,8882.471304
1723.937801,383.047749,28349.887579,20947.828159
1723.938118,995.924147,33753.390955,9104.533087
1723.938435,2911.162892,27313.599260,8660.409521
1723.938753,-5209.449386,12213.398043,16432.571912
1723.939070,-18692.730151,-740.205942,24648.857869
1723.939387,-25587.589633,-10584.944971,33975.452738
1723.939705,-32482.449115,-5995.668130,35899.988187
1723.940022,-28958.409824,5181.441594,29460.196492
1723.940340,-20914.407095,18357.107362,19911.539840
1723.940657,-6894.859482,22576.281231,21317.931130
1723.940974,-3370.820191,20429.683999,18061.024985
1723.941292,-2451.505594,9474.636058,7328.038826
1723.941609,-5209.449386,2220.617826,-1628.453072
1723.941927,536.266849,-2368.659014,6883.915261
1723.942244,13942.938064,-3034.844362,7105.977043
1723.942561,18462.901502,1406.391290,2664.741391
1723.942879,27272.999729,-6883.915261,6291.750507
1723.943196,26200.466032,-6143.709319,5403.503377
1723.943513,22906.255390,-1998.556043,-1258.350101
1723.943831,16854.100956,148.041188,-7846.182985
1723.944148,5822.325785,4589.276840,-16876.695478
1723.944466,1991.848295,-1184.329507,-11103.089130
1723.944783,-7584.345430,-14063.912898,-9474.636058
1723.945100,-5286.058936,-31606.793723,10140.821405
1723.945418,-9422.974625,-32643.082042,13915.871710
1723.945735,-9576.193725,-29238.134709,12583.501014
1723.946053,-8350.440928,-21539.992912,14804.118840
1723.946370,-9039.926876,-17172.777854,21836.075289
1723.946687,-8120.612279,-20799.786970,34937.720462
1723.947005,-10648.727422,-21836.075289,25981.228564
1723.947322,-9346.365076,-11917.315666,20355.663405
1723.947640,459.657299,-2960.823768,11843.295072
1723.947957,2451.505594,-148.041188,3923.091493
1723.948274,6818.249932,-1924.535449,3849.070898
1723.948592,12104.308868,7179.997637,-3182.885551
1723.948909,22140.159892,8586.388927,1258.350101
1723.949226,25204.541884,11029.068536,-18875.251521
1723.949544,25510.980083,7402.059420,-23908.651927
1723.949861,22140.159892,-6365.771101,-21465.972318
1723.950179,11721.261119,-5773.606348,-29312.155303
1723.950496,5515.887586,-9918.759623,-30644.525999
1723.950813,3370.820191,-518.144159,-24426.796086
1723.951131,-4903.011187,-18579.169144,-13175.665768
1723.951448,-7354.516781,-30792.567187,16210.510130
1723.951766,-25281.151434,-26869.475695,10881.027347
1723.952083,-34167.859211,-29016.072926,15248.242405
1723.952400,-44127.100685,-26869.475695,8512.368333
1723.952718,-37538.679402,-23834.631332,24648.857869
1723.953035,-36542.755255,-24130.713709,32050.917289
1723.953352,-29418.067123,-20651.745782,36196.070564
1723.953670,-23748.960438,-12213.398043,29608.237680
1723.953987,-14479.204912,740.205942,19763.498651
1723.954305,612.876398,222.061783,16210.510130
1723.954622,8810.098227,16210.510130,7698.141797
1723.954939,18386.291952,23908.651927,12731.542202
1723.955257,23059.474490,31828.855506,5033.400406
1723.955574,35470.221557,29460.196492,8364.327145
1723.955892,43514.224286,42561.841665,1924.535449
1723.956209,46042.339430,40637.306216,-1776.494261
1723.956526,49030.111872,25537.104999,-6291.750507
1723.956844,28728.581175,32050.917289,-25463.084405
1723.957161,25510.980083,20947.828159,-23094.425390
1723.957479,6818.249932,8586.388927,-25759.166782
1723.957796,5669.106685,-24426.796086,36640.194129
1723.958113,-7124.688131,-34641.638086,29904.320057
1723.958431,-22753.036291,-26425.352129,14656.077652
1723.958748,-35929.878856,-30792.567187,24944.940245
1723.959065,-42594.909689,-27905.764013,28497.928767
1723.959383,-41675.595091,-25463.084405,41303.491564
1723.959700,-50562.302868,-15840.407159,39526.997303
1723.960018,-50792.131517,-11325.150913,31532.773129
1723.960335,-38457.994000,370.102971,30644.525999
1723.960652,-24591.665486,5551.544565,41747.615129
1723.960970,0.000000,3034.844362,43894.212361
1723.961287,-1608.800546,10732.986159,32791.123231
1723.961605,6511.811733,18135.045579,37898.544230
1723.961922,6818.249932,31532.773129,15396.283594
1723.962239,26200.466032,37602.461854,11029.068536
1723.962557,29264.848024,36936.276506,7254.018232
1723.962874,33248.544613,33457.308578,11843.295072
1723.963191,41675.595091,32569.061448,9474.636058
1723.963509,40756.280494,22650.301825,6809.894666
1723.963826,39070.870398,10214.842000,12065.356855
1723.964144,32712.277765,12657.521608,10881.027347
1723.964461,17237.148705,6587.832884,-6513.812290
1723.964778,1225.752797,-3849.070898,-10955.047942
1723.965096,-2604.724693,-9178.553681,-8364.327145
1723.965413,-13942.938064,-8142.265362,-14582.057057
1723.965731,-7890.783629,-18209.066173,-2960.823768
1723.966048,-19228.997000,-23908.651927,4737.318029
1723.966365,-21986.940793,-32346.999665,15174.221811
1723.966683,-38151.555800,-33531.329173,10436.903782
1723.967000,-43361.005187,-26277.310941,11991.336260
1723.967317,-44510.148434,-13397.727550,13841.851115
1723.967635,-40373.232745,444.123565,5181.441594
1723.967952,-33554.982812,4663.297435,9178.553681
1723.968270,-29188.238474,9178.553681,9696.697840
1723.968587,-24591.665486,6735.874072,13619.789333
1723.968904,-25587.589633,-6143.709319,18135.045579
1723.969222,-30797.039020,-13027.624579,15026.180623
1723.969539,-31409.915418,-5107.421000,11917.315666
1723.969857,-32099.401366,-7105.977043,8956.491898
1723.970174,-26123.856482,-7179.997637,14211.954086
1723.970491,-18539.511052,-5847.626942,10214.842000
1723.970809,-9806.022374,-4885.359217,8734.430116
1723.971126,-1302.362347,-11473.192101,4145.153275
1723.971444,4903.011187,-15840.407159,2590.720797
1723.971761,3753.867940,-29608.237680,666.185348
1723.972078,153.219100,-42635.862259,4145.153275
1723.972396,229.828649,-47003.077317,6957.935855
1723.972713,7124.688131,-39897.100274,8586.388927
1723.973030,15628.348159,-28794.011144,5995.668130
1723.973348,24132.008187,-23834.631332,7550.100608
1723.973665,28728.581175,-15618.345376,148.041188
1723.973983,39683.746796,-16432.571912,18431.127956
1723.974300,43361.005187,-18431.127956,21021.848753
1723.974617,44433.538884,-7846.182985,12583.501014
1723.974935,52400.932063,7698.141797,15692.365970
1723.975252,55082.266306,23316.487173,148.041188
1723.975570,59065.962896,27905.764013,-9622.677246
1723.975887,66650.308326,26943.496289,-7698.141797
1723.976204,65271.336430,31162.670158,-13175.665768
1723.976522,67569.622924,31828.855506,-17024.736666
1723.976839,69408.252119,24722.878463,-6809.894666
1723.977156,63815.754983,18283.086767,0.000000
1723.977474,52094.493864,15396.283594,2368.659014
1723.977791,40373.232745,23242.466579,3923.091493
1723.978109,26200.466032,27609.681637,-1702.473667
1723.978426,9729.412825,31532.773129,-20725.766376
1723.978743,3524.039291,24574.837274,-28349.887579
1723.979061,-4903.011187,28127.825796,-21391.951724
1723.979378,-17543.586904,14508.036463,-20355.663405
1723.979696,-28575.362075,-5403.503377,-10066.800811
1723.980013,-41139.328243,-24870.919651,1406.391290
1723.980330,-54162.951709,-34567.617491,10955.047942
1723.980648,-62360.173537,-34863.699868,29312.155303
1723.980965,-68871.985270,-16432.571912,26203.290347
1723.981283,-69408.252119,7624.121203,12657.521608
1723.981600,-59985.277493,19467.416275,18061.024985
1723.981917,-54929.047207,23168.445985,21614.013506
1723.982235,-51021.960167,18283.086767,36344.111752
1723.982552,-50179.255119,13693.809927,30348.443622
1723.982869,-53779.903960,14656.077652,23538.548956
1723.983187,-44739.977083,10066.800811,46262.871375
1723.983504,-38074.946251,18209.066173,39897.100274
1723.983822,-31946.182267,22872.363608,27461.640448
1723.984139,-21603.893044,12657.521608,33383.287984
1723.984456,-13406.671215,9474.636058,34789.679274
1723.984774,-5515.887586,1628.453072,25759.166782
1723.985091,-3600.648841,-10955.047942,28645.969955
1723.985409,-2911.162892,-22724.322419,36566.173535
1723.985726,2757.943793,-23686.590144,43079.985824
1723.986043,7431.126331,-16432.571912,36936.276506
1723.986361,18922.558801,-21021.848753,43672.150578
1723.986678,33478.373263,-16136.489536,44560.397708
1723.986995,38917.651298,-1332.370696,25315.043216
1723.987313,44433.538884,2738.761985,19023.292709
1723.987630,53167.027561,-2442.679609,20355.663405
1723.987948,62743.221286,7994.224174,9992.780217
1723.988265,67569.622924,16728.654289,6069.688724
1723.988582,70174.347617,22132.157666,0.000000
1723.988900,66803.527426,26351.331535,-10436.903782
1723.989217,63739.145434,27387.619854,-9844.739029
1723.989535,53320.246661,36418.132346,-23390.507767
1723.989852,48187.406824,33975.452738,-29016.072926
1723.990169,33938.030561,21243.910535,-24426.796086
1723.990487,17390.367805,7994.224174,-21539.992912
1723.990804,5132.839837,-148.041188,-7105.977043
1723.991121,-9652.803275,-13693.809927,-3182.885551
1723.991439,-24821.494135,-40341.223839,17616.901420
1723.991756,-41675.595091,-39897.100274,14878.139434
1723.992074,-55695.142705,-20503.704593,11177.109724
1723.992391,-63126.269035,-21465.972318,9326.594869
1723.992708,-63968.974083,-14804.118840,8808.450710
1723.993026,-58836.134246,-13027.624579,12065.356855
1723.993343,-45352.853482,-6661.853478,13989.892304
1723.993661,-38457.994000,740.205942,-1554.432478
1723.993978,-31946.182267,-2516.700203,2738.761985
1723.994295,-27962.485677,-13249.686362,8956.491898
1723.994613,-22829.645840,-13693.809927,1110.308913
1723.994930,-12947.013916,-3775.050304,-4885.359217
1723.995248,-7048.078582,-4885.359217,-9844.739029
1723.995565,4519.963438,-10881.027347,-4737.318029
1723.995882,14632.424012,-5255.462188,-7698.141797
1723.996200,18692.730151,-3701.029710,-9474.636058
1723.996517,24208.617737,-16432.571912,14063.912898
1723.996834,24208.617737,-22206.178260,17024.736666
1723.997152,23059.474490,-24426.796086,13471.748144
1723.997469,27119.780629,-24130.713709,22576.281231
1723.997787,31103.477219,-11547.212695,17987.004391
1723.998104,38151.555800,11177.109724,-2368.659014
1723.998421,52247.712964,18209.066173,-8734.430116
1723.998739,57763.600549,11399.171507,-7254.018232
1723.999056,59065.962896,6217.729913,-12065.356855
1723.999374,57993.429199,18283.086767,-12139.377449
1723.999691,55312.094956,12583.501014,1480.411884
1724.000008,47421.311326,4441.235652,11843.295072
1724.000326,38074.946251,15322.262999,10732.986159
1724.000643,28115.704777,28053.805202,4885.359217
1724.000960,10725.336972,27609.681637,-11029.068536
1724.001278,3217.601092,13619.789333,-5551.544565
1724.001595,-2145.067394,-1184.329507,6957.935855
1724.001913,-19228.997000,-8734.430116,5403.503377
1724.002230,-27732.657028,-14582.057057,8068.244768
1724.002547,-35853.269306,-19541.436869,18431.127956
1724.002865,-49030.111872,-23094.425390,24870.919651
1724.003182,-52017.884314,-18727.210333,38046.585419
1724.003500,-58836.134246,740.205942,18209.066173
1724.003817,-60827.982541,11621.233289,148.041188
1724.004134,-52630.760713,8438.347739,9770.718434
1724.004452,-44969.805733,11029.068536,26943.496289
1724.004769,-38917.651298,7920.203579,30126.381839
1724.005087,-38151.555800,13545.768739,23168.445985
1724.005404,-35853.269306,12953.603985,23538.548956
1724.005721,-32712.277765,14952.160028,22650.301825
1724.006039,-19765.263848,8364.327145,18283.086767
1724.006356,-10572.117872,13767.830521,6439.791695
1724.006673,-3140.991542,3330.926739,11029.068536
1724.006991,5592.497135,-8734.430116,27017.516883
1724.007308,13559.890315,-10362.883188,39675.038491
1724.007626,21603.893044,1776.494261,38564.729578
1724.007943,30413.991271,3256.906145,42635.862259
1724.008260,29647.895773,5847.626942,33309.267390
1724.008578,25127.932334,19615.457463,25685.146187
1724.008895,37768.508051,27683.702231,17542.880825
1724.009213,50102.645569,29904.320057,1258.350101
1724.009530,53090.418011,27091.537477,-15470.304188
1724.009847,50026.036019,25241.022622,-21317.931130
1724.010165,44203.710235,8956.491898,-16950.716072
1724.010482,26583.513781,-9104.533087,-7254.018232
1724.010799,20991.016645,-27831.743419,24722.878463
1724.011117,1455.581446,-23686.590144,15322.262999
1724.011434,-10572.117872,-19541.436869,13693.809927
1724.011752,-14479.204912,-15914.427753,24574.837274
1724.012069,-23672.350888,-16728.654289,18061.024985
1724.012386,-35700.050207,-14211.954086,9696.697840
1724.012704,-39760.356346,-16358.551318,23390.507767
1724.013021,-38764.432199,-24500.816680,38638.750172
1724.013339,-36389.536155,-19171.333898,26351.331535
1724.013656,-32329.230016,-18061.024985,22058.137072
1724.013973,-30720.429470,-17394.839637,31532.773129
1724.014291,-27349.609279,-10881.027347,23316.487173
1724.014608,-22676.426741,-3404.947333,7105.977043
1724.014926,-16241.224558,7328.038826,3552.988522
1724.015243,-5898.935335,16136.489536,-1184.329507
1724.015560,76.609550,17320.819043,-7328.038826
1724.015878,8427.050478,592.164754,-5107.421000
1724.016195,11721.261119,-7031.956449,-16210.510130
1724.016512,9269.755526,-14582.057057,-22206.178260
1724.016830,6894.859482,-16654.633695,-18431.127956
1724.017147,2451.505594,-22354.219448,-16506.592507
1724.017465,-536.266849,-21984.116477,-21317.931130
1724.017782,-2681.334243,-25018.960840,-2072.576638
1724.018099,-3370.820191,-14063.912898,-12509.480420
1724.018417,-2374.896044,-18875.251521,-3775.050304
1724.018734,-6665.030833,-28497.928767,6809.894666
1724.019051,-11338.213370,-34493.596897,21762.054695
1724.019369,-5515.887586,-38268.647201,23020.404796
1724.019686,-6435.202183,-20725.766376,6365.771101
1724.020003,-10495.508323,-7550.100608,-592.164754
1724.020321,3830.477490,4663.297435,12065.356855
1724.020638,6128.763984,10362.883188,3627.009116
1724.020956,17926.634653,9030.512492,-5255.462188
1724.021273,21067.626195,14359.995275,-7772.162391
1724.021590,22523.207641,-3849.070898,3997.112087
1724.021908,24361.836836,-14730.098246,8438.347739
1724.022225,27656.047478,-13619.789333,16358.551318
1724.022542,29418.067123,-8290.306550,16580.613101
1724.022860,26966.561530,-1480.411884,7624.121203
1724.023177,30797.039020,6069.688724,15174.221811
1724.023494,32405.839565,23094.425390,10362.883188
1724.023812,30873.648569,23982.672521,7846.182985
1724.024129,26353.685131,31014.628970,-5625.565159
1724.024446,22063.550342,42413.800477,-25167.002028
1724.024764,19765.263848,24722.878463,-30940.608376
1724.025081,11951.089769,4145.153275,-21836.075289
1724.025398,4366.744339,-11917.315666,-148.041188
1724.025716,-4673.182538,-22206.178260,23464.528361
1724.026033,-11184.994271,-15248.242405,23908.651927
1724.026351,-10955.165621,-8512.368333,32421.020260
1724.026668,-12180.918418,-2072.576638,49223.695143
1724.026985,-8656.879127,7105.977043,33235.246796
1724.027303,-12563.966167,26277.310941,12657.521608
1724.027620,-1915.238745,35085.761651,17394.839637
1724.027937,-1302.362347,43154.006419,15100.201217
1724.028255,3600.648841,41969.676911,12953.603985
1724.028572,5439.278036,44782.459491,2368.659014
1724.028889,8273.831378,40637.306216,444.123565
1724.029207,2681.334243,25315.043216,5847.626942
1724.029524,-1225.752797,10066.800811,17912.983796
1724.029841,-4136.915689,1554.432478,22650.301825
1724.030159,-10418.898773,1554.432478,23464.528361
1724.030476,-9269.755526,296.082377,32198.958477
1724.030793,-13100.233016,-2368.659014,27239.578666
1724.031111,-14785.643111,-7994.224174,27165.558071
1724.031428,-15245.300410,-7846.182985,27461.640448
1724.031746,-13100.233016,5033.400406,26129.269753
1724.032063,-10801.946522,7031.956449,17838.963202
1724.032380,-3064.381992,13397.727550,19911.539840
1724.032698,229.828649,17394.839637,17172.777854
1724.033015,0.000000,22650.301825,15396.283594
1724.033332,2221.676944,12731.542202,20503.704593
1724.033650,995.924147,15174.221811,20059.581028
1724.033967,4903.011187,19763.498651,10807.006753
1724.034284,12180.918418,23686.590144,8586.388927
1724.034602,13406.671215,15322.262999,9474.636058
1724.034919,15015.471761,5107.421000,15026.180623
1724.035236,10265.679673,740.205942,9992.780217
1724.035554,5745.716235,-5403.503377,12065.356855
1724.035871,1532.190996,-9104.533087,20059.581028
1724.036189,2834.553343,-6957.935855,20133.601622
1724.036506,76.609550,-1406.391290,10658.965565
1724.036823,-689.485948,444.123565,9548.656652
1724.037141,-4673.182538,-5255.462188,11695.253884
1724.037458,-4903.011187,-7550.100608,11399.171507
1724.037775,-2374.896044,-6661.853478,7254.018232
1724.038093,-1072.533697,-7328.038826,9474.636058
1724.038410,-383.047749,-8956.491898,5921.647536
1724.038727,4136.915689,-9400.615463,3404.947333
1724.039045,4596.572988,-15026.180623,3997.112087
1724.039362,8886.707777,-17320.819043,7031.956449
1724.039679,12410.747068,-16062.468941,2738.761985
1724.039997,14402.595362,-11991.336260,-3997.112087
1724.040314,15321.909960,-9548.656652,-7476.080014
1724.040631,13559.890315,-8956.491898,-6069.688724
1724.040949,10265.679673,-11029.068536,-11251.130318
1724.041266,9422.974625,-11843.295072,-11103.089130
1724.041584,5669.106685,-10955.047942,-10214.842000
1724.041901,1838.629195,-11547.212695,-7550.100608
1724.042218,3907.087040,-15470.304188,1036.288319
1724.042536,1991.848295,-11547.212695,2368.659014
1724.042853,2451.505594,-11621.233289,3108.864956
1724.043170,306.438199,-13619.789333,3849.070898
1724.043488,229.828649,-9770.718434,1480.411884
1724.043805,1762.019645,-5847.626942,3701.029710
1724.044122,4903.011187,2590.720797,3997.112087
1724.044440,9806.022374,11177.109724,-1924.535449
1724.044757,12334.137518,16876.695478,-4589.276840
1724.045074,13100.233016,11695.253884,-4219.173869
1724.045392,12717.185267,8882.471304,-7031.956449
1724.045709,9422.974625,3182.885551,-10658.965565
1724.046026,9806.022374,444.123565,-592.164754
1724.046344,6894.859482,-3404.947333,1702.473667
1724.046661,5286.058936,-3108.864956,5329.482782
1724.046979,2451.505594,-4959.379811,9474.636058
1724.047296,-3064.381992,-6809.894666,11547.212695
1724.047613,-6588.421283,-5255.462188,12213.398043
1724.047931,-6665.030833,-3478.967927,15618.345376
1724.048248,-7201.297681,444.123565,12657.521608
1724.048565,-5056.230287,3849.070898,11399.171507
1724.048883,-3064.381992,6217.729913,13989.892304
1724.049200,-3064.381992,5847.626942,13471.748144
1724.049517,-3217.601092,5403.503377,12583.501014
1724.049835,-3064.381992,7031.956449,15544.324782
1724.050152,-2987.772442,8956.491898,17542.880825
1724.050469,-1149.143247,10584.944971,16210.510130
1724.050787,-2068.457845,10066.800811,15100.201217
1724.051104,-3600.648841,6143.709319,18357.107362
1724.051421,-5669.106685,3923.091493,21614.013506
1724.051739,-5286.058936,2960.823768,26277.310941
1724.052056,-4979.620737,5329.482782,26943.496289
1724.052374,-2374.896044,9918.759623,24722.878463
1724.052691,-1838.629195,13989.892304,21391.951724
1724.053008,0.000000,15470.304188,19245.354492
1724.053326,995.924147,15396.283594,20651.745782
1724.053643,153.219100,16284.530724,17542.880825
1724.053960,1378.971896,19393.395680,14730.098246
1724.054278,5132.839837,22502.260637,16210.510130
1724.054595,7048.078582,21391.951724,15988.448347
1724.054912,9576.193725,15914.427753,14730.098246
1724.055230,9039.926876,13249.686362,16506.592507
1724.055547,10495.508323,12879.583391,16950.716072
1724.055864,10878.556072,13767.830521,12805.562797
1724.056182,12180.918418,10807.006753,13545.768739
1724.056499,11108.384721,8660.409521,13619.789333
1724.056817,8044.002729,6365.771101,12139.377449
1724.057134,4979.620737,4589.276840,12731.542202
1724.057451,2987.772442,3701.029710,14285.974681
1724.057769,3907.087040,5699.585753,15100.201217
1724.058086,5286.058936,7994.224174,11843.295072
1724.058403,3830.477490,8882.471304,7846.182985
1724.058721,2528.115143,6143.709319,9474.636058
1724.059038,2068.457845,3108.864956,9992.780217
1724.059355,2298.286494,2812.782580,9474.636058
1724.059673,3064.381992,4959.379811,6439.791695
1724.059990,6128.763984,4145.153275,3775.050304
1724.060307,4979.620737,962.267725,5477.523971
1724.060625,4903.011187,-3923.091493,7550.100608
1724.060942,3140.991542,-6217.729913,8216.285956
1724.061259,536.266849,-5403.503377,8956.491898
1724.061577,1455.581446,-5551.544565,10362.883188
1724.061894,-612.876398,-3552.988522,9178.553681
1724.062212,-995.924147,-4811.338623,7624.121203
1724.062529,-1915.238745,-4811.338623,6365.771101
1724.062846,-1302.362347,-6143.709319,6735.874072
1724.063164,842.705048,-5477.523971,6883.915261
1724.063481,1991.848295,-3923.091493,2146.597232
1724.063798,3217.601092,-1924.535449,-1110.308913
1724.064116,3753.867940,-3701.029710,888.247130
1724.064433,3907.087040,-5181.441594,296.082377
1724.064750,3447.429741,-6291.750507,-1480.411884
1724.065068,2757.943793,-7105.977043,-1184.329507
1724.065385,2298.286494,-7920.203579,1184.329507
1724.065702,2298.286494,-9770.718434,1702.473667
1724.066020,76.609550,-11473.192101,1702.473667
1724.066337,-1532.190996,-12509.480420,4293.194464
1724.066654,-2757.943793,-12509.480420,4959.379811
1724.066972,-2068.457845,-11399.171507,7105.977043
1724.067289,-459.657299,-9030.512492,7698.141797
1724.067607,1838.629195,-4959.379811,7328.038826
1724.067924,2987.772442,-962.267725,3997.112087
1724.068241,5515.887586,1702.473667,2368.659014
1724.068559,7354.516781,3478.967927,2590.720797
1724.068876,9039.926876,5847.626942,2812.782580
1724.069193,10648.727422,8290.306550,888.247130
1724.069511,9806.022374,7920.203579,888.247130
1724.069828,9652.803275,5847.626942,3701.029710
1724.070145,8503.660028,3923.091493,3701.029710
1724.070463,7124.688131,2664.741391,4589.276840
1724.070780,5822.325785,2812.782580,6513.812290
1724.071097,4136.915689,2960.823768,8512.368333
1724.071415,2911.162892,3701.029710,11695.253884
1724.071732,1149.143247,4367.215058,14211.954086
1724.072049,0.000000,4367.215058,15322.262999
1724.072367,-2221.676944,4811.338623,16506.592507
1724.072684,-2068.457845,5033.400406,18875.251521
1724.073002,-689.485948,5181.441594,19763.498651
1724.073319,536.266849,7920.203579,18875.251521
1724.073636,4213.525239,11325.150913,16876.695478
1724.073954,5822.325785,13175.665768,13545.768739
1724.074271,7354.516781,11843.295072,11695.253884
1724.074588,8273.831378,10066.800811,10732.986159
1724.074906,7814.174080,10584.944971,9400.615463
1724.075223,7354.516781,10732.986159,10214.842000
1724.075540,6511.811733,9030.512492,11251.130318
1724.075858,4443.353888,8956.491898,11325.150913
1724.076175,2298.286494,7624.121203,12583.501014
1724.076492,-153.219100,6957.935855,13693.809927
1724.076810,-3600.648841,7328.038826,15692.365970
1724.077127,-5056.230287,7846.182985,17616.901420
1724.077444,-6435.202183,8660.409521,17468.860231
1724.077762,-6741.640382,9252.574275,17172.777854
1724.078079,-5439.278036,9770.718434,17690.922014
1724.078397,-4136.915689,9622.677246,16136.489536
1724.078714,-1762.019645,8734.430116,14582.057057
1724.079031,1225.752797,9548.656652,15100.201217
1724.079349,4060.306139,11547.212695,14137.933492
1724.079666,6971.469032,12583.501014,12731.542202
1724.079983,8656.879127,12509.480420,11473.192101
1724.080301,9269.755526,12213.398043,9622.677246
1724.080618,10035.851024,11473.192101,8068.244768
1724.080935,11568.042020,10584.944971,6513.812290
1724.081253,11491.432470,9104.533087,4589.276840
1724.081570,11644.651570,7402.059420,3182.885551
1724.081887,10495.508323,4219.173869,4515.256246
1724.082205,8427.050478,962.267725,7920.203579
1724.082522,5745.716235,-2220.617826,10510.924376
1724.082840,3753.867940,-3627.009116,12139.377449
1724.083157,1991.848295,-3478.967927,11769.274478
1724.083474,2145.067394,-2738.761985,12657.521608
1724.083792,2528.115143,-2072.576638,11991.336260
1724.084109,3370.820191,-592.164754,11251.130318
1724.084426,4903.011187,-222.061783,9918.759623
1724.084744,5975.544884,-0.000000,8808.450710
1724.085061,6971.469032,-814.226536,7698.141797
1724.085378,7507.735880,-814.226536,6513.812290
1724.085696,7814.174080,-2220.617826,5329.482782
1724.086013,6818.249932,-2368.659014,3552.988522
1724.086330,6588.421283,-1998.556043,3256.906145
1724.086648,5745.716235,-2368.659014,3034.844362
1724.086965,4443.353888,-3923.091493,3108.864956
1724.087282,2068.457845,-5107.421000,3701.029710
1724.087600,-229.828649,-6365.771101,4367.215058
1724.087917,-2068.457845,-7624.121203,4885.359217
1724.088235,-3370.820191,-7698.141797,5477.523971
1724.088552,-3907.087040,-7328.038826,7179.997637
1724.088869,-4749.792088,-5921.647536,6661.853478
1724.089187,-4903.011187,-3923.091493,6143.709319
1724.089504,-4136.915689,-2738.761985,6291.750507
1724.089821,-4290.134789,-1850.514855,5847.626942
1724.090139,-2528.115143,-1036.288319,5477.523971
1724.090456,-1532.190996,148.041188,4663.297435
1724.090773,-689.485948,814.226536,4811.338623
1724.091091,229.828649,296.082377,5699.585753
1724.091408,1225.752797,518.144159,6513.812290
1724.091725,2911.162892,962.267725,7254.018232
1724.092043,3600.648841,2072.576638,7179.997637
1724.092360,4443.353888,2812.782580,6883.915261
1724.092677,5592.497135,3775.050304,5847.626942
1724.092995,5822.325785,3108.864956,5477.523971
1724.093312,4979.620737,2072.576638,6439.791695
1724.093630,4366.744339,666.185348,8068.244768
1724.093947,3753.867940,-740.205942,9474.636058
1724.094264,3294.210641,-1332.370696,10584.944971
1724.094582,3830.477490,-1554.432478,11917.315666
1724.094899,4213.525239,-888.247130,12879.583391
1724.095216,5209.449386,518.144159,13471.748144
1724.095534,5592.497135,2368.659014,13249.686362
1724.095851,6435.202183,4885.359217,12435.459826
1724.096168,6741.640382,6661.853478,12287.418637
1724.096486,7201.297681,7920.203579,11695.253884
1724.096803,7354.516781,8216.285956,12361.439231
1724.097120,6971.469032,8512.368333,11547.212695
1724.097438,7354.516781,9252.574275,11843.295072
1724.097755,5745.716235,9474.636058,12583.501014
1724.098072,4673.182538,9400.615463,13693.809927
1724.098390,3370.820191,8364.327145,13841.851115
1724.098707,1302.362347,7772.162391,12805.562797
1724.099025,0.000000,7105.977043,12953.603985
1724.099342,-689.485948,5625.565159,12731.542202
1724.099659,-229.828649,5033.400406,12879.583391
1724.099977,76.609550,3552.988522,14285.974681
1724.100294,76.609550,3478.967927,14582.057057
1724.100611,689.485948,3627.009116,14285.974681
1724.100929,1378.971896,4663.297435,13767.830521
1724.101246,1532.190996,5551.544565,12953.603985
1724.101563,2145.067394,7105.977043,11621.233289
1724.101881,2681.334243,8586.388927,9548.656652
1724.102198,3447.429741,9252.574275,8216.285956
1724.102515,3677.258390,8734.430116,7402.059420
1724.102833,3524.039291,6439.791695,6735.874072
1724.103150,2757.943793,4959.379811,6809.894666
1724.103468,1072.533697,3404.947333,7476.080014
1724.103785,-383.047749,1110.308913,8808.450710
1724.104102,-1302.362347,-370.102971,11103.089130
1724.104420,-1991.848295,-444.123565,11917.315666
1724.104737,-2374.896044,296.082377,12657.521608
1724.105054,-2298.286494,740.205942,13027.624579
1724.105372,-1608.800546,2072.576638,12509.480420
1724.105689,153.219100,4663.297435,10658.965565
1724.106006,1762.019645,6439.791695,8660.409521
1724.106324,3907.087040,6957.935855,7328.038826
1724.106641,5132.839837,6513.812290,6439.791695
1724.106958,6741.640382,5625.565159,5551.544565
1724.107276,7201.297681,3404.947333,4589.276840
1724.107593,7201.297681,444.123565,5403.503377
1724.107910,8197.221829,-1110.308913,5403.503377
1724.108228,7584.345430,-2072.576638,4959.379811
1724.108545,6665.030833,-3478.967927,5773.606348
1724.108863,5132.839837,-4071.132681,7402.059420
1724.109180,3907.087040,-2960.823768,7772.162391
1724.109497,2604.724693,-1776.494261,7328.038826
1724.109815,1378.971896,-1554.432478,8734.430116
1724.110132,689.485948,-592.164754,9770.718434
1724.110449,842.705048,740.205942,8734.430116
1724.110767,1685.410096,1776.494261,7698.141797
1724.111084,2221.676944,888.247130,7476.080014
1724.111401,2834.553343,296.082377,6883.915261
1724.111719,3294.210641,-222.061783,4959.379811
1724.112036,3600.648841,-2220.617826,5107.421000
1724.112353,2681.334243,-3034.844362,5477.523971
1724.112671,2987.772442,-3923.091493,6513.812290
1724.112988,2604.724693,-3997.112087,6513.812290
1724.113305,1915.238745,-3552.988522,7328.038826
1724.113623,1608.800546,-2960.823768,9400.615463
1724.113940,919.314598,-1628.453072,9326.594869
1724.114258,612.876398,-370.102971,9252.574275
1724.114575,612.876398,1036.288319,9844.739029
1724.114892,689.485948,2442.679609,9770.718434
1724.115210,1608.800546,3108.864956,9400.615463
1724.115527,2298.286494,3849.070898,8216.285956
1724.115844,1915.238745,3404.947333,7994.224174
1724.116162,1608.800546,2294.638420,8438.347739
1724.116479,1302.362347,666.185348,9104.533087
1724.116796,1072.533697,-666.185348,10362.883188
1724.117114,689.485948,-1776.494261,11769.274478
1724.117431,459.657299,-1776.494261,13027.624579
1724.117748,1225.752797,-1110.308913,13471.748144
1724.118066,2451.505594,-0.000000,15322.262999
1724.118383,2987.772442,2812.782580,14211.954086
1724.118700,4826.401637,5329.482782,13397.727550
1724.119018,5975.544884,9252.574275,11325.150913
1724.119335,6971.469032,10658.965565,9918.759623
1724.119653,7431.126331,11325.150913,8512.368333
1724.119970,7737.564530,11325.150913,7476.080014
1724.120287,7431.126331,9696.697840,6513.812290
1724.120605,6588.421283,6291.750507,5403.503377
1724.120922,5975.544884,1924.535449,8660.409521
1724.121239,4213.525239,-1998.556043,10066.800811
1724.121557,2834.553343,-4293.194464,11769.274478
1724.121874,1991.848295,-4589.276840,13397.727550
1724.122191,689.485948,-2516.700203,14656.077652
1724.122509,1072.533697,-148.041188,15026.180623
1724.122826,383.047749,4515.256246,14434.015869
1724.123143,1302.362347,7994.224174,12953.603985
1724.123461,1608.800546,12139.377449,10436.903782
1724.123778,2451.505594,14434.015869,9622.677246
1724.124096,2834.553343,16062.468941,7328.038826
1724.124413,3064.381992,15174.221811,5773.606348
1724.124730,2834.553343,12361.439231,5551.544565
1724.125048,1685.410096,7328.038826,5107.421000
1724.125365,1532.190996,3256.906145,6217.729913
1724.125682,459.657299,-814.226536,8586.388927
1724.126000,76.609550,-4737.318029,10288.862594
1724.126317,-1072.533697,-7550.100608,12657.521608
1724.126634,-2068.457845,-7031.956449,13693.809927
1724.126952,-2451.505594,-5107.421000,15692.365970
1724.127269,-2834.553343,-3034.844362,15544.324782
1724.127586,-2528.115143,1036.288319,13175.665768
1724.127904,-2987.772442,4663.297435,10140.821405
1724.128221,-2221.676944,7550.100608,7328.038826
1724.128539,-536.266849,8216.285956,7328.038826
1724.128856,1072.533697,7179.997637,5847.626942
1724.129173,1608.800546,4589.276840,5625.565159
1724.129491,3217.601092,814.226536,5625.565159
1724.129808,2987.772442,-3552.988522,5625.565159
1724.130125,3600.648841,-9104.533087,8438.347739
1724.130443,2604.724693,-11251.130318,9918.759623
1724.130760,1302.362347,-10140.821405,9770.718434
1724.131077,383.047749,-8068.244768,10658.965565
1724.131395,-1608.800546,-4515.256246,9844.739029
1724.131712,-1455.581446,-1702.473667,12065.356855
1724.132029,-2068.457845,1110.308913,9400.615463
1724.132347,-1915.238745,1998.556043,10066.800811
1724.132664,-2068.457845,2220.617826,9696.697840
1724.132982,995.924147,3330.926739,10658.965565
1724.133299,3217.601092,5255.462188,6957.935855
1724.133616,6128.763984,3849.070898,5995.668130
1724.133934,7201.297681,1702.473667,4885.359217
1724.134251,6894.859482,-518.144159,3775.050304
1724.134568,7584.345430,-4737.318029,4737.318029
1724.134886,5745.716235,-6735.874072,3849.070898
1724.135203,4673.182538,-9178.553681,7105.977043
1724.135520,3447.429741,-8290.306550,8734.430116
1724.135838,1302.362347,-7031.956449,8734.430116
1724.136155,842.705048,-7105.977043,11325.150913
1724.136472,-1225.752797,-4589.276840,11843.295072
1724.136790,-612.876398,-1702.473667,10658.965565
1724.137107,-1072.533697,2664.741391,8734.430116
1724.137425,-1915.238745,4219.173869,7105.977043
1724.137742,-459.657299,2738.761985,10510.924376
1724.138059,-2145.067394,2516.700203,7846.182985
1724.138377,-842.705048,148.041188,8438.347739
1724.138694,-2451.505594,-1332.370696,6513.812290
1724.139011,-2834.553343,-4071.132681,7105.977043
1724.139329,-2757.943793,-7846.182985,8882.471304
1724.139646,-3370.820191,-9474.636058,10288.862594
1724.139963,-3600.648841,-9474.636058,11917.315666
1724.140281,-3830.477490,-8142.265362,11547.212695
1724.140598,-3064.381992,-6291.750507,13175.665768
1724.140915,-2604.724693,-2664.741391,13175.665768
1724.141233,-2757.943793,-370.102971,13545.768739
1724.141550,-2757.943793,2960.823768,12731.542202
1724.141868,-2681.334243,6365.771101,11251.130318
1724.142185,-842.705048,8512.368333,10214.842000
1724.142502,306.438199,9252.574275,8142.265362
1724.142820,1072.533697,7031.956449,6439.791695
1724.143137,2221.676944,5477.523971,4737.318029
1724.143454,3217.601092,1998.556043,5477.523971
1724.143772,2987.772442,-2294.638420,5699.585753
1724.144089,3830.477490,-6735.874072,9474.636058
1724.144406,2911.162892,-7846.182985,11991.336260
1724.144724,1762.019645,-6735.874072,12139.377449
1724.145041,2068.457845,-4441.235652,14878.139434
1724.145358,1685.410096,-592.164754,15914.427753
1724.145676,1455.581446,4071.132681,14211.954086
1724.145993,1149.143247,10140.821405,11325.150913
1724.146311,1762.019645,13767.830521,9400.615463
1724.146628,3830.477490,13989.892304,10214.842000
1724.146945,5209.449386,13693.809927,8068.244768
1724.147263,7814.174080,10881.027347,6735.874072
1724.147580,7890.783629,10066.800811,2664.741391
1724.147897,9576.193725,4145.153275,3997.112087
1724.148215,7967.393179,-2072.576638,5255.462188
1724.148532,6358.592633,-6957.935855,7846.182985
1724.148849,3830.477490,-9030.512492,11029.068536
1724.149167,153.219100,-7402.059420,11177.109724
1724.149484,689.485948,-5403.503377,14211.954086
1724.149801,-766.095498,-1628.453072,13915.871710
1724.150119,-2528.115143,-222.061783,16136.489536
1724.150436,-2451.505594,2738.761985,14359.995275
1724.150754,-1915.238745,7328.038826,12731.542202
1724.151071,-229.828649,11399.171507,9252.574275
1724.151388,3677.258390,12731.542202,9474.636058
1724.151706,5056.230287,13175.665768,4885.359217
1724.152023,6358.592633,11473.192101,2664.741391
1724.152340,4826.401637,9030.512492,666.185348
1724.152658,3370.820191,1776.494261,2294.638420
1724.152975,2834.553343,-5329.482782,6439.791695
1724.153292,-842.705048,-11103.089130,9474.636058
1724.153610,-3753.867940,-14730.098246,14137.933492
1724.153927,-6741.640382,-13841.851115,15174.221811
1724.154244,-5898.935335,-10807.006753,16580.613101
1724.154562,-5056.230287,-7031.956449,16580.613101
1724.154879,-4903.011187,-1554.432478,15988.448347
1724.155197,-4060.306139,2368.659014,12509.480420
1724.155514,-3140.991542,5033.400406,9844.739029
1724.155831,-306.438199,7179.997637,11769.274478
1724.156149,1532.190996,8512.368333,8438.347739
1724.156466,3140.991542,9474.636058,2812.782580
1724.156783,4673.182538,7254.018232,0.000000
1724.157101,4596.572988,370.102971,666.185348
1724.157418,3983.696590,-8068.244768,3552.988522
1724.157735,2451.505594,-13027.624579,6661.853478
1724.158053,-536.266849,-14730.098246,9400.615463
1724.158370,-689.485948,-16950.716072,17024.736666
1724.158687,-1608.800546,-13249.686362,13175.665768
1724.159005,-995.924147,-8956.491898,14211.954086
1724.159322,-3370.820191,-6069.688724,18061.024985
1724.159640,-5132.839837,-222.061783,13175.665768
1724.159957,-2374.896044,5255.462188,11991.336260
1724.160274,229.828649,11621.233289,9252.574275
1724.160592,1762.019645,13323.706956,6809.894666
1724.160909,3600.648841,13249.686362,2146.597232
1724.161226,4749.792088,9844.739029,148.041188
1724.161544,7354.516781,4589.276840,-666.185348
1724.161861,7124.688131,-2368.659014,-1184.329507
1724.162178,7354.516781,-11473.192101,5847.626942
1724.162496,2298.286494,-15248.242405,7105.977043
1724.162813,766.095498,-17987.004391,16950.716072
1724.163130,-995.924147,-14656.077652,15026.180623
1724.163448,-2451.505594,-7846.182985,12953.603985
1724.163765,-2757.943793,-4515.256246,18135.045579
1724.164083,-7277.907231,2220.617826,11695.253884
1724.164400,-2451.505594,6883.915261,11325.150913
1724.164717,-2528.115143,10658.965565,7698.141797
1724.165035,1762.019645,9474.636058,10955.047942
1724.165352,4749.792088,12953.603985,5551.544565
1724.165669,5439.278036,13249.686362,-1406.391290
1724.165987,9116.536426,8882.471304,-1702.473667
1724.166304,7507.735880,3404.947333,-518.144159
1724.166621,6281.983084,-4811.338623,2146.597232
1724.166939,2681.334243,-8882.471304,6661.853478
1724.167256,-229.828649,-10658.965565,9918.759623
1724.167573,-2757.943793,-10955.047942,12879.583391
1724.167891,-3524.039291,-10584.944971,16358.551318
1724.168208,-4826.401637,-7772.162391,20133.601622
1724.168526,-7354.516781,-1258.350101,18283.086767
1724.168843,-5056.230287,4441.235652,16432.571912
1724.169160,-3907.087040,8734.430116,11251.130318
1724.169478,-1455.581446,11029.068536,12065.356855
1724.169795,306.438199,13989.892304,13767.830521
1724.170112,1915.238745,14730.098246,4811.338623
1724.170430,3983.696590,15914.427753,-1702.473667
1724.170747,4443.353888,9844.739029,962.267725
1724.171064,5745.716235,-888.247130,6735.874072
1724.171382,4060.306139,-7031.956449,5773.606348
1724.171699,995.924147,-12435.459826,10732.986159
1724.172016,-1225.752797,-16432.571912,18135.045579
1724.172334,-3370.820191,-14878.139434,16062.468941
1724.172651,229.828649,-8956.491898,17690.922014
1724.172969,-2145.067394,-2516.700203,18727.210333
1724.173286,-4443.353888,2442.679609,15322.262999
1724.173603,-3753.867940,7179.997637,13619.789333
1724.173921,-1838.629195,14878.139434,11917.315666
1724.174238,2145.067394,16950.716072,13027.624579
1724.174555,2604.724693,19689.478057,6143.709319
1724.174873,5362.668486,18727.210333,-1184.329507
1724.175190,8044.002729,16432.571912,-3627.009116
1724.175507,7737.564530,5625.565159,-666.185348
1724.175825,6894.859482,-6587.832884,2960.823768
1724.176142,5056.230287,-11029.068536,6143.709319
1724.176459,2604.724693,-14804.118840,12213.398043
1724.176777,-1149.143247,-17024.736666,18061.024985
1724.177094,-1608.800546,-14211.954086,20133.601622
1724.177412,-2604.724693,-5329.482782,19689.478057
1724.177729,-3983.696590,1702.473667,18209.066173
1724.178046,-4979.620737,9326.594869,9844.739029
1724.178364,-1532.190996,12953.603985,11177.109724
1724.178681,-1378.971896,16432.571912,6439.791695
1724.178998,3907.087040,14656.077652,8882.471304
1724.179316,4213.525239,13619.789333,1628.453072
1724.179633,6588.421283,11769.274478,-666.185348
1724.179950,7584.345430,4663.297435,-2368.659014
1724.180268,6128.763984,-4663.297435,888.247130
1724.180585,4290.134789,-13397.727550,7624.121203
1724.180902,-459.657299,-14952.160028,11621.233289
1724.181220,-3753.867940,-18209.066173,13471.748144
1724.181537,-3294.210641,-17468.860231,18431.127956
1724.181855,-4596.572988,-10288.862594,16876.695478
1724.182172,-6358.592633,-6957.935855,18431.127956
1724.182489,-8503.660028,-1702.473667,14804.118840
1724.182807,-7354.516781,666.185348,13323.706956
1724.183124,-7354.516781,3552.988522,12287.418637
1724.183441,-1455.581446,5477.523971,14952.160028
1724.183759,-2221.676944,11251.130318,7254.018232
1724.184076,919.314598,11695.253884,-444.123565
1724.184393,4749.792088,9030.512492,1702.473667
1724.184711,3753.867940,-888.247130,2220.617826
1724.185028,2604.724693,-9770.718434,5033.400406
1724.185345,459.657299,-13767.830521,7994.224174
1724.185663,-919.314598,-18505.148550,16358.551318
1724.185980,-1685.410096,-20207.622217,14878.139434
1724.186298,1378.971896,-15026.180623,16432.571912
1724.186615,0.000000,-8216.285956,15618.345376
1724.186932,-842.705048,-3034.844362,15248.242405
1724.187250,-2298.286494,6217.729913,7105.977043
1724.187567,2145.067394,9918.759623,10066.800811
1724.187884,0.000000,14804.118840,5255.462188
1724.188202,3907.087040,15766.386565,7105.977043
1724.188519,4519.963438,16580.613101,370.102971
1724.188836,7201.297681,13027.624579,-2442.679609
1724.189154,10801.946522,5255.462188,-2590.720797
1724.189471,9346.365076,-222.061783,-3627.009116
1724.189788,7048.078582,-9104.533087,3256.906145
1724.190106,3064.381992,-13841.851115,7179.997637
1724.190423,-383.047749,-17024.736666,11251.130318
1724.190741,-1991.848295,-12509.480420,14359.995275
1724.191058,-1915.238745,-10881.027347,17246.798449
1724.191375,-4903.011187,-5995.668130,19097.313304
1724.191693,-4826.401637,2812.782580,18949.272115
