#time,accel_x,accel_y,accel_z
1523.057984,306.438199,296.082377,9178.553681
1523.058303,459.657299,518.144159,9326.594869
1523.058622,536.266849,370.102971,9252.574275
1523.058941,459.657299,296.082377,9252.574275
1523.059259,766.095498,370.102971,9326.594869
1523.059578,536.266849,666.185348,9400.615463
1523.059897,612.876398,74.020594,9252.574275
1523.060216,766.095498,444.123565,9178.553681
1523.060535,459.657299,222.061783,9474.636058
1523.060854,229.828649,222.061783,9178.553681
1523.061173,612.876398,148.041188,9548.656652
1523.061491,459.657299,370.102971,9400.615463
1523.061810,459.657299,370.102971,9178.553681
1523.062129,459.657299,444.123565,9178.553681
1523.062448,842.705048,444.123565,9252.574275
1523.062767,689.485948,-0.000000,9474.636058
1523.063086,383.047749,74.020594,9104.533087
1523.063405,842.705048,666.185348,9030.512492
1523.063723,612.876398,370.102971,9178.553681
1523.064042,459.657299,444.123565,9326.594869
1523.064361,383.047749,-0.000000,8808.450710
1523.064680,306.438199,370.102971,9474.636058
1523.064999,229.828649,370.102971,9252.574275
1523.065318,153.219100,296.082377,9326.594869
1523.065637,-229.828649,-0.000000,9178.553681
1523.065955,383.047749,296.082377,9474.636058
1523.066274,383.047749,444.123565,9400.615463
1523.066593,76.609550,148.041188,9474.636058
1523.066912,229.828649,444.123565,9400.615463
1523.067231,153.219100,444.123565,9696.697840
1523.067550,459.657299,518.144159,9474.636058
1523.067869,383.047749,592.164754,9104.533087
1523.068187,536.266849,370.102971,9104.533087
1523.068506,766.095498,296.082377,9252.574275
1523.068825,1225.752797,518.144159,9326.594869
1523.069144,1072.533697,370.102971,9104.533087
1523.069463,612.876398,222.061783,9326.594869
1523.069782,689.485948,518.144159,9252.574275
1523.070101,842.705048,444.123565,9252.574275
1523.070419,536.266849,296.082377,9104.533087
1523.070738,459.657299,296.082377,9252.574275
1523.071057,229.828649,222.061783,9326.594869
1523.071376,76.609550,370.102971,9474.636058
1523.071695,766.095498,666.185348,9252.574275
1523.072014,76.609550,370.102971,9030.512492
1523.072333,229.828649,370.102971,9252.574275
1523.072651,536.266849,666.185348,9326.594869
1523.072970,229.828649,444.123565,9400.615463
1523.073289,306.438199,222.061783,9178.553681
1523.073608,536.266849,444.123565,9326.594869
1523.073927,306.438199,296.082377,9326.594869
1523.074246,383.047749,296.082377,9178.553681
1523.074565,306.438199,444.123565,9400.615463
1523.074883,383.047749,148.041188,9178.553681
1523.075202,612.876398,444.123565,9252.574275
1523.075521,383.047749,296.082377,9400.615463
1523.075840,229.828649,148.041188,9178.553681
1523.076159,536.266849,222.061783,9252.574275
1523.076478,842.705048,222.061783,9326.594869
1523.076797,383.047749,222.061783,9252.574275
1523.077115,459.657299,444.123565,9474.636058
1523.077434,689.485948,296.082377,9326.594869
1523.077753,1149.143247,296.082377,9178.553681
1523.078072,919.314598,296.082377,9326.594869
1523.078391,612.876398,370.102971,9030.512492
1523.078710,766.095498,148.041188,9178.553681
1523.079029,459.657299,370.102971,9178.553681
1523.079347,689.485948,370.102971,9400.615463
1523.079666,459.657299,444.123565,9252.574275
1523.079985,459.657299,444.123565,9252.574275
1523.080304,229.828649,370.102971,9178.553681
1523.080623,0.000000,518.144159,9178.553681
1523.080942,0.000000,518.144159,9252.574275
1523.081261,0.000000,592.164754,9474.636058
1523.081579,76.609550,1184.329507,9252.574275
1523.081898,-306.438199,962.267725,9178.553681
1523.082217,0.000000,1110.308913,9326.594869
1523.082536,0.000000,1258.350101,9474.636058
1523.082855,-153.219100,1258.350101,9474.636058
1523.083174,-306.438199,1258.350101,9474.636058
1523.083493,-459.657299,1184.329507,9548.656652
1523.083811,-919.314598,1184.329507,9548.656652
1523.084130,-689.485948,1258.350101,9252.574275
1523.084449,-1149.143247,1258.350101,9030.512492
1523.084768,-1532.190996,1406.391290,9178.553681
1523.085087,-1685.410096,1406.391290,8882.471304
1523.085406,-2528.115143,1628.453072,8586.388927
1523.085725,-2298.286494,1480.411884,8734.430116
1523.086043,-2374.896044,2146.597232,8660.409521
1523.086362,-2834.553343,2146.597232,8438.347739
1523.086681,-3140.991542,2368.659014,9030.512492
1523.087000,-3677.258390,2590.720797,8734.430116
1523.087319,-3600.648841,2590.720797,8586.388927
1523.087638,-3983.696590,3182.885551,8660.409521
1523.087957,-4060.306139,3256.906145,8882.471304
1523.088275,-3600.648841,3256.906145,8586.388927
1523.088594,-4213.525239,4071.132681,9326.594869
1523.088913,-3753.867940,3627.009116,9326.594869
1523.089232,-4213.525239,3404.947333,9400.615463
1523.089551,-3907.087040,3627.009116,9474.636058
1523.089870,-4213.525239,3552.988522,9474.636058
1523.090189,-4136.915689,3775.050304,9622.677246
1523.090507,-4290.134789,3997.112087,9252.574275
1523.090826,-3983.696590,4367.215058,9104.533087
1523.091145,-3677.258390,4959.379811,8586.388927
1523.091464,-3294.210641,4663.297435,8808.450710
1523.091783,-3370.820191,5033.400406,8882.471304
1523.092102,-3140.991542,4737.318029,9326.594869
1523.092421,-2681.334243,4663.297435,9474.636058
1523.092739,-1991.848295,4145.153275,9622.677246
1523.093058,-2221.676944,4071.132681,9474.636058
1523.093377,-1915.238745,4515.256246,9252.574275
1523.093696,-1838.629195,4885.359217,8660.409521
1523.094015,-1608.800546,5255.462188,8438.347739
1523.094334,-1532.190996,5181.441594,8068.244768
1523.094652,-2221.676944,5033.400406,8364.327145
1523.094971,-2451.505594,4737.318029,8882.471304
1523.095290,-2911.162892,3923.091493,9548.656652
1523.095609,-3753.867940,3108.864956,10140.821405
1523.095928,-4213.525239,2590.720797,10658.965565
1523.096247,-4213.525239,2516.700203,10362.883188
1523.096566,-3677.258390,2960.823768,10288.862594
1523.096884,-2604.724693,3478.967927,9992.780217
1523.097203,-612.876398,3997.112087,9326.594869
1523.097522,-612.876398,4293.194464,8512.368333
1523.097841,0.000000,3849.070898,8512.368333
1523.098160,0.000000,3552.988522,7846.182985
1523.098479,-229.828649,2294.638420,8438.347739
1523.098798,-919.314598,2220.617826,8438.347739
1523.099116,-919.314598,1998.556043,9030.512492
1523.099435,-383.047749,2812.782580,8586.388927
1523.099754,306.438199,3701.029710,9030.512492
1523.100073,153.219100,2812.782580,9252.574275
1523.100392,383.047749,2516.700203,9474.636058
1523.100711,-919.314598,1924.535449,9474.636058
1523.101030,-1072.533697,1258.350101,10955.047942
1523.101348,-1378.971896,-0.000000,12287.418637
1523.101667,-1455.581446,444.123565,11843.295072
1523.101986,-766.095498,814.226536,11103.089130
1523.102305,-383.047749,1332.370696,9622.677246
1523.102624,229.828649,1184.329507,9548.656652
1523.102943,76.609550,1110.308913,8882.471304
1523.103262,229.828649,740.205942,8660.409521
1523.103580,-306.438199,1036.288319,9030.512492
1523.103899,-1149.143247,1258.350101,8438.347739
1523.104218,-919.314598,1110.308913,8438.347739
1523.104537,-1532.190996,666.185348,8660.409521
1523.104856,-1762.019645,-148.041188,10066.800811
1523.105175,-2528.115143,-740.205942,10881.027347
1523.105494,-2834.553343,-0.000000,10658.965565
1523.105812,-2834.553343,740.205942,9918.759623
1523.106131,-2451.505594,962.267725,9474.636058
1523.106450,-2834.553343,814.226536,8956.491898
1523.106769,-2374.896044,962.267725,8586.388927
1523.107088,-2528.115143,1850.514855,7772.162391
1523.107407,-2221.676944,2960.823768,7031.956449
1523.107726,-2145.067394,3182.885551,7105.977043
1523.108044,-2068.457845,3108.864956,6661.853478
1523.108363,-2374.896044,2146.597232,8216.285956
1523.108682,-2528.115143,1850.514855,8142.265362
1523.109001,-2757.943793,2294.638420,7994.224174
1523.109320,-2451.505594,3701.029710,7624.121203
1523.109639,-2451.505594,3701.029710,8290.306550
1523.109958,-2451.505594,2368.659014,9178.553681
1523.110276,-2681.334243,2368.659014,9104.533087
1523.110595,-2451.505594,2960.823768,8512.368333
1523.110914,-1915.238745,3108.864956,8364.327145
1523.111233,-1455.581446,2664.741391,8956.491898
1523.111552,-1685.410096,2294.638420,9252.574275
1523.111871,-1378.971896,2368.659014,8734.430116
1523.112190,-536.266849,2812.782580,8660.409521
1523.112508,153.219100,3404.947333,8364.327145
1523.112827,1685.410096,3923.091493,8438.347739
1523.113146,1838.629195,4515.256246,7772.162391
1523.113465,1225.752797,4071.132681,8068.244768
1523.113784,766.095498,2960.823768,8808.450710
1523.114103,153.219100,2442.679609,9770.718434
1523.114422,76.609550,2664.741391,10362.883188
1523.114740,-1225.752797,2812.782580,9992.780217
1523.115059,-2298.286494,2664.741391,10732.986159
1523.115378,-2451.505594,2812.782580,10955.047942
1523.115697,-2681.334243,3923.091493,10362.883188
1523.116016,-3140.991542,4441.235652,10066.800811
1523.116335,-3447.429741,4293.194464,10140.821405
1523.116654,-3983.696590,3701.029710,10214.842000
1523.116972,-3830.477490,2516.700203,11177.109724
1523.117291,-4366.744339,2812.782580,11029.068536
1523.117610,-3983.696590,2516.700203,11547.212695
1523.117929,-3370.820191,2886.803174,11029.068536
1523.118248,-2298.286494,4145.153275,10510.924376
1523.118567,-1378.971896,4071.132681,9622.677246
1523.118886,-1072.533697,4663.297435,9178.553681
1523.119204,-536.266849,4589.276840,9104.533087
1523.119523,-536.266849,4885.359217,7550.100608
1523.119842,-1225.752797,4959.379811,7550.100608
1523.120161,-2298.286494,4293.194464,7846.182985
1523.120480,-2757.943793,4145.153275,8660.409521
1523.120799,-3447.429741,3552.988522,8808.450710
1523.121118,-3907.087040,2960.823768,9622.677246
1523.121436,-4903.011187,3034.844362,11103.089130
1523.121755,-4979.620737,2664.741391,11029.068536
1523.122074,-4596.572988,2368.659014,12139.377449
1523.122393,-4213.525239,1702.473667,12731.542202
1523.122712,-3217.601092,1554.432478,12805.562797
1523.123031,-1532.190996,2738.761985,11103.089130
1523.123349,306.438199,2812.782580,9844.739029
1523.123668,1838.629195,3552.988522,9178.553681
1523.123987,2298.286494,3849.070898,6883.915261
1523.124306,2834.553343,3404.947333,5847.626942
1523.124625,1685.410096,3478.967927,5625.565159
1523.124943,536.266849,4589.276840,5551.544565
1523.125262,-842.705048,3775.050304,5551.544565
1523.125581,-2374.896044,3108.864956,7402.059420
1523.125900,-4366.744339,1258.350101,9474.636058
1523.126219,-5439.278036,518.144159,10807.006753
1523.126538,-6281.983084,-1110.308913,13027.624579
1523.126856,-5822.325785,-1628.453072,15100.201217
1523.127175,-4749.792088,-1258.350101,15100.201217
1523.127494,-2834.553343,-0.000000,13323.706956
1523.127813,-612.876398,888.247130,11917.315666
1523.128132,1532.190996,2664.741391,9400.615463
1523.128450,3753.867940,4589.276840,5847.626942
1523.128769,3753.867940,6143.709319,2590.720797
1523.129088,3294.210641,6809.894666,1628.453072
1523.129407,2145.067394,5995.668130,1554.432478
1523.129726,-612.876398,4589.276840,2516.700203
1523.130045,-4749.792088,2664.741391,4885.359217
1523.130363,-5745.716235,518.144159,9104.533087
1523.130682,-7814.174080,148.041188,11473.192101
1523.131001,-6818.249932,-1924.535449,14878.139434
1523.131320,-7277.907231,-1480.411884,13619.789333
1523.131639,-5286.058936,-888.247130,17616.901420
1523.131958,-2221.676944,-444.123565,15840.407159
1523.132276,153.219100,2590.720797,11547.212695
1523.132595,2604.724693,3034.844362,8956.491898
1523.132914,4596.572988,4885.359217,6217.729913
1523.133233,4519.963438,5847.626942,1776.494261
1523.133552,4673.182538,6069.688724,222.061783
1523.133870,3447.429741,5477.523971,592.164754
1523.134189,153.219100,5921.647536,740.205942
1523.134508,-2451.505594,3997.112087,5403.503377
1523.134827,-5669.106685,2516.700203,8586.388927
1523.135146,-7354.516781,-0.000000,12435.459826
1523.135465,-7584.345430,-2072.576638,16654.633695
1523.135783,-7431.126331,-3256.906145,18357.107362
1523.136102,-6052.154434,-4071.132681,20725.766376
1523.136421,-4366.744339,-1628.453072,18357.107362
1523.136740,-1225.752797,-814.226536,14952.160028
1523.137059,2987.772442,1036.288319,11991.336260
1523.137377,3830.477490,5403.503377,6587.832884
1523.137696,5898.935335,6809.894666,1850.514855
1523.138015,5975.544884,9992.780217,-2442.679609
1523.138334,4443.353888,8660.409521,-1998.556043
1523.138653,919.314598,7254.018232,-962.267725
1523.138972,-2604.724693,4441.235652,2664.741391
1523.139290,-6205.373534,1850.514855,7105.977043
1523.139609,-8044.002729,-1184.329507,12657.521608
1523.139928,-9806.022374,-3701.029710,18283.086767
1523.140247,-9499.584175,-4293.194464,20207.622217
1523.140566,-9193.145976,-4737.318029,22206.178260
1523.140885,-5898.935335,-1554.432478,21614.013506
1523.141203,-2987.772442,2738.761985,16876.695478
1523.141522,2834.553343,6291.750507,13693.809927
1523.141841,5439.278036,9918.759623,8586.388927
1523.142160,7737.564530,9918.759623,1702.473667
1523.142479,9576.193725,9474.636058,-1850.514855
1523.142797,9346.365076,8216.285956,-3849.070898
1523.143116,6435.202183,4959.379811,-1554.432478
1523.143435,3830.477490,1998.556043,1036.288319
1523.143754,766.095498,518.144159,5625.565159
1523.144073,-2221.676944,-2146.597232,10955.047942
1523.144392,-4136.915689,-4515.256246,15692.365970
1523.144710,-4290.134789,-4145.153275,19837.519246
1523.145029,-3830.477490,-2812.782580,21317.931130
1523.145348,-2221.676944,-1406.391290,19689.478057
1523.145667,-153.219100,-1998.556043,17764.942608
1523.145986,2911.162892,-1036.288319,14804.118840
1523.146304,5056.230287,1850.514855,9696.697840
1523.146623,7201.297681,1776.494261,3997.112087
1523.146942,6818.249932,3923.091493,-1332.370696
1523.147261,6894.859482,2960.823768,-2368.659014
1523.147580,6205.373534,1406.391290,148.041188
1523.147899,3753.867940,1184.329507,1998.556043
1523.148217,0.000000,-1702.473667,5921.647536
1523.148536,-1378.971896,-3256.906145,11103.089130
1523.148855,-3294.210641,-5329.482782,16210.510130
1523.149174,-2911.162892,-6587.832884,18505.148550
1523.149493,-2145.067394,-6661.853478,21317.931130
1523.149812,-2221.676944,-6217.729913,18801.230927
1523.150130,689.485948,-3997.112087,15396.283594
1523.150449,3064.381992,-444.123565,9992.780217
1523.150768,4290.134789,1110.308913,4959.379811
1523.151087,4366.744339,4145.153275,-740.205942
1523.151406,3524.039291,4293.194464,-4737.318029
1523.151724,1455.581446,2146.597232,-1924.535449
1523.152043,-842.705048,1850.514855,-1998.556043
1523.152362,-3600.648841,-1110.308913,1998.556043
1523.152681,-5286.058936,-4589.276840,7920.203579
1523.153000,-7354.516781,-5181.441594,13249.686362
1523.153319,-6971.469032,-6809.894666,17320.819043
1523.153637,-5286.058936,-7550.100608,20207.622217
1523.153956,-2604.724693,-5255.462188,22724.322419
1523.154275,383.047749,-2886.803174,18727.210333
1523.154594,4290.134789,1332.370696,13397.727550
1523.154913,6128.763984,3256.906145,8290.306550
1523.155232,8120.612279,5625.565159,3330.926739
1523.155550,8580.269578,8068.244768,-4145.153275
1523.155869,7124.688131,6217.729913,-5107.421000
1523.156188,3600.648841,4515.256246,-4145.153275
1523.156507,229.828649,1850.514855,-1406.391290
1523.156826,-2911.162892,-2072.576638,3478.967927
1523.157144,-5669.106685,-4145.153275,10214.842000
1523.157463,-6128.763984,-5995.668130,15692.365970
1523.157782,-6281.983084,-5773.606348,18875.251521
1523.158101,-4213.525239,-5699.585753,21836.075289
1523.158420,-2068.457845,-5255.462188,22502.260637
1523.158739,1072.533697,-1480.411884,19467.416275
1523.159057,5592.497135,1480.411884,15026.180623
1523.159376,7967.393179,5847.626942,8068.244768
1523.159695,10342.289223,9696.697840,1924.535449
1523.160014,9882.631924,10658.965565,-4589.276840
1523.160333,7814.174080,10807.006753,-7031.956449
1523.160651,3830.477490,7476.080014,-4737.318029
1523.160970,-689.485948,5699.585753,-1776.494261
1523.161289,-5439.278036,444.123565,5033.400406
1523.161608,-7814.174080,-4441.235652,15396.283594
1523.161927,-9729.412825,-6143.709319,18061.024985
1523.162246,-10801.946522,-7698.141797,21095.869347
1523.162564,-9346.365076,-8660.409521,27683.702231
1523.162883,-5745.716235,-4441.235652,30422.464216
1523.163202,-612.876398,1924.535449,23020.404796
1523.163521,4213.525239,6587.832884,15914.427753
1523.163840,8656.879127,9770.718434,11177.109724
1523.164159,11644.651570,11251.130318,1406.391290
1523.164477,12870.404366,12361.439231,-7254.018232
1523.164796,10418.898773,10881.027347,-8512.368333
1523.165115,7431.126331,6143.709319,-4737.318029
1523.165434,1915.238745,4293.194464,-2072.576638
1523.165753,-2681.334243,-0.000000,4145.153275
1523.166071,-6741.640382,-5329.482782,13249.686362
1523.166390,-9193.145976,-7328.038826,19541.436869
1523.166709,-9422.974625,-8882.471304,22650.301825
1523.167028,-8733.488677,-7550.100608,25241.022622
1523.167347,-6205.373534,-5551.544565,32050.917289
1523.167666,-1991.848295,-4293.194464,25241.022622
1523.167984,4060.306139,888.247130,18135.045579
1523.168303,9193.145976,1406.391290,11843.295072
1523.168622,11491.432470,5033.400406,1406.391290
1523.168941,12717.185267,9918.759623,-8882.471304
1523.169260,13100.233016,8586.388927,-9474.636058
1523.169578,7890.783629,5921.647536,-8216.285956
1523.169897,2757.943793,2738.761985,-4885.359217
1523.170216,-3600.648841,-296.082377,2738.761985
1523.170535,-7890.783629,-6439.791695,13027.624579
1523.170854,-9499.584175,-9400.615463,18505.148550
1523.171173,-10725.336972,-10807.006753,18949.272115
1523.171491,-9499.584175,-13545.768739,27461.640448
1523.171810,-7737.564530,-9622.677246,31384.731941
1523.172129,-2528.115143,-4663.297435,23464.528361
1523.172448,4903.011187,2590.720797,13693.809927
1523.172767,9652.803275,2146.597232,9326.594869
1523.173086,9806.022374,3108.864956,-222.061783
1523.173404,10418.898773,7994.224174,-11399.171507
1523.173723,10725.336972,9548.656652,-11029.068536
1523.174042,7507.735880,7105.977043,-13027.624579
1523.174361,1838.629195,4441.235652,-5995.668130
1523.174680,-4519.963438,-2960.823768,4885.359217
1523.174998,-9193.145976,-11917.315666,12953.603985
1523.175317,-10342.289223,-10955.047942,16210.510130
1523.175636,-11338.213370,-13841.851115,16580.613101
1523.175955,-8120.612279,-13545.768739,29090.093521
1523.176274,-6818.249932,-10436.903782,31088.649564
1523.176593,0.000000,444.123565,21317.931130
1523.176911,7967.393179,6587.832884,16210.510130
1523.177230,11644.651570,4959.379811,7846.182985
1523.177549,13713.109414,7402.059420,-1850.514855
1523.177868,14096.157163,11917.315666,-12805.562797
1523.178187,14096.157163,10881.027347,-12805.562797
1523.178505,10112.460574,6217.729913,-15100.201217
1523.178824,4596.572988,3627.009116,-8142.265362
1523.179143,-4290.134789,-4515.256246,3404.947333
1523.179462,-7737.564530,-8364.327145,13619.789333
1523.179781,-10189.070123,-11547.212695,17468.860231
1523.180100,-9959.241474,-13323.706956,20429.683999
1523.180418,-10572.117872,-12657.521608,27609.681637
1523.180737,-7507.735880,-10362.883188,35751.946999
1523.181056,-1608.800546,-1036.288319,22132.157666
1523.181375,4366.744339,6513.812290,17838.963202
1523.181694,10955.165621,4515.256246,11769.274478
1523.182013,14249.376263,10955.047942,-740.205942
1523.182331,16471.053207,13767.830521,-12287.418637
1523.182650,13942.938064,12435.459826,-11029.068536
1523.182969,8886.707777,8882.471304,-13249.686362
1523.183288,1915.238745,4885.359217,-10214.842000
1523.183607,-2451.505594,-4145.153275,5403.503377
1523.183925,-11568.042020,-6069.688724,12657.521608
1523.184244,-13406.671215,-13027.624579,19837.519246
1523.184563,-15321.909960,-12657.521608,16950.716072
1523.184882,-14709.033562,-15544.324782,29682.258274
1523.185201,-13406.671215,-16432.571912,39008.853143
1523.185520,-5362.668486,148.041188,27461.640448
1523.185838,1455.581446,9622.677246,19541.436869
1523.186157,8427.050478,10955.047942,15248.242405
1523.186476,11797.870669,10955.047942,4367.215058
1523.186795,17313.758255,17246.798449,-9770.718434
1523.187114,15628.348159,17394.839637,-10288.862594
1523.187432,11338.213370,11177.109724,-17172.777854
1523.187751,3524.039291,7846.182985,-12287.418637
1523.188070,-612.876398,-0.000000,962.267725
1523.188389,-9346.365076,-5921.647536,7402.059420
1523.188708,-11414.822920,-11621.233289,21391.951724
1523.189027,-11797.870669,-11103.089130,22206.178260
1523.189345,-12640.575717,-13323.706956,21317.931130
1523.189664,-13559.890315,-15396.283594,33457.308578
1523.189983,-8656.879127,-6513.812290,37750.503042
1523.190302,-689.485948,5255.462188,21836.075289
1523.190621,8120.612279,8956.491898,16358.551318
1523.190940,13559.890315,12361.439231,7105.977043
1523.191258,17773.415554,15470.304188,-10140.821405
1523.191577,18539.511052,17542.880825,-15248.242405
1523.191896,16241.224558,10732.986159,-12731.542202
1523.192215,8810.098227,6809.894666,-15322.262999
1523.192534,3217.601092,1258.350101,-3849.070898
1523.192852,-8350.440928,-4441.235652,8068.244768
1523.193171,-8120.612279,-10510.924376,20429.683999
1523.193490,-11414.822920,-9770.718434,19689.478057
1523.193809,-12180.918418,-16062.468941,21614.013506
1523.194128,-12410.747068,-20503.704593,33457.308578
1523.194447,-8273.831378,-10881.027347,35085.761651
1523.194765,-4673.182538,2072.576638,18801.230927
1523.195084,9422.974625,7328.038826,19985.560434
1523.195403,14709.033562,9548.656652,11177.109724
1523.195722,15781.567259,11325.150913,-5699.585753
1523.196041,19612.044749,16950.716072,-16210.510130
1523.196359,17237.148705,14211.954086,-19985.560434
1523.196678,11644.651570,7031.956449,-16358.551318
1523.196997,2528.115143,3478.967927,-9918.759623
1523.197316,-7967.393179,-4441.235652,4737.318029
1523.197635,-11184.994271,-14434.015869,16802.674883
1523.197954,-14019.547613,-12065.356855,18357.107362
1523.198272,-15321.909960,-20799.786970,18653.189738
1523.198591,-17696.806004,-25759.166782,27017.516883
1523.198910,-11491.432470,-18357.107362,37602.461854
1523.199229,-6511.811733,2072.576638,25018.960840
1523.199548,2528.115143,8512.368333,19689.478057
1523.199867,11338.213370,12805.562797,12361.439231
1523.200185,16471.053207,17320.819043,-370.102971
1523.200504,16394.443657,20873.807564,-13101.645173
1523.200823,17237.148705,14137.933492,-10807.006753
1523.201142,9806.022374,7402.059420,-20503.704593
1523.201461,1455.581446,2516.700203,-11695.253884
1523.201779,-9193.145976,-11843.295072,8512.368333
1523.202098,-10265.679673,-9992.780217,12879.583391
1523.202417,-12717.185267,-12361.439231,18431.127956
1523.202736,-11951.089769,-13915.871710,17246.798449
1523.203055,-13713.109414,-18505.148550,23168.445985
1523.203374,-11874.480219,-20133.601622,30718.546593
1523.203692,-9652.803275,-222.061783,29460.196492
1523.204011,-1991.848295,4515.256246,22428.240043
1523.204330,9959.241474,9770.718434,16876.695478
1523.204649,15168.690860,15026.180623,4367.215058
1523.204968,21220.845295,17912.983796,-9326.594869
1523.205286,20684.578446,18727.210333,-15248.242405
1523.205605,13942.938064,14804.118840,-15988.448347
1523.205924,7354.516781,5773.606348,-13989.892304
1523.206243,-4519.963438,-2442.679609,-1110.308913
1523.206562,-9269.755526,-7476.080014,17838.963202
1523.206881,-11261.603821,-13101.645173,23464.528361
1523.207199,-12410.747068,-4885.359217,13693.809927
1523.207518,-13713.109414,-15396.283594,20577.725188
1523.207837,-12793.794817,-16950.716072,36566.173535
1523.208156,-8810.098227,-6883.915261,33087.205607
1523.208475,-459.657299,8808.450710,20947.828159
1523.208794,9882.631924,13989.892304,20133.601622
1523.209112,15628.348159,12879.583391,9770.718434
1523.209431,22063.550342,16802.674883,-6809.894666
1523.209750,21144.235745,20577.725188,-10436.903782
1523.210069,20301.530697,14878.139434,-20503.704593
1523.210388,9806.022374,11325.150913,-21095.869347
1523.210706,1991.848295,5255.462188,-1702.473667
1523.211025,-7814.174080,-4737.318029,12879.583391
1523.211344,-7890.783629,-7550.100608,14730.098246
1523.211663,-10648.727422,-8290.306550,18579.169144
1523.211982,-14785.643111,-19763.498651,21169.889941
1523.212301,-20914.407095,-26869.475695,26203.290347
1523.212619,-15245.300410,-14508.036463,38638.750172
1523.212938,-9882.631924,3404.947333,30866.587781
1523.213257,2068.457845,7698.141797,24056.693115
1523.213576,10955.165621,14656.077652,16802.674883
1523.213895,18233.072852,20207.622217,2590.720797
1523.214213,19612.044749,21910.095883,-15396.283594
1523.214532,16930.710506,16432.571912,-12435.459826
1523.214851,10495.508323,5403.503377,-14137.933492
1523.215170,1455.581446,3923.091493,-12139.377449
1523.215489,-6128.763984,-3997.112087,9622.677246
1523.215808,-9882.631924,-9474.636058,13101.645173
1523.216126,-11184.994271,-12879.583391,18431.127956
1523.216445,-10725.336972,-9844.739029,16950.716072
1523.216764,-16624.272307,-20207.622217,19541.436869
1523.217083,-19918.482948,-23686.590144,30200.402434
1523.217402,-11261.603821,-5477.523971,36640.194129
1523.217721,-6665.030833,8142.265362,21614.013506
1523.218039,6741.640382,12139.377449,16802.674883
1523.218358,12947.013916,12657.521608,6809.894666
1523.218677,18616.120601,17542.880825,-5773.606348
1523.218996,17313.758255,20355.663405,-16062.468941
1523.219315,17390.367805,14285.974681,-18579.169144
1523.219633,8120.612279,8438.347739,-19097.313304
1523.219952,842.705048,-6365.771101,-4293.194464
1523.220271,-8197.221829,-10881.027347,12583.501014
1523.220590,-10418.898773,-13175.665768,15100.201217
1523.220908,-11491.432470,-7994.224174,12879.583391
1523.221227,-12563.966167,-15618.345376,17468.860231
1523.221546,-14019.547613,-27831.743419,31014.628970
1523.221864,-10265.679673,-12435.459826,38490.708984
1523.222183,-9499.584175,-444.123565,23168.445985
1523.222502,6128.763984,10288.862594,19541.436869
1523.222820,17773.415554,15100.201217,12657.521608
1523.223139,14862.252661,17172.777854,-3108.864956
1523.223458,20684.578446,16136.489536,-5403.503377
1523.223776,22369.988542,21317.931130,-21614.013506
1523.224095,18079.853753,13915.871710,-24130.713709
1523.224414,6741.640382,3775.050304,-6735.874072
1523.224732,-2451.505594,-2812.782580,4663.297435
1523.225051,-5209.449386,-11029.068536,7624.121203
1523.225370,-12257.527968,-9104.533087,16358.551318
1523.225688,-11874.480219,-18653.189738,24204.734303
1523.226007,-16471.053207,-30200.402434,24944.940245
1523.226326,-17620.196454,-25537.104999,25389.063811
1523.226644,-12947.013916,-12805.562797,34937.720462
1523.226963,-1762.019645,6291.750507,29534.217086
1523.227281,9346.365076,9844.739029,13249.686362
1523.227600,17007.320056,28127.825796,666.185348
1523.227919,18309.682402,21243.910535,1554.432478
1523.228237,17620.196454,23538.548956,-17690.922014
1523.228556,16088.005458,22354.219448,-22132.157666
1523.228875,12563.966167,7920.203579,-7846.182985
1523.229193,-1302.362347,222.061783,-2738.761985
1523.229512,-9346.365076,-15248.242405,8956.491898
1523.229831,-12947.013916,-12953.603985,20355.663405
1523.230149,-16011.395908,-13767.830521,19393.395680
1523.230468,-17696.806004,-23316.487173,22798.343014
1523.230787,-17237.148705,-32050.917289,33605.349767
1523.231105,-16164.615008,-18357.107362,32717.102636
1523.231424,-8044.002729,4441.235652,30792.567187
1523.231743,306.438199,11325.150913,23168.445985
1523.232061,12640.575717,23464.528361,12065.356855
1523.232380,14402.595362,22132.157666,-1480.411884
1523.232699,20071.702048,22798.343014,-5181.441594
1523.233017,16241.224558,23094.425390,-21614.013506
1523.233336,16777.491406,16580.613101,-15618.345376
1523.233655,2987.772442,6291.750507,-9918.759623
1523.233973,-5592.497135,-7624.121203,74.020594
1523.234292,-11951.089769,-14952.160028,21688.034101
1523.234611,-15245.300410,-11029.068536,21539.992912
1523.234929,-14096.157163,-17172.777854,22354.219448
1523.235248,-14862.252661,-26795.455100,22724.322419
1523.235566,-16777.491406,-20355.663405,31236.690752
1523.235885,-14555.814462,-5773.606348,28645.969955
1523.236204,383.047749,4293.194464,28942.052332
1523.236522,8656.879127,22354.219448,16654.633695
1523.236841,13713.109414,21910.095883,3997.112087
1523.237160,18845.949251,21021.848753,-2294.638420
1523.237478,23672.350888,29534.217086,-13175.665768
1523.237797,20148.311597,27091.537477,-26351.331535
1523.238116,13100.233016,10955.047942,-9844.739029
1523.238434,1302.362347,-6735.874072,5107.421000
1523.238753,-6818.249932,-13323.706956,7476.080014
1523.239072,-9269.755526,-14434.015869,17246.798449
1523.239390,-12793.794817,-14137.933492,23168.445985
1523.239709,-11491.432470,-29460.196492,22576.281231
1523.240028,-14709.033562,-27165.558071,25833.187376
1523.240346,-12793.794817,-15618.345376,24426.796086
1523.240665,-3524.039291,2590.720797,25907.207970
1523.240984,3830.477490,11399.171507,17394.839637
1523.241302,10035.851024,19837.519246,10807.006753
1523.241621,18156.463303,13027.624579,5847.626942
1523.241940,20454.749797,23464.528361,-14730.098246
1523.242258,22523.207641,24870.919651,-23834.631332
1523.242577,18616.120601,22428.240043,-25907.207970
1523.242896,4290.134789,-3478.967927,3849.070898
1523.243214,-2757.943793,-14063.912898,11399.171507
1523.243533,-9806.022374,-11103.089130,6217.729913
1523.243851,-9499.584175,-12879.583391,23020.404796
1523.244170,-15551.738609,-21021.848753,21688.034101
1523.244489,-18386.291952,-34049.473332,25018.960840
1523.244807,-19995.092498,-29312.155303,36270.091158
1523.245126,-13253.452115,-14137.933492,30496.484810
1523.245445,-2757.943793,10140.821405,23464.528361
1523.245763,5592.497135,22872.363608,9622.677246
1523.246082,11414.822920,21762.054695,2812.782580
1523.246401,18156.463303,18505.148550,-1184.329507
1523.246719,21374.064394,23686.590144,-13693.809927
1523.247038,18769.339701,21836.075289,-25167.002028
1523.247357,12410.747068,5773.606348,-10436.903782
1523.247675,-919.314598,-9474.636058,0.000000
1523.247994,-6435.202183,-20947.828159,7476.080014
1523.248313,-9422.974625,-16432.571912,18209.066173
1523.248631,-12334.137518,-20651.745782,21021.848753
1523.248950,-11797.870669,-27165.558071,21317.931130
1523.249269,-15704.957709,-21688.034101,21317.931130
1523.249587,-14632.424012,-16432.571912,24056.693115
1523.249906,-5592.497135,4515.256246,30126.381839
1523.250225,306.438199,10658.965565,19763.498651
1523.250543,9422.974625,22502.260637,5995.668130
1523.250862,14096.157163,20429.683999,2442.679609
1523.251181,20378.140247,22132.157666,-14508.036463
1523.251499,18462.901502,27757.722825,-26573.393318
1523.251818,19382.216099,16580.613101,-5403.503377
1523.252136,2145.067394,-3330.926739,-6217.729913
1523.252455,-6435.202183,-12953.603985,-3034.844362
1523.252774,-7737.564530,-16506.592507,22280.198854
1523.253092,-14938.862211,-10214.842000,19615.457463
1523.253411,-11184.994271,-19911.539840,20133.601622
1523.253730,-15551.738609,-25018.960840,21836.075289
1523.254048,-12104.308868,-17987.004391,32272.979071
1523.254367,-7354.516781,-1554.432478,27239.578666
1523.254686,2757.943793,9252.574275,22576.281231
1523.255004,10189.070123,27239.578666,10510.924376
1523.255323,15092.081311,20947.828159,5921.647536
1523.255642,19765.263848,17542.880825,-296.082377
1523.255960,22063.550342,24870.919651,-13915.871710
1523.256279,18309.682402,23982.672521,-23390.507767
1523.256598,10648.727422,7105.977043,-2442.679609
1523.256916,689.485948,-4811.338623,3701.029710
1523.257235,-7048.078582,-14804.118840,9696.697840
1523.257554,-9806.022374,-13101.645173,20503.704593
1523.257872,-13866.328514,-14656.077652,23020.404796
1523.258191,-15015.471761,-29312.155303,21984.116477
1523.258510,-19075.777900,-24944.940245,23908.651927
1523.258828,-16624.272307,-13175.665768,26055.249158
1523.259147,-5898.935335,4663.297435,29682.258274
1523.259466,2374.896044,13027.624579,21169.889941
1523.259784,14709.033562,26869.475695,3404.947333
1523.260103,16624.272307,20429.683999,2146.597232
1523.260421,19841.873398,25907.207970,-10955.047942
1523.260740,18003.244203,24796.899057,-23316.487173
1523.261059,16471.053207,12213.398043,-7105.977043
1523.261377,76.609550,-3108.864956,-2368.659014
1523.261696,-7124.688131,-13249.686362,-814.226536
1523.262015,-9806.022374,-18209.066173,20429.683999
1523.262333,-15704.957709,-15026.180623,21762.054695
1523.262652,-10495.508323,-22428.240043,23094.425390
1523.262971,-18079.853753,-27905.764013,22798.343014
1523.263289,-17850.025103,-21243.910535,31014.628970
1523.263608,-12257.527968,-3552.988522,24500.816680
1523.263927,-2604.724693,4367.215058,26055.249158
1523.264245,6358.592633,15766.386565,15840.407159
1523.264564,12104.308868,19171.333898,-1332.370696
1523.264883,21220.845295,19985.560434,0.000000
1523.265201,20531.359346,23908.651927,-13841.851115
1523.265520,19918.482948,22650.301825,-23686.590144
1523.265839,12104.308868,-1702.473667,-5995.668130
1523.266157,-1762.019645,-13101.645173,1480.411884
1523.266476,-7354.516781,-20725.766376,12435.459826
1523.266795,-11797.870669,-13027.624579,19097.313304
1523.267113,-10265.679673,-14656.077652,21688.034101
1523.267432,-9499.584175,-21465.972318,17394.839637
1523.267751,-13253.452115,-21762.054695,24944.940245
1523.268069,-9729.412825,-14656.077652,25463.084405
1523.268388,-3753.867940,3775.050304,26795.455100
1523.268706,4519.963438,9474.636058,16950.716072
1523.269025,11338.213370,24870.919651,4219.173869
1523.269344,20301.530697,14434.015869,8068.244768
1523.269662,21220.845295,19245.354492,-12287.418637
1523.269981,23748.960438,19245.354492,-23612.569550
1523.270300,15321.909960,11917.315666,-17172.777854
1523.270618,4903.011187,-6513.812290,2294.638420
1523.270937,-2911.162892,-11991.336260,2220.617826
1523.271256,-6894.859482,-7698.141797,10955.047942
1523.271574,-8963.317327,-13841.851115,27979.784608
1523.271893,-9422.974625,-18801.230927,20429.683999
1523.272212,-14325.985813,-26351.331535,16950.716072
1523.272530,-14325.985813,-22132.157666,26129.269753
1523.272849,-9499.584175,-1554.432478,31236.690752
1523.273168,0.000000,5551.544565,22576.281231
1523.273486,7201.297681,17690.922014,12065.356855
1523.273805,14172.766713,20207.622217,3849.070898
1523.274124,18079.853753,15322.262999,-5921.647536
1523.274442,17160.539155,25833.187376,-17616.901420
1523.274761,17850.025103,17764.942608,-17764.942608
1523.275080,5362.668486,4219.173869,-7476.080014
1523.275398,-5515.887586,-3849.070898,518.144159
1523.275717,-9116.536426,-20207.622217,16876.695478
1523.276036,-13176.842566,-11695.253884,16358.551318
1523.276354,-13330.061665,-17912.983796,19837.519246
1523.276673,-15475.129060,-20651.745782,17987.004391
1523.276991,-18003.244203,-23538.548956,26943.496289
1523.277310,-14632.424012,-15544.324782,29016.072926
1523.277629,-6588.421283,2442.679609,28719.990550
1523.277947,2374.896044,13693.809927,21391.951724
1523.278266,11491.432470,23464.528361,3627.009116
1523.278585,16011.395908,18357.107362,2738.761985
1523.278903,19688.654299,22058.137072,-9474.636058
1523.279222,16700.881856,22280.198854,-21539.992912
1523.279541,16471.053207,13175.665768,-7476.080014
1523.279859,1991.848295,-1480.411884,-3701.029710
1523.280178,-7967.393179,-10066.800811,962.267725
1523.280497,-9652.803275,-16432.571912,22946.384202
1523.280815,-14479.204912,-14211.954086,24278.754898
1523.281134,-12640.575717,-17690.922014,19837.519246
1523.281453,-13483.280765,-21614.013506,21169.889941
1523.281771,-14938.862211,-18579.169144,31532.773129
1523.282090,-9269.755526,-2146.597232,24944.940245
1523.282409,0.000000,8068.244768,23612.569550
1523.282727,10342.289223,19689.478057,15544.324782
1523.283046,15781.567259,21984.116477,1554.432478
1523.283365,21450.673944,19763.498651,-2442.679609
1523.283683,24515.055936,22428.240043,-13841.851115
1523.284002,22906.255390,22280.198854,-22650.301825
1523.284321,10725.336972,7328.038826,-10436.903782
1523.284639,1532.190996,-7772.162391,9622.677246
1523.284958,-6052.154434,-16210.510130,6513.812290
1523.285276,-8580.269578,-9770.718434,18653.189738
1523.285595,-10342.289223,-11695.253884,23464.528361
1523.285914,-10878.556072,-23168.445985,20947.828159
1523.286232,-15321.909960,-25389.063811,21688.034101
1523.286551,-13253.452115,-17024.736666,26203.290347
1523.286870,-7124.688131,1406.391290,30200.402434
1523.287188,2834.553343,10955.047942,18949.272115
1523.287507,9422.974625,23242.466579,5995.668130
1523.287826,15934.786358,18801.230927,5625.565159
1523.288144,20301.530697,21391.951724,-12953.603985
1523.288463,21220.845295,22206.178260,-22872.363608
1523.288782,16777.491406,13915.871710,-16654.633695
1523.289100,4136.915689,-4737.318029,1998.556043
1523.289419,-5669.106685,-13619.789333,0.000000
1523.289738,-9039.926876,-15988.448347,14952.160028
1523.290056,-14402.595362,-13989.892304,21836.075289
1523.290375,-12563.966167,-20651.745782,21317.931130
1523.290694,-17696.806004,-24130.713709,17764.942608
1523.291012,-20607.968896,-28349.887579,33013.185013
1523.291331,-14096.157163,-11325.150913,29682.258274
1523.291650,-6128.763984,2590.720797,20281.642811
1523.291968,4060.306139,22132.157666,15026.180623
1523.292287,9193.145976,21539.992912,2072.576638
1523.292606,18539.511052,18727.210333,0.000000
1523.292924,20071.702048,24648.857869,-10955.047942
1523.293243,17237.148705,23612.569550,-21317.931130
1523.293561,13406.671215,11103.089130,-14211.954086
1523.293880,229.828649,-2960.823768,4441.235652
1523.294199,-8197.221829,-16506.592507,6143.709319
1523.294517,-7660.954980,-15618.345376,18875.251521
1523.294836,-11951.089769,-15914.427753,21539.992912
1523.295155,-11644.651570,-23242.466579,21169.889941
1523.295473,-17083.929605,-22206.178260,22724.322419
1523.295792,-16624.272307,-19467.416275,25981.228564
1523.296111,-10035.851024,-222.061783,21762.054695
1523.296429,-689.485948,11473.192101,26055.249158
1523.296748,9882.631924,25315.043216,10066.800811
1523.297067,15858.176809,22946.384202,-1998.556043
1523.297385,19688.654299,24944.940245,-7179.997637
1523.297704,21450.673944,20355.663405,-15396.283594
1523.298023,18079.853753,16728.654289,-15100.201217
1523.298341,7814.174080,-7920.203579,-1702.473667
1523.298660,-4749.792088,-12657.521608,2146.597232
1523.298979,-7814.174080,-17542.880825,17394.839637
1523.299297,-12487.356617,-11917.315666,21317.931130
1523.299616,-8963.317327,-15100.201217,23020.404796
1523.299935,-10112.460574,-19023.292709,19393.395680
1523.300253,-14096.157163,-16284.530724,23094.425390
1523.300572,-10648.727422,-3404.947333,26499.372724
1523.300891,536.266849,7550.100608,27831.743419
1523.301209,7354.516781,17616.901420,13619.789333
1523.301528,13866.328514,22206.178260,5551.544565
1523.301846,17926.634653,15100.201217,4589.276840
1523.302165,21603.893044,18653.189738,-12509.480420
1523.302484,18922.558801,22502.260637,-24796.899057
1523.302802,13866.328514,5847.626942,-3034.844362
1523.303121,919.314598,3108.864956,-2294.638420
1523.303440,-4903.011187,-11769.274478,1850.514855
1523.303758,-7890.783629,-10881.027347,21762.054695
1523.304077,-12563.966167,-12435.459826,26943.496289
1523.304396,-14096.157163,-18283.086767,18653.189738
1523.304714,-18462.901502,-23686.590144,23538.548956
1523.305033,-17850.025103,-21910.095883,28275.866984
1523.305352,-12180.918418,-740.205942,29164.114115
1523.305670,229.828649,8882.471304,22132.157666
1523.305989,10418.898773,21614.013506,9104.533087
1523.306308,14709.033562,23094.425390,1110.308913
1523.306626,16700.881856,18505.148550,-6439.791695
1523.306945,18079.853753,19023.292709,-12879.583391
1523.307264,16088.005458,16210.510130,-10362.883188
1523.307582,6511.811733,-5995.668130,-3182.885551
1523.307901,-6818.249932,-9326.594869,-1480.411884
1523.308220,-7814.174080,-13841.851115,16136.489536
1523.308538,-13330.061665,-15100.201217,18579.169144
1523.308857,-12027.699319,-15618.345376,19541.436869
1523.309176,-14172.766713,-21391.951724,20207.622217
1523.309494,-19612.044749,-21317.931130,23686.590144
1523.309813,-14862.252661,-11177.109724,20873.807564
1523.310131,-4060.306139,592.164754,28127.825796
1523.310450,3677.258390,16136.489536,19393.395680
1523.310769,11797.870669,21317.931130,1258.350101
1523.311087,19765.263848,15988.448347,5921.647536
1523.311406,21833.721693,24648.857869,-10362.883188
1523.311725,20837.797546,22428.240043,-22872.363608
1523.312043,16241.224558,12731.542202,-20207.622217
1523.312362,2681.334243,-1628.453072,4885.359217
1523.312681,-3524.039291,-12065.356855,4145.153275
1523.312999,-8350.440928,-14656.077652,8882.471304
1523.313318,-12870.404366,-10807.006753,22724.322419
1523.313637,-12257.527968,-19171.333898,20725.766376
1523.313955,-18386.291952,-25092.981434,24130.713709
1523.314274,-15551.738609,-18135.045579,25981.228564
1523.314593,-13100.233016,-1924.535449,30496.484810
1523.314911,383.047749,10214.842000,25241.022622
1523.315230,12640.575717,22650.301825,7920.203579
1523.315549,18003.244203,22280.198854,3108.864956
1523.315867,19458.825649,14359.995275,148.041188
1523.316186,22982.864940,20873.807564,-16284.530724
1523.316505,23365.912689,22280.198854,-24500.816680
1523.316823,9499.584175,-444.123565,814.226536
1523.317142,-842.705048,-3997.112087,-2738.761985
1523.317461,-5209.449386,-12287.418637,2516.700203
1523.317779,-8503.660028,-10436.903782,21169.889941
1523.318098,-13023.623466,-13249.686362,23908.651927
1523.318416,-15858.176809,-24204.734303,20577.725188
1523.318735,-18156.463303,-21688.034101,20651.745782
1523.319054,-17620.196454,-15840.407159,27091.537477
1523.319372,-8120.612279,1258.350101,35974.008781
1523.319691,919.314598,8068.244768,19541.436869
1523.320010,14249.376263,27609.681637,5255.462188
1523.320328,18003.244203,17320.819043,6439.791695
1523.320647,18386.291952,22354.219448,-11769.274478
1523.320966,19765.263848,23094.425390,-18135.045579
1523.321284,16394.443657,15322.262999,-7254.018232
1523.321603,4060.306139,2294.638420,-5403.503377
1523.321922,-8580.269578,-14656.077652,-4515.256246
1523.322240,-7354.516781,-12805.562797,21836.075289
1523.322555,-14862.252661,-10807.006753,20799.786970
1523.322874,-14096.157163,-23686.590144,22280.198854
1523.323193,-20148.311597,-27905.764013,21762.054695
1523.323512,-19535.435199,-23686.590144,34049.473332
1523.323830,-14938.862211,-4959.379811,30792.567187
1523.324149,-2987.772442,10807.006753,24426.796086
1523.324468,9269.755526,22872.363608,9622.677246
1523.324787,16930.710506,25537.104999,148.041188
1523.325106,17773.415554,14285.974681,1406.391290
1523.325424,18386.291952,22650.301825,-15544.324782
1523.325743,18769.339701,22946.384202,-27535.661042
1523.326062,12793.794817,-740.205942,74.020594
1523.326381,766.095498,-1480.411884,-888.247130
1523.326700,-6894.859482,-11325.150913,5329.482782
1523.327018,-12870.404366,-12065.356855,17542.880825
1523.327337,-11721.261119,-14063.912898,23982.672521
1523.327656,-15704.957709,-23242.466579,21465.972318
1523.327975,-17620.196454,-26351.331535,23834.631332
1523.328294,-18079.853753,-16506.592507,24722.878463
1523.328613,-842.705048,11843.295072,31754.834912
1523.328931,5209.449386,11029.068536,20799.786970
1523.329250,15321.909960,25537.104999,7994.224174
1523.329569,22446.598091,15396.283594,7772.162391
1523.329888,26200.466032,24574.837274,-13323.706956
1523.330207,24055.398637,23168.445985,-27387.619854
1523.330525,17160.539155,11547.212695,-17690.922014
1523.330844,5975.544884,-2072.576638,2442.679609
1523.331163,-4903.011187,-9474.636058,-4219.173869
1523.331482,-7431.126331,-17912.983796,9918.759623
1523.331801,-12334.137518,-13471.748144,28719.990550
1523.332119,-12870.404366,-17320.819043,22132.157666
1523.332438,-21910.331243,-33161.226202,16728.654289
1523.332757,-19228.997000,-25389.063811,33013.185013
1523.333076,-15092.081311,-7476.080014,28423.908173
1523.333395,-3677.258390,9844.739029,23094.425390
1523.333713,6894.859482,17616.901420,16210.510130
1523.334032,17620.196454,24056.693115,5255.462188
1523.334351,16317.834107,21021.848753,-10732.986159
1523.334670,22446.598091,30792.567187,-17987.004391
1523.334989,23289.303139,19097.313304,-26055.249158
1523.335307,9193.145976,3256.906145,-4367.215058
1523.335626,-536.266849,-5773.606348,-7254.018232
1523.335945,-9346.365076,-13841.851115,6809.894666
1523.336264,-12640.575717,-13323.706956,17172.777854
1523.336583,-14785.643111,-14063.912898,20947.828159
1523.336901,-16547.662757,-27979.784608,18949.272115
1523.337220,-19305.606550,-28423.908173,32865.143825
1523.337539,-17773.415554,-18135.045579,26721.434506
1523.337858,-6665.030833,6957.935855,31236.690752
1523.338177,3677.258390,9548.656652,24574.837274
1523.338495,14019.547613,23020.404796,7920.203579
1523.338814,18922.558801,18061.024985,8364.327145
1523.339133,19918.482948,23834.631332,-11843.295072
1523.339452,19612.044749,22206.178260,-24204.734303
1523.339771,19535.435199,18283.086767,-20947.828159
1523.340089,5056.230287,-518.144159,814.226536
1523.340408,-5515.887586,-7402.059420,-592.164754
1523.340727,-10112.460574,-18357.107362,15618.345376
1523.341046,-12410.747068,-13619.789333,22724.322419
1523.341365,-13636.499864,-21836.075289,23094.425390
1523.341683,-20837.797546,-30496.484810,26203.290347
1523.342002,-16241.224558,-28423.908173,34197.514520
1523.342321,-14172.766713,-6587.832884,26055.249158
1523.342640,1072.533697,7105.977043,28053.805202
1523.342959,9806.022374,21539.992912,16136.489536
1523.343277,19841.873398,27535.661042,5773.606348
1523.343596,23365.912689,21539.992912,-5033.400406
1523.343915,26200.466032,26055.249158,-14878.139434
1523.344234,22063.550342,24500.816680,-27905.764013
1523.344553,12717.185267,3404.947333,-5995.668130
1523.344871,0.000000,-5625.565159,-5181.441594
1523.345190,-6894.859482,-17246.798449,3404.947333
1523.345509,-9346.365076,-5995.668130,20577.725188
1523.345828,-11184.994271,-16136.489536,25315.043216
1523.346147,-16241.224558,-32791.123231,23020.404796
1523.346465,-14172.766713,-25315.043216,29090.093521
1523.346784,-15398.519510,-11029.068536,27165.558071
1523.347103,-5515.887586,7105.977043,30940.608376
1523.347422,4596.572988,6291.750507,21317.931130
1523.347741,15858.176809,26943.496289,7105.977043
1523.348059,16930.710506,18135.045579,5403.503377
1523.348378,21220.845295,23020.404796,-16950.716072
1523.348697,22906.255390,26573.393318,-25907.207970
1523.349016,18386.291952,16506.592507,-18283.086767
1523.349335,3753.867940,-2516.700203,-4589.276840
1523.349654,-8197.221829,-9918.759623,-1480.411884
1523.349972,-9806.022374,-15692.365970,20059.581028
1523.350291,-17926.634653,-10732.986159,19393.395680
1523.350610,-16624.272307,-23464.528361,20799.786970
1523.350929,-23978.789087,-31976.896694,30274.423028
1523.351248,-18692.730151,-25611.125593,31532.773129
1523.351566,-16930.710506,-5773.606348,26203.290347
1523.351885,-1991.848295,5847.626942,29090.093521
1523.352204,6894.859482,22872.363608,15544.324782
1523.352523,13636.499864,20133.601622,2664.741391
1523.352842,19612.044749,22428.240043,-5847.626942
1523.353160,23825.569988,25315.043216,-13101.645173
1523.353479,20761.187996,25315.043216,-24870.919651
1523.353798,12947.013916,12065.356855,-12509.480420
1523.354117,-1378.971896,-5773.606348,-6439.791695
1523.354436,-9116.536426,-12213.398043,5625.565159
1523.354754,-10495.508323,-10955.047942,23612.569550
1523.355073,-14709.033562,-17024.736666,21688.034101
1523.355392,-14938.862211,-32272.979071,23686.590144
1523.355711,-17773.415554,-25981.228564,31828.855506
1523.356030,-14632.424012,-17987.004391,24056.693115
1523.356348,-5898.935335,6217.729913,30940.608376
1523.356667,3140.991542,6661.853478,22428.240043
1523.356986,11797.870669,27683.702231,7105.977043
1523.357305,17620.196454,20577.725188,2960.823768
1523.357624,20224.921147,25611.125593,-14137.933492
1523.357942,24055.398637,28645.969955,-23168.445985
1523.358261,19535.435199,20281.642811,-22280.198854
1523.358580,6052.154434,296.082377,2294.638420
1523.358899,-5439.278036,-14211.954086,-962.267725
1523.359218,-10112.460574,-14063.912898,14582.057057
1523.359536,-13330.061665,-16728.654289,21910.095883
1523.359855,-13636.499864,-23242.466579,27461.640448
1523.360174,-16241.224558,-29534.217086,29238.134709
1523.360493,-14938.862211,-19393.395680,27609.681637
1523.360812,-9959.241474,-6365.771101,31680.814318
1523.361130,1149.143247,9770.718434,24500.816680
1523.361449,9116.536426,21317.931130,4885.359217
1523.361768,17466.977354,19171.333898,7772.162391
1523.362087,21603.893044,21169.889941,-10140.821405
1523.362406,23136.084040,25463.084405,-18209.066173
1523.362724,21986.940793,21317.931130,-25759.166782
1523.363043,11951.089769,7698.141797,-6291.750507
1523.363362,-766.095498,1332.370696,-13175.665768
1523.363681,-6894.859482,-18579.169144,11325.150913
1523.364000,-9806.022374,-12583.501014,26425.352129
1523.364318,-14479.204912,-16580.613101,24574.837274
1523.364637,-17007.320056,-30570.505405,21465.972318
1523.364956,-14709.033562,-29312.155303,31606.793723
1523.365275,-12410.747068,-12139.377449,29682.258274
1523.365594,-4060.306139,2368.659014,30496.484810
1523.365912,6358.592633,12657.521608,18135.045579
1523.366231,13942.938064,29090.093521,6143.709319
1523.366550,17237.148705,22428.240043,444.123565
1523.366869,21297.454844,23020.404796,-13841.851115
1523.367188,18769.339701,24204.734303,-23686.590144
1523.367506,12334.137518,11991.336260,-11991.336260
1523.367825,1991.848295,-6957.935855,-2590.720797
1523.368144,-12104.308868,-15248.242405,1184.329507
1523.368463,-11721.261119,-18653.189738,23316.487173
1523.368782,-16241.224558,-16284.530724,23834.631332
1523.369100,-15475.129060,-25018.960840,24796.899057
1523.369419,-20378.140247,-31606.793723,32346.999665
1523.369738,-18616.120601,-23686.590144,31606.793723
1523.370057,-9422.974625,-1702.473667,27905.764013
1523.370376,1532.190996,10436.903782,25833.187376
1523.370694,9346.365076,27461.640448,10288.862594
1523.371013,15398.519510,17098.757260,4811.338623
1523.371332,20454.749797,26351.331535,-12139.377449
1523.371651,20224.921147,25389.063811,-19171.333898
1523.371970,20224.921147,21465.972318,-19467.416275
1523.372289,8350.440928,9622.677246,-9696.697840
1523.372607,-5132.839837,-6883.915261,-4219.173869
1523.372926,-8733.488677,-22058.137072,18135.045579
1523.373245,-14479.204912,-13027.624579,22650.301825
1523.373564,-14709.033562,-22132.157666,23316.487173
1523.373883,-16241.224558,-32643.082042,29756.278868
1523.374201,-14862.252661,-21021.848753,29904.320057
1523.374520,-12257.527968,-5033.400406,18653.189738
1523.374839,-459.657299,3923.091493,32346.999665
1523.375158,8273.831378,15100.201217,15618.345376
1523.375477,17083.929605,26425.352129,3701.029710
1523.375795,20531.359346,22354.219448,74.020594
1523.376114,26889.951980,26647.413912,-17616.901420
1523.376433,25817.418283,26647.413912,-30200.402434
1523.376752,18769.339701,16580.613101,-23168.445985
1523.377071,3677.258390,-3775.050304,8660.409521
1523.377389,-6665.030833,-12879.583391,2812.782580
1523.377708,-9729.412825,-12879.583391,10807.006753
1523.378027,-9576.193725,-16210.510130,34567.617491
1523.378346,-16317.834107,-26055.249158,24574.837274
1523.378665,-19995.092498,-34493.596897,31310.711347
1523.378983,-14325.985813,-20133.601622,33531.329173
1523.379302,-10648.727422,888.247130,30570.505405
1523.379621,1302.362347,11325.150913,25463.084405
1523.379940,11644.651570,29386.175897,8512.368333
1523.380259,18386.291952,25241.022622,2960.823768
1523.380577,19765.263848,25907.207970,-14804.118840
1523.380896,21680.502593,24648.857869,-21762.054695
1523.381215,18233.072852,12509.480420,-16210.510130
1523.381534,8963.317327,6069.688724,-7105.977043
1523.381853,-11031.775171,-12731.542202,-9696.697840
1523.382171,-11491.432470,-21836.075289,22280.198854
1523.382490,-15015.471761,-17912.983796,26647.413912
1523.382809,-13100.233016,-19985.560434,23686.590144
1523.383128,-21757.112143,-27831.743419,25611.125593
1523.383447,-16394.443657,-22650.301825,32495.040854
1523.383765,-13559.890315,-9918.759623,23686.590144
1523.384084,-4903.011187,5181.441594,27017.516883
1523.384403,3983.696590,15988.448347,18579.169144
1523.384722,10648.727422,22724.322419,962.267725
1523.385041,18692.730151,20947.828159,-9326.594869
1523.385359,20071.702048,26869.475695,-12435.459826
1523.385678,17160.539155,23316.487173,-26721.434506
1523.385997,14402.595362,10584.944971,-7624.121203
1523.386316,-1149.143247,-2220.617826,-3034.844362
1523.386635,-9039.926876,-13693.809927,12509.480420
1523.386953,-11491.432470,-13545.768739,24648.857869
1523.387272,-13789.718964,-19467.416275,25018.960840
1523.387591,-13100.233016,-30644.525999,27239.578666
1523.387910,-12870.404366,-27461.640448,28794.011144
1523.388229,-14019.547613,-16580.613101,21169.889941
1523.388547,-2451.505594,3330.926739,31754.834912
1523.388866,6894.859482,16136.489536,17838.963202
1523.389185,13100.233016,26943.496289,2886.803174
1523.389504,18922.558801,18061.024985,5625.565159
1523.389823,21603.893044,26425.352129,-11695.253884
1523.390141,22293.378992,23020.404796,-24944.940245
1523.390460,18386.291952,17690.922014,-23094.425390
1523.390779,7967.393179,5477.523971,3627.009116
1523.391098,-4060.306139,-9696.697840,2072.576638
1523.391417,-8963.317327,-18505.148550,8438.347739
1523.391735,-12027.699319,-16876.695478,32495.040854
1523.392054,-12410.747068,-24500.816680,29608.237680
1523.392373,-19612.044749,-26647.413912,16728.654289
1523.392692,-15781.567259,-24056.693115,26277.310941
1523.393011,-11338.213370,-3478.967927,30792.567187
1523.393330,689.485948,9030.512492,22502.260637
1523.393648,8503.660028,24426.796086,5699.585753
1523.393967,15858.176809,21614.013506,5033.400406
1523.394286,17390.367805,24056.693115,-6439.791695
1523.394605,21297.454844,29386.175897,-20947.828159
1523.394924,17926.634653,20503.704593,-28275.866984
1523.395242,11414.822920,1332.370696,-1776.494261
1523.395561,-2068.457845,-5181.441594,-8808.450710
1523.395880,-11721.261119,-14952.160028,11325.150913
1523.396199,-14709.033562,-19541.436869,29090.093521
1523.396518,-17237.148705,-21169.889941,23094.425390
1523.396836,-17390.367805,-27313.599260,27017.516883
1523.397155,-17466.977354,-26277.310941,28868.031738
1523.397474,-15398.519510,-14211.954086,25611.125593
1523.397793,-5132.839837,6883.915261,30570.505405
1523.398112,3217.601092,13693.809927,17616.901420
1523.398430,10112.460574,23686.590144,2072.576638
1523.398749,15781.567259,19245.354492,-740.205942
1523.399068,18386.291952,28423.908173,-14137.933492
1523.399387,17620.196454,22132.157666,-21465.972318
1523.399706,15551.738609,12065.356855,-7994.224174
1523.400024,4290.134789,-4885.359217,592.164754
1523.400343,-9116.536426,-8956.491898,2516.700203
1523.400662,-9652.803275,-22798.343014,23020.404796
1523.400981,-12870.404366,-20355.663405,27091.537477
1523.401300,-10725.336972,-23094.425390,25167.002028
1523.401618,-15245.300410,-22280.198854,23834.631332
1523.401937,-13100.233016,-17098.757260,23982.672521
1523.402256,-7814.174080,-2960.823768,26277.310941
1523.402575,2604.724693,7994.224174,20207.622217
1523.402894,8733.488677,24870.919651,4367.215058
1523.403212,15245.300410,20725.766376,1258.350101
1523.403531,19152.387450,24944.940245,-12287.418637
1523.403850,20607.968896,24796.899057,-21614.013506
1523.404169,18233.072852,15618.345376,-14211.954086
1523.404488,8580.269578,1702.473667,-6439.791695
1523.404806,-4826.401637,-10362.883188,-3108.864956
1523.405125,-7048.078582,-15618.345376,21614.013506
1523.405444,-12257.527968,-14434.015869,26573.393318
1523.405763,-9806.022374,-20873.807564,27683.702231
1523.406082,-13023.623466,-23020.404796,21243.910535
1523.406400,-12257.527968,-15100.201217,24130.713709
1523.406719,-8810.098227,-6957.935855,31680.814318
1523.407038,2145.067394,8660.409521,19689.478057
1523.407357,8197.221829,16876.695478,11917.315666
1523.407676,15015.471761,25092.981434,8216.285956
1523.407994,17390.367805,20725.766376,-7254.018232
1523.408313,19918.482948,23464.528361,-14211.954086
1523.408632,17160.539155,19171.333898,-25092.981434
1523.408951,12640.575717,5477.523971,-4737.318029
1523.409270,-2987.772442,-2368.659014,-1554.432478
1523.409588,-7354.516781,-17320.819043,8734.430116
1523.409907,-10955.165621,-19541.436869,23760.610738
1523.410226,-11797.870669,-19837.519246,27609.681637
1523.410545,-16394.443657,-25685.146187,22946.384202
1523.410864,-18539.511052,-23390.507767,21688.034101
1523.411182,-15321.909960,-14063.912898,23834.631332
1523.411501,-3064.381992,-222.061783,29978.340651
1523.411820,3217.601092,18283.086767,20799.786970
1523.412139,10112.460574,28719.990550,888.247130
1523.412458,17160.539155,22354.219448,-3330.926739
1523.412776,18386.291952,28719.990550,-11769.274478
1523.413095,16854.100956,18875.251521,-18579.169144
1523.413414,13406.671215,12361.439231,-9992.780217
1523.413733,536.266849,1110.308913,-3256.906145
1523.414052,-9882.631924,-17616.901420,1406.391290
1523.414370,-12410.747068,-21169.889941,20577.725188
1523.414689,-13713.109414,-21539.992912,30422.464216
1523.415008,-13100.233016,-22206.178260,26499.372724
1523.415327,-16164.615008,-21169.889941,18135.045579
1523.415646,-14402.595362,-12509.480420,22576.281231
1523.415965,-7124.688131,-3552.988522,29386.175897
1523.416283,1838.629195,11251.130318,22058.137072
1523.416602,7507.735880,24574.837274,7550.100608
1523.416921,14249.376263,18949.272115,3330.926739
1523.417240,18003.244203,23538.548956,-11473.192101
1523.417559,19765.263848,25537.104999,-16432.571912
1523.417877,15858.176809,14878.139434,-14359.995275
1523.418196,8273.831378,1554.432478,-7179.997637
1523.418515,-3600.648841,-5107.421000,-5255.462188
1523.418834,-7967.393179,-17838.963202,18949.272115
1523.419153,-12487.356617,-17468.860231,30792.567187
1523.419471,-12563.966167,-21762.054695,26795.455100
1523.419790,-15245.300410,-21317.931130,18579.169144
1523.420109,-13176.842566,-15766.386565,20207.622217
1523.420428,-8427.050478,-4811.338623,21984.116477
1523.420747,1149.143247,7328.038826,24648.857869
1523.421065,9193.145976,12435.459826,12287.418637
1523.421384,15168.690860,27831.743419,2368.659014
1523.421703,17543.586904,21762.054695,-7031.956449
1523.422022,22063.550342,17912.983796,-11103.089130
1523.422340,18845.949251,16802.674883,-21391.951724
1523.422659,13636.499864,4293.194464,-7105.977043
1523.422978,995.924147,3923.091493,-2442.679609
1523.423296,-6358.592633,-16136.489536,6957.935855
1523.423615,-9422.974625,-15692.365970,22650.301825
1523.423934,-7048.078582,-16580.613101,33235.246796
1523.424253,-12563.966167,-20429.683999,23686.590144
1523.424571,-13483.280765,-24648.857869,21539.992912
1523.424890,-11797.870669,-9474.636058,23760.610738
1523.425209,-3217.601092,888.247130,29016.072926
1523.425528,3600.648841,15248.242405,18653.189738
1523.425846,14479.204912,26721.434506,6069.688724
1523.426165,15015.471761,18801.230927,-222.061783
1523.426484,17773.415554,25833.187376,-9918.759623
1523.426802,16011.395908,17172.777854,-14878.139434
1523.427121,14172.766713,9178.553681,-6291.750507
1523.427440,842.705048,2738.761985,-7402.059420
1523.427759,-9499.584175,-7105.977043,1036.288319
1523.428077,-12870.404366,-24130.713709,26869.475695
1523.428396,-14402.595362,-20725.766376,32346.999665
1523.428715,-14709.033562,-18653.189738,20873.807564
1523.429034,-17313.758255,-24278.754898,20577.725188
1523.429352,-16011.395908,-21391.951724,23834.631332
1523.429671,-12180.918418,222.061783,16432.571912
1523.429990,-4136.915689,7254.018232,24056.693115
1523.430308,5286.058936,21243.910535,12139.377449
1523.430627,12563.966167,21391.951724,-3256.906145
1523.430946,13789.718964,27535.661042,-10214.842000
1523.431265,17160.539155,20355.663405,-10362.883188
1523.431583,13023.623466,12583.501014,-15840.407159
1523.431902,8044.002729,1480.411884,-6513.812290
1523.432221,-5362.668486,-6809.894666,2220.617826
1523.432540,-9882.631924,-17987.004391,13619.789333
1523.432858,-13100.233016,-21243.910535,26795.455100
1523.433177,-12257.527968,-18061.024985,28275.866984
1523.433496,-12257.527968,-23464.528361,22058.137072
1523.433815,-13483.280765,-14285.974681,15026.180623
1523.434133,-9346.365076,-5773.606348,19689.478057
1523.434452,1685.410096,7105.977043,24056.693115
1523.434771,5209.449386,15988.448347,14804.118840
1523.435089,16088.005458,21614.013506,666.185348
1523.435408,17007.320056,21984.116477,-1036.288319
1523.435727,22063.550342,20725.766376,-10732.986159
1523.436046,20454.749797,13101.645173,-19763.498651
1523.436364,16394.443657,5181.441594,-14434.015869
1523.436683,4903.011187,-2516.700203,4663.297435
1523.437002,-1915.238745,-11473.192101,7846.182985
1523.437321,-5745.716235,-12065.356855,15692.365970
1523.437639,-5515.887586,-17616.901420,31236.690752
1523.437958,-8503.660028,-16802.674883,22946.384202
1523.438277,-11951.089769,-24870.919651,18949.272115
1523.438595,-11644.651570,-17987.004391,16284.530724
1523.438914,-7277.907231,-1850.514855,26351.331535
1523.439233,689.485948,6883.915261,19763.498651
1523.439552,11414.822920,18949.272115,6291.750507
1523.439870,15858.176809,27313.599260,222.061783
1523.440189,17007.320056,18727.210333,-5033.400406
1523.440508,15781.567259,18209.066173,-11843.295072
1523.440827,15704.957709,16062.468941,-14359.995275
1523.441145,7814.174080,3330.926739,-5847.626942
1523.441464,-5822.325785,-4959.379811,-2072.576638
1523.441783,-7277.907231,-16876.695478,21614.013506
1523.442101,-15781.567259,-16432.571912,23242.466579
1523.442420,-13866.328514,-19615.457463,24796.899057
1523.442739,-15934.786358,-19615.457463,18727.210333
1523.443058,-18616.120601,-22280.198854,25241.022622
1523.443376,-12717.185267,-6291.750507,20725.766376
1523.443695,-5132.839837,8956.491898,22280.198854
1523.444014,2221.676944,15322.262999,21021.848753
1523.444333,9806.022374,21836.075289,2590.720797
1523.444651,15551.738609,20429.683999,-4737.318029
1523.444970,15168.690860,23316.487173,-11917.315666
1523.445289,16930.710506,14582.057057,-12139.377449
1523.445607,12257.527968,8290.306550,-7031.956449
1523.445926,2221.676944,4219.173869,740.205942
1523.446245,-7737.564530,-9104.533087,2738.761985
1523.446564,-9959.241474,-15618.345376,21688.034101
1523.446882,-12870.404366,-18727.210333,27313.599260
1523.447201,-15245.300410,-20873.807564,19393.395680
1523.447520,-14479.204912,-25611.125593,22354.219448
1523.447839,-17696.806004,-17394.839637,20799.786970
1523.448157,-11184.994271,2072.576638,18801.230927
1523.448476,1302.362347,10807.006753,24500.816680
1523.448795,9652.803275,19171.333898,12213.398043
1523.449113,16854.100956,26277.310941,-1480.411884
1523.449432,18539.511052,25241.022622,-6957.935855
1523.449751,21680.502593,20355.663405,-14285.974681
1523.450070,18999.168350,19467.416275,-25611.125593
1523.450388,11031.775171,6365.771101,1480.411884
1523.450707,-2221.676944,-11695.253884,11547.212695
1523.451026,-9882.631924,-12879.583391,3404.947333
1523.451345,-11414.822920,-20281.642811,23538.548956
1523.451663,-11721.261119,-17172.777854,27905.764013
1523.451982,-13636.499864,-24426.796086,18209.066173
1523.452301,-15015.471761,-24130.713709,22280.198854
1523.452619,-12640.575717,-11917.315666,23316.487173
1523.452938,-2757.943793,5625.565159,29756.278868
1523.453257,6588.421283,13841.851115,15988.448347
1523.453576,14785.643111,23686.590144,5625.565159
1523.453894,21527.283494,16950.716072,3775.050304
1523.454213,23519.131789,20651.745782,-13323.706956
1523.454532,23748.960438,19023.292709,-23242.466579
1523.454851,20071.702048,15026.180623,-24204.734303
1523.455169,4903.011187,2146.597232,11473.192101
1523.455488,-3600.648841,-8068.244768,11399.171507
1523.455807,-8197.221829,-15396.283594,7624.121203
1523.456126,-9193.145976,-15174.221811,31310.711347
1523.456444,-14096.157163,-21984.116477,27461.640448
1523.456763,-23059.474490,-34197.514520,17838.963202
1523.457082,-18233.072852,-28942.052332,27313.599260
1523.457400,-14096.157163,-3627.009116,29164.114115
1523.457719,1532.190996,10214.842000,19985.560434
1523.458038,9729.412825,23686.590144,5033.400406
1523.458357,17543.586904,27165.558071,2886.803174
1523.458675,17007.320056,20947.828159,-9844.739029
1523.458994,21144.235745,26647.413912,-16506.592507
1523.459313,15475.129060,15766.386565,-26869.475695
1523.459632,10572.117872,-518.144159,2516.700203
1523.459950,-8044.002729,-5477.523971,-5921.647536
1523.460269,-11261.603821,-14582.057057,9548.656652
1523.460588,-15168.690860,-24648.857869,27831.743419
1523.460906,-16700.881856,-19245.354492,21021.848753
1523.461225,-18769.339701,-25092.981434,19837.519246
1523.461544,-20454.749797,-31828.855506,29016.072926
1523.461863,-15934.786358,-11473.192101,21021.848753
1523.462181,-3677.258390,6291.750507,28127.825796
1523.462500,2604.724693,16950.716072,17987.004391
1523.462819,10418.898773,26055.249158,8512.368333
1523.463138,18999.168350,17838.963202,-5255.462188
1523.463456,21450.673944,31902.876100,-15248.242405
1523.463775,20224.921147,29016.072926,-25907.207970
1523.464094,14709.033562,9104.533087,-15618.345376
1523.464412,1991.848295,-5699.585753,1924.535449
1523.464731,-10112.460574,-12953.603985,6143.709319
1523.465050,-11414.822920,-19837.519246,25907.207970
1523.465369,-17466.977354,-26351.331535,30052.361245
1523.465687,-15015.471761,-29830.299463,27905.764013
1523.466006,-17390.367805,-23834.631332,23094.425390
1523.466325,-13866.328514,-16062.468941,22650.301825
1523.466644,-4749.792088,1554.432478,35381.844028
1523.466962,7277.907231,16062.468941,26055.249158
1523.467281,15321.909960,26573.393318,5403.503377
1523.467600,20684.578446,23612.569550,-740.205942
1523.467918,26813.342430,25759.166782,-10436.903782
1523.468237,27043.171079,24722.878463,-27831.743419
1523.468556,25587.589633,21317.931130,-27683.702231
1523.468875,9039.926876,7476.080014,-3701.029710
1523.469193,-4673.182538,-10658.965565,4219.173869
1523.469512,-6435.202183,-16876.695478,9400.615463
1523.469831,-10265.679673,-13027.624579,28645.969955
1523.470150,-14555.814462,-24574.837274,32346.999665
1523.470468,-23442.522239,-29090.093521,21317.931130
1523.470787,-18692.730151,-27165.558071,32865.143825
1523.471106,-13942.938064,-15322.262999,33605.349767
1523.471424,-1532.190996,9770.718434,30644.525999
1523.471743,6741.640382,21317.931130,11769.274478
1523.472062,18079.853753,34123.493926,5329.482782
1523.472381,19305.606550,26869.475695,-8068.244768
1523.472699,22523.207641,30496.484810,-10214.842000
1523.473018,21450.673944,24574.837274,-22206.178260
1523.473337,11338.213370,21317.931130,-10288.862594
1523.473656,2298.286494,-2664.741391,-10362.883188
1523.473974,-14555.814462,-12213.398043,-1554.432478
1523.474293,-9806.022374,-22502.260637,31680.814318
1523.474612,-16624.272307,-25759.166782,27831.743419
1523.474930,-20991.016645,-30940.608376,21095.869347
1523.475249,-21986.940793,-37454.420665,32791.123231
1523.475568,-16394.443657,-19615.457463,28053.805202
1523.475887,-11184.994271,666.185348,28868.031738
1523.476205,2911.162892,13989.892304,23316.487173
1523.476524,7584.345430,29904.320057,5699.585753
1523.476843,16547.662757,22428.240043,-1184.329507
1523.477162,16777.491406,28942.052332,-13323.706956
1523.477480,22446.598091,29090.093521,-22946.384202
1523.477799,17160.539155,17690.922014,-23760.610738
1523.478118,9269.755526,2516.700203,-1406.391290
1523.478437,-10801.946522,-10140.821405,1036.288319
1523.478755,-11568.042020,-27905.764013,22576.281231
1523.479074,-14709.033562,-25685.146187,32124.937883
1523.479393,-13789.718964,-25018.960840,24278.754898
1523.479711,-16930.710506,-32495.040854,21836.075289
1523.480030,-12410.747068,-16284.530724,24204.734303
1523.480349,-7354.516781,-4293.194464,29978.340651
1523.480668,5286.058936,14137.933492,26055.249158
1523.480986,8656.879127,24648.857869,2960.823768
1523.481305,19458.825649,24944.940245,3775.050304
1523.481624,23978.789087,23760.610738,-10881.027347
1523.481943,27196.390179,28423.908173,-23094.425390
1523.482261,18539.511052,22798.343014,-36122.049970
1523.482580,10648.727422,7476.080014,-3552.988522
1523.482899,-3983.696590,-8216.285956,-5477.523971
1523.483217,-6128.763984,-18727.210333,7920.203579
1523.483536,-9806.022374,-17616.901420,34937.720462
1523.483855,-15245.300410,-27609.681637,26351.331535
1523.484174,-18616.120601,-32865.143825,21021.848753
1523.484492,-15551.738609,-24500.816680,28423.908173
1523.484811,-11414.822920,-6957.935855,28349.887579
1523.485130,76.609550,8438.347739,27609.681637
1523.485449,8350.440928,20799.786970,11473.192101
1523.485767,17313.758255,31680.814318,1480.411884
1523.486086,17543.586904,22650.301825,-10288.862594
1523.486405,25894.027832,27609.681637,-10881.027347
1523.486723,21067.626195,26425.352129,-31532.773129
1523.487042,12793.794817,13101.645173,-15470.304188
1523.487361,-153.219100,-1628.453072,-4293.194464
1523.487680,-9499.584175,-18949.272115,12065.356855
1523.487998,-11951.089769,-21317.931130,26647.413912
1523.488317,-13866.328514,-25611.125593,31828.855506
1523.488636,-17237.148705,-31606.793723,26869.475695
1523.488955,-17313.758255,-25167.002028,18949.272115
1523.489273,-14555.814462,-12805.562797,26499.372724
1523.489592,-3600.648841,1036.288319,38120.606013
1523.489911,4290.134789,12509.480420,16062.468941
1523.490229,11568.042020,32495.040854,370.102971
1523.490548,14938.862211,19319.375086,666.185348
1523.490867,19535.435199,27831.743419,-11991.336260
1523.491186,18462.901502,26203.290347,-22946.384202
1523.491504,13406.671215,9918.759623,-8586.388927
1523.491823,459.657299,-1850.514855,-2960.823768
1523.492142,-13559.890315,-6513.812290,814.226536
1523.492461,-17160.539155,-27387.619854,21688.034101
1523.492779,-16547.662757,-26943.496289,36270.091158
1523.493098,-15475.129060,-24574.837274,26277.310941
1523.493417,-19075.777900,-28127.825796,26351.331535
1523.493735,-14709.033562,-14137.933492,26129.269753
1523.494054,-7814.174080,-3627.009116,33309.267390
1523.494373,1149.143247,17764.942608,26869.475695
1523.494692,6511.811733,24796.899057,7476.080014
1523.495010,17160.539155,14434.015869,0.000000
1523.495329,18922.558801,32495.040854,-20207.622217
1523.495648,26047.246932,31754.834912,-16802.674883
1523.495967,18156.463303,17172.777854,-18357.107362
1523.496285,7660.954980,2738.761985,-7254.018232
1523.496604,-8044.002729,-7476.080014,-6513.812290
1523.496923,-12180.918418,-21762.054695,20133.601622
1523.497241,-13176.842566,-22428.240043,32939.164419
1523.497560,-14249.376263,-25759.166782,29016.072926
1523.497879,-14862.252661,-23760.610738,22946.384202
1523.498198,-12793.794817,-11769.274478,21539.992912
1523.498516,-7431.126331,-0.000000,29978.340651
1523.498835,3447.429741,8512.368333,28201.846390
1523.499154,9499.584175,17616.901420,4737.318029
1523.499473,18462.901502,21910.095883,1702.473667
1523.499791,19075.777900,22502.260637,-10288.862594
1523.500110,25434.370534,22132.157666,-17690.922014
1523.500429,23672.350888,22058.137072,-29830.299463
1523.500748,10648.727422,12287.418637,-11843.295072
1523.501066,-689.485948,-4293.194464,-4293.194464
1523.501385,-7048.078582,-16654.633695,7550.100608
1523.501704,-7507.735880,-14508.036463,30200.402434
1523.502022,-14709.033562,-21984.116477,30126.381839
1523.502341,-16777.491406,-33679.370361,21910.095883
1523.502660,-15551.738609,-22502.260637,25241.022622
1523.502979,-10725.336972,-10658.965565,28275.866984
1523.503297,306.438199,2886.803174,32569.061448
1523.503616,6205.373534,13397.727550,8290.306550
1523.503935,14785.643111,31680.814318,-962.267725
1523.504254,17543.586904,22058.137072,-2812.782580
1523.504572,19688.654299,25611.125593,-9622.677246
1523.504891,17160.539155,16950.716072,-18505.148550
1523.505210,10189.070123,4071.132681,-12065.356855
1523.505528,-3447.429741,-8438.347739,-2516.700203
1523.505847,-13636.499864,-15766.386565,12435.459826
1523.506166,-16394.443657,-19171.333898,22798.343014
1523.506485,-13789.718964,-25167.002028,30644.525999
1523.506803,-17543.586904,-18209.066173,20429.683999
1523.507122,-16624.272307,-22354.219448,22428.240043
1523.507441,-13942.938064,-8660.409521,26425.352129
1523.507760,-2681.334243,2590.720797,28942.052332
1523.508078,919.314598,11843.295072,16136.489536
1523.508397,7660.954980,21762.054695,592.164754
1523.508716,10725.336972,15544.324782,-4071.132681
1523.509034,14785.643111,23242.466579,-8068.244768
1523.509353,14479.204912,20725.766376,-18505.148550
1523.509672,12410.747068,15470.304188,-17468.860231
1523.509991,76.609550,-666.185348,-6069.688724
1523.510309,-11491.432470,-7994.224174,5181.441594
1523.510628,-14938.862211,-25315.043216,17987.004391
1523.510947,-14479.204912,-26203.290347,28423.908173
1523.511266,-15092.081311,-27979.784608,26129.269753
1523.511584,-15015.471761,-19319.375086,24426.796086
1523.511903,-8963.317327,-7846.182985,28349.887579
1523.512222,-842.705048,5181.441594,25241.022622
1523.512540,7507.735880,14285.974681,18505.148550
1523.512859,14709.033562,23094.425390,6809.894666
1523.513178,15321.909960,21465.972318,-666.185348
1523.513497,23672.350888,21910.095883,-14137.933492
1523.513815,21527.283494,23834.631332,-26055.249158
1523.514134,19458.825649,14359.995275,-17172.777854
1523.514453,7354.516781,6439.791695,-7624.121203
1523.514772,-4060.306139,-8364.327145,-2220.617826
1523.515090,-7354.516781,-24648.857869,20281.642811
1523.515409,-8503.660028,-13545.768739,31902.876100
1523.515728,-10265.679673,-22280.198854,27609.681637
1523.516046,-10572.117872,-24870.919651,21095.869347
1523.516365,-7048.078582,-11177.109724,27461.640448
1523.516684,-2834.553343,3923.091493,34271.535115
1523.517003,7048.078582,6883.915261,17764.942608
1523.517321,15398.519510,20651.745782,4367.215058
1523.517640,13176.842566,22576.281231,1036.288319
1523.517959,16317.834107,15026.180623,-5551.544565
1523.518278,15551.738609,17987.004391,-17987.004391
1523.518596,11338.213370,14063.912898,-24722.878463
1523.518915,4213.525239,4737.318029,-6883.915261
1523.519234,-12487.356617,-8956.491898,6587.832884
1523.519552,-15781.567259,-23760.610738,19985.560434
1523.519871,-16164.615008,-18801.230927,32865.143825
1523.520190,-18922.558801,-18579.169144,26425.352129
1523.520509,-19152.387450,-21095.869347,21910.095883
1523.520827,-12640.575717,-14656.077652,35899.988187
1523.521146,-4979.620737,5625.565159,26943.496289
1523.521465,3370.820191,13767.830521,21317.931130
1523.521784,9806.022374,17987.004391,10584.944971
1523.522102,11338.213370,14582.057057,-3330.926739
1523.522421,16241.224558,18653.189738,-10510.924376
1523.522740,15398.519510,20873.807564,-12879.583391
1523.523058,10495.508323,16506.592507,-21984.116477
1523.523377,4136.915689,6883.915261,-12139.377449
1523.523696,-8273.831378,-6661.853478,6365.771101
1523.524015,-13483.280765,-20429.683999,18653.189738
1523.524334,-13866.328514,-20429.683999,21836.075289
1523.524652,-15704.957709,-20355.663405,25389.063811
1523.524971,-13023.623466,-23612.569550,25537.104999
1523.525290,-11797.870669,-11029.068536,30570.505405
1523.525609,-3677.258390,3552.988522,28942.052332
1523.525928,10035.851024,13249.686362,21317.931130
1523.526246,13483.280765,14730.098246,8068.244768
1523.526565,15321.909960,11917.315666,2738.761985
1523.526884,19918.482948,17690.922014,-6809.894666
1523.527203,21833.721693,21317.931130,-17172.777854
1523.527522,15781.567259,12731.542202,-29312.155303
1523.527840,6818.249932,4367.215058,-9178.553681
1523.528159,-4673.182538,-3478.967927,6439.791695
1523.528478,-7890.783629,-13915.871710,12657.521608
1523.528797,-10878.556072,-15100.201217,21095.869347
1523.529116,-9039.926876,-13841.851115,26055.249158
1523.529434,-9422.974625,-21539.992912,31754.834912
1523.529753,-9806.022374,-16358.551318,29016.072926
1523.530072,-2068.457845,-2812.782580,31902.876100
1523.530391,9576.193725,9844.739029,24722.878463
1523.530710,12180.918418,13175.665768,10584.944971
1523.531028,17237.148705,10955.047942,2516.700203
1523.531347,19075.777900,18209.066173,-9918.759623
1523.531666,20148.311597,20873.807564,-18283.086767
1523.531985,11568.042020,13545.768739,-29608.237680
1523.532304,4596.572988,4293.194464,-11547.212695
1523.532622,-6128.763984,-1998.556043,4441.235652
1523.532941,-10495.508323,-14211.954086,15618.345376
1523.533260,-17390.367805,-19171.333898,21614.013506
1523.533579,-18769.339701,-18949.272115,26499.372724
1523.533898,-17926.634653,-20503.704593,37232.358883
1523.534216,-11951.089769,-11325.150913,32865.143825
1523.534535,-6971.469032,2590.720797,27313.599260
1523.534854,7354.516781,7476.080014,26721.434506
1523.535173,9269.755526,17098.757260,8364.327145
1523.535492,13866.328514,14508.036463,1332.370696
1523.535810,15934.786358,17987.004391,-9104.533087
1523.536129,15321.909960,17542.880825,-7846.182985
1523.536448,9806.022374,9696.697840,-27239.578666
1523.536767,919.314598,6439.791695,-17764.942608
1523.537086,-9806.022374,-4737.318029,4885.359217
1523.537404,-13789.718964,-9696.697840,15692.365970
1523.537723,-15321.909960,-20873.807564,20947.828159
1523.538042,-17543.586904,-17838.963202,28275.866984
1523.538361,-17007.320056,-21021.848753,36122.049970
1523.538680,-14862.252661,-8438.347739,31458.752535
1523.538998,-8427.050478,-0.000000,27461.640448
1523.539317,4903.011187,6661.853478,30496.484810
1523.539636,10495.508323,10362.883188,13767.830521
1523.539955,14785.643111,18653.189738,-2516.700203
1523.540274,18845.949251,21317.931130,-10732.986159
1523.540592,20224.921147,21095.869347,-13693.809927
1523.540911,14096.157163,12731.542202,-30052.361245
1523.541230,5592.497135,7846.182985,-17394.839637
1523.541549,-8120.612279,-6661.853478,6957.935855
1523.541868,-12870.404366,-14952.160028,9548.656652
1523.542186,-15245.300410,-15914.427753,18727.210333
1523.542505,-14632.424012,-8734.430116,26203.290347
1523.542824,-13483.280765,-15470.304188,33605.349767
1523.543143,-12410.747068,-11843.295072,33901.432144
1523.543462,-4213.525239,-74.020594,30718.546593
1523.543780,8656.879127,7254.018232,26055.249158
1523.544099,11721.261119,9030.512492,14063.912898
1523.544418,18156.463303,12953.603985,6661.853478
1523.544737,20531.359346,13619.789333,-10510.924376
1523.545056,21986.940793,20207.622217,-25833.187376
1523.545374,20224.921147,15692.365970,-28349.887579
1523.545693,7967.393179,10288.862594,-20651.745782
1523.546012,-919.314598,2294.638420,-4145.153275
1523.546331,-7737.564530,-6513.812290,12361.439231
1523.546650,-10801.946522,-14730.098246,25315.043216
1523.546968,-19918.482948,-13323.706956,23538.548956
1523.547287,-15321.909960,-24204.734303,37306.379477
1523.547606,-14555.814462,-22428.240043,39823.079680
1523.547925,-7277.907231,-4663.297435,35974.008781
1523.548244,4826.401637,5255.462188,31902.876100
1523.548562,14709.033562,13027.624579,19319.375086
1523.548881,19535.435199,15470.304188,3404.947333
1523.549200,19535.435199,20577.725188,-8734.430116
1523.549519,21067.626195,18061.024985,-16432.571912
1523.549838,15015.471761,11843.295072,-30940.608376
1523.550156,7660.954980,9696.697840,-22058.137072
1523.550475,-4060.306139,-518.144159,-296.082377
1523.550794,-10495.508323,-10362.883188,7031.956449
1523.551113,-14096.157163,-21021.848753,17690.922014
1523.551432,-18309.682402,-20799.786970,26351.331535
1523.551750,-20607.968896,-28794.011144,35381.844028
1523.552069,-18539.511052,-26499.372724,43302.047607
1523.552388,-13100.233016,-7105.977043,37010.297100
1523.552707,383.047749,10214.842000,30940.608376
1523.553026,9959.241474,10066.800811,21317.931130
1523.553344,15704.957709,15026.180623,5625.565159
1523.553663,18309.682402,23094.425390,-11251.130318
1523.553982,19305.606550,24056.693115,-12657.521608
1523.554301,13406.671215,15322.262999,-26499.372724
1523.554620,6894.859482,12509.480420,-27165.558071
1523.554938,-3294.210641,-148.041188,-3478.967927
1523.555257,-12870.404366,-10881.027347,12065.356855
1523.555576,-15398.519510,-25611.125593,19097.313304
1523.555895,-18233.072852,-14434.015869,20133.601622
1523.556214,-16317.834107,-22354.219448,28794.011144
1523.556532,-13789.718964,-16950.716072,43820.191766
1523.556851,-9959.241474,-3701.029710,32865.143825
1523.557170,3140.991542,8808.450710,25981.228564
1523.557489,12104.308868,11399.171507,20577.725188
1523.557808,19918.482948,10881.027347,6587.832884
1523.558126,22216.769442,19763.498651,-4737.318029
1523.558445,25204.541884,23464.528361,-23834.631332
1523.558764,19612.044749,20947.828159,-34419.576303
1523.559083,11261.603821,11843.295072,-18949.272115
1523.559402,-1991.848295,740.205942,-5329.482782
1523.559720,-9346.365076,-10881.027347,3997.112087
1523.560039,-14325.985813,-15692.365970,15692.365970
1523.560358,-16164.615008,-15988.448347,25315.043216
1523.560677,-21986.940793,-29386.175897,28127.825796
1523.560996,-20148.311597,-29534.217086,35751.946999
1523.561314,-14325.985813,-15766.386565,45670.706621
1523.561633,-1991.848295,6883.915261,34863.699868
1523.561952,13176.842566,12583.501014,19837.519246
1523.562271,22982.864940,19467.416275,12287.418637
1523.562590,19075.777900,22946.384202,-1036.288319
1523.562908,27196.390179,26277.310941,-11251.130318
1523.563227,21986.940793,25167.002028,-28349.887579
1523.563546,16777.491406,14063.912898,-29238.134709
1523.563865,612.876398,2590.720797,-6957.935855
1523.564184,-8656.879127,-9104.533087,222.061783
1523.564502,-14325.985813,-28201.846390,13693.809927
1523.564821,-15398.519510,-18801.230927,28423.908173
1523.565140,-17160.539155,-27461.640448,25611.125593
1523.565459,-20684.578446,-35085.761651,32050.917289
1523.565778,-16700.881856,-24056.693115,36936.276506
1523.566096,-8044.002729,-1554.432478,41525.553346
1523.566415,1762.019645,5773.606348,23612.569550
1523.566734,14479.204912,20577.725188,10214.842000
1523.567053,21374.064394,25389.063811,5403.503377
1523.567372,18539.511052,34567.617491,-15914.427753
1523.567690,22982.864940,28719.990550,-20429.683999
1523.568009,16854.100956,21465.972318,-22798.343014
1523.568328,8120.612279,9548.656652,-8216.285956
1523.568647,-12257.527968,-8290.306550,-13471.748144
1523.568966,-14402.595362,-22206.178260,16728.654289
1523.569284,-14938.862211,-25092.981434,27979.784608
1523.569603,-19612.044749,-25167.002028,25537.104999
1523.569922,-23978.789087,-37602.461854,33901.432144
1523.570241,-20301.530697,-25315.043216,36270.091158
1523.570560,-12563.966167,-4071.132681,33605.349767
1523.570878,0.000000,13397.727550,33679.370361
1523.571197,5056.230287,20059.581028,17024.736666
1523.571516,19305.606550,27757.722825,4589.276840
1523.571835,24285.227287,35085.761651,-11029.068536
1523.572154,25510.980083,30792.567187,-17098.757260
1523.572472,21757.112143,25833.187376,-29090.093521
1523.572791,13100.233016,15692.365970,-17024.736666
1523.573110,153.219100,-3404.947333,-5847.626942
1523.573429,-8580.269578,-18135.045579,5181.441594
1523.573748,-11338.213370,-22502.260637,26795.455100
1523.574066,-11568.042020,-24352.775492,28645.969955
1523.574385,-13253.452115,-31014.628970,25389.063811
1523.574704,-15092.081311,-30422.464216,33161.226202
1523.575023,-9193.145976,-13767.830521,29238.134709
1523.575342,1532.190996,8586.388927,33901.432144
1523.575660,7890.783629,16136.489536,14582.057057
1523.575979,17083.929605,28275.866984,5773.606348
1523.576298,16777.491406,25463.084405,-5847.626942
1523.576617,24744.884585,29756.278868,-16432.571912
1523.576936,24132.008187,26425.352129,-27017.516883
1523.577254,10342.289223,18209.066173,-18875.251521
1523.577573,3983.696590,-148.041188,1332.370696
1523.577892,-10418.898773,-13693.809927,-1110.308913
1523.578211,-10801.946522,-14211.954086,20577.725188
1523.578530,-17237.148705,-26499.372724,33235.246796
1523.578848,-24974.713235,-36196.070564,26869.475695
1523.579167,-23442.522239,-35381.844028,33679.370361
1523.579486,-19075.777900,-21539.992912,37010.297100
1523.579805,-10265.679673,740.205942,30792.567187
1523.580124,1991.848295,5921.647536,21614.013506
1523.580442,9422.974625,31088.649564,2590.720797
1523.580761,16854.100956,23020.404796,-5699.585753
1523.581080,18003.244203,30718.546593,-18653.189738
1523.581399,22599.817191,30274.423028,-21169.889941
1523.581718,15551.738609,26573.393318,-30200.402434
1523.582036,8886.707777,1702.473667,-3330.926739
1523.582355,-9729.412825,-9844.739029,-5181.441594
1523.582674,-11644.651570,-23168.445985,17912.983796
1523.582993,-12410.747068,-29756.278868,30792.567187
1523.583312,-14709.033562,-24426.796086,28053.805202
1523.583630,-19075.777900,-39452.976709,35085.761651
1523.583949,-17083.929605,-27313.599260,31236.690752
1523.584268,-10265.679673,-7550.100608,24204.734303
1523.584587,689.485948,11991.336260,28645.969955
1523.584906,6358.592633,15396.283594,9770.718434
1523.585224,15168.690860,28868.031738,-5773.606348
1523.585543,18386.291952,30570.505405,-12065.356855
1523.585862,25664.199183,27313.599260,-18875.251521
1523.586181,16930.710506,26055.249158,-33013.185013
1523.586500,12257.527968,15914.427753,-1776.494261
1523.586818,536.266849,-5403.503377,-5625.565159
1523.587137,-9499.584175,-24352.775492,11547.212695
1523.587456,-14402.595362,-28349.887579,33827.411549
1523.587775,-14938.862211,-27017.516883,33605.349767
1523.588094,-16317.834107,-29978.340651,23242.466579
1523.588412,-9269.755526,-21688.034101,29090.093521
1523.588731,-7201.297681,-4071.132681,34789.679274
1523.589050,7584.345430,10510.924376,30274.423028
1523.589369,9806.022374,20133.601622,1258.350101
1523.589688,18922.558801,26943.496289,12583.501014
1523.590006,18079.853753,24130.713709,-6365.771101
1523.590325,23902.179538,25833.187376,-17468.860231
1523.590644,20301.530697,27609.681637,-29534.217086
1523.590963,11874.480219,9400.615463,-2960.823768
1523.591282,-1072.533697,370.102971,-10066.800811
1523.591600,-6665.030833,-15914.427753,5773.606348
1523.591919,-12257.527968,-22946.384202,29682.258274
1523.592238,-14479.204912,-25018.960840,31680.814318
1523.592557,-17620.196454,-29238.134709,23168.445985
1523.592876,-17007.320056,-24870.919651,26721.434506
1523.593194,-11568.042020,-10658.965565,34641.638086
1523.593513,689.485948,7031.956449,30126.381839
1523.593832,7124.688131,17024.736666,5255.462188
1523.594151,15781.567259,30792.567187,7624.121203
1523.594470,15092.081311,26277.310941,-6291.750507
1523.594788,23595.741338,24722.878463,-17690.922014
1523.595107,15168.690860,29534.217086,-22502.260637
1523.595426,10495.508323,4811.338623,-12509.480420
1523.595745,-4673.182538,1332.370696,-10362.883188
1523.596064,-14709.033562,-22502.260637,16062.468941
1523.596382,-21220.845295,-28571.949361,27387.619854
1523.596701,-19458.825649,-28719.990550,25092.981434
1523.597020,-23595.741338,-24648.857869,24426.796086
1523.597339,-20914.407095,-30200.402434,36714.214723
1523.597658,-15858.176809,-14063.912898,29312.155303
1523.597976,-3753.867940,1776.494261,29830.299463
1523.598295,1532.190996,17987.004391,18061.024985
1523.598614,9422.974625,24278.754898,5255.462188
1523.598933,16164.615008,18431.127956,-7105.977043
1523.599252,22293.378992,31606.793723,-13249.686362
1523.599570,21986.940793,30126.381839,-25537.104999
1523.599889,14096.157163,13989.892304,-25907.207970
1523.600208,5975.544884,888.247130,2368.659014
1523.600527,-7584.345430,-6069.688724,2072.576638
1523.600845,-9959.241474,-24796.899057,19023.292709
1523.601164,-11951.089769,-25018.960840,27387.619854
1523.601483,-11874.480219,-28497.928767,27091.537477
1523.601802,-14172.766713,-30274.423028,29904.320057
1523.602121,-10572.117872,-14285.974681,23242.466579
1523.602439,76.609550,-4071.132681,35529.885216
1523.602758,10112.460574,14285.974681,21095.869347
1523.603077,13789.718964,26203.290347,1406.391290
1523.603396,20761.187996,21317.931130,5403.503377
1523.603715,23442.522239,25389.063811,-11251.130318
1523.604033,23825.569988,29460.196492,-23834.631332
1523.604352,18309.682402,21910.095883,-31680.814318
1523.604671,8197.221829,13175.665768,-2220.617826
1523.604990,-2757.943793,-9918.759623,-2368.659014
1523.605309,-7431.126331,-21984.116477,14137.933492
1523.605627,-8427.050478,-25981.228564,38194.626607
1523.605946,-16930.710506,-28794.011144,28275.866984
1523.606265,-18309.682402,-32569.061448,25092.981434
1523.606584,-14709.033562,-20725.766376,31384.731941
1523.606903,-8810.098227,-5921.647536,38120.606013
1523.607221,1378.971896,12287.418637,20059.581028
1523.607540,6894.859482,30570.505405,-6143.709319
1523.607859,16624.272307,26055.249158,1554.432478
1523.608178,14479.204912,23168.445985,-10288.862594
1523.608497,19688.654299,24722.878463,-16432.571912
1523.608815,12640.575717,17172.777854,-20577.725188
1523.609134,4826.401637,7846.182985,-13915.871710
1523.609453,-11261.603821,-13397.727550,-2368.659014
1523.609772,-16241.224558,-23242.466579,22798.343014
1523.610091,-15858.176809,-32124.937883,35677.926404
1523.610409,-17850.025103,-27017.516883,30570.505405
1523.610728,-19075.777900,-21021.848753,21762.054695
1523.611047,-10648.727422,-10362.883188,26869.475695
1523.611366,-3370.820191,2590.720797,31236.690752
1523.611685,3447.429741,14285.974681,27683.702231
1523.612003,9422.974625,21539.992912,4071.132681
1523.612322,17466.977354,20799.786970,3552.988522
1523.612641,19152.387450,21836.075289,-14211.954086
1523.612960,22063.550342,27017.516883,-18949.272115
1523.613279,17160.539155,16580.613101,-24722.878463
1523.613597,5439.278036,5847.626942,-6957.935855
1523.613916,-6588.421283,-3330.926739,-9474.636058
1523.614235,-11261.603821,-21984.116477,20503.704593
1523.614554,-12947.013916,-24130.713709,34419.576303
1523.614873,-15858.176809,-27387.619854,28868.031738
1523.615191,-18616.120601,-29164.114115,28423.908173
1523.615510,-15475.129060,-16580.613101,23168.445985
1523.615829,-10495.508323,-6069.688724,31384.731941
1523.616148,2834.553343,8586.388927,30274.423028
1523.616467,10495.508323,26425.352129,2886.803174
1523.616785,18616.120601,24204.734303,7772.162391
1523.617104,19765.263848,32124.937883,-9104.533087
1523.617423,27196.390179,27683.702231,-14656.077652
1523.617742,20684.578446,21984.116477,-24500.816680
1523.618061,15015.471761,5477.523971,-8438.347739
1523.618379,-919.314598,-11325.150913,-1480.411884
1523.618698,-3600.648841,-27091.537477,18949.272115
1523.619017,-6818.249932,-25981.228564,30126.381839
1523.619336,-3907.087040,-21317.931130,28497.928767
1523.619655,-4519.963438,-23094.425390,21539.992912
1523.619973,-3524.039291,-12509.480420,28868.031738
1523.620292,-1149.143247,-5107.421000,29756.278868
1523.620611,8886.707777,8586.388927,19097.313304
1523.620930,13330.061665,13693.809927,3182.885551
1523.621249,16317.834107,13397.727550,5329.482782
1523.621567,20224.921147,8438.347739,-4885.359217
1523.621886,18386.291952,18949.272115,-19023.292709
1523.622205,14555.814462,11251.130318,-23168.445985
1523.622524,8197.221829,-740.205942,-7772.162391
1523.622843,-2681.334243,-16654.633695,11251.130318
1523.623162,-9116.536426,-29164.114115,20947.828159
1523.623480,-10495.508323,-30570.505405,33383.287984
1523.623799,-12717.185267,-23316.487173,32865.143825
1523.624118,-7507.735880,-22354.219448,25092.981434
1523.624437,-4673.182538,-12361.439231,34863.699868
1523.624756,4826.401637,4515.256246,26499.372724
1523.625075,12717.185267,9326.594869,9844.739029
1523.625393,13176.842566,11399.171507,-1776.494261
1523.625712,12180.918418,14878.139434,-740.205942
1523.626031,12563.966167,15396.283594,-14878.139434
1523.626350,8656.879127,14878.139434,-19541.436869
1523.626669,3677.258390,7402.059420,-16654.633695
1523.626987,-2834.553343,-8438.347739,-1628.453072
1523.627306,-12717.185267,-24056.693115,10881.027347
1523.627625,-8503.660028,-26499.372724,24352.775492
1523.627944,-14709.033562,-20651.745782,22502.260637
1523.628263,-14709.033562,-20059.581028,27017.516883
1523.628582,-7814.174080,-19467.416275,37084.317694
1523.628900,-2987.772442,4367.215058,23686.590144
1523.629219,7124.688131,11547.212695,13693.809927
1523.629538,11721.261119,11769.274478,8512.368333
1523.629857,17773.415554,14434.015869,-3775.050304
1523.630176,16471.053207,23834.631332,-18135.045579
1523.630495,16930.710506,20873.807564,-15692.365970
1523.630813,7124.688131,8142.265362,-21910.095883
1523.631132,1225.752797,-592.164754,-9400.615463
1523.631451,-9346.365076,-18283.086767,10584.944971
1523.631770,-11184.994271,-23760.610738,21836.075289
1523.632089,-10265.679673,-15840.407159,27387.619854
1523.632408,-5056.230287,-5847.626942,31384.731941
1523.632726,-766.095498,-10140.821405,33975.452738
1523.633045,153.219100,-1110.308913,26573.393318
1523.633364,5822.325785,2664.741391,15248.242405
1523.633683,10189.070123,5773.606348,11473.192101
1523.634002,13789.718964,6143.709319,4219.173869
1523.634321,12640.575717,10066.800811,-9104.533087
1523.634639,15475.129060,18653.189738,-10807.006753
1523.634958,10189.070123,12805.562797,-16284.530724
1523.635277,3064.381992,3923.091493,-7179.997637
1523.635596,-1915.238745,-12879.583391,11103.089130
1523.635915,-9729.412825,-15544.324782,16728.654289
1523.636234,-7737.564530,-11843.295072,27461.640448
1523.636552,-4903.011187,-7698.141797,29312.155303
1523.636871,76.609550,-1850.514855,28942.052332
1523.637190,2757.943793,-962.267725,23686.590144
1523.637509,5898.935335,-1110.308913,23390.507767
1523.637828,9806.022374,1776.494261,13175.665768
1523.638147,13559.890315,7031.956449,2220.617826
1523.638465,13176.842566,6217.729913,-3034.844362
1523.638784,13253.452115,6661.853478,-3552.988522
1523.639103,11184.994271,4293.194464,-4589.276840
1523.639422,6741.640382,1258.350101,-5847.626942
1523.639741,2068.457845,-8956.491898,2886.803174
1523.640059,-1225.752797,-9178.553681,14359.995275
1523.640378,-766.095498,-5181.441594,14137.933492
1523.640697,-1532.190996,-5107.421000,18505.148550
1523.641016,-1532.190996,-4811.338623,23760.610738
1523.641335,-1915.238745,-6291.750507,25167.002028
1523.641654,-4673.182538,-6439.791695,19985.560434
1523.641972,-1455.581446,-3997.112087,17838.963202
1523.642291,0.000000,-0.000000,10955.047942
1523.642610,1762.019645,962.267725,7105.977043
1523.642929,3217.601092,296.082377,7105.977043
1523.643248,5822.325785,296.082377,3034.844362
1523.643567,5209.449386,-148.041188,-1332.370696
1523.643885,4826.401637,-5107.421000,296.082377
1523.644204,4443.353888,-6365.771101,5551.544565
1523.644523,3983.696590,-3330.926739,5921.647536
1523.644842,2145.067394,-1554.432478,8438.347739
1523.645161,919.314598,-2812.782580,13841.851115
1523.645480,-1685.410096,-4367.215058,18135.045579
1523.645798,-4826.401637,-2146.597232,15396.283594
1523.646117,-7048.078582,-1258.350101,13693.809927
1523.646436,-5975.544884,-5033.400406,12287.418637
1523.646755,-4673.182538,-3997.112087,9696.697840
1523.647074,-766.095498,-3256.906145,9474.636058
1523.647393,1991.848295,-2220.617826,6217.729913
1523.647711,5362.668486,-2368.659014,4071.132681
1523.648030,7507.735880,-2368.659014,3108.864956
1523.648349,9039.926876,-2294.638420,3627.009116
1523.648668,9576.193725,222.061783,4293.194464
1523.648987,10495.508323,2294.638420,4071.132681
1523.649306,9576.193725,2738.761985,5329.482782
1523.649624,9652.803275,1184.329507,9770.718434
1523.649943,6894.859482,296.082377,8364.327145
1523.650262,4366.744339,-1628.453072,5329.482782
1523.650581,1915.238745,-2886.803174,6587.832884
1523.650900,153.219100,-5477.523971,9178.553681
1523.651218,-536.266849,-7179.997637,9474.636058
1523.651537,-459.657299,-4959.379811,10066.800811
1523.651856,76.609550,-4441.235652,11325.150913
1523.652175,766.095498,-2516.700203,11695.253884
1523.652494,1991.848295,296.082377,10510.924376
1523.652813,3600.648841,1702.473667,9844.739029
1523.653131,5209.449386,222.061783,9696.697840
1523.653450,5975.544884,-2590.720797,9918.759623
1523.653769,5745.716235,-4515.256246,9252.574275
1523.654088,4903.011187,-4959.379811,7328.038826
1523.654407,3753.867940,-5033.400406,7698.141797
1523.654726,2374.896044,-3701.029710,7105.977043
1523.655044,842.705048,-3478.967927,7994.224174
1523.655363,-1225.752797,-2368.659014,9252.574275
1523.655682,-1378.971896,-0.000000,11473.192101
1523.656001,-1455.581446,740.205942,13545.768739
1523.656320,-612.876398,1184.329507,15174.221811
1523.656639,612.876398,666.185348,14359.995275
1523.656957,612.876398,-2072.576638,13471.748144
1523.657276,1608.800546,-5403.503377,13249.686362
1523.657595,3140.991542,-6513.812290,12361.439231
1523.657914,4673.182538,-3923.091493,9252.574275
1523.658233,5975.544884,-2072.576638,6291.750507
1523.658552,5975.544884,-0.000000,4219.173869
1523.658870,5286.058936,1702.473667,4737.318029
1523.659189,4136.915689,1924.535449,5329.482782
1523.659508,2145.067394,1850.514855,7105.977043
1523.659827,1532.190996,1702.473667,10288.862594
1523.660146,1225.752797,1406.391290,12953.603985
1523.660465,1532.190996,-74.020594,13619.789333
1523.660783,1455.581446,-2664.741391,14285.974681
1523.661102,1378.971896,-4737.318029,14730.098246
1523.661421,2145.067394,-5107.421000,13175.665768
1523.661740,2987.772442,-3701.029710,11621.233289
1523.662059,4136.915689,-1184.329507,9548.656652
1523.662377,4673.182538,962.267725,6809.894666
1523.662696,4826.401637,2368.659014,4441.235652
1523.663015,3983.696590,2220.617826,3627.009116
1523.663334,3064.381992,1406.391290,4441.235652
1523.663653,2451.505594,592.164754,6365.771101
1523.663972,1685.410096,-888.247130,8512.368333
1523.664290,1915.238745,-1258.350101,10362.883188
1523.664609,1532.190996,-2368.659014,11769.274478
1523.664928,919.314598,-4367.215058,13693.809927
1523.665247,383.047749,-4811.338623,13545.768739
1523.665566,0.000000,-3775.050304,13101.645173
1523.665885,995.924147,-1998.556043,11843.295072
1523.666203,1915.238745,-740.205942,9992.780217
1523.666522,2834.553343,518.144159,8438.347739
1523.666841,3753.867940,1702.473667,6217.729913
1523.667160,5056.230287,1554.432478,4293.194464
1523.667479,5898.935335,370.102971,3552.988522
1523.667798,6052.154434,-1998.556043,4589.276840
1523.668116,5515.887586,-3478.967927,6291.750507
1523.668435,4673.182538,-3478.967927,8660.409521
1523.668754,2911.162892,-3627.009116,9992.780217
1523.669073,1915.238745,-3108.864956,11547.212695
1523.669392,919.314598,-3034.844362,11843.295072
1523.669711,383.047749,-2886.803174,11103.089130
1523.670029,-306.438199,-2368.659014,10436.903782
1523.670348,-306.438199,-2812.782580,9918.759623
1523.670667,76.609550,-3256.906145,10140.821405
1523.670986,842.705048,-3182.885551,9104.533087
1523.671305,1608.800546,-3182.885551,7920.203579
1523.671624,1915.238745,-3552.988522,7846.182985
1523.671942,2374.896044,-3330.926739,8216.285956
1523.672261,2987.772442,-2886.803174,8290.306550
1523.672580,3524.039291,-1998.556043,8438.347739
1523.672899,3677.258390,-740.205942,8586.388927
1523.673218,3294.210641,-1406.391290,9622.677246
1523.673536,2451.505594,-2072.576638,9474.636058
1523.673855,1608.800546,-3701.029710,9844.739029
1523.674174,306.438199,-4663.297435,9770.718434
1523.674493,766.095498,-4959.379811,9622.677246
1523.674812,229.828649,-4071.132681,9474.636058
1523.675131,0.000000,-2812.782580,9548.656652
1523.675449,76.609550,-1702.473667,9622.677246
1523.675768,766.095498,-740.205942,9104.533087
1523.676087,1072.533697,148.041188,9252.574275
1523.676406,1838.629195,592.164754,8956.491898
1523.676725,2911.162892,444.123565,9030.512492
1523.677044,3524.039291,-0.000000,8734.430116
1523.677362,3677.258390,-592.164754,8586.388927
1523.677681,3907.087040,-518.144159,7476.080014
1523.678000,3753.867940,-0.000000,6957.935855
1523.678319,3907.087040,-222.061783,7476.080014
1523.678638,3294.210641,888.247130,7254.018232
1523.678957,2298.286494,888.247130,7772.162391
1523.679275,1608.800546,1628.453072,8734.430116
1523.679594,995.924147,1776.494261,9844.739029
1523.679913,459.657299,740.205942,10510.924376
1523.680232,-229.828649,-0.000000,10807.006753
1523.680551,689.485948,-1110.308913,11547.212695
1523.680870,1072.533697,-1332.370696,10436.903782
1523.681188,153.219100,-0.000000,8660.409521
1523.681507,1532.190996,-370.102971,8956.491898
1523.681826,1149.143247,-0.000000,7402.059420
1523.682145,536.266849,148.041188,6809.894666
1523.682464,0.000000,-1406.391290,8290.306550
1523.682783,-1378.971896,1036.288319,9326.594869
1523.683101,-536.266849,222.061783,9918.759623
1523.683420,0.000000,-814.226536,11177.109724
1523.683739,383.047749,-1628.453072,14434.015869
1523.684058,229.828649,-2368.659014,13693.809927
1523.684377,995.924147,-1332.370696,12879.583391
1523.684695,2221.676944,-1702.473667,12731.542202
1523.685014,3370.820191,-2368.659014,12435.459826
1523.685333,3370.820191,-1998.556043,10732.986159
1523.685652,3907.087040,-1480.411884,9844.739029
1523.685971,3140.991542,-1628.453072,9326.594869
1523.686290,3064.381992,-1332.370696,7920.203579
1523.686608,3217.601092,-2664.741391,8364.327145
1523.686927,2911.162892,-2590.720797,8660.409521
1523.687246,3370.820191,-2812.782580,9548.656652
1523.687565,3524.039291,-2442.679609,11325.150913
1523.687884,4136.915689,-2294.638420,12213.398043
1523.688203,5056.230287,-2738.761985,11843.295072
1523.688521,4903.011187,-1850.514855,11695.253884
1523.688840,4826.401637,-2072.576638,11695.253884
1523.689159,5209.449386,-2146.597232,10510.924376
1523.689478,5669.106685,-1850.514855,9622.677246
1523.689797,6435.202183,-1554.432478,8068.244768
1523.690116,6358.592633,-1110.308913,6661.853478
1523.690434,6511.811733,-2146.597232,6069.688724
1523.690753,6818.249932,-3330.926739,6809.894666
1523.691072,7277.907231,-3923.091493,7031.956449
1523.691391,8120.612279,-3404.947333,7254.018232
1523.691710,8503.660028,-2294.638420,7402.059420
1523.692029,8580.269578,-1998.556043,7624.121203
1523.692347,8503.660028,-2294.638420,8068.244768
1523.692666,7967.393179,-2812.782580,7994.224174
1523.692985,7354.516781,-3256.906145,7402.059420
1523.693304,6741.640382,-2664.741391,6661.853478
1523.693623,6741.640382,-2664.741391,6365.771101
1523.693942,6588.421283,-3552.988522,6143.709319
1523.694260,5669.106685,-3849.070898,6513.812290
1523.694579,4903.011187,-4737.318029,7105.977043
1523.694898,4213.525239,-4145.153275,7402.059420
1523.695217,3983.696590,-2812.782580,7402.059420
1523.695536,3677.258390,-2220.617826,7920.203579
1523.695854,3064.381992,-2146.597232,8586.388927
1523.696173,2757.943793,-3108.864956,9918.759623
1523.696492,1991.848295,-4811.338623,11177.109724
1523.696811,1608.800546,-5033.400406,11103.089130
1523.697130,1378.971896,-4663.297435,10732.986159
1523.697449,995.924147,-3775.050304,9770.718434
1523.697767,306.438199,-3775.050304,8512.368333
1523.698086,76.609550,-3775.050304,7920.203579
1523.698405,-459.657299,-3849.070898,8290.306550
1523.698724,-995.924147,-3330.926739,8216.285956
1523.699043,-1838.629195,-1480.411884,7994.224174
1523.699362,-3753.867940,-1110.308913,8808.450710
1523.699680,-5209.449386,-2664.741391,10436.903782
1523.699999,-6281.983084,-4441.235652,12805.562797
1523.700318,-6435.202183,-5551.544565,14359.995275
1523.700637,-5362.668486,-4071.132681,14508.036463
1523.700956,-4290.134789,-1776.494261,13027.624579
1523.701275,-3447.429741,592.164754,11621.233289
1523.701593,-1991.848295,-0.000000,10510.924376
1523.701912,-1302.362347,222.061783,10510.924376
1523.702231,0.000000,296.082377,9548.656652
1523.702550,1532.190996,1628.453072,8586.388927
1523.702869,2681.334243,3775.050304,6439.791695
1523.703188,3753.867940,4885.359217,6513.812290
1523.703506,4443.353888,3627.009116,6365.771101
1523.703825,4596.572988,1554.432478,7846.182985
1523.704144,4749.792088,-0.000000,9474.636058
1523.704463,5822.325785,370.102971,10807.006753
1523.704782,6128.763984,962.267725,10436.903782
1523.705101,6588.421283,1184.329507,10584.944971
1523.705419,6588.421283,666.185348,10955.047942
1523.705738,6358.592633,-0.000000,11029.068536
1523.706057,6588.421283,592.164754,10881.027347
1523.706376,7431.126331,2590.720797,9918.759623
1523.706695,8044.002729,3997.112087,8142.265362
1523.707013,8427.050478,4145.153275,7698.141797
1523.707332,8963.317327,1998.556043,8586.388927
1523.707651,8273.831378,-0.000000,9252.574275
1523.707970,8503.660028,-962.267725,9992.780217
1523.708289,8580.269578,-0.000000,9918.759623
1523.708608,8580.269578,-222.061783,9770.718434
1523.708926,6818.249932,-1184.329507,9548.656652
1523.709245,5439.278036,-1924.535449,10362.883188
1523.709564,5056.230287,-3849.070898,11473.192101
1523.709883,1991.848295,-2220.617826,9474.636058
1523.710202,842.705048,-2590.720797,9992.780217
1523.710521,-689.485948,-1702.473667,9844.739029
1523.710839,-1378.971896,-1850.514855,9844.739029
1523.711158,-2604.724693,-3627.009116,9548.656652
1523.711477,-4213.525239,-3849.070898,9844.739029
1523.711796,-3753.867940,-3849.070898,9918.759623
1523.712115,-2911.162892,-2294.638420,9770.718434
1523.712434,-2757.943793,-962.267725,9178.553681
1523.712752,-2145.067394,-1924.535449,9030.512492
1523.713071,-2911.162892,-3627.009116,9474.636058
1523.713390,-2374.896044,-4737.318029,11251.130318
1523.713709,-2145.067394,-5181.441594,11177.109724
1523.714028,-2068.457845,-3108.864956,8882.471304
1523.714347,-1225.752797,-3330.926739,8438.347739
1523.714665,-1225.752797,-4293.194464,8512.368333
1523.714984,-1072.533697,-4589.276840,8882.471304
1523.715303,0.000000,-3552.988522,7846.182985
1523.715622,1455.581446,-2516.700203,7031.956449
1523.715941,3140.991542,-2590.720797,7328.038826
1523.716260,3600.648841,-2664.741391,7772.162391
1523.716578,4749.792088,-3256.906145,7328.038826
1523.716897,4136.915689,-5033.400406,8216.285956
1523.717216,4749.792088,-5329.482782,8882.471304
1523.717535,5439.278036,-4441.235652,7994.224174
1523.717854,5975.544884,-3330.926739,7105.977043
1523.718172,5439.278036,-3182.885551,8068.244768
1523.718491,5209.449386,-3256.906145,8438.347739
1523.718810,4903.011187,-3330.926739,7698.141797
1523.719129,4903.011187,-3034.844362,8216.285956
1523.719448,5209.449386,-2146.597232,9178.553681
1523.719767,5286.058936,-1998.556043,8956.491898
1523.720085,5745.716235,-2368.659014,9178.553681
1523.720404,5515.887586,-2516.700203,9474.636058
1523.720723,5592.497135,-2368.659014,9252.574275
1523.721042,5515.887586,-1702.473667,8882.471304
1523.721361,5898.935335,-1184.329507,7920.203579
1523.721680,5286.058936,-888.247130,7476.080014
1523.721998,4596.572988,-666.185348,6735.874072
1523.722317,3677.258390,-1628.453072,6735.874072
1523.722636,2834.553343,-1702.473667,7994.224174
1523.722955,1838.629195,-518.144159,8290.306550
1523.723274,1838.629195,444.123565,8142.265362
1523.723593,995.924147,518.144159,9178.553681
1523.723911,306.438199,-444.123565,11843.295072
1523.724230,1072.533697,-888.247130,12435.459826
1523.724549,1991.848295,-740.205942,11547.212695
1523.724868,2374.896044,-0.000000,10584.944971
1523.725186,3064.381992,1184.329507,9326.594869
1523.725505,3753.867940,1480.411884,7994.224174
1523.725824,3140.991542,296.082377,7328.038826
1523.726143,2374.896044,-592.164754,7031.956449
1523.726461,1532.190996,-444.123565,7698.141797
1523.726780,1072.533697,-814.226536,8882.471304
1523.727099,536.266849,-148.041188,10436.903782
1523.727418,-612.876398,-0.000000,11103.089130
1523.727736,-1302.362347,-148.041188,12657.521608
1523.728055,-919.314598,-888.247130,14582.057057
1523.728374,0.000000,-1332.370696,14359.995275
1523.728693,1762.019645,-962.267725,13175.665768
1523.729012,3524.039291,-518.144159,12657.521608
1523.729330,4826.401637,-1554.432478,10807.006753
1523.729649,4749.792088,-2960.823768,8364.327145
1523.729968,4749.792088,-3404.947333,7994.224174
1523.730287,3907.087040,-2664.741391,7105.977043
1523.730605,3140.991542,-1258.350101,7105.977043
1523.730924,1915.238745,-666.185348,7179.997637
1523.731243,995.924147,-370.102971,9474.636058
1523.731562,-383.047749,-1406.391290,11251.130318
1523.731880,-1685.410096,-2442.679609,12805.562797
1523.732199,-1149.143247,-3108.864956,15248.242405
1523.732518,-536.266849,-2738.761985,14952.160028
1523.732837,536.266849,-3701.029710,13693.809927
1523.733155,2757.943793,-3627.009116,13323.706956
1523.733474,4519.963438,-3849.070898,11769.274478
1523.733793,5898.935335,-2516.700203,7846.182985
1523.734112,6665.030833,-296.082377,3997.112087
1523.734430,7660.954980,814.226536,3330.926739
1523.734749,6741.640382,1184.329507,2368.659014
1523.735068,4903.011187,518.144159,2516.700203
1523.735387,3524.039291,-0.000000,4293.194464
1523.735705,2757.943793,-1258.350101,6365.771101
1523.736024,842.705048,-2368.659014,9104.533087
1523.736343,-383.047749,-3775.050304,12213.398043
1523.736662,0.000000,-4589.276840,13915.871710
1523.736980,-689.485948,-5107.421000,13397.727550
1523.737299,536.266849,-6217.729913,14730.098246
1523.737618,2298.286494,-5625.565159,13915.871710
1523.737937,3677.258390,-2368.659014,10140.821405
1523.738255,6511.811733,-1480.411884,7550.100608
1523.738574,7277.907231,444.123565,4219.173869
1523.738893,7814.174080,592.164754,2072.576638
1523.739212,7354.516781,222.061783,518.144159
1523.739531,5592.497135,-518.144159,74.020594
1523.739849,4290.134789,-2442.679609,3404.947333
1523.740168,1991.848295,-3256.906145,5181.441594
1523.740487,0.000000,-4663.297435,8512.368333
1523.740806,-2757.943793,-6809.894666,12805.562797
1523.741124,-5209.449386,-6587.832884,15692.365970
1523.741443,-5056.230287,-5995.668130,16728.654289
1523.741762,-4826.401637,-3330.926739,14804.118840
1523.742081,-2451.505594,-888.247130,12879.583391
1523.742399,-1608.800546,222.061783,9696.697840
1523.742718,0.000000,2294.638420,5995.668130
1523.743037,1532.190996,2738.761985,3923.091493
1523.743356,2068.457845,3034.844362,814.226536
1523.743674,1378.971896,2960.823768,592.164754
1523.743993,383.047749,666.185348,3108.864956
1523.744312,-1149.143247,-370.102971,6365.771101
1523.744631,-2757.943793,-1480.411884,9252.574275
1523.744949,-3983.696590,-74.020594,11843.295072
1523.745268,-4060.306139,-222.061783,14952.160028
1523.745587,-3294.210641,-370.102971,15692.365970
1523.745906,-2145.067394,1554.432478,14952.160028
1523.746224,459.657299,2368.659014,13545.768739
1523.746543,1685.410096,3627.009116,10362.883188
1523.746862,3447.429741,4367.215058,6587.832884
1523.747181,4366.744339,3849.070898,4515.256246
1523.747499,4366.744339,3849.070898,1998.556043
1523.747818,2911.162892,3108.864956,2072.576638
1523.748137,2604.724693,2368.659014,4145.153275
1523.748456,229.828649,2738.761985,5181.441594
1523.748774,-459.657299,1110.308913,10066.800811
1523.749093,-2221.676944,-0.000000,13249.686362
1523.749412,-2757.943793,-222.061783,17468.860231
1523.749731,-2681.334243,-1332.370696,19541.436869
1523.750050,-1608.800546,370.102971,19541.436869
1523.750368,612.876398,1776.494261,17616.901420
1523.750687,2528.115143,2812.782580,14359.995275
1523.751006,4060.306139,4071.132681,10140.821405
1523.751325,4826.401637,3478.967927,5847.626942
1523.751643,4903.011187,4515.256246,3701.029710
1523.751962,4136.915689,4219.173869,1850.514855
1523.752281,3064.381992,2664.741391,2516.700203
1523.752600,0.000000,1110.308913,5477.523971
1523.752918,-2528.115143,-814.226536,9992.780217
1523.753237,-4366.744339,-1702.473667,12657.521608
1523.753556,-4979.620737,-2442.679609,17542.880825
1523.753875,-4519.963438,-3034.844362,20429.683999
1523.754193,-3907.087040,-1924.535449,20873.807564
1523.754512,-995.924147,-74.020594,19097.313304
1523.754831,766.095498,2664.741391,15322.262999
1523.755150,3677.258390,2960.823768,11251.130318
1523.755468,6281.983084,2812.782580,6069.688724
1523.755787,7354.516781,3775.050304,3256.906145
1523.756106,7277.907231,3997.112087,-666.185348
1523.756425,6052.154434,3552.988522,-2072.576638
1523.756743,4366.744339,1924.535449,222.061783
1523.757062,1225.752797,296.082377,4293.194464
1523.757381,-1762.019645,-2072.576638,7920.203579
1523.757700,-4060.306139,-3330.926739,12435.459826
1523.758018,-4979.620737,-4885.359217,17024.736666
1523.758337,-5592.497135,-5477.523971,19393.395680
1523.758656,-4136.915689,-4441.235652,19541.436869
1523.758975,-2528.115143,-3552.988522,17542.880825
1523.759293,76.609550,-1554.432478,14137.933492
1523.759612,2987.772442,-518.144159,8660.409521
1523.759931,5056.230287,2738.761985,3182.885551
1523.760250,6741.640382,4293.194464,-1702.473667
1523.760569,7048.078582,5033.400406,-4737.318029
1523.760887,6205.373534,3552.988522,-4145.153275
1523.761206,3753.867940,444.123565,-1258.350101
1523.761525,0.000000,-1998.556043,2590.720797
1523.761844,-3370.820191,-5107.421000,7624.121203
1523.762162,-7277.907231,-7105.977043,13619.789333
1523.762481,-8044.002729,-8882.471304,18727.210333
1523.762800,-8580.269578,-7402.059420,21095.869347
1523.763119,-7048.078582,-3701.029710,19615.457463
1523.763437,-4290.134789,-3108.864956,16432.571912
1523.763756,0.000000,3849.070898,12139.377449
1523.764075,3064.381992,4737.318029,7105.977043
1523.764394,6205.373534,5995.668130,1184.329507
1523.764712,7737.564530,7772.162391,-3552.988522
1523.765031,7584.345430,5033.400406,-3923.091493
1523.765350,5975.544884,1628.453072,-4145.153275
1523.765669,2987.772442,-1332.370696,-592.164754
1523.765987,-1302.362347,-4737.318029,4663.297435
1523.766306,-4903.011187,-6069.688724,10658.965565
1523.766625,-5898.935335,-5255.462188,16876.695478
1523.766944,-7737.564530,-4441.235652,20799.786970
1523.767262,-6511.811733,-1480.411884,22650.301825
1523.767581,-4903.011187,1702.473667,21391.951724
1523.767900,-1072.533697,5255.462188,18061.024985
1523.768219,3524.039291,6439.791695,13397.727550
1523.768537,6894.859482,5477.523971,7846.182985
1523.768856,9422.974625,5477.523971,1628.453072
1523.769175,11031.775171,3997.112087,-4219.173869
1523.769494,9193.145976,3627.009116,-6291.750507
1523.769812,7354.516781,-148.041188,-2220.617826
1523.770131,3983.696590,-2294.638420,1332.370696
1523.770450,-842.705048,-1998.556043,6513.812290
1523.770769,-3677.258390,-4663.297435,15248.242405
1523.771087,-7201.297681,-2960.823768,19245.354492
1523.771406,-7967.393179,-3256.906145,23612.569550
1523.771725,-6052.154434,-3330.926739,26351.331535
1523.772044,-3983.696590,3182.885551,25537.104999
1523.772363,306.438199,3997.112087,18653.189738
1523.772681,4903.011187,7254.018232,13693.809927
1523.773000,8963.317327,8734.430116,7105.977043
1523.773319,10801.946522,7105.977043,-1628.453072
1523.773638,10725.336972,6735.874072,-6957.935855
1523.773956,9576.193725,5403.503377,-4737.318029
1523.774275,6128.763984,1850.514855,-2442.679609
1523.774594,995.924147,1184.329507,1036.288319
1523.774913,-3524.039291,-2738.761985,9770.718434
1523.775231,-7124.688131,-4219.173869,17024.736666
1523.775550,-9882.631924,-3330.926739,20947.828159
1523.775869,-10878.556072,-3478.967927,24944.940245
1523.776188,-8273.831378,-1036.288319,27683.702231
1523.776506,-5515.887586,3849.070898,23464.528361
1523.776825,-995.924147,6439.791695,16062.468941
1523.777144,3370.820191,9474.636058,10955.047942
1523.777463,6358.592633,5329.482782,6143.709319
1523.777781,5975.544884,5921.647536,-1702.473667
1523.778100,6665.030833,5995.668130,-6735.874072
1523.778419,4903.011187,5551.544565,-9178.553681
1523.778738,2681.334243,4589.276840,-4737.318029
1523.779056,-919.314598,1776.494261,1702.473667
1523.779375,-4979.620737,-2146.597232,7772.162391
1523.779694,-9116.536426,-6587.832884,16358.551318
1523.780013,-11414.822920,-7846.182985,22798.343014
1523.780331,-11031.775171,-7994.224174,26277.310941
1523.780650,-9269.755526,-3108.864956,24944.940245
1523.780969,-5669.106685,-148.041188,26425.352129
1523.781288,-1302.362347,3627.009116,16432.571912
1523.781606,5745.716235,7402.059420,8586.388927
1523.781925,9193.145976,9400.615463,-1406.391290
1523.782244,10189.070123,7254.018232,-6809.894666
1523.782563,7737.564530,6513.812290,-13471.748144
1523.782882,6281.983084,4737.318029,-8808.450710
1523.783200,2145.067394,-1776.494261,-2368.659014
1523.783519,-3064.381992,-4145.153275,-148.041188
1523.783838,-7507.735880,-9104.533087,12435.459826
1523.784157,-10648.727422,-12953.603985,21836.075289
1523.784475,-11644.651570,-12213.398043,22798.343014
1523.784794,-8503.660028,-6809.894666,25611.125593
1523.785113,-2987.772442,-4367.215058,29756.278868
1523.785432,2528.115143,4515.256246,21391.951724
1523.785750,7890.783629,7772.162391,12361.439231
1523.786069,12717.185267,10510.924376,5921.647536
1523.786388,16777.491406,8808.450710,-3330.926739
1523.786707,14938.862211,9474.636058,-11917.315666
1523.787025,16547.662757,5921.647536,-14434.015869
1523.787344,11031.775171,5625.565159,-11843.295072
1523.787663,4749.792088,1036.288319,-6069.688724
1523.787982,-2451.505594,-6735.874072,2368.659014
1523.788300,-9116.536426,-13249.686362,15174.221811
1523.788619,-11644.651570,-13175.665768,25241.022622
1523.788938,-12257.527968,-12879.583391,27091.537477
1523.789257,-9959.241474,-9918.759623,29756.278868
1523.789575,-4290.134789,-2960.823768,32939.164419
1523.789894,-766.095498,6143.709319,21021.848753
1523.790213,7124.688131,15914.427753,13249.686362
1523.790532,10878.556072,7328.038826,6735.874072
1523.790850,13483.280765,11473.192101,-6883.915261
1523.791169,12947.013916,12361.439231,-14730.098246
1523.791488,10878.556072,7994.224174,-14804.118840
1523.791807,6205.373534,4737.318029,-9770.718434
1523.792125,0.000000,222.061783,-6291.750507
1523.792444,-7431.126331,-5329.482782,2812.782580
1523.792763,-12257.527968,-14508.036463,18431.127956
1523.793082,-17237.148705,-17098.757260,25463.084405
1523.793401,-18845.949251,-16136.489536,23834.631332
1523.793719,-16088.005458,-11621.233289,31310.711347
1523.794038,-9116.536426,-4737.318029,37158.338288
1523.794357,-5132.839837,10807.006753,20577.725188
1523.794676,5209.449386,15692.365970,12583.501014
1523.794994,8580.269578,15396.283594,7402.059420
1523.795313,11797.870669,15100.201217,-5847.626942
1523.795632,11797.870669,15914.427753,-16580.613101
1523.795951,11491.432470,9696.697840,-12213.398043
1523.796269,6205.373534,3404.947333,-3552.988522
1523.796588,-1455.581446,1184.329507,-7624.121203
1523.796907,-5898.935335,-6809.894666,7402.059420
1523.797226,-12104.308868,-13471.748144,23686.590144
1523.797544,-14709.033562,-13545.768739,27757.722825
1523.797863,-14019.547613,-8808.450710,27461.640448
1523.798182,-11491.432470,-4219.173869,30940.608376
1523.798501,-5286.058936,3775.050304,32495.040854
1523.798819,-689.485948,13471.748144,17764.942608
1523.799138,8120.612279,13397.727550,11695.253884
1523.799457,14172.766713,7328.038826,9474.636058
1523.799776,15704.957709,11547.212695,-9992.780217
1523.800094,17773.415554,13101.645173,-17246.798449
1523.800413,16777.491406,9770.718434,-14952.160028
1523.800732,11644.651570,5181.441594,-7846.182985
1523.801051,4060.306139,-2812.782580,-5107.421000
1523.801369,-4519.963438,-2294.638420,5551.544565
1523.801688,-7124.688131,-13175.665768,23390.507767
1523.802007,-13176.842566,-11547.212695,25018.960840
1523.802326,-13866.328514,-11621.233289,26869.475695
1523.802644,-11108.384721,-12213.398043,33457.308578
1523.802963,-4903.011187,-3552.988522,36048.029375
1523.803282,-153.219100,6439.791695,21910.095883
1523.803601,10648.727422,19171.333898,8364.327145
1523.803920,14938.862211,12287.418637,5255.462188
1523.804238,16854.100956,7254.018232,-5699.585753
1523.804557,18845.949251,15914.427753,-19541.436869
1523.804876,17543.586904,11917.315666,-20355.663405
1523.805195,9806.022374,4441.235652,-11991.336260
1523.805513,1225.752797,-2220.617826,-7624.121203
1523.805832,-5898.935335,-7624.121203,4145.153275
1523.806151,-14402.595362,-17764.942608,25759.166782
1523.806470,-17696.806004,-24278.754898,26055.249158
1523.806788,-21680.502593,-17172.777854,18431.127956
1523.807107,-18922.558801,-21317.931130,38416.688390
1523.807426,-9882.631924,-9104.533087,41303.491564
1523.807745,-4596.572988,13915.871710,17098.757260
1523.808063,8197.221829,15544.324782,13397.727550
1523.808382,10495.508323,14804.118840,7846.182985
1523.808701,10495.508323,15914.427753,-8364.327145
1523.809020,14632.424012,14878.139434,-14211.954086
1523.809338,15475.129060,11473.192101,-17468.860231
1523.809657,9576.193725,1332.370696,-9548.656652
1523.809976,-1149.143247,-2516.700203,-14952.160028
1523.810295,-7890.783629,-8734.430116,5921.647536
1523.810613,-10648.727422,-24796.899057,23834.631332
1523.810932,-17620.196454,-22132.157666,19985.560434
1523.811251,-15398.519510,-18727.210333,22132.157666
1523.811570,-17926.634653,-18061.024985,32198.958477
1523.811888,-9499.584175,-4885.359217,37306.379477
1523.812207,-4366.744339,15396.283594,22650.301825
1523.812526,8273.831378,16580.613101,13323.706956
1523.812845,13330.061665,15766.386565,4885.359217
1523.813163,13176.842566,14508.036463,-7476.080014
1523.813482,17850.025103,16654.633695,-17764.942608
1523.813801,18845.949251,14211.954086,-17838.963202
1523.814120,13559.890315,1332.370696,-3923.091493
1523.814439,2374.896044,-0.000000,-18505.148550
1523.814757,-4136.915689,-14508.036463,3923.091493
1523.815076,-9882.631924,-21317.931130,26869.475695
1523.815395,-15628.348159,-16654.633695,25018.960840
1523.815714,-14555.814462,-14804.118840,21836.075289
1523.816032,-14862.252661,-17838.963202,36418.132346
1523.816351,-5898.935335,-3923.091493,40267.203245
