#time,accel_x,accel_y,accel_z
1439.062769,383.047749,518.144159,9178.553681
1439.063088,612.876398,148.041188,9548.656652
1439.063407,536.266849,444.123565,9030.512492
1439.063725,919.314598,296.082377,9104.533087
1439.064044,0.000000,148.041188,9252.574275
1439.064363,536.266849,296.082377,9400.615463
1439.064682,459.657299,518.144159,9252.574275
1439.065000,536.266849,444.123565,9400.615463
1439.065319,383.047749,370.102971,9252.574275
1439.065638,459.657299,444.123565,9104.533087
1439.065957,766.095498,296.082377,9178.553681
1439.066276,459.657299,444.123565,9178.553681
1439.066594,306.438199,148.041188,9326.594869
1439.066913,383.047749,222.061783,9030.512492
1439.067232,612.876398,222.061783,9326.594869
1439.067551,459.657299,370.102971,9326.594869
1439.067869,383.047749,148.041188,9252.574275
1439.068188,536.266849,296.082377,9178.553681
1439.068507,459.657299,444.123565,9178.553681
1439.068826,459.657299,370.102971,9252.574275
1439.069144,919.314598,592.164754,9178.553681
1439.069463,459.657299,444.123565,9178.553681
1439.069782,306.438199,370.102971,9030.512492
1439.070101,689.485948,666.185348,9326.594869
1439.070419,536.266849,370.102971,9326.594869
1439.070738,306.438199,148.041188,9178.553681
1439.071057,536.266849,370.102971,9400.615463
1439.071376,306.438199,370.102971,9178.553681
1439.071694,766.095498,592.164754,9178.553681
1439.072013,383.047749,370.102971,9400.615463
1439.072332,766.095498,444.123565,9326.594869
1439.072651,536.266849,592.164754,9474.636058
1439.072969,383.047749,222.061783,9178.553681
1439.073288,459.657299,296.082377,9178.553681
1439.073607,766.095498,296.082377,9400.615463
1439.073926,383.047749,444.123565,9474.636058
1439.074244,536.266849,370.102971,9252.574275
1439.074563,229.828649,296.082377,9104.533087
1439.074882,459.657299,444.123565,9252.574275
1439.075201,459.657299,148.041188,9104.533087
1439.075520,459.657299,444.123565,9252.574275
1439.075838,536.266849,444.123565,9326.594869
1439.076157,459.657299,296.082377,9474.636058
1439.076476,842.705048,222.061783,9252.574275
1439.076795,459.657299,740.205942,9474.636058
1439.077113,153.219100,222.061783,9400.615463
1439.077432,459.657299,296.082377,8956.491898
1439.077751,459.657299,518.144159,9252.574275
1439.078070,1225.752797,370.102971,9474.636058
1439.078388,459.657299,370.102971,9178.553681
1439.078707,612.876398,370.102971,9252.574275
1439.079026,383.047749,518.144159,9326.594869
1439.079345,612.876398,296.082377,9326.594869
1439.079663,536.266849,296.082377,9252.574275
1439.079982,536.266849,370.102971,9178.553681
1439.080301,153.219100,148.041188,9104.533087
1439.080620,612.876398,444.123565,9252.574275
1439.080938,383.047749,370.102971,9252.574275
1439.081257,383.047749,444.123565,9474.636058
1439.081576,459.657299,370.102971,9326.594869
1439.081895,383.047749,296.082377,9252.574275
1439.082213,229.828649,370.102971,9326.594869
1439.082532,383.047749,666.185348,9622.677246
1439.082851,383.047749,148.041188,9252.574275
1439.083170,153.219100,370.102971,9400.615463
1439.083489,153.219100,592.164754,9104.533087
1439.083807,153.219100,666.185348,9326.594869
1439.084126,383.047749,666.185348,9400.615463
1439.084445,306.438199,888.247130,9326.594869
1439.084764,76.609550,1036.288319,9474.636058
1439.085082,306.438199,1110.308913,9474.636058
1439.085401,153.219100,1036.288319,9252.574275
1439.085720,0.000000,1184.329507,9178.553681
1439.086039,0.000000,1110.308913,9252.574275
1439.086357,0.000000,1184.329507,9178.553681
1439.086676,-306.438199,1184.329507,9326.594869
1439.086995,-536.266849,1036.288319,9326.594869
1439.087314,-383.047749,1184.329507,8956.491898
1439.087632,-1149.143247,1258.350101,9178.553681
1439.087951,-1532.190996,1406.391290,8956.491898
1439.088270,-1991.848295,1554.432478,8956.491898
1439.088589,-1915.238745,1850.514855,8956.491898
1439.088907,-2068.457845,1998.556043,8734.430116
1439.089226,-2451.505594,2220.617826,8438.347739
1439.089545,-2834.553343,2368.659014,8586.388927
1439.089864,-2834.553343,2442.679609,8734.430116
1439.090182,-2987.772442,2442.679609,8808.450710
1439.090501,-3140.991542,2368.659014,8586.388927
1439.090820,-3447.429741,2812.782580,8808.450710
1439.091139,-3753.867940,3182.885551,8956.491898
1439.091458,-3753.867940,3108.864956,9178.553681
1439.091776,-3907.087040,3108.864956,9548.656652
1439.092095,-3294.210641,3478.967927,9474.636058
1439.092414,-3907.087040,2960.823768,9696.697840
1439.092733,-3907.087040,3034.844362,9548.656652
1439.093051,-4060.306139,2886.803174,9918.759623
1439.093370,-4366.744339,2886.803174,9918.759623
1439.093689,-4213.525239,3330.926739,9918.759623
1439.094008,-4136.915689,3404.947333,9696.697840
1439.094326,-3753.867940,3552.988522,9770.718434
1439.094645,-3064.381992,4145.153275,9696.697840
1439.094964,-3447.429741,3775.050304,9548.656652
1439.095283,-3064.381992,4071.132681,9548.656652
1439.095601,-2528.115143,4219.173869,9474.636058
1439.095920,-2374.896044,4441.235652,9474.636058
1439.096239,-1762.019645,4367.215058,9178.553681
1439.096558,-1915.238745,4737.318029,8956.491898
1439.096876,-1455.581446,5181.441594,8660.409521
1439.097195,-1455.581446,5329.482782,8290.306550
1439.097514,-2068.457845,5329.482782,8290.306550
1439.097833,-2068.457845,5181.441594,8364.327145
1439.098151,-2451.505594,4885.359217,8512.368333
1439.098470,-3217.601092,4367.215058,9104.533087
1439.098789,-3753.867940,3775.050304,9548.656652
1439.099108,-3677.258390,3552.988522,9992.780217
1439.099427,-4060.306139,3330.926739,9770.718434
1439.099745,-3753.867940,3552.988522,9474.636058
1439.100064,-2528.115143,3849.070898,8956.491898
1439.100383,-2145.067394,4663.297435,8734.430116
1439.100702,-1149.143247,4589.276840,8142.265362
1439.101020,-919.314598,4515.256246,7476.080014
1439.101339,-1072.533697,3923.091493,7328.038826
1439.101658,-1532.190996,3330.926739,7476.080014
1439.101977,-2221.676944,2886.803174,7846.182985
1439.102295,-2374.896044,2442.679609,8216.285956
1439.102614,-2221.676944,2368.659014,9030.512492
1439.102933,-1302.362347,2516.700203,9326.594869
1439.103252,-1072.533697,2590.720797,8956.491898
1439.103570,-459.657299,2516.700203,9178.553681
1439.103889,-1149.143247,2072.576638,9474.636058
1439.104208,-1302.362347,1406.391290,9918.759623
1439.104527,-995.924147,1110.308913,10288.862594
1439.104845,-306.438199,1406.391290,10881.027347
1439.105164,689.485948,1702.473667,10584.944971
1439.105483,1149.143247,1850.514855,9104.533087
1439.105802,1302.362347,1480.411884,8808.450710
1439.106120,1072.533697,1110.308913,8586.388927
1439.106439,919.314598,1110.308913,9104.533087
1439.106758,612.876398,1258.350101,8956.491898
1439.107077,306.438199,1776.494261,9104.533087
1439.107396,0.000000,1850.514855,9030.512492
1439.107714,-1072.533697,1184.329507,9622.677246
1439.108033,-1685.410096,-148.041188,10732.986159
1439.108352,-1915.238745,-370.102971,11547.212695
1439.108671,-2451.505594,296.082377,11621.233289
1439.108989,-2604.724693,740.205942,11029.068536
1439.109308,-2604.724693,1258.350101,10140.821405
1439.109627,-2298.286494,962.267725,9474.636058
1439.109946,-2298.286494,1480.411884,9178.553681
1439.110264,-2298.286494,1850.514855,8438.347739
1439.110583,-2145.067394,2516.700203,8142.265362
1439.110902,-2221.676944,3034.844362,8142.265362
1439.111221,-2451.505594,1924.535449,8512.368333
1439.111539,-2528.115143,518.144159,9474.636058
1439.111858,-2528.115143,1332.370696,9474.636058
1439.112177,-2604.724693,2072.576638,8586.388927
1439.112496,-2068.457845,3182.885551,7698.141797
1439.112814,-2451.505594,2812.782580,7698.141797
1439.113133,-2298.286494,2590.720797,8438.347739
1439.113452,-2604.724693,2220.617826,8512.368333
1439.113771,-2987.772442,2812.782580,8142.265362
1439.114089,-2757.943793,2812.782580,8290.306550
1439.114408,-3140.991542,3108.864956,8512.368333
1439.114727,-2451.505594,2516.700203,9622.677246
1439.115046,-2374.896044,2812.782580,9030.512492
1439.115365,-919.314598,3627.009116,8734.430116
1439.115683,229.828649,3478.967927,8660.409521
1439.116002,1225.752797,3923.091493,8586.388927
1439.116321,2068.457845,3997.112087,7920.203579
1439.116640,1532.190996,4663.297435,7476.080014
1439.116958,1455.581446,4367.215058,7328.038826
1439.117277,1378.971896,4293.194464,7772.162391
1439.117596,1149.143247,4441.235652,8068.244768
1439.117915,-76.609550,3997.112087,8216.285956
1439.118233,-1608.800546,2516.700203,8586.388927
1439.118552,-2681.334243,1776.494261,9548.656652
1439.118871,-3217.601092,1850.514855,10732.986159
1439.119190,-3524.039291,2812.782580,10214.842000
1439.119508,-3830.477490,3034.844362,10066.800811
1439.119827,-4290.134789,2516.700203,10658.965565
1439.120146,-4366.744339,2072.576638,11251.130318
1439.120465,-4213.525239,2294.638420,11547.212695
1439.120783,-3907.087040,2516.700203,10955.047942
1439.121102,-3294.210641,3034.844362,11399.171507
1439.121421,-2221.676944,3627.009116,10732.986159
1439.121740,-1302.362347,4441.235652,9622.677246
1439.122058,-612.876398,4293.194464,9104.533087
1439.122377,-383.047749,4515.256246,8956.491898
1439.122696,-612.876398,4589.276840,7698.141797
1439.123015,-689.485948,4219.173869,7105.977043
1439.123334,-1762.019645,4145.153275,7994.224174
1439.123652,-2911.162892,3330.926739,9992.780217
1439.123971,-3753.867940,2442.679609,9770.718434
1439.124290,-4903.011187,2368.659014,10362.883188
1439.124609,-5362.668486,1924.535449,12509.480420
1439.124927,-5209.449386,2738.761985,12509.480420
1439.125246,-4979.620737,1628.453072,12583.501014
1439.125565,-4903.011187,2146.597232,12953.603985
1439.125883,-3140.991542,2146.597232,13397.727550
1439.126202,-1532.190996,2738.761985,11029.068536
1439.126521,995.924147,2664.741391,9992.780217
1439.126839,2451.505594,2516.700203,9696.697840
1439.127158,4136.915689,2516.700203,8586.388927
1439.127477,4903.011187,2442.679609,6957.935855
1439.127795,4903.011187,3108.864956,6957.935855
1439.128114,4673.182538,3775.050304,7105.977043
1439.128432,3600.648841,3256.906145,6439.791695
1439.128751,2451.505594,2146.597232,7772.162391
1439.129070,1455.581446,666.185348,9844.739029
1439.129388,-459.657299,-0.000000,10140.821405
1439.129707,0.000000,-1332.370696,11547.212695
1439.130025,153.219100,-2442.679609,13397.727550
1439.130344,919.314598,-2442.679609,13027.624579
1439.130663,1378.971896,-2368.659014,11177.109724
1439.130981,2911.162892,-1554.432478,10362.883188
1439.131300,3907.087040,-814.226536,8882.471304
1439.131619,4060.306139,888.247130,6661.853478
1439.131937,3753.867940,1332.370696,5699.585753
1439.132256,2757.943793,2294.638420,5477.523971
1439.132574,1608.800546,2590.720797,4737.318029
1439.132893,229.828649,1110.308913,6069.688724
1439.133212,-1378.971896,-592.164754,7920.203579
1439.133530,-2757.943793,-2368.659014,9030.512492
1439.133849,-3447.429741,-3775.050304,10955.047942
1439.134168,-2528.115143,-5255.462188,13989.892304
1439.134486,-2068.457845,-4959.379811,14211.954086
1439.134805,-1532.190996,-3627.009116,12509.480420
1439.135123,153.219100,-1998.556043,11251.130318
1439.135442,1685.410096,-0.000000,8586.388927
1439.135761,2757.943793,1184.329507,5847.626942
1439.136079,3370.820191,1850.514855,4737.318029
1439.136398,2681.334243,1776.494261,3775.050304
1439.136716,1915.238745,1406.391290,3256.906145
1439.137035,689.485948,814.226536,4145.153275
1439.137354,-1378.971896,-592.164754,6957.935855
1439.137672,-2451.505594,-2072.576638,8364.327145
1439.137991,-3524.039291,-1776.494261,9844.739029
1439.138310,-2834.553343,-2368.659014,13471.748144
1439.138628,-1532.190996,-1924.535449,14582.057057
1439.138947,-153.219100,-1332.370696,13175.665768
1439.139265,689.485948,-962.267725,12731.542202
1439.139584,2681.334243,-370.102971,11029.068536
1439.139903,2834.553343,814.226536,7476.080014
1439.140221,3447.429741,1924.535449,5181.441594
1439.140540,3447.429741,2664.741391,4737.318029
1439.140858,3064.381992,3775.050304,3034.844362
1439.141177,2757.943793,4219.173869,2738.761985
1439.141496,383.047749,2886.803174,5107.421000
1439.141814,-1225.752797,1998.556043,7105.977043
1439.142133,-2374.896044,222.061783,8734.430116
1439.142452,-3064.381992,-1628.453072,12805.562797
1439.142770,-3600.648841,-3034.844362,15988.448347
1439.143089,-2834.553343,-3256.906145,16358.551318
1439.143407,-1762.019645,-1924.535449,15100.201217
1439.143726,153.219100,-222.061783,14359.995275
1439.144045,1685.410096,2368.659014,10584.944971
1439.144363,3064.381992,4441.235652,7105.977043
1439.144682,3983.696590,6291.750507,4959.379811
1439.145001,3907.087040,7402.059420,3478.967927
1439.145319,2911.162892,6957.935855,1924.535449
1439.145638,1838.629195,4663.297435,4071.132681
1439.145956,306.438199,2886.803174,6513.812290
1439.146275,-1302.362347,1110.308913,8586.388927
1439.146594,-2145.067394,-962.267725,12065.356855
1439.146912,-2374.896044,-1332.370696,14878.139434
1439.147231,-1838.629195,-888.247130,16432.571912
1439.147549,-1225.752797,-592.164754,16358.551318
1439.147868,229.828649,962.267725,15914.427753
1439.148187,1455.581446,1924.535449,12953.603985
1439.148505,2451.505594,3552.988522,10362.883188
1439.148824,2987.772442,4293.194464,7624.121203
1439.149143,3370.820191,6069.688724,4737.318029
1439.149461,2834.553343,5773.606348,2590.720797
1439.149780,1302.362347,3478.967927,4293.194464
1439.150098,306.438199,962.267725,6735.874072
1439.150417,-1225.752797,148.041188,7476.080014
1439.150736,-2451.505594,-1776.494261,10510.924376
1439.151054,-2834.553343,-2590.720797,14359.995275
1439.151373,-2834.553343,-2738.761985,15618.345376
1439.151691,-2221.676944,-2886.803174,15470.304188
1439.152010,-1915.238745,-2812.782580,16358.551318
1439.152329,-536.266849,-2220.617826,15248.242405
1439.152647,459.657299,-222.061783,10807.006753
1439.152966,2145.067394,444.123565,8438.347739
1439.153285,1685.410096,2146.597232,6661.853478
1439.153603,1685.410096,3478.967927,3330.926739
1439.153922,766.095498,2516.700203,2294.638420
1439.154240,-153.219100,962.267725,4589.276840
1439.154559,-842.705048,-592.164754,6217.729913
1439.154878,-2068.457845,-1776.494261,8142.265362
1439.155196,-1455.581446,-2886.803174,11917.315666
1439.155515,-612.876398,-4219.173869,14730.098246
1439.155834,76.609550,-4737.318029,14508.036463
1439.156152,919.314598,-4737.318029,15174.221811
1439.156471,2451.505594,-3552.988522,13841.851115
1439.156789,4136.915689,-1332.370696,9474.636058
1439.157108,5209.449386,592.164754,6439.791695
1439.157427,6511.811733,2738.761985,4589.276840
1439.157745,5439.278036,3849.070898,1480.411884
1439.158064,4749.792088,3108.864956,0.000000
1439.158382,2451.505594,1480.411884,2220.617826
1439.158701,383.047749,-370.102971,4441.235652
1439.159020,-766.095498,-1776.494261,6661.853478
1439.159338,-1915.238745,-3923.091493,11177.109724
1439.159657,-1455.581446,-5403.503377,14582.057057
1439.159976,-153.219100,-5107.421000,14878.139434
1439.160294,766.095498,-5033.400406,15174.221811
1439.160613,2451.505594,-4219.173869,15026.180623
1439.160931,2757.943793,-2072.576638,11251.130318
1439.161250,4136.915689,-148.041188,7328.038826
1439.161569,4290.134789,2220.617826,4811.338623
1439.161887,3600.648841,3034.844362,2368.659014
1439.162206,2451.505594,3404.947333,592.164754
1439.162525,0.000000,1924.535449,740.205942
1439.162843,-2298.286494,-296.082377,4145.153275
1439.163162,-4443.353888,-1998.556043,6587.832884
1439.163480,-5515.887586,-3923.091493,10658.965565
1439.163799,-5669.106685,-5551.544565,15248.242405
1439.164118,-5286.058936,-5551.544565,16654.633695
1439.164436,-3447.429741,-4589.276840,17394.839637
1439.164755,-1378.971896,-2368.659014,16580.613101
1439.165073,612.876398,-296.082377,13915.871710
1439.165392,2528.115143,1850.514855,9992.780217
1439.165711,3830.477490,3701.029710,6957.935855
1439.166029,4443.353888,5033.400406,3256.906145
1439.166348,3830.477490,6365.771101,740.205942
1439.166667,3064.381992,4737.318029,814.226536
1439.166985,1532.190996,3701.029710,1998.556043
1439.167304,76.609550,2368.659014,4367.215058
1439.167622,-1685.410096,-0.000000,7920.203579
1439.167941,-2757.943793,-1776.494261,13249.686362
1439.168260,-2374.896044,-2072.576638,16062.468941
1439.168578,-1685.410096,-2294.638420,16506.592507
1439.168897,-919.314598,-1776.494261,17542.880825
1439.169215,689.485948,814.226536,16136.489536
1439.169534,2604.724693,3108.864956,11843.295072
1439.169853,3983.696590,4811.338623,9252.574275
1439.170171,4826.401637,6069.688724,6143.709319
1439.170490,5209.449386,6661.853478,2738.761985
1439.170809,4673.182538,5847.626942,1850.514855
1439.171127,3677.258390,2886.803174,3034.844362
1439.171446,2221.676944,814.226536,5329.482782
1439.171764,-229.828649,-1628.453072,7476.080014
1439.172083,-1072.533697,-3034.844362,12731.542202
1439.172402,-1455.581446,-3997.112087,15396.283594
1439.172720,-1608.800546,-2664.741391,16654.633695
1439.173039,-995.924147,-2664.741391,17394.839637
1439.173358,-919.314598,-2072.576638,17098.757260
1439.173676,-153.219100,-888.247130,14656.077652
1439.173995,383.047749,370.102971,12065.356855
1439.174313,1302.362347,1850.514855,9400.615463
1439.174632,2068.457845,3552.988522,5921.647536
1439.174951,1608.800546,2812.782580,3701.029710
1439.175269,842.705048,1702.473667,3923.091493
1439.175588,153.219100,740.205942,5477.523971
1439.175906,-383.047749,-592.164754,6587.832884
1439.176225,0.000000,-1332.370696,9992.780217
1439.176544,-383.047749,-2220.617826,13175.665768
1439.176862,-229.828649,-2960.823768,14285.974681
1439.177181,153.219100,-2590.720797,14656.077652
1439.177500,995.924147,-1924.535449,15100.201217
1439.177818,1532.190996,-518.144159,12435.459826
1439.178137,2221.676944,296.082377,9474.636058
1439.178455,2757.943793,1554.432478,7550.100608
1439.178774,2528.115143,3108.864956,5107.421000
1439.179093,2374.896044,2886.803174,2442.679609
1439.179411,1915.238745,1850.514855,2516.700203
1439.179730,1149.143247,740.205942,3923.091493
1439.180048,842.705048,-444.123565,4293.194464
1439.180367,689.485948,-1406.391290,7476.080014
1439.180686,459.657299,-3108.864956,10955.047942
1439.181004,459.657299,-4071.132681,12657.521608
1439.181323,995.924147,-4219.173869,12731.542202
1439.181642,1455.581446,-3478.967927,13545.768739
1439.181960,1685.410096,-1850.514855,11695.253884
1439.182279,2068.457845,-444.123565,8660.409521
1439.182597,2681.334243,1036.288319,7476.080014
1439.182916,2604.724693,2368.659014,5551.544565
1439.183235,1838.629195,2812.782580,2812.782580
1439.183553,612.876398,1184.329507,3182.885551
1439.183872,-842.705048,-888.247130,4737.318029
1439.184191,-1991.848295,-2590.720797,5699.585753
1439.184509,-2681.334243,-4441.235652,8438.347739
1439.184828,-2834.553343,-5033.400406,12287.418637
1439.185146,-2374.896044,-4959.379811,13471.748144
1439.185465,-1455.581446,-4145.153275,13841.851115
1439.185784,-459.657299,-3108.864956,14582.057057
1439.186102,306.438199,-2368.659014,13397.727550
1439.186421,1685.410096,444.123565,9696.697840
1439.186739,2757.943793,1850.514855,8438.347739
1439.187058,3524.039291,3478.967927,6143.709319
1439.187377,3140.991542,4589.276840,3034.844362
1439.187695,2068.457845,3627.009116,3108.864956
1439.188014,1455.581446,2072.576638,4589.276840
1439.188333,0.000000,962.267725,5181.441594
1439.188651,-1378.971896,222.061783,7550.100608
1439.188970,-1915.238745,-1406.391290,11991.336260
1439.189288,-1991.848295,-1554.432478,14434.015869
1439.189607,-1378.971896,-962.267725,14730.098246
1439.189926,-766.095498,-888.247130,15840.407159
1439.190244,536.266849,370.102971,14952.160028
1439.190563,1685.410096,2516.700203,11843.295072
1439.190881,2451.505594,3404.947333,9326.594869
1439.191200,3294.210641,4293.194464,7550.100608
1439.191519,3294.210641,4737.318029,4959.379811
1439.191837,2757.943793,4441.235652,3034.844362
1439.192156,2068.457845,3404.947333,4071.132681
1439.192475,1072.533697,2886.803174,4959.379811
1439.192793,0.000000,1850.514855,6809.894666
1439.193112,-842.705048,-296.082377,10807.006753
1439.193430,-1378.971896,-2146.597232,14508.036463
1439.193749,-1838.629195,-1776.494261,15174.221811
1439.194068,-1532.190996,-1924.535449,15914.427753
1439.194386,-995.924147,-962.267725,16580.613101
1439.194705,153.219100,296.082377,14285.974681
1439.195024,383.047749,1480.411884,11473.192101
1439.195342,995.924147,2442.679609,9474.636058
1439.195661,1915.238745,3849.070898,7254.018232
1439.195979,1838.629195,4441.235652,4663.297435
1439.196298,1072.533697,3256.906145,4737.318029
1439.196617,153.219100,1702.473667,5773.606348
1439.196935,-459.657299,814.226536,6735.874072
1439.197254,-689.485948,-444.123565,9474.636058
1439.197572,-612.876398,-888.247130,11991.336260
1439.197891,-306.438199,-1406.391290,13323.706956
1439.198210,459.657299,-814.226536,13841.851115
1439.198528,1302.362347,-666.185348,14582.057057
1439.198847,1762.019645,518.144159,12287.418637
1439.199166,2451.505594,1998.556043,9474.636058
1439.199484,2374.896044,2664.741391,8068.244768
1439.199803,2451.505594,4367.215058,6217.729913
1439.200121,1915.238745,4589.276840,3478.967927
1439.200440,1455.581446,3997.112087,3701.029710
1439.200759,459.657299,2220.617826,4885.359217
1439.201077,76.609550,296.082377,5107.421000
1439.201396,-306.438199,-1110.308913,7994.224174
1439.201715,-536.266849,-2590.720797,11103.089130
1439.202033,-459.657299,-3552.988522,11917.315666
1439.202352,766.095498,-3256.906145,12657.521608
1439.202670,1149.143247,-2516.700203,13101.645173
1439.202989,1455.581446,-814.226536,11473.192101
1439.203308,1608.800546,666.185348,8364.327145
1439.203626,1762.019645,1184.329507,7179.997637
1439.203945,1302.362347,2072.576638,5995.668130
1439.204263,76.609550,2146.597232,4219.173869
1439.204582,-1455.581446,666.185348,4367.215058
1439.204901,-2374.896044,-1332.370696,6587.832884
1439.205219,-3447.429741,-2220.617826,7105.977043
1439.205538,-3294.210641,-3108.864956,8956.491898
1439.205857,-3064.381992,-4219.173869,11547.212695
1439.206175,-2298.286494,-3552.988522,13101.645173
1439.206494,-459.657299,-3108.864956,13471.748144
1439.206812,76.609550,-2516.700203,13027.624579
1439.207131,1378.971896,-2368.659014,13027.624579
1439.207450,1302.362347,-0.000000,9992.780217
1439.207768,2145.067394,1628.453072,7550.100608
1439.208087,2528.115143,2738.761985,6587.832884
1439.208405,2221.676944,4293.194464,4145.153275
1439.208724,1302.362347,3775.050304,3034.844362
1439.209043,842.705048,3108.864956,4663.297435
1439.209361,153.219100,2220.617826,6143.709319
1439.209680,0.000000,888.247130,7846.182985
1439.209999,-842.705048,-1628.453072,10955.047942
1439.210317,76.609550,-2072.576638,13471.748144
1439.210636,229.828649,-1554.432478,13841.851115
1439.210954,766.095498,-1036.288319,13693.809927
1439.211273,1915.238745,148.041188,13545.768739
1439.211592,2451.505594,2664.741391,10510.924376
1439.211910,2987.772442,4145.153275,7476.080014
1439.212229,2987.772442,4737.318029,6883.915261
1439.212548,2298.286494,5403.503377,5033.400406
1439.212866,1378.971896,4959.379811,4071.132681
1439.213185,76.609550,3775.050304,5329.482782
1439.213503,-612.876398,1776.494261,7179.997637
1439.213822,-2374.896044,-148.041188,9252.574275
1439.214141,-3064.381992,-1110.308913,11695.253884
1439.214459,-2451.505594,-2442.679609,14656.077652
1439.214778,-2068.457845,-1850.514855,15396.283594
1439.215096,-995.924147,-666.185348,15322.262999
1439.215415,-383.047749,-296.082377,14952.160028
1439.215734,306.438199,962.267725,12583.501014
1439.216052,612.876398,2368.659014,9474.636058
1439.216371,306.438199,3478.967927,7624.121203
1439.216690,766.095498,4589.276840,5625.565159
1439.217008,-153.219100,4219.173869,4663.297435
1439.217327,-1302.362347,2960.823768,5329.482782
1439.217645,-2451.505594,888.247130,7698.141797
1439.217964,-2757.943793,148.041188,9548.656652
1439.218283,-2834.553343,-518.144159,10732.986159
1439.218601,-2451.505594,-814.226536,13471.748144
1439.218920,-1378.971896,-444.123565,15026.180623
1439.219238,459.657299,-0.000000,13693.809927
1439.219557,1532.190996,1406.391290,13471.748144
1439.219876,3140.991542,2294.638420,12361.439231
1439.220194,3447.429741,3478.967927,7994.224174
1439.220513,3677.258390,4589.276840,5995.668130
1439.220832,3370.820191,5107.421000,4663.297435
1439.221150,2681.334243,4737.318029,2664.741391
1439.221469,1225.752797,3108.864956,2960.823768
1439.221787,0.000000,1702.473667,5625.565159
1439.222106,-1455.581446,-0.000000,7476.080014
1439.222425,-2221.676944,-1110.308913,9474.636058
1439.222743,-1991.848295,-2368.659014,13323.706956
1439.223062,-1225.752797,-3404.947333,14582.057057
1439.223381,-459.657299,-3404.947333,14359.995275
1439.223699,383.047749,-3108.864956,14359.995275
1439.224018,2068.457845,-1850.514855,12953.603985
1439.224336,2987.772442,222.061783,8882.471304
1439.224662,3600.648841,1184.329507,6291.750507
1439.224981,3983.696590,2664.741391,5329.482782
1439.225299,3140.991542,3108.864956,2516.700203
1439.225618,2221.676944,2294.638420,1850.514855
1439.225937,383.047749,518.144159,4737.318029
1439.226255,-1149.143247,-1184.329507,6217.729913
1439.226574,-2604.724693,-3478.967927,8882.471304
1439.226893,-3447.429741,-5107.421000,12509.480420
1439.227211,-2681.334243,-5847.626942,15766.386565
1439.227530,-1532.190996,-5181.441594,15618.345376
1439.227849,-536.266849,-3923.091493,15026.180623
1439.228167,689.485948,-1998.556043,14285.974681
1439.228486,2068.457845,888.247130,10362.883188
1439.228804,3140.991542,2146.597232,7254.018232
1439.229123,3600.648841,3478.967927,5329.482782
1439.229442,2987.772442,4441.235652,2886.803174
1439.229760,2681.334243,4071.132681,296.082377
1439.230079,1455.581446,2960.823768,2368.659014
1439.230398,76.609550,1110.308913,5329.482782
1439.230716,-1532.190996,-518.144159,6365.771101
1439.231035,-2221.676944,-1998.556043,9770.718434
1439.231354,-2451.505594,-3256.906145,14063.912898
1439.231672,-1991.848295,-2442.679609,14878.139434
1439.231991,-536.266849,-1924.535449,14434.015869
1439.232310,-459.657299,-740.205942,14804.118840
1439.232628,1149.143247,1036.288319,12435.459826
1439.232947,1378.971896,2368.659014,8364.327145
1439.233265,2068.457845,3256.906145,6291.750507
1439.233584,1838.629195,4737.318029,4515.256246
1439.233903,689.485948,5329.482782,2664.741391
1439.234221,-306.438199,3849.070898,2590.720797
1439.234540,-919.314598,2738.761985,5773.606348
1439.234859,-1915.238745,1110.308913,7328.038826
1439.235177,-2757.943793,-740.205942,10214.842000
1439.235496,-2528.115143,-2368.659014,14359.995275
1439.235815,-2145.067394,-2516.700203,16358.551318
1439.236133,-1225.752797,-2812.782580,16580.613101
1439.236452,0.000000,-1924.535449,15988.448347
1439.236771,1455.581446,518.144159,14137.933492
1439.237089,2374.896044,1924.535449,9770.718434
1439.237408,2757.943793,3552.988522,7179.997637
1439.237726,2911.162892,5107.421000,5329.482782
1439.238045,1991.848295,5329.482782,3108.864956
1439.238364,459.657299,3997.112087,3478.967927
1439.238682,-1378.971896,2146.597232,5921.647536
1439.239001,-2221.676944,1702.473667,7846.182985
1439.239320,-2221.676944,814.226536,10436.903782
1439.239638,-2145.067394,-1036.288319,14730.098246
1439.239957,-1072.533697,-1554.432478,16802.674883
1439.240276,229.828649,-962.267725,16580.613101
1439.240594,1762.019645,-370.102971,16284.530724
1439.240913,3140.991542,740.205942,14137.933492
1439.241232,4290.134789,1998.556043,10510.924376
1439.241550,4519.963438,3330.926739,6587.832884
1439.241869,4903.011187,4737.318029,4663.297435
1439.242188,4366.744339,4959.379811,2072.576638
1439.242506,2528.115143,4441.235652,1406.391290
1439.242825,842.705048,2738.761985,3775.050304
1439.243143,-1225.752797,518.144159,6143.709319
1439.243462,-2604.724693,-962.267725,8808.450710
1439.243781,-3370.820191,-3256.906145,13323.706956
1439.244099,-3064.381992,-4367.215058,16728.654289
1439.244418,-1455.581446,-4959.379811,16876.695478
1439.244737,-306.438199,-4219.173869,16950.716072
1439.245055,995.924147,-3108.864956,15988.448347
1439.245374,2528.115143,-1332.370696,11843.295072
1439.245693,3524.039291,-0.000000,7698.141797
1439.246011,3753.867940,1850.514855,5477.523971
1439.246330,3447.429741,3404.947333,2516.700203
1439.246649,2221.676944,3478.967927,-444.123565
1439.246967,1225.752797,1036.288319,2220.617826
1439.247286,-1149.143247,-1184.329507,4737.318029
1439.247604,-3140.991542,-2516.700203,6365.771101
1439.247923,-3753.867940,-4959.379811,10214.842000
1439.248242,-3064.381992,-6513.812290,15692.365970
1439.248560,-2987.772442,-7402.059420,16580.613101
1439.248879,-1762.019645,-6217.729913,16432.571912
1439.249198,-153.219100,-3478.967927,15248.242405
1439.249516,1991.848295,-1628.453072,12361.439231
1439.249835,2604.724693,518.144159,7698.141797
1439.250154,4979.620737,3330.926739,5921.647536
1439.250472,3983.696590,5995.668130,1036.288319
1439.250791,3447.429741,7698.141797,-3701.029710
1439.251110,2604.724693,2368.659014,1258.350101
1439.251428,459.657299,1924.535449,3256.906145
1439.251747,-766.095498,-0.000000,4885.359217
1439.252065,-1532.190996,-2368.659014,7550.100608
1439.252384,-2681.334243,-3627.009116,13915.871710
1439.252703,-995.924147,-3997.112087,14952.160028
1439.253021,-153.219100,-2960.823768,15470.304188
1439.253340,-306.438199,-2960.823768,17172.777854
1439.253659,1991.848295,-222.061783,14211.954086
1439.253977,2911.162892,3997.112087,9030.512492
1439.254296,4596.572988,3330.926739,7031.956449
1439.254615,4213.525239,4589.276840,4811.338623
1439.254933,3524.039291,4885.359217,1924.535449
1439.255252,2221.676944,3552.988522,740.205942
1439.255571,766.095498,1850.514855,3330.926739
1439.255889,-995.924147,148.041188,5551.544565
1439.256208,-1991.848295,-962.267725,8734.430116
1439.256527,-2298.286494,-2960.823768,13767.830521
1439.256845,-2068.457845,-4145.153275,16432.571912
1439.257164,-1838.629195,-3627.009116,16728.654289
1439.257482,-995.924147,-2886.803174,18135.045579
1439.257801,76.609550,-1924.535449,16950.716072
1439.258120,229.828649,-444.123565,13397.727550
1439.258438,1378.971896,1554.432478,9918.759623
1439.258757,1915.238745,3404.947333,7179.997637
1439.259076,2528.115143,5107.421000,3849.070898
1439.259394,1532.190996,4737.318029,2220.617826
1439.259713,459.657299,3552.988522,3627.009116
1439.260032,-842.705048,2072.576638,4885.359217
1439.260350,-1838.629195,444.123565,7254.018232
1439.260669,-2068.457845,-1850.514855,12805.562797
1439.260988,-1915.238745,-2516.700203,15470.304188
1439.261306,-689.485948,-2516.700203,16284.530724
1439.261625,459.657299,-2368.659014,16728.654289
1439.261943,1685.410096,-666.185348,16580.613101
1439.262262,3064.381992,1406.391290,12805.562797
1439.262581,3830.477490,2664.741391,9696.697840
1439.262899,4443.353888,4219.173869,7105.977043
1439.263218,4519.963438,6143.709319,3552.988522
1439.263537,3907.087040,6291.750507,444.123565
1439.263855,2604.724693,4515.256246,2146.597232
1439.264174,1532.190996,1924.535449,3849.070898
1439.264493,-766.095498,-222.061783,6291.750507
1439.264811,-1685.410096,-2516.700203,10436.903782
1439.265130,-2374.896044,-4367.215058,14508.036463
1439.265449,-2221.676944,-4441.235652,15544.324782
1439.265767,-689.485948,-4663.297435,16580.613101
1439.266086,459.657299,-3478.967927,16580.613101
1439.266404,1455.581446,-1036.288319,13767.830521
1439.266723,2987.772442,296.082377,10288.862594
1439.267042,3983.696590,1480.411884,7550.100608
1439.267360,3677.258390,3997.112087,3997.112087
1439.267679,2987.772442,4145.153275,1332.370696
1439.267998,1378.971896,1924.535449,888.247130
1439.268316,0.000000,296.082377,2812.782580
1439.268635,-1532.190996,-2294.638420,4737.318029
1439.268954,-2681.334243,-3775.050304,8216.285956
1439.269272,-3753.867940,-5329.482782,13027.624579
1439.269591,-2987.772442,-5329.482782,15470.304188
1439.269910,-2298.286494,-4737.318029,15766.386565
1439.270228,-1378.971896,-3552.988522,16358.551318
1439.270547,76.609550,-2368.659014,14804.118840
1439.270866,919.314598,222.061783,11251.130318
1439.271184,3064.381992,1776.494261,8290.306550
1439.271503,4366.744339,4367.215058,4811.338623
1439.271821,3677.258390,4959.379811,1406.391290
1439.272140,3217.601092,4293.194464,-444.123565
1439.272459,1532.190996,3330.926739,888.247130
1439.272777,919.314598,2146.597232,2664.741391
1439.273096,-229.828649,814.226536,4071.132681
1439.273415,-536.266849,-1184.329507,9696.697840
1439.273733,-1149.143247,-1776.494261,13027.624579
1439.274052,-1532.190996,-2590.720797,13989.892304
1439.274371,-1532.190996,-3701.029710,16210.510130
1439.274689,-459.657299,-2072.576638,16950.716072
1439.275008,0.000000,-74.020594,12657.521608
1439.275327,1532.190996,1480.411884,9918.759623
1439.275645,2298.286494,2368.659014,8364.327145
1439.275964,2834.553343,3775.050304,4071.132681
1439.276282,2451.505594,4441.235652,1554.432478
1439.276601,2221.676944,2368.659014,2812.782580
1439.276920,1149.143247,962.267725,3997.112087
1439.277238,229.828649,-814.226536,5773.606348
1439.277557,-689.485948,-2368.659014,10066.800811
1439.277876,-1225.752797,-3478.967927,13915.871710
1439.278194,-1302.362347,-3627.009116,15100.201217
1439.278513,-1072.533697,-3256.906145,16654.633695
1439.278832,0.000000,-2590.720797,17616.901420
1439.279150,0.000000,-1258.350101,14952.160028
1439.279469,766.095498,370.102971,12213.398043
1439.279788,1762.019645,1924.535449,10436.903782
1439.280106,1915.238745,3404.947333,7328.038826
1439.280425,1762.019645,3849.070898,4219.173869
1439.280743,689.485948,2664.741391,4811.338623
1439.281062,689.485948,2146.597232,5329.482782
1439.281381,0.000000,1554.432478,5551.544565
1439.281699,0.000000,814.226536,8734.430116
1439.282018,0.000000,-148.041188,11843.295072
1439.282337,459.657299,-296.082377,13471.748144
1439.282655,1225.752797,-962.267725,14137.933492
1439.282974,1762.019645,-296.082377,14952.160028
1439.283293,2221.676944,1480.411884,13767.830521
1439.283611,2604.724693,2812.782580,10362.883188
1439.283930,2757.943793,3182.885551,8660.409521
1439.284249,2681.334243,4663.297435,6587.832884
1439.284567,1991.848295,5403.503377,3775.050304
1439.284886,1455.581446,4219.173869,3182.885551
1439.285205,766.095498,3330.926739,4737.318029
1439.285523,-229.828649,2368.659014,5255.462188
1439.285842,-1149.143247,592.164754,7402.059420
1439.286160,-1532.190996,-1036.288319,11843.295072
1439.286479,-842.705048,-2072.576638,13545.768739
1439.286798,-306.438199,-1628.453072,13545.768739
1439.287116,919.314598,-1036.288319,14211.954086
1439.287435,1532.190996,-518.144159,13619.789333
1439.287754,2298.286494,-0.000000,10362.883188
1439.288072,1915.238745,814.226536,8660.409521
1439.288391,2298.286494,1850.514855,7254.018232
1439.288710,1378.971896,2960.823768,4293.194464
1439.289028,536.266849,2146.597232,3849.070898
1439.289347,-1149.143247,888.247130,5625.565159
1439.289666,-2221.676944,148.041188,6069.688724
1439.289984,-3140.991542,-1554.432478,7328.038826
1439.290303,-3370.820191,-2812.782580,11695.253884
1439.290621,-3140.991542,-3627.009116,14063.912898
1439.290940,-2451.505594,-2886.803174,14508.036463
1439.291259,-2221.676944,-2590.720797,15174.221811
1439.291577,-536.266849,-1924.535449,15026.180623
1439.291896,612.876398,-148.041188,11325.150913
1439.292215,1991.848295,962.267725,8882.471304
1439.292533,2987.772442,2516.700203,7846.182985
1439.292852,3064.381992,3701.029710,3997.112087
1439.293171,2451.505594,3478.967927,2590.720797
1439.293489,1302.362347,2664.741391,3627.009116
1439.293808,306.438199,1406.391290,4959.379811
1439.294127,-689.485948,740.205942,5255.462188
1439.294445,-919.314598,-148.041188,8956.491898
1439.294764,-1225.752797,-1258.350101,12139.377449
1439.295082,-1378.971896,-1776.494261,12361.439231
1439.295401,-1149.143247,-2442.679609,14211.954086
1439.295720,-306.438199,-1776.494261,15470.304188
1439.296038,689.485948,-370.102971,11695.253884
1439.296357,1149.143247,296.082377,9918.759623
1439.296676,1991.848295,1258.350101,8808.450710
1439.296994,2604.724693,3330.926739,5699.585753
1439.297313,2451.505594,4145.153275,2960.823768
1439.297632,2528.115143,3478.967927,4219.173869
1439.297950,1991.848295,2368.659014,4885.359217
1439.298269,1302.362347,888.247130,5107.421000
1439.298588,76.609550,-740.205942,8512.368333
1439.298906,-229.828649,-2220.617826,12731.542202
1439.299225,-459.657299,-2590.720797,12805.562797
1439.299544,-153.219100,-2664.741391,13619.789333
1439.299862,-383.047749,-2960.823768,15470.304188
1439.300181,-229.828649,-1628.453072,13323.706956
1439.300499,76.609550,-666.185348,11251.130318
1439.300818,459.657299,814.226536,9844.739029
1439.301137,995.924147,2738.761985,7624.121203
1439.301455,0.000000,3775.050304,5403.503377
1439.301774,0.000000,2960.823768,5995.668130
1439.302093,-536.266849,1850.514855,6661.853478
1439.302411,-919.314598,1480.411884,6957.935855
1439.302730,-689.485948,592.164754,8660.409521
1439.303049,-689.485948,-0.000000,11621.233289
1439.303367,-459.657299,-666.185348,12361.439231
1439.303686,383.047749,-74.020594,12657.521608
1439.304005,766.095498,296.082377,13397.727550
1439.304323,1378.971896,2072.576638,11695.253884
1439.304642,1072.533697,2886.803174,9474.636058
1439.304960,1149.143247,3108.864956,8438.347739
1439.305279,1225.752797,4515.256246,7105.977043
1439.305598,536.266849,4737.318029,4737.318029
1439.305916,-383.047749,4145.153275,5107.421000
1439.306235,-766.095498,2442.679609,6957.935855
1439.306554,-1225.752797,1924.535449,7179.997637
1439.306872,-1532.190996,444.123565,8438.347739
1439.307191,-766.095498,-592.164754,11769.274478
1439.307510,153.219100,-1110.308913,13101.645173
1439.307828,766.095498,-1110.308913,12583.501014
1439.308147,1532.190996,-814.226536,13397.727550
1439.308466,2068.457845,444.123565,12065.356855
1439.308784,2681.334243,888.247130,10140.821405
1439.309103,2681.334243,1406.391290,8142.265362
1439.309421,1838.629195,1702.473667,7624.121203
1439.309740,995.924147,2812.782580,5551.544565
1439.310059,0.000000,2146.597232,6143.709319
1439.310377,-689.485948,518.144159,7624.121203
1439.310696,-1378.971896,-0.000000,8216.285956
1439.311015,-2604.724693,-1776.494261,9548.656652
1439.311333,-2298.286494,-2886.803174,12805.562797
1439.311652,-1302.362347,-3330.926739,14211.954086
1439.311971,-612.876398,-3182.885551,13323.706956
1439.312289,229.828649,-2664.741391,13989.892304
1439.312608,1608.800546,-1554.432478,13397.727550
1439.312927,2221.676944,-0.000000,9918.759623
1439.313245,2834.553343,1776.494261,7105.977043
1439.313564,3217.601092,3108.864956,6291.750507
1439.313883,2221.676944,4441.235652,3849.070898
1439.314201,1378.971896,4071.132681,2664.741391
1439.314520,459.657299,2516.700203,5329.482782
1439.314838,-995.924147,1332.370696,6809.894666
1439.315157,-1378.971896,222.061783,7550.100608
1439.315476,-1532.190996,-1258.350101,10658.965565
1439.315794,-1455.581446,-2368.659014,13249.686362
1439.316113,-383.047749,-2664.741391,13619.789333
1439.316432,229.828649,-1850.514855,13397.727550
1439.316750,1762.019645,-0.000000,12435.459826
1439.317069,2604.724693,1480.411884,9252.574275
1439.317388,3064.381992,2516.700203,6365.771101
1439.317706,3907.087040,2960.823768,5699.585753
1439.318025,2604.724693,4589.276840,2960.823768
1439.318344,1532.190996,3552.988522,2590.720797
1439.318662,842.705048,1332.370696,5033.400406
1439.318981,-919.314598,814.226536,6513.812290
1439.319299,-2068.457845,-1554.432478,7846.182985
1439.319618,-3370.820191,-2368.659014,10732.986159
1439.319937,-2834.553343,-3923.091493,15026.180623
1439.320255,-2451.505594,-3997.112087,15248.242405
1439.320574,-1762.019645,-3552.988522,14878.139434
1439.320893,-1149.143247,-2812.782580,14730.098246
1439.321211,0.000000,-1406.391290,11843.295072
1439.321530,842.705048,-222.061783,8364.327145
1439.321849,1149.143247,444.123565,7105.977043
1439.322167,1455.581446,2368.659014,5181.441594
1439.322486,766.095498,3478.967927,2368.659014
1439.322805,306.438199,2072.576638,3701.029710
1439.323123,-766.095498,814.226536,6883.915261
1439.323442,-1762.019645,-0.000000,7402.059420
1439.323760,-1838.629195,-740.205942,10288.862594
1439.324079,-1378.971896,-1776.494261,13175.665768
1439.324398,-612.876398,-1332.370696,14508.036463
1439.324716,612.876398,-1110.308913,14211.954086
1439.325035,1762.019645,-666.185348,14285.974681
1439.325354,2604.724693,370.102971,12509.480420
1439.325672,3753.867940,2812.782580,8438.347739
1439.325991,4060.306139,3478.967927,6439.791695
1439.326310,3907.087040,4737.318029,4589.276840
1439.326628,3447.429741,5551.544565,2738.761985
1439.326947,2374.896044,4219.173869,2886.803174
1439.327266,1378.971896,2960.823768,5255.462188
1439.327584,383.047749,1554.432478,7031.956449
1439.327903,-842.705048,-518.144159,9400.615463
1439.328222,-1149.143247,-2368.659014,13397.727550
1439.328540,-383.047749,-2812.782580,15248.242405
1439.328859,536.266849,-2368.659014,15026.180623
1439.329178,1378.971896,-1998.556043,14656.077652
1439.329496,2221.676944,-296.082377,13545.768739
1439.329815,3370.820191,962.267725,11029.068536
1439.330134,3370.820191,1480.411884,7624.121203
1439.330452,2911.162892,2516.700203,6291.750507
1439.330771,1685.410096,2812.782580,4737.318029
1439.331090,229.828649,2072.576638,3701.029710
1439.331408,-919.314598,370.102971,6069.688724
1439.331727,-2451.505594,-888.247130,8808.450710
1439.332046,-3294.210641,-1554.432478,9474.636058
1439.332364,-3064.381992,-4219.173869,13175.665768
1439.332683,-3217.601092,-5033.400406,16654.633695
1439.333002,-2451.505594,-4737.318029,16580.613101
1439.333320,-919.314598,-3552.988522,14878.139434
1439.333639,612.876398,-1480.411884,13915.871710
1439.333957,2221.676944,222.061783,10510.924376
1439.334276,3370.820191,2294.638420,6661.853478
1439.334595,3370.820191,3849.070898,4811.338623
1439.334913,2757.943793,4441.235652,2812.782580
1439.335232,1685.410096,4737.318029,1998.556043
1439.335551,229.828649,2516.700203,3849.070898
1439.335869,-1455.581446,1702.473667,6217.729913
1439.336188,-2298.286494,814.226536,7476.080014
1439.336507,-2987.772442,-962.267725,11399.171507
1439.336825,-2451.505594,-2442.679609,14952.160028
1439.337144,-1302.362347,-2664.741391,15470.304188
1439.337463,76.609550,-1480.411884,14730.098246
1439.337781,1072.533697,-370.102971,13693.809927
1439.338100,2834.553343,740.205942,11103.089130
1439.338419,3983.696590,2294.638420,6883.915261
1439.338737,4366.744339,3627.009116,4219.173869
1439.339056,4290.134789,4589.276840,2072.576638
1439.339375,2834.553343,4737.318029,0.000000
1439.339693,1762.019645,3108.864956,1554.432478
1439.340012,0.000000,1332.370696,4441.235652
1439.340331,-1149.143247,-0.000000,6883.915261
1439.340649,-2451.505594,-1850.514855,10066.800811
1439.340968,-2911.162892,-3552.988522,14434.015869
1439.341287,-1915.238745,-4293.194464,16580.613101
1439.341605,-842.705048,-4293.194464,16876.695478
1439.341924,0.000000,-3775.050304,15914.427753
1439.342243,1378.971896,-1480.411884,13989.892304
1439.342561,2528.115143,-74.020594,9548.656652
1439.342880,3064.381992,1628.453072,6069.688724
1439.343199,3600.648841,3775.050304,3849.070898
1439.343517,2528.115143,4885.359217,1480.411884
1439.343836,1532.190996,3330.926739,814.226536
1439.344155,-306.438199,2072.576638,4367.215058
1439.344473,-1991.848295,-0.000000,7031.956449
1439.344792,-2911.162892,-1702.473667,9992.780217
1439.345111,-3140.991542,-3034.844362,14508.036463
1439.345429,-2068.457845,-3923.091493,17616.901420
1439.345748,-689.485948,-3775.050304,17024.736666
1439.346067,995.924147,-2812.782580,16580.613101
1439.346385,2757.943793,-1258.350101,15470.304188
1439.346704,3983.696590,1110.308913,10214.842000
1439.347023,5209.449386,2516.700203,6069.688724
1439.347341,5515.887586,4589.276840,4367.215058
1439.347660,4826.401637,5403.503377,1332.370696
1439.347978,3677.258390,4885.359217,-222.061783
1439.348297,1915.238745,3404.947333,2664.741391
1439.348616,153.219100,1480.411884,5329.482782
1439.348934,-1455.581446,-444.123565,7402.059420
1439.349253,-2451.505594,-2368.659014,13027.624579
1439.349572,-2298.286494,-5107.421000,17542.880825
1439.349890,-1378.971896,-4589.276840,17764.942608
1439.350209,0.000000,-3775.050304,17764.942608
1439.350528,842.705048,-2072.576638,16580.613101
1439.350846,2145.067394,-666.185348,12805.562797
1439.351165,3217.601092,1036.288319,8290.306550
1439.351484,3907.087040,3256.906145,5107.421000
1439.351802,3447.429741,4959.379811,1628.453072
1439.352121,2145.067394,4885.359217,0.000000
1439.352440,842.705048,2146.597232,2146.597232
1439.352758,-1149.143247,444.123565,4663.297435
1439.353077,-2911.162892,-1332.370696,6809.894666
1439.353396,-4060.306139,-3182.885551,11547.212695
1439.353714,-3447.429741,-4663.297435,16210.510130
1439.354033,-3370.820191,-4663.297435,17320.819043
1439.354352,-2298.286494,-3701.029710,17764.942608
1439.354670,-1072.533697,-2664.741391,17172.777854
1439.354989,383.047749,-222.061783,13619.789333
1439.355308,2145.067394,1406.391290,8660.409521
1439.355626,2834.553343,3182.885551,6217.729913
1439.355945,3217.601092,5329.482782,3034.844362
1439.356264,2681.334243,6143.709319,-814.226536
1439.356582,1762.019645,4515.256246,-148.041188
1439.356901,383.047749,2664.741391,2886.803174
1439.357220,-1072.533697,962.267725,4959.379811
1439.357538,-2221.676944,-148.041188,8660.409521
1439.357857,-1991.848295,-1850.514855,13693.809927
1439.358176,-1838.629195,-2368.659014,15840.407159
1439.358494,-842.705048,-1850.514855,16136.489536
1439.358813,76.609550,-1406.391290,16136.489536
1439.359132,995.924147,-0.000000,14582.057057
1439.359450,1915.238745,1258.350101,10288.862594
1439.359769,2987.772442,2220.617826,7328.038826
1439.360088,3064.381992,4145.153275,4737.318029
1439.360406,2834.553343,4885.359217,1110.308913
1439.360725,2374.896044,4219.173869,1110.308913
1439.361044,689.485948,2220.617826,3034.844362
1439.361362,0.000000,962.267725,5477.523971
1439.361681,-1149.143247,-888.247130,8142.265362
1439.362000,-1915.238745,-3108.864956,12879.583391
1439.362318,-1991.848295,-3997.112087,16506.592507
1439.362637,-1072.533697,-4293.194464,16580.613101
1439.362955,-842.705048,-3627.009116,16506.592507
1439.363274,689.485948,-1998.556043,16284.530724
1439.363593,1378.971896,-518.144159,12361.439231
1439.363911,2681.334243,1406.391290,8956.491898
1439.364230,3294.210641,2516.700203,6883.915261
1439.364549,3140.991542,4885.359217,2960.823768
1439.364867,2834.553343,4219.173869,1406.391290
1439.365186,1302.362347,2294.638420,3330.926739
1439.365505,-229.828649,370.102971,5403.503377
1439.365823,-689.485948,-740.205942,7476.080014
1439.366142,-2298.286494,-2220.617826,11917.315666
1439.366461,-1378.971896,-2664.741391,15988.448347
1439.366779,-459.657299,-2442.679609,16654.633695
1439.367098,459.657299,-1628.453072,16358.551318
1439.367417,1685.410096,-1332.370696,15840.407159
1439.367735,2757.943793,740.205942,12879.583391
1439.368054,3830.477490,2220.617826,8438.347739
1439.368373,5056.230287,3108.864956,6217.729913
1439.368691,5209.449386,5107.421000,2590.720797
1439.369010,4136.915689,4589.276840,592.164754
1439.369329,2987.772442,3108.864956,1332.370696
1439.369647,1378.971896,2072.576638,3478.967927
1439.369966,76.609550,888.247130,5625.565159
1439.370285,-1685.410096,-888.247130,9622.677246
1439.370603,-2068.457845,-1850.514855,13619.789333
1439.370922,-1915.238745,-2516.700203,15322.262999
1439.371241,-1225.752797,-2442.679609,15988.448347
1439.371559,-459.657299,-2442.679609,16580.613101
1439.371878,-76.609550,-592.164754,14359.995275
1439.372197,1302.362347,518.144159,10140.821405
1439.372515,1991.848295,1406.391290,7550.100608
1439.372834,2528.115143,2960.823768,5329.482782
1439.373153,1838.629195,3108.864956,1998.556043
1439.373471,842.705048,2146.597232,1258.350101
1439.373790,-229.828649,1850.514855,3256.906145
1439.374109,-1685.410096,296.082377,4663.297435
1439.374427,-2834.553343,-1258.350101,7550.100608
1439.374746,-3524.039291,-2294.638420,12731.542202
1439.375065,-2987.772442,-2812.782580,15100.201217
1439.375383,-2911.162892,-2294.638420,15396.283594
1439.375702,-1991.848295,-2368.659014,16136.489536
1439.376021,-612.876398,-888.247130,15248.242405
1439.376339,153.219100,-0.000000,11695.253884
1439.376658,1378.971896,1480.411884,8142.265362
1439.376976,2834.553343,4589.276840,5995.668130
1439.377295,3370.820191,5847.626942,1406.391290
1439.377614,2298.286494,4515.256246,888.247130
1439.377932,1302.362347,2960.823768,3404.947333
1439.378251,76.609550,1924.535449,4663.297435
1439.378570,-1149.143247,148.041188,6439.791695
1439.378888,-1685.410096,-1554.432478,12139.377449
1439.379207,-1608.800546,-2368.659014,14878.139434
1439.379526,-1378.971896,-1332.370696,14063.912898
1439.379844,-306.438199,-1554.432478,15988.448347
1439.380163,76.609550,-1628.453072,16210.510130
1439.380482,1685.410096,-296.082377,12953.603985
1439.380800,2681.334243,666.185348,9844.739029
1439.381119,3677.258390,2146.597232,8142.265362
1439.381438,3830.477490,2960.823768,4885.359217
1439.381756,3217.601092,3182.885551,1776.494261
1439.382075,2604.724693,1998.556043,3849.070898
1439.382394,1302.362347,1258.350101,4589.276840
1439.382712,459.657299,962.267725,6143.709319
1439.383031,76.609550,-592.164754,9992.780217
1439.383350,-536.266849,-2072.576638,13767.830521
1439.383668,-689.485948,-3256.906145,15692.365970
1439.383987,-1225.752797,-2886.803174,16432.571912
1439.384306,-689.485948,-2960.823768,16580.613101
1439.384624,-153.219100,-2220.617826,13915.871710
1439.384943,919.314598,-370.102971,11325.150913
1439.385262,1838.629195,962.267725,8956.491898
1439.385580,2298.286494,2960.823768,5477.523971
1439.385899,1915.238745,3330.926739,2812.782580
1439.386218,1532.190996,2960.823768,2738.761985
1439.386536,0.000000,1850.514855,3775.050304
1439.386855,-995.924147,1258.350101,5033.400406
1439.387174,-1762.019645,222.061783,7846.182985
1439.387492,-1838.629195,-592.164754,11251.130318
1439.387811,-1838.629195,-1406.391290,13323.706956
1439.388130,-1378.971896,-1258.350101,13915.871710
1439.388448,-919.314598,-1850.514855,15692.365970
1439.388767,-459.657299,296.082377,13841.851115
1439.389086,766.095498,1554.432478,10066.800811
1439.389404,1762.019645,2442.679609,8734.430116
1439.389723,2528.115143,4589.276840,6291.750507
1439.390042,3524.039291,5403.503377,2664.741391
1439.390360,2528.115143,4959.379811,1924.535449
1439.390679,1532.190996,3997.112087,3404.947333
1439.390998,919.314598,2294.638420,4589.276840
1439.391316,0.000000,592.164754,6365.771101
1439.391635,-689.485948,-1850.514855,10732.986159
1439.391953,-689.485948,-2368.659014,12361.439231
1439.392272,-919.314598,-2516.700203,13915.871710
1439.392591,-229.828649,-3034.844362,15618.345376
1439.392909,0.000000,-1850.514855,14434.015869
1439.393228,919.314598,-74.020594,11399.171507
1439.393547,1762.019645,1702.473667,8808.450710
1439.393865,2145.067394,2886.803174,7772.162391
1439.394184,1762.019645,3775.050304,5403.503377
1439.394503,459.657299,2960.823768,3775.050304
1439.394821,-459.657299,1406.391290,5403.503377
1439.395140,-1149.143247,-0.000000,6735.874072
1439.395459,-1915.238745,-814.226536,8068.244768
1439.395777,-2528.115143,-2146.597232,11695.253884
1439.396096,-2528.115143,-2812.782580,14063.912898
1439.396415,-1915.238745,-2664.741391,14656.077652
1439.396733,-919.314598,-1776.494261,15100.201217
1439.397052,0.000000,-592.164754,14434.015869
1439.397371,766.095498,-222.061783,11695.253884
1439.397689,1225.752797,592.164754,9474.636058
1439.398008,1762.019645,1480.411884,8364.327145
1439.398327,2068.457845,3256.906145,4737.318029
1439.398645,1378.971896,3552.988522,3256.906145
1439.398964,842.705048,2368.659014,4885.359217
1439.399283,536.266849,1850.514855,5625.565159
1439.399601,-229.828649,1036.288319,6587.832884
1439.399920,-306.438199,-222.061783,9992.780217
1439.400239,-689.485948,-1110.308913,12953.603985
1439.400557,-536.266849,-1554.432478,13471.748144
1439.400876,0.000000,-1332.370696,14359.995275
1439.401195,689.485948,-814.226536,14730.098246
1439.401513,1455.581446,-0.000000,12287.418637
1439.401832,1915.238745,1184.329507,9474.636058
1439.402151,3524.039291,2442.679609,7624.121203
1439.402469,2757.943793,3108.864956,4959.379811
1439.402788,2681.334243,2812.782580,3775.050304
1439.403107,1532.190996,1850.514855,4145.153275
1439.403425,689.485948,1110.308913,4959.379811
1439.403744,0.000000,148.041188,6587.832884
1439.404063,-536.266849,-962.267725,9622.677246
1439.404381,-995.924147,-2442.679609,12361.439231
1439.404700,-919.314598,-2812.782580,13693.809927
1439.405019,-766.095498,-3330.926739,15100.201217
1439.405337,-383.047749,-2738.761985,14878.139434
1439.405656,-76.609550,-1258.350101,12139.377449
1439.405975,766.095498,-74.020594,9622.677246
1439.406293,1149.143247,222.061783,8512.368333
1439.406612,1225.752797,1850.514855,6217.729913
1439.406930,766.095498,2516.700203,3034.844362
1439.407249,306.438199,2294.638420,3701.029710
1439.407568,-842.705048,1406.391290,4737.318029
1439.407886,-1149.143247,740.205942,6587.832884
1439.408205,-2298.286494,-0.000000,8882.471304
1439.408524,-1532.190996,-444.123565,12139.377449
1439.408842,-1302.362347,-962.267725,13101.645173
1439.409161,229.828649,-444.123565,13693.809927
1439.409480,1915.238745,-518.144159,14285.974681
1439.409798,1838.629195,370.102971,12509.480420
1439.410117,1991.848295,1554.432478,9252.574275
1439.410436,2528.115143,2146.597232,6661.853478
1439.410754,3600.648841,3701.029710,5329.482782
1439.411073,3447.429741,4293.194464,2886.803174
1439.411392,2374.896044,3478.967927,2960.823768
1439.411710,689.485948,2442.679609,4515.256246
1439.412029,0.000000,1184.329507,6513.812290
1439.412348,-766.095498,-222.061783,9104.533087
1439.412666,-1838.629195,-1776.494261,12879.583391
1439.412985,-1608.800546,-2294.638420,14730.098246
1439.413304,-842.705048,-1776.494261,14804.118840
1439.413622,766.095498,-1628.453072,15174.221811
1439.413941,1302.362347,-1184.329507,13989.892304
1439.414260,2068.457845,-0.000000,10436.903782
1439.414578,2987.772442,592.164754,8216.285956
1439.414897,2757.943793,1702.473667,7031.956449
1439.415216,1915.238745,2368.659014,4515.256246
1439.415534,766.095498,1924.535449,4071.132681
1439.415853,-153.219100,370.102971,5699.585753
1439.416172,-1302.362347,444.123565,7031.956449
1439.416490,-1991.848295,-222.061783,9178.553681
1439.416809,-2451.505594,-2220.617826,12953.603985
1439.417128,-2145.067394,-3404.947333,15396.283594
1439.417446,-1915.238745,-3108.864956,15322.262999
1439.417765,-1532.190996,-2812.782580,15618.345376
1439.418084,-612.876398,-1850.514855,14878.139434
1439.418402,383.047749,-592.164754,11621.233289
1439.418721,1455.581446,1184.329507,9104.533087
1439.419040,2681.334243,2812.782580,6735.874072
1439.419358,2451.505594,4219.173869,3552.988522
1439.419677,1685.410096,4145.153275,2220.617826
1439.419996,1608.800546,3034.844362,4145.153275
1439.420314,153.219100,1628.453072,5699.585753
1439.420633,-766.095498,666.185348,7031.956449
1439.420951,-842.705048,-444.123565,10658.965565
1439.421270,-229.828649,-1924.535449,13101.645173
1439.421589,919.314598,-1702.473667,13027.624579
1439.421907,1072.533697,-1258.350101,13397.727550
1439.422226,1532.190996,-888.247130,13101.645173
1439.422545,2145.067394,296.082377,10140.821405
1439.422863,2681.334243,1332.370696,7179.997637
1439.423182,2911.162892,2146.597232,5699.585753
1439.423501,1685.410096,3701.029710,3701.029710
1439.423819,842.705048,3404.947333,2442.679609
1439.424138,0.000000,2590.720797,3775.050304
1439.424457,-689.485948,1554.432478,5995.668130
1439.424775,-1838.629195,518.144159,7846.182985
1439.425094,-2528.115143,-1258.350101,10807.006753
1439.425413,-2221.676944,-3034.844362,14656.077652
1439.425731,-1072.533697,-3182.885551,14952.160028
1439.426050,76.609550,-3034.844362,14211.954086
1439.426369,995.924147,-2960.823768,13693.809927
1439.426687,1225.752797,-1702.473667,11325.150913
1439.427006,2604.724693,518.144159,7179.997637
1439.427325,2757.943793,1406.391290,5773.606348
1439.427643,2987.772442,3108.864956,4145.153275
1439.427962,612.876398,3404.947333,2072.576638
1439.428281,-153.219100,2664.741391,3256.906145
1439.428600,-1532.190996,1406.391290,6143.709319
1439.428918,-2451.505594,370.102971,8512.368333
1439.429237,-2757.943793,-962.267725,10807.006753
1439.429556,-2757.943793,-2220.617826,15914.427753
1439.429875,-1302.362347,-2812.782580,17024.736666
1439.430194,76.609550,-2664.741391,16284.530724
1439.430513,1302.362347,-1776.494261,16580.613101
1439.430832,3447.429741,-222.061783,13619.789333
1439.431150,4519.963438,1998.556043,9104.533087
1439.431469,5898.935335,3775.050304,5403.503377
1439.431788,6435.202183,5403.503377,3552.988522
1439.432107,5209.449386,6069.688724,1110.308913
1439.432426,4213.525239,4737.318029,1258.350101
1439.432745,2451.505594,2368.659014,4071.132681
1439.433064,229.828649,518.144159,7031.956449
1439.433382,-1685.410096,-1332.370696,9770.718434
1439.433701,-2298.286494,-3478.967927,13915.871710
1439.434020,-2068.457845,-4145.153275,17320.819043
1439.434339,-1455.581446,-3627.009116,17024.736666
1439.434658,-153.219100,-3182.885551,17098.757260
1439.434977,1762.019645,-1628.453072,16136.489536
1439.435296,2068.457845,444.123565,11399.171507
1439.435614,3370.820191,1998.556043,7402.059420
1439.435933,3370.820191,3182.885551,5477.523971
1439.436252,3447.429741,4367.215058,2590.720797
1439.436571,1762.019645,3552.988522,444.123565
1439.436890,536.266849,1702.473667,3034.844362
1439.437209,-536.266849,296.082377,5773.606348
1439.437528,-2374.896044,-814.226536,7550.100608
1439.437847,-3140.991542,-3552.988522,11547.212695
1439.438165,-3753.867940,-4885.359217,15840.407159
1439.438484,-3064.381992,-4663.297435,16580.613101
1439.438803,-2911.162892,-3034.844362,15840.407159
1439.439122,-1149.143247,-1554.432478,15544.324782
1439.439441,0.000000,-222.061783,12435.459826
1439.439760,1685.410096,1850.514855,8512.368333
1439.440079,2681.334243,3627.009116,5477.523971
1439.440397,2987.772442,3775.050304,3034.844362
1439.440716,2221.676944,4515.256246,814.226536
1439.441035,919.314598,3701.029710,2072.576638
1439.441354,-459.657299,2368.659014,3404.947333
1439.441673,-1378.971896,1406.391290,5995.668130
1439.441992,-1532.190996,-296.082377,9770.718434
1439.442311,-1838.629195,-1776.494261,13397.727550
1439.442629,-689.485948,-2960.823768,14804.118840
1439.442948,-306.438199,-1924.535449,15248.242405
1439.443267,689.485948,-1332.370696,15470.304188
1439.443586,995.924147,-1332.370696,12805.562797
1439.443905,1838.629195,-148.041188,9844.739029
1439.444224,2528.115143,1702.473667,7105.977043
1439.444543,3600.648841,3701.029710,4145.153275
1439.444861,3217.601092,4885.359217,962.267725
1439.445180,2451.505594,3330.926739,2146.597232
1439.445499,1608.800546,2146.597232,4071.132681
1439.445818,-306.438199,518.144159,5847.626942
1439.446137,-1149.143247,-888.247130,9474.636058
1439.446456,-1685.410096,-3034.844362,13545.768739
1439.446775,-1302.362347,-3404.947333,15618.345376
1439.447094,-383.047749,-3552.988522,15322.262999
1439.447412,766.095498,-2886.803174,16136.489536
1439.447731,1149.143247,-1184.329507,14285.974681
1439.448050,2068.457845,518.144159,10288.862594
1439.448369,2757.943793,1554.432478,7920.203579
1439.448688,2298.286494,3404.947333,5699.585753
1439.449007,1762.019645,4219.173869,3182.885551
1439.449326,1149.143247,3256.906145,2590.720797
1439.449644,-459.657299,2220.617826,4589.276840
1439.449963,-1455.581446,518.144159,6735.874072
1439.450282,-1838.629195,-74.020594,9030.512492
1439.450601,-2068.457845,-1628.453072,13545.768739
1439.450920,-1149.143247,-2220.617826,15248.242405
1439.451239,-383.047749,-2072.576638,15988.448347
1439.451558,1302.362347,-1924.535449,16210.510130
1439.451876,2221.676944,-444.123565,14211.954086
1439.452195,3370.820191,1258.350101,10658.965565
1439.452514,4213.525239,1776.494261,8216.285956
1439.452833,4903.011187,3182.885551,5625.565159
1439.453152,4290.134789,4737.318029,1998.556043
1439.453471,2834.553343,4293.194464,740.205942
1439.453790,1378.971896,2368.659014,3775.050304
1439.454108,76.609550,962.267725,5181.441594
1439.454427,-1838.629195,222.061783,7179.997637
1439.454746,-2374.896044,-1110.308913,11917.315666
1439.455065,-2145.067394,-2294.638420,15544.324782
1439.455384,-1225.752797,-2368.659014,16062.468941
1439.455703,-229.828649,-3108.864956,16802.674883
1439.456022,229.828649,-2960.823768,16284.530724
1439.456341,1532.190996,-962.267725,12731.542202
1439.456659,2451.505594,-0.000000,8068.244768
1439.456978,3217.601092,1406.391290,6365.771101
1439.457297,3140.991542,3404.947333,3478.967927
1439.457616,2681.334243,3701.029710,444.123565
1439.457935,1685.410096,1998.556043,2146.597232
1439.458254,-153.219100,1850.514855,4145.153275
1439.458573,-2374.896044,666.185348,4737.318029
1439.458891,-3677.258390,-1406.391290,8660.409521
1439.459210,-3753.867940,-5181.441594,15988.448347
1439.459529,-4443.353888,-5477.523971,18209.066173
1439.459848,-3217.601092,-4145.153275,17098.757260
1439.460167,-1455.581446,-1258.350101,16284.530724
1439.460486,842.705048,-0.000000,14878.139434
1439.460805,2068.457845,1554.432478,8512.368333
1439.461123,3830.477490,2960.823768,7994.224174
1439.461442,4366.744339,4293.194464,3256.906145
1439.461761,2298.286494,7624.121203,-3404.947333
1439.462080,3140.991542,3256.906145,1184.329507
1439.462399,919.314598,2590.720797,3923.091493
1439.462718,536.266849,2664.741391,5107.421000
1439.463037,-1685.410096,222.061783,5329.482782
1439.463355,-3217.601092,-1184.329507,13027.624579
1439.463674,-1455.581446,-3404.947333,16654.633695
1439.463993,-2681.334243,-2886.803174,15322.262999
1439.464312,-2604.724693,-3034.844362,18061.024985
1439.464631,0.000000,-814.226536,17394.839637
1439.464950,153.219100,1998.556043,10066.800811
1439.465269,3217.601092,1702.473667,8586.388927
1439.465588,3524.039291,4589.276840,5773.606348
1439.465906,3753.867940,5255.462188,2220.617826
1439.466225,2757.943793,3775.050304,-592.164754
1439.466544,1608.800546,2738.761985,2738.761985
1439.466863,0.000000,1110.308913,4811.338623
1439.467182,-1378.971896,592.164754,7105.977043
1439.467501,-2221.676944,-1998.556043,11621.233289
1439.467820,-2068.457845,-4219.173869,15692.365970
1439.468138,-2451.505594,-3108.864956,15618.345376
1439.468457,-1225.752797,-3256.906145,18209.066173
1439.468776,-612.876398,-3404.947333,17838.963202
1439.469095,-229.828649,-814.226536,13619.789333
1439.469414,1455.581446,444.123565,10732.986159
1439.469733,1838.629195,2146.597232,7920.203579
1439.470052,2834.553343,4367.215058,4293.194464
1439.470370,2834.553343,4737.318029,1184.329507
1439.470689,2221.676944,4811.338623,2072.576638
1439.471008,2528.115143,3182.885551,3849.070898
1439.471327,919.314598,592.164754,5773.606348
1439.471646,0.000000,-1480.411884,10510.924376
1439.471965,-383.047749,-3775.050304,14878.139434
1439.472284,0.000000,-3034.844362,14878.139434
1439.472602,1532.190996,-2442.679609,15692.365970
1439.472921,1532.190996,-2146.597232,16210.510130
1439.473240,1838.629195,-666.185348,12805.562797
1439.473559,2681.334243,666.185348,9400.615463
1439.473878,3140.991542,3034.844362,7550.100608
1439.474197,3294.210641,4589.276840,4515.256246
1439.474516,2221.676944,5551.544565,740.205942
1439.474835,689.485948,3330.926739,1406.391290
1439.475153,-536.266849,1924.535449,4441.235652
1439.475472,-1685.410096,1036.288319,5773.606348
1439.475791,-1991.848295,-592.164754,9400.615463
1439.476110,-2145.067394,-2294.638420,13249.686362
1439.476429,-1608.800546,-3108.864956,14656.077652
1439.476748,-919.314598,-3330.926739,16136.489536
1439.477067,0.000000,-3256.906145,15396.283594
1439.477385,1072.533697,-1332.370696,13619.789333
1439.477704,1225.752797,296.082377,9474.636058
1439.478023,1762.019645,2368.659014,7105.977043
1439.478342,2145.067394,3701.029710,3923.091493
1439.478661,1455.581446,4441.235652,1332.370696
1439.478980,0.000000,1850.514855,2294.638420
1439.479299,-1532.190996,962.267725,3701.029710
1439.479617,-2451.505594,518.144159,5181.441594
1439.479936,-2911.162892,-1406.391290,8364.327145
1439.480255,-3370.820191,-3182.885551,13915.871710
1439.480574,-2681.334243,-3775.050304,16284.530724
1439.480893,-1532.190996,-2294.638420,15470.304188
1439.481212,76.609550,-1332.370696,15914.427753
1439.481531,1072.533697,-444.123565,14804.118840
1439.481849,2374.896044,592.164754,10807.006753
1439.482168,3370.820191,1554.432478,8290.306550
1439.482487,3983.696590,3034.844362,6735.874072
1439.482806,3753.867940,4293.194464,2960.823768
1439.483125,2757.943793,4145.153275,1480.411884
1439.483444,2145.067394,3034.844362,3552.988522
1439.483763,459.657299,740.205942,5699.585753
1439.484082,-1072.533697,-0.000000,7105.977043
1439.484400,-1608.800546,-1480.411884,11473.192101
1439.484719,-1149.143247,-2516.700203,15322.262999
1439.485038,-919.314598,-2294.638420,15988.448347
1439.485357,-229.828649,-2960.823768,16876.695478
1439.485676,229.828649,-2072.576638,15692.365970
1439.485995,1915.238745,-666.185348,11991.336260
1439.486314,2451.505594,740.205942,9030.512492
1439.486632,3294.210641,2738.761985,7402.059420
1439.486951,3217.601092,4293.194464,3256.906145
1439.487270,2757.943793,4959.379811,1776.494261
1439.487589,2068.457845,3182.885551,3552.988522
1439.487908,0.000000,1924.535449,5033.400406
1439.488227,-842.705048,666.185348,6291.750507
1439.488546,-1838.629195,-666.185348,10288.862594
1439.488864,-1608.800546,-2590.720797,13841.851115
1439.489183,-2068.457845,-3849.070898,14804.118840
1439.489502,-1915.238745,-4145.153275,16210.510130
1439.489821,-1149.143247,-2886.803174,16284.530724
1439.490140,0.000000,-814.226536,12509.480420
1439.490459,612.876398,814.226536,9770.718434
1439.490778,1225.752797,2516.700203,7179.997637
1439.491096,2221.676944,4589.276840,3627.009116
1439.491415,1991.848295,4885.359217,1924.535449
1439.491734,1072.533697,3330.926739,3256.906145
1439.492053,612.876398,1554.432478,4663.297435
1439.492372,-383.047749,1036.288319,5551.544565
1439.492691,-995.924147,-666.185348,8956.491898
1439.493010,-1378.971896,-2442.679609,12509.480420
1439.493329,-842.705048,-2442.679609,14063.912898
1439.493647,842.705048,-1480.411884,15026.180623
1439.493966,919.314598,-1184.329507,14211.954086
1439.494285,1532.190996,740.205942,12805.562797
1439.494604,2221.676944,1332.370696,9696.697840
1439.494923,2221.676944,2072.576638,7920.203579
1439.495242,1838.629195,3627.009116,5699.585753
1439.495561,1455.581446,4959.379811,2590.720797
1439.495879,919.314598,3701.029710,2886.803174
1439.496198,229.828649,2590.720797,4515.256246
1439.496517,-153.219100,1628.453072,6365.771101
1439.496836,-1378.971896,-666.185348,9252.574275
1439.497155,-1915.238745,-2072.576638,12509.480420
1439.497474,-1532.190996,-2738.761985,14730.098246
1439.497793,-1149.143247,-2886.803174,15100.201217
1439.498111,0.000000,-2664.741391,15692.365970
1439.498430,0.000000,-1184.329507,14137.933492
1439.498749,1072.533697,148.041188,10807.006753
1439.499068,2451.505594,1554.432478,8660.409521
1439.499387,2374.896044,3108.864956,5773.606348
1439.499706,1762.019645,3627.009116,2886.803174
1439.500025,229.828649,2442.679609,2812.782580
1439.500343,-306.438199,888.247130,5107.421000
1439.500662,-1378.971896,-148.041188,6883.915261
1439.500981,-2298.286494,-1332.370696,8734.430116
1439.501300,-2374.896044,-2812.782580,13397.727550
1439.501619,-1455.581446,-2886.803174,15322.262999
1439.501938,-536.266849,-2960.823768,15322.262999
1439.502257,306.438199,-2516.700203,15914.427753
1439.502575,1838.629195,-888.247130,14359.995275
1439.502894,2528.115143,518.144159,10436.903782
1439.503213,3524.039291,1110.308913,8438.347739
1439.503532,4213.525239,2960.823768,6883.915261
1439.503851,3600.648841,4663.297435,3330.926739
1439.504170,3524.039291,4293.194464,1702.473667
1439.504489,2068.457845,2812.782580,3701.029710
1439.504808,1149.143247,1850.514855,5329.482782
1439.505126,-229.828649,370.102971,6587.832884
1439.505445,-995.924147,-1776.494261,10362.883188
1439.505764,-1302.362347,-3775.050304,14359.995275
1439.506083,-842.705048,-3701.029710,14952.160028
1439.506402,-383.047749,-3108.864956,14952.160028
1439.506721,0.000000,-1776.494261,14285.974681
1439.507040,919.314598,-0.000000,11769.274478
1439.507358,1991.848295,1850.514855,8734.430116
1439.507677,2528.115143,3330.926739,6439.791695
1439.507996,2298.286494,4589.276840,3627.009116
1439.508315,1302.362347,3923.091493,1998.556043
1439.508634,459.657299,2220.617826,3182.885551
1439.508953,-612.876398,1110.308913,4959.379811
1439.509272,-1532.190996,-518.144159,6513.812290
1439.509590,-2528.115143,-2368.659014,10066.800811
1439.509909,-2528.115143,-3256.906145,14063.912898
1439.510228,-1685.410096,-3404.947333,14582.057057
1439.510547,-995.924147,-2590.720797,14730.098246
1439.510866,-229.828649,-1702.473667,15248.242405
1439.511185,0.000000,-296.082377,12213.398043
1439.511504,689.485948,888.247130,9474.636058
1439.511822,1915.238745,2664.741391,7031.956449
1439.512141,2221.676944,4293.194464,4515.256246
1439.512460,1991.848295,4441.235652,2220.617826
1439.512779,1991.848295,2960.823768,3330.926739
1439.513098,536.266849,962.267725,5107.421000
1439.513417,-919.314598,-0.000000,6809.894666
1439.513736,-842.705048,-1258.350101,9696.697840
1439.514055,-1378.971896,-2442.679609,13545.768739
1439.514373,0.000000,-2220.617826,15174.221811
1439.514692,612.876398,-1554.432478,15100.201217
1439.515011,1378.971896,-666.185348,15396.283594
1439.515330,1915.238745,444.123565,13027.624579
1439.515649,2681.334243,1924.535449,9844.739029
1439.515968,2757.943793,2664.741391,7179.997637
1439.516287,2757.943793,4441.235652,5181.441594
1439.516605,2834.553343,4959.379811,2960.823768
1439.516924,1762.019645,3923.091493,2516.700203
1439.517243,1072.533697,2146.597232,5181.441594
1439.517562,-306.438199,518.144159,7105.977043
1439.517881,-995.924147,-888.247130,9252.574275
1439.518200,-1302.362347,-2886.803174,13249.686362
1439.518519,-1225.752797,-3478.967927,15396.283594
1439.518837,-919.314598,-3478.967927,15470.304188
1439.519156,306.438199,-3034.844362,15840.407159
1439.519475,536.266849,-814.226536,14063.912898
1439.519794,1762.019645,1036.288319,10288.862594
1439.520113,2451.505594,1924.535449,7105.977043
1439.520432,2451.505594,3182.885551,5847.626942
1439.520751,1378.971896,3552.988522,3330.926739
1439.521069,689.485948,2664.741391,3256.906145
1439.521388,-612.876398,962.267725,4811.338623
1439.521707,-1378.971896,74.020594,7254.018232
1439.522026,-2221.676944,-740.205942,9104.533087
1439.522345,-2298.286494,-2886.803174,12361.439231
1439.522664,-1302.362347,-3552.988522,15470.304188
1439.522983,-536.266849,-3330.926739,15470.304188
1439.523302,76.609550,-2886.803174,15544.324782
1439.523620,1072.533697,-1036.288319,14211.954086
1439.523939,2298.286494,592.164754,10732.986159
1439.524258,2911.162892,1776.494261,7179.997637
1439.524577,3753.867940,3330.926739,4737.318029
1439.524896,4213.525239,5033.400406,2368.659014
1439.525215,2681.334243,4441.235652,444.123565
1439.525534,1762.019645,2886.803174,2590.720797
1439.525852,459.657299,1184.329507,5847.626942
1439.526171,-919.314598,-370.102971,7105.977043
1439.526490,-1991.848295,-2886.803174,10955.047942
1439.526809,-2221.676944,-3627.009116,14730.098246
1439.527128,-1455.581446,-2886.803174,15692.365970
1439.527447,-612.876398,-1850.514855,15100.201217
1439.527766,76.609550,-1332.370696,14582.057057
1439.528085,536.266849,222.061783,11991.336260
1439.528404,1685.410096,1480.411884,8364.327145
1439.528722,2298.286494,2442.679609,5847.626942
1439.529041,1455.581446,3404.947333,3627.009116
1439.529360,1378.971896,4589.276840,1110.308913
1439.529679,536.266849,3330.926739,1924.535449
1439.529998,-153.219100,1110.308913,4663.297435
1439.530317,-1378.971896,-74.020594,6957.935855
1439.530636,-2068.457845,-2442.679609,10066.800811
1439.530955,-1991.848295,-3775.050304,14211.954086
1439.531274,-1532.190996,-3775.050304,15840.407159
1439.531593,-2145.067394,-3701.029710,15396.283594
1439.531912,-919.314598,-2960.823768,16136.489536
1439.532231,0.000000,-1184.329507,13693.809927
1439.532549,1378.971896,1036.288319,9696.697840
1439.532868,2528.115143,2664.741391,6735.874072
1439.533187,2911.162892,5181.441594,4145.153275
1439.533506,2604.724693,5329.482782,2146.597232
1439.533825,2068.457845,3404.947333,2886.803174
1439.534144,1072.533697,1924.535449,5921.647536
1439.534463,76.609550,296.082377,7179.997637
1439.534782,-612.876398,-592.164754,9474.636058
1439.535101,-536.266849,-2738.761985,13619.789333
1439.535420,306.438199,-3256.906145,16580.613101
1439.535739,1532.190996,-1776.494261,16062.468941
1439.536058,2374.896044,-1036.288319,15618.345376
1439.536376,2911.162892,1406.391290,13619.789333
1439.536695,3677.258390,2738.761985,9992.780217
1439.537014,4136.915689,3923.091493,6439.791695
1439.537333,3447.429741,4737.318029,4737.318029
1439.537652,2298.286494,4737.318029,2590.720797
1439.537971,1455.581446,4071.132681,1850.514855
1439.538290,306.438199,2516.700203,4441.235652
1439.538609,-459.657299,370.102971,7550.100608
1439.538928,-1991.848295,-1702.473667,9918.759623
1439.539247,-2451.505594,-3182.885551,13619.789333
1439.539566,-2068.457845,-3775.050304,16210.510130
1439.539885,-842.705048,-3182.885551,16210.510130
1439.540204,-612.876398,-2886.803174,15988.448347
1439.540522,766.095498,-1258.350101,14730.098246
1439.540841,1455.581446,1110.308913,10066.800811
1439.541160,2987.772442,2368.659014,7105.977043
1439.541479,2834.553343,3330.926739,4959.379811
1439.541798,2298.286494,4367.215058,2220.617826
1439.542117,766.095498,3478.967927,1406.391290
1439.542436,-612.876398,1258.350101,3701.029710
1439.542755,-1762.019645,-296.082377,6587.832884
1439.543074,-2528.115143,-1332.370696,8956.491898
1439.543393,-3064.381992,-2516.700203,12435.459826
1439.543712,-2681.334243,-3701.029710,15100.201217
1439.544031,-1532.190996,-3330.926739,15470.304188
1439.544349,-459.657299,-2590.720797,15470.304188
1439.544668,459.657299,-1702.473667,14878.139434
1439.544987,1762.019645,296.082377,11029.068536
1439.545306,2757.943793,2146.597232,6587.832884
1439.545625,3677.258390,2886.803174,4811.338623
1439.545944,3294.210641,4367.215058,2294.638420
1439.546263,2451.505594,4515.256246,74.020594
1439.546582,1532.190996,2738.761985,1850.514855
1439.546901,0.000000,1702.473667,4589.276840
1439.547220,-766.095498,-0.000000,7254.018232
1439.547539,-1608.800546,-1480.411884,10658.965565
1439.547858,-2834.553343,-3404.947333,14508.036463
1439.548176,-1532.190996,-3849.070898,17172.777854
1439.548495,-919.314598,-2664.741391,16506.592507
1439.548814,0.000000,-1924.535449,14952.160028
1439.549133,842.705048,-0.000000,13249.686362
1439.549452,2068.457845,2294.638420,8142.265362
1439.549771,3064.381992,2738.761985,4737.318029
1439.550090,2987.772442,4367.215058,2738.761985
1439.550409,2374.896044,4293.194464,592.164754
1439.550728,1302.362347,2368.659014,1036.288319
1439.551047,76.609550,1036.288319,4515.256246
1439.551366,-1532.190996,-1036.288319,7105.977043
1439.551685,-2298.286494,-2442.679609,9844.739029
1439.552003,-2757.943793,-3849.070898,14582.057057
1439.552322,-1762.019645,-4219.173869,17024.736666
1439.552641,-1072.533697,-3552.988522,16654.633695
1439.552960,0.000000,-2294.638420,16136.489536
1439.553279,919.314598,-666.185348,14508.036463
1439.553598,1838.629195,1110.308913,10362.883188
1439.553917,2757.943793,2590.720797,6587.832884
1439.554236,3753.867940,5181.441594,4145.153275
1439.554555,2911.162892,5921.647536,1776.494261
1439.554874,2068.457845,4071.132681,1110.308913
1439.555193,689.485948,1924.535449,4441.235652
1439.555512,-536.266849,666.185348,6735.874072
1439.555830,-1378.971896,-962.267725,9696.697840
1439.556149,-1762.019645,-2590.720797,14359.995275
1439.556468,-1072.533697,-3849.070898,17246.798449
1439.556787,229.828649,-2072.576638,16358.551318
1439.557106,1072.533697,-1480.411884,15988.448347
1439.557425,1838.629195,592.164754,14434.015869
1439.557744,2451.505594,1924.535449,10658.965565
1439.558063,3753.867940,3552.988522,6735.874072
1439.558382,3753.867940,5107.421000,3997.112087
1439.558701,2834.553343,5773.606348,1924.535449
1439.559020,1838.629195,5181.441594,888.247130
1439.559339,383.047749,2590.720797,3552.988522
1439.559657,-459.657299,814.226536,6365.771101
1439.559976,-1915.238745,-74.020594,8512.368333
1439.560295,-2681.334243,-2220.617826,12657.521608
1439.560614,-1991.848295,-3701.029710,16728.654289
1439.560933,-1685.410096,-3701.029710,17246.798449
1439.561252,-1149.143247,-3478.967927,17024.736666
1439.561571,0.000000,-1332.370696,15914.427753
1439.561890,766.095498,444.123565,12361.439231
1439.562209,2145.067394,1776.494261,7772.162391
1439.562528,2911.162892,3330.926739,4959.379811
1439.562847,2451.505594,4589.276840,2516.700203
1439.563166,1838.629195,4515.256246,0.000000
1439.563485,383.047749,2516.700203,1850.514855
1439.563803,-995.924147,148.041188,5181.441594
1439.564122,-2068.457845,-962.267725,7254.018232
1439.564441,-3370.820191,-2812.782580,11029.068536
1439.564760,-3524.039291,-4367.215058,15840.407159
1439.565079,-2911.162892,-4515.256246,17690.922014
1439.565398,-1915.238745,-3404.947333,17172.777854
1439.565717,-612.876398,-2072.576638,17246.798449
1439.566036,612.876398,-74.020594,13323.706956
1439.566355,2451.505594,1776.494261,9178.553681
1439.566674,3600.648841,2960.823768,5403.503377
1439.566993,3830.477490,4663.297435,2146.597232
1439.567312,3600.648841,5255.462188,0.000000
1439.567630,2068.457845,3849.070898,74.020594
1439.567949,1072.533697,2516.700203,2886.803174
1439.568268,-383.047749,1258.350101,5699.585753
1439.568587,-1225.752797,-148.041188,8808.450710
1439.568906,-1685.410096,-2146.597232,14211.954086
1439.569225,-1378.971896,-2960.823768,16802.674883
1439.569544,-766.095498,-2960.823768,17024.736666
1439.569863,-153.219100,-2220.617826,16950.716072
1439.570182,995.924147,-74.020594,14508.036463
1439.570501,2145.067394,592.164754,9622.677246
1439.570820,3753.867940,2220.617826,5995.668130
1439.571139,4290.134789,4145.153275,2812.782580
1439.571457,3294.210641,5255.462188,296.082377
1439.571776,2451.505594,3923.091493,0.000000
1439.572095,536.266849,1776.494261,2960.823768
1439.572414,-766.095498,1110.308913,5699.585753
1439.572733,-2221.676944,-1480.411884,8882.471304
1439.573052,-2834.553343,-3404.947333,14656.077652
1439.573371,-2528.115143,-4441.235652,18135.045579
1439.573690,-1762.019645,-3923.091493,17764.942608
1439.574009,-1072.533697,-3108.864956,17838.963202
1439.574328,0.000000,-2072.576638,16284.530724
1439.574647,1302.362347,296.082377,11325.150913
1439.574966,2987.772442,1702.473667,7328.038826
1439.575284,2911.162892,4441.235652,3849.070898
1439.575603,2757.943793,5403.503377,1184.329507
1439.575922,2221.676944,4441.235652,-296.082377
1439.576241,612.876398,2812.782580,2072.576638
1439.576560,-995.924147,1406.391290,5477.523971
1439.576879,-2681.334243,-814.226536,8068.244768
1439.577198,-3217.601092,-2368.659014,12879.583391
1439.577517,-2911.162892,-4367.215058,17320.819043
1439.577836,-1608.800546,-3182.885551,18135.045579
1439.578155,-1072.533697,-2590.720797,17024.736666
1439.578474,1072.533697,-518.144159,16580.613101
1439.578793,1991.848295,1850.514855,12435.459826
1439.579111,4366.744339,3330.926739,7402.059420
1439.579430,4979.620737,5255.462188,3923.091493
1439.579749,5439.278036,7105.977043,1036.288319
1439.580068,3830.477490,5107.421000,-1776.494261
1439.580387,2528.115143,3108.864956,-296.082377
1439.580706,536.266849,1554.432478,3627.009116
1439.581025,-1302.362347,-0.000000,6069.688724
1439.581344,-2681.334243,-1998.556043,10732.986159
1439.581663,-2757.943793,-3775.050304,16136.489536
1439.581982,-2221.676944,-3404.947333,17616.901420
1439.582301,-1915.238745,-3923.091493,18209.066173
1439.582620,-153.219100,-3034.844362,18653.189738
1439.582939,612.876398,-592.164754,14952.160028
1439.583257,2298.286494,1850.514855,9326.594869
1439.583576,3447.429741,3108.864956,6513.812290
1439.583895,3907.087040,4293.194464,2516.700203
1439.584214,3830.477490,4441.235652,-1184.329507
1439.584533,2911.162892,3552.988522,592.164754
1439.584852,766.095498,888.247130,3627.009116
1439.585171,-1302.362347,-740.205942,5773.606348
1439.585490,-2528.115143,-2812.782580,10362.883188
1439.585809,-3140.991542,-5107.421000,15470.304188
1439.586128,-2987.772442,-5403.503377,18283.086767
1439.586447,-2834.553343,-4737.318029,18357.107362
1439.586766,-1378.971896,-3775.050304,18505.148550
1439.587084,0.000000,-1702.473667,16062.468941
1439.587403,1532.190996,444.123565,11695.253884
1439.587722,2834.553343,2146.597232,7328.038826
1439.588041,3524.039291,3923.091493,4293.194464
1439.588360,3524.039291,5625.565159,-296.082377
1439.588679,2987.772442,5107.421000,-1480.411884
1439.588998,1991.848295,3182.885551,1776.494261
1439.589317,459.657299,1110.308913,4145.153275
1439.589636,-1685.410096,-296.082377,7994.224174
1439.589955,-2068.457845,-2368.659014,13249.686362
1439.590274,-2145.067394,-3256.906145,16580.613101
1439.590593,-1762.019645,-3108.864956,16876.695478
1439.590911,-919.314598,-2442.679609,16728.654289
1439.591230,-306.438199,-1850.514855,15766.386565
1439.591549,612.876398,-0.000000,11473.192101
1439.591868,1838.629195,1332.370696,7846.182985
1439.592187,2911.162892,3404.947333,4737.318029
1439.592506,2528.115143,4959.379811,1110.308913
1439.592825,1455.581446,4737.318029,-296.082377
1439.593144,612.876398,3552.988522,888.247130
1439.593463,-153.219100,2886.803174,2960.823768
1439.593782,-766.095498,1480.411884,6661.853478
1439.594101,-1685.410096,-2368.659014,11399.171507
1439.594420,-1991.848295,-3627.009116,16284.530724
1439.594738,-1838.629195,-4367.215058,17246.798449
1439.595057,-1455.581446,-4145.153275,17764.942608
1439.595376,-689.485948,-2886.803174,17690.922014
1439.595695,0.000000,-518.144159,13841.851115
1439.596014,1608.800546,1628.453072,9326.594869
1439.596333,2681.334243,3404.947333,6809.894666
1439.596652,3370.820191,5181.441594,3330.926739
1439.596971,3447.429741,5921.647536,518.144159
1439.597290,2068.457845,3923.091493,1628.453072
1439.597609,459.657299,2146.597232,3997.112087
1439.597928,-383.047749,148.041188,6661.853478
1439.598247,-1762.019645,-1258.350101,10510.924376
1439.598565,-995.924147,-2368.659014,15544.324782
1439.598884,0.000000,-2886.803174,17320.819043
1439.599203,612.876398,-1924.535449,17098.757260
1439.599522,1915.238745,-1036.288319,17024.736666
1439.599841,2757.943793,666.185348,13989.892304
1439.600160,3677.258390,1776.494261,9400.615463
1439.600479,4213.525239,2590.720797,7031.956449
1439.600798,3753.867940,4737.318029,3404.947333
1439.601117,3064.381992,4515.256246,1332.370696
1439.601436,2221.676944,3478.967927,1036.288319
1439.601755,919.314598,2738.761985,3256.906145
1439.602074,-536.266849,1258.350101,5921.647536
1439.602393,-1762.019645,-74.020594,9770.718434
1439.602711,-2221.676944,-1924.535449,14359.995275
1439.603030,-1838.629195,-3034.844362,16728.654289
1439.603349,-1685.410096,-3478.967927,17987.004391
1439.603668,-612.876398,-3330.926739,18505.148550
1439.603987,842.705048,-888.247130,14359.995275
1439.604306,2068.457845,-0.000000,10140.821405
1439.604625,2834.553343,1332.370696,6735.874072
1439.604944,3370.820191,3478.967927,3108.864956
1439.605263,2221.676944,3923.091493,814.226536
1439.605582,766.095498,2442.679609,1406.391290
1439.605901,-1149.143247,370.102971,3552.988522
1439.606220,-2757.943793,148.041188,4811.338623
1439.606538,-3370.820191,-1776.494261,8364.327145
1439.606857,-4366.744339,-3404.947333,13841.851115
1439.607176,-3524.039291,-4589.276840,16580.613101
1439.607495,-2911.162892,-4441.235652,17024.736666
1439.607814,-1532.190996,-4219.173869,18579.169144
1439.608133,-306.438199,-2738.761985,16506.592507
1439.608452,1225.752797,-222.061783,10732.986159
1439.608771,3217.601092,1184.329507,7254.018232
1439.609090,4136.915689,3701.029710,4515.256246
1439.609409,4903.011187,6513.812290,0.000000
1439.609728,4596.572988,6587.832884,-1258.350101
1439.610047,3294.210641,4515.256246,740.205942
1439.610365,1608.800546,2812.782580,2960.823768
1439.610684,0.000000,-0.000000,5995.668130
1439.611003,-1838.629195,-2960.823768,11547.212695
1439.611322,-2221.676944,-4663.297435,15396.283594
1439.611641,-2145.067394,-4441.235652,16136.489536
1439.611960,-1302.362347,-3997.112087,16728.654289
1439.612279,-306.438199,-2220.617826,16580.613101
1439.612598,229.828649,-0.000000,13101.645173
1439.612917,2068.457845,2072.576638,8882.471304
1439.613236,3217.601092,3182.885551,5625.565159
1439.613555,3983.696590,4811.338623,2442.679609
1439.613874,2911.162892,4885.359217,-444.123565
1439.614192,2221.676944,3182.885551,1850.514855
1439.614511,1302.362347,1998.556043,4145.153275
1439.614830,0.000000,222.061783,5995.668130
1439.615149,-459.657299,-2220.617826,10658.965565
1439.615468,-1225.752797,-3404.947333,15174.221811
1439.615787,-842.705048,-3627.009116,16654.633695
1439.616106,-612.876398,-3997.112087,16654.633695
1439.616425,-919.314598,-3849.070898,17024.736666
1439.616744,-153.219100,-2590.720797,14434.015869
1439.617063,153.219100,-148.041188,10510.924376
1439.617382,1149.143247,962.267725,8068.244768
1439.617701,1225.752797,3627.009116,5107.421000
1439.618019,842.705048,4811.338623,1628.453072
1439.618338,383.047749,3923.091493,2220.617826
1439.618657,0.000000,2590.720797,4959.379811
1439.618976,-842.705048,1850.514855,6439.791695
1439.619295,-1149.143247,592.164754,9992.780217
1439.619614,-919.314598,-1628.453072,14359.995275
1439.619933,0.000000,-2368.659014,16210.510130
1439.620252,919.314598,-2294.638420,16358.551318
1439.620571,1455.581446,-1480.411884,16358.551318
1439.620890,2221.676944,296.082377,13323.706956
1439.621209,2604.724693,2664.741391,8882.471304
1439.621528,3677.258390,3256.906145,6513.812290
1439.621846,3983.696590,4885.359217,3997.112087
1439.622165,2911.162892,5995.668130,814.226536
1439.622484,1532.190996,5255.462188,740.205942
1439.622803,1225.752797,3404.947333,3701.029710
1439.623122,-306.438199,1998.556043,6217.729913
1439.623441,-1685.410096,-740.205942,9548.656652
1439.623760,-2604.724693,-3256.906145,13915.871710
1439.624079,-2221.676944,-3775.050304,16506.592507
1439.624398,-536.266849,-3182.885551,16654.633695
1439.624717,0.000000,-2664.741391,16580.613101
1439.625036,1378.971896,-1480.411884,14878.139434
1439.625355,2068.457845,370.102971,10214.842000
1439.625674,2451.505594,2072.576638,6661.853478
1439.625992,2911.162892,3256.906145,4441.235652
1439.626311,2451.505594,4663.297435,1480.411884
1439.626630,1302.362347,3701.029710,592.164754
1439.626949,-153.219100,1776.494261,3627.009116
1439.627268,-1685.410096,-0.000000,6735.874072
1439.627587,-3064.381992,-2738.761985,9548.656652
1439.627906,-3370.820191,-3997.112087,13989.892304
1439.628225,-3140.991542,-4663.297435,17024.736666
1439.628544,-1378.971896,-4441.235652,17024.736666
1439.628863,-919.314598,-3775.050304,17024.736666
1439.629182,229.828649,-1998.556043,15544.324782
1439.629500,2374.896044,296.082377,10214.842000
1439.629819,3370.820191,2442.679609,6143.709319
1439.630138,4213.525239,3923.091493,4219.173869
1439.630457,3524.039291,4737.318029,1184.329507
1439.630775,2221.676944,4515.256246,-888.247130
1439.631094,1225.752797,3182.885551,2146.597232
1439.631413,0.000000,592.164754,4737.318029
1439.631732,-1608.800546,-444.123565,7402.059420
1439.632050,-2298.286494,-2146.597232,11399.171507
1439.632369,-2221.676944,-4367.215058,15692.365970
1439.632688,-2145.067394,-2442.679609,15988.448347
1439.633007,-1072.533697,-3256.906145,16506.592507
1439.633325,0.000000,-1480.411884,15618.345376
1439.633644,995.924147,740.205942,11991.336260
1439.633963,2298.286494,1924.535449,7698.141797
1439.634282,3294.210641,3552.988522,4441.235652
1439.634601,2681.334243,4441.235652,1998.556043
1439.634919,2298.286494,4515.256246,-148.041188
1439.635238,919.314598,3034.844362,1480.411884
1439.635557,-153.219100,888.247130,5107.421000
1439.635876,-1455.581446,-1036.288319,7550.100608
1439.636194,-2451.505594,-2590.720797,11917.315666
1439.636513,-2374.896044,-4737.318029,15544.324782
1439.636832,-2604.724693,-4219.173869,16580.613101
1439.637151,-1225.752797,-3923.091493,17764.942608
1439.637469,-536.266849,-2220.617826,16580.613101
1439.637788,689.485948,370.102971,13471.748144
1439.638107,2221.676944,1702.473667,8586.388927
1439.638426,2987.772442,3478.967927,6365.771101
1439.638744,3753.867940,4071.132681,3923.091493
1439.639063,2681.334243,4663.297435,888.247130
1439.639382,1455.581446,3404.947333,1332.370696
1439.639701,459.657299,1850.514855,4737.318029
1439.640019,-536.266849,1110.308913,7698.141797
1439.640338,-1149.143247,-518.144159,10732.986159
1439.640657,-1302.362347,-2146.597232,14952.160028
1439.640976,-612.876398,-1998.556043,17542.880825
1439.641294,689.485948,-2664.741391,17098.757260
1439.641613,1302.362347,-1554.432478,15988.448347
1439.641932,2451.505594,-0.000000,14211.954086
1439.642251,3064.381992,1924.535449,9400.615463
1439.642569,4290.134789,3627.009116,5033.400406
1439.642888,4903.011187,5477.523971,2886.803174
1439.643207,4136.915689,5773.606348,666.185348
1439.643526,2604.724693,4293.194464,296.082377
1439.643845,1455.581446,2590.720797,3404.947333
1439.644163,-766.095498,1184.329507,6809.894666
1439.644482,-2451.505594,-814.226536,9696.697840
1439.644801,-3294.210641,-2886.803174,14804.118840
1439.645120,-2911.162892,-4071.132681,17912.983796
1439.645438,-2451.505594,-3552.988522,17987.004391
1439.645757,-1455.581446,-3108.864956,17024.736666
1439.646076,-229.828649,-1406.391290,15248.242405
1439.646395,995.924147,518.144159,10658.965565
1439.646713,2221.676944,1258.350101,6291.750507
1439.647032,2528.115143,2442.679609,4367.215058
1439.647351,1915.238745,3627.009116,1184.329507
1439.647670,1302.362347,4071.132681,0.000000
1439.647988,0.000000,1998.556043,2516.700203
1439.648307,-1532.190996,518.144159,6439.791695
1439.648626,-2757.943793,-888.247130,8956.491898
1439.648945,-3524.039291,-2442.679609,13027.624579
1439.649263,-3600.648841,-4367.215058,17172.777854
1439.649582,-2911.162892,-4367.215058,18283.086767
1439.649901,-1762.019645,-4145.153275,18135.045579
1439.650220,-229.828649,-2442.679609,16136.489536
1439.650538,995.924147,-222.061783,12361.439231
1439.650857,3370.820191,1924.535449,7105.977043
1439.651176,3830.477490,3478.967927,3923.091493
1439.651495,3983.696590,4959.379811,1036.288319
1439.651813,2911.162892,5107.421000,-1110.308913
1439.652132,2528.115143,4145.153275,1332.370696
1439.652451,2068.457845,2442.679609,4663.297435
1439.652770,0.000000,2516.700203,6069.688724
1439.653089,0.000000,-0.000000,10436.903782
1439.653407,-306.438199,-2072.576638,14285.974681
1439.653726,76.609550,-2738.761985,16432.571912
1439.654045,1149.143247,-3108.864956,16062.468941
1439.654364,919.314598,-1554.432478,14434.015869
1439.654682,2451.505594,-592.164754,12361.439231
1439.655001,2528.115143,1036.288319,7772.162391
1439.655320,3294.210641,1850.514855,5329.482782
1439.655639,3140.991542,3404.947333,2590.720797
1439.655957,1302.362347,4737.318029,-296.082377
1439.656276,0.000000,3182.885551,592.164754
1439.656595,-766.095498,888.247130,5033.400406
1439.656914,-2834.553343,-0.000000,6957.935855
1439.657232,-3830.477490,-2368.659014,11843.295072
1439.657551,-4136.915689,-3849.070898,15174.221811
1439.657870,-3140.991542,-4219.173869,17987.004391
1439.658189,-2374.896044,-4145.153275,16580.613101
1439.658507,-1072.533697,-3108.864956,17690.922014
1439.658826,0.000000,-1406.391290,14582.057057
1439.659145,1532.190996,1258.350101,9104.533087
1439.659464,2374.896044,2220.617826,6217.729913
1439.659782,2604.724693,3997.112087,3923.091493
1439.660101,1455.581446,5033.400406,962.267725
1439.660420,766.095498,3627.009116,296.082377
1439.660739,-536.266849,2146.597232,4441.235652
1439.661058,-1915.238745,592.164754,7105.977043
1439.661376,-2298.286494,-592.164754,10066.800811
1439.661695,-2911.162892,-2590.720797,15248.242405
1439.662014,-2068.457845,-3775.050304,18653.189738
1439.662333,-995.924147,-3552.988522,17838.963202
1439.662651,995.924147,-1998.556043,17098.757260
1439.662970,2911.162892,-0.000000,15766.386565
1439.663289,4979.620737,2368.659014,10436.903782
1439.663608,6281.983084,3627.009116,4959.379811
1439.663926,7201.297681,4885.359217,2738.761985
1439.664245,6588.421283,5847.626942,74.020594
1439.664564,5286.058936,6069.688724,-1184.329507
1439.664883,3600.648841,4071.132681,1628.453072
1439.665201,1455.581446,2294.638420,5773.606348
1439.665520,-1072.533697,444.123565,8956.491898
1439.665839,-2221.676944,-2368.659014,13323.706956
1439.666158,-1991.848295,-4737.318029,18579.169144
1439.666476,-2298.286494,-4145.153275,18727.210333
1439.666795,-842.705048,-6069.688724,18949.272115
1439.667114,-536.266849,-2072.576638,17024.736666
1439.667433,612.876398,-1924.535449,13471.748144
1439.667751,1608.800546,518.144159,7476.080014
1439.668070,3217.601092,2072.576638,4441.235652
1439.668389,3294.210641,4071.132681,888.247130
1439.668708,2221.676944,4663.297435,-1850.514855
1439.669026,842.705048,2812.782580,0.000000
1439.669345,-842.705048,1554.432478,4071.132681
1439.669664,-3447.429741,-0.000000,6883.915261
1439.669983,-4443.353888,-1998.556043,12213.398043
1439.670302,-4366.744339,-4811.338623,17172.777854
1439.670620,-4749.792088,-4367.215058,17320.819043
1439.670939,-3677.258390,-3627.009116,18579.169144
1439.671258,-2068.457845,-2886.803174,17912.983796
1439.671577,-842.705048,-370.102971,13101.645173
1439.671895,612.876398,740.205942,8882.471304
1439.672214,2374.896044,3552.988522,6069.688724
1439.672533,2374.896044,6291.750507,148.041188
1439.672852,3447.429741,6957.935855,-3330.926739
1439.673170,2757.943793,4515.256246,-222.061783
1439.673489,1149.143247,4441.235652,1406.391290
1439.673808,536.266849,2072.576638,4589.276840
1439.674127,-1608.800546,222.061783,8660.409521
1439.674445,-1149.143247,-1776.494261,15766.386565
1439.674764,-1302.362347,-2812.782580,15396.283594
1439.675083,-1072.533697,-3108.864956,17320.819043
1439.675402,0.000000,-2738.761985,18801.230927
1439.675720,612.876398,-666.185348,14063.912898
1439.676039,2068.457845,962.267725,10066.800811
1439.676358,3447.429741,3034.844362,6957.935855
1439.676677,2911.162892,3775.050304,4071.132681
1439.676995,2604.724693,3775.050304,814.226536
1439.677314,1915.238745,2146.597232,0.000000
1439.677633,842.705048,1258.350101,3404.947333
1439.677952,229.828649,-222.061783,6587.832884
1439.678270,-919.314598,-518.144159,8956.491898
1439.678589,-689.485948,-2886.803174,14434.015869
1439.678908,-1532.190996,-4589.276840,16950.716072
1439.679227,-536.266849,-4367.215058,18949.272115
1439.679546,0.000000,-4885.359217,18357.107362
1439.679864,766.095498,-2590.720797,16432.571912
1439.680183,2221.676944,-74.020594,11177.109724
1439.680502,3140.991542,1480.411884,7624.121203
1439.680821,3370.820191,2812.782580,5107.421000
1439.681139,3524.039291,3997.112087,2442.679609
1439.681458,1762.019645,3923.091493,0.000000
1439.681777,995.924147,3330.926739,2886.803174
1439.682096,-153.219100,2146.597232,5551.544565
1439.682414,-1225.752797,222.061783,8290.306550
1439.682733,-2221.676944,-2294.638420,13323.706956
1439.683052,-1915.238745,-4219.173869,17468.860231
1439.683371,-842.705048,-3108.864956,17172.777854
1439.683689,689.485948,-1924.535449,16432.571912
1439.684008,1838.629195,-518.144159,15692.365970
1439.684327,2911.162892,1776.494261,10584.944971
1439.684646,4136.915689,3182.885551,6069.688724
1439.684964,4443.353888,3997.112087,3552.988522
1439.685283,4213.525239,6143.709319,962.267725
1439.685602,3524.039291,6217.729913,-1554.432478
1439.685921,1915.238745,4515.256246,1110.308913
1439.686239,-536.266849,1924.535449,4885.359217
1439.686558,-2528.115143,-74.020594,7994.224174
1439.686877,-3830.477490,-2368.659014,11473.192101
1439.687196,-3753.867940,-4367.215058,16654.633695
1439.687514,-2604.724693,-4663.297435,18431.127956
1439.687833,-2681.334243,-4663.297435,17912.983796
1439.688152,-1378.971896,-3478.967927,17616.901420
1439.688471,-536.266849,-962.267725,13397.727550
1439.688790,1685.410096,962.267725,8734.430116
1439.689108,3217.601092,2294.638420,4959.379811
1439.689427,3370.820191,4737.318029,2738.761985
1439.689746,3447.429741,4885.359217,-814.226536
1439.690065,2528.115143,2960.823768,518.144159
1439.690383,76.609550,1110.308913,3997.112087
1439.690702,-1378.971896,-74.020594,7105.977043
1439.691021,-2911.162892,-1406.391290,9770.718434
1439.691340,-3294.210641,-3923.091493,15840.407159
1439.691658,-3370.820191,-4737.318029,17912.983796
1439.691977,-2451.505594,-3775.050304,17394.839637
1439.692296,-1072.533697,-2960.823768,18357.107362
1439.692615,76.609550,-740.205942,15100.201217
1439.692933,1608.800546,1332.370696,9548.656652
1439.693252,3140.991542,2368.659014,6735.874072
1439.693571,3907.087040,4589.276840,4145.153275
1439.693890,4136.915689,5551.544565,0.000000
1439.694208,3753.867940,5773.606348,-1258.350101
1439.694527,3217.601092,4145.153275,2368.659014
1439.694846,1685.410096,2590.720797,4737.318029
1439.695165,-459.657299,444.123565,7920.203579
1439.695483,-1378.971896,-1924.535449,13249.686362
1439.695802,-1991.848295,-3034.844362,16136.489536
1439.696121,-1762.019645,-2738.761985,16654.633695
1439.696440,-1302.362347,-3182.885551,17616.901420
1439.696759,-612.876398,-2738.761985,16284.530724
1439.697077,689.485948,-740.205942,11843.295072
1439.697396,1685.410096,148.041188,8660.409521
1439.697715,2757.943793,2294.638420,5403.503377
1439.698034,2451.505594,3775.050304,3034.844362
1439.698352,2604.724693,3923.091493,518.144159
1439.698671,2298.286494,2442.679609,2516.700203
1439.698990,766.095498,666.185348,5255.462188
1439.699309,-306.438199,-222.061783,7624.121203
1439.699627,-766.095498,-2368.659014,11843.295072
1439.699946,-995.924147,-3330.926739,15026.180623
1439.700265,-1378.971896,-3627.009116,16950.716072
1439.700584,-1149.143247,-3404.947333,17616.901420
1439.700902,-229.828649,-1776.494261,16210.510130
1439.701221,766.095498,-444.123565,12731.542202
1439.701540,1838.629195,1332.370696,9104.533087
1439.701859,2221.676944,1998.556043,6735.874072
1439.702177,2298.286494,3108.864956,2368.659014
1439.702496,2145.067394,3701.029710,592.164754
1439.702815,1455.581446,1702.473667,2664.741391
1439.703134,459.657299,1258.350101,4737.318029
1439.703452,-229.828649,814.226536,6883.915261
1439.703771,-766.095498,-296.082377,9992.780217
1439.704090,-689.485948,-1184.329507,14063.912898
1439.704409,0.000000,-1184.329507,14878.139434
1439.704727,-383.047749,-1110.308913,15174.221811
1439.705046,153.219100,-814.226536,15618.345376
1439.705365,689.485948,888.247130,12657.521608
1439.705684,1762.019645,2072.576638,8956.491898
1439.706003,2528.115143,2516.700203,6439.791695
1439.706321,2374.896044,3775.050304,4219.173869
1439.706640,1991.848295,5107.421000,1110.308913
1439.706959,1838.629195,4367.215058,1702.473667
1439.707278,383.047749,2664.741391,4441.235652
1439.707596,0.000000,1628.453072,7105.977043
1439.707915,-1378.971896,-74.020594,9104.533087
1439.708234,-1225.752797,-2368.659014,13323.706956
1439.708553,-1225.752797,-2960.823768,15692.365970
1439.708871,-995.924147,-2590.720797,15544.324782
1439.709190,0.000000,-2368.659014,15396.283594
1439.709509,536.266849,-814.226536,13841.851115
1439.709828,842.705048,740.205942,9622.677246
1439.710146,2374.896044,1332.370696,7105.977043
1439.710465,2145.067394,2442.679609,5255.462188
1439.710784,1608.800546,3478.967927,2960.823768
1439.711103,1225.752797,2442.679609,2664.741391
1439.711421,0.000000,962.267725,5107.421000
1439.711740,-1378.971896,370.102971,7179.997637
1439.712059,-1838.629195,-592.164754,9622.677246
1439.712378,-2604.724693,-2294.638420,13693.809927
1439.712696,-1608.800546,-3775.050304,16506.592507
1439.713015,-995.924147,-3478.967927,16358.551318
1439.713334,0.000000,-2516.700203,15766.386565
1439.713653,1455.581446,-1554.432478,13619.789333
1439.713971,2681.334243,962.267725,10362.883188
1439.714290,4213.525239,1776.494261,7031.956449
1439.714609,3983.696590,2590.720797,4441.235652
1439.714928,3677.258390,3627.009116,2220.617826
1439.715247,2911.162892,3182.885551,1776.494261
1439.715565,1378.971896,2442.679609,3330.926739
1439.715884,229.828649,1554.432478,6069.688724
1439.716203,-1149.143247,-296.082377,8290.306550
1439.716522,-2221.676944,-1924.535449,11991.336260
1439.716840,-2451.505594,-2738.761985,16136.489536
1439.717159,-689.485948,-3552.988522,16432.571912
1439.717478,-995.924147,-2368.659014,15914.427753
1439.717797,153.219100,-1406.391290,14952.160028
1439.718115,842.705048,-148.041188,11991.336260
1439.718434,2451.505594,1258.350101,7550.100608
1439.718753,2298.286494,2442.679609,5699.585753
1439.719072,3140.991542,3478.967927,3404.947333
1439.719390,2757.943793,4515.256246,1184.329507
1439.719709,2145.067394,3034.844362,2664.741391
1439.720028,919.314598,1850.514855,4885.359217
1439.720347,-842.705048,-0.000000,6587.832884
1439.720665,-2068.457845,-2442.679609,10881.027347
1439.720984,-2757.943793,-3627.009116,15100.201217
1439.721303,-3217.601092,-3849.070898,15470.304188
1439.721622,-2604.724693,-3330.926739,15840.407159
1439.721940,-1991.848295,-2516.700203,15544.324782
1439.722259,-919.314598,-666.185348,12509.480420
1439.722578,-306.438199,888.247130,8660.409521
1439.722897,689.485948,2220.617826,6957.935855
1439.723215,459.657299,3256.906145,4515.256246
1439.723534,995.924147,4145.153275,1776.494261
1439.723853,1455.581446,4367.215058,2738.761985
1439.724172,766.095498,3034.844362,4885.359217
1439.724491,306.438199,1702.473667,6439.791695
1439.724809,-76.609550,-148.041188,9474.636058
1439.725128,76.609550,-1332.370696,13397.727550
1439.725447,153.219100,-1776.494261,14730.098246
1439.725766,536.266849,-1184.329507,14063.912898
1439.726084,1378.971896,-518.144159,14211.954086
1439.726403,2298.286494,962.267725,12213.398043
1439.726722,2451.505594,2368.659014,8660.409521
1439.727041,2834.553343,2516.700203,6217.729913
1439.727359,2987.772442,3923.091493,4737.318029
1439.727678,2757.943793,4663.297435,2442.679609
1439.727997,1991.848295,2960.823768,2738.761985
1439.728316,919.314598,1036.288319,6143.709319
1439.728634,-229.828649,222.061783,8142.265362
1439.728953,-919.314598,-518.144159,9474.636058
1439.729272,-306.438199,-2072.576638,13545.768739
1439.729591,459.657299,-2516.700203,15322.262999
1439.729909,229.828649,-2294.638420,14878.139434
1439.730228,842.705048,-2368.659014,15248.242405
1439.730547,1149.143247,-814.226536,13249.686362
1439.730866,1915.238745,888.247130,9104.533087
1439.731184,1915.238745,2146.597232,7105.977043
1439.731503,1532.190996,2812.782580,5551.544565
1439.731822,689.485948,2590.720797,3701.029710
1439.732141,-76.609550,1998.556043,3849.070898
1439.732460,-1072.533697,296.082377,6735.874072
1439.732779,-2145.067394,-814.226536,8660.409521
1439.733098,-2834.553343,-1332.370696,10214.842000
1439.733416,-2681.334243,-3182.885551,14211.954086
1439.733735,-1685.410096,-3849.070898,15914.427753
1439.734054,-1225.752797,-2738.761985,15248.242405
1439.734373,-229.828649,-1628.453072,14285.974681
1439.734692,689.485948,-0.000000,13323.706956
1439.735011,2221.676944,2146.597232,9326.594869
1439.735329,3064.381992,3404.947333,5625.565159
1439.735648,3217.601092,3108.864956,4515.256246
1439.735967,2451.505594,3923.091493,2590.720797
1439.736286,1762.019645,3552.988522,1554.432478
1439.736605,919.314598,2220.617826,3923.091493
1439.736924,0.000000,1184.329507,7105.977043
1439.737242,-1378.971896,-222.061783,9104.533087
1439.737561,-1991.848295,-2294.638420,11917.315666
1439.737880,-1225.752797,-2960.823768,15470.304188
1439.738199,-459.657299,-1554.432478,15026.180623
1439.738518,0.000000,-888.247130,13915.871710
1439.738837,995.924147,-592.164754,13323.706956
1439.739155,1378.971896,-0.000000,10584.944971
1439.739474,2451.505594,1110.308913,6661.853478
1439.739793,2681.334243,2368.659014,4737.318029
1439.740112,2681.334243,3256.906145,3478.967927
1439.740431,2451.505594,3775.050304,740.205942
1439.740750,1225.752797,2220.617826,2812.782580
1439.741068,-766.095498,-0.000000,6291.750507
1439.741387,-2145.067394,-1110.308913,9400.615463
1439.741706,-3217.601092,-2294.638420,11843.295072
1439.742025,-2834.553343,-2738.761985,15544.324782
1439.742344,-1915.238745,-3034.844362,17098.757260
1439.742663,-1838.629195,-2146.597232,15026.180623
1439.742981,-689.485948,-2442.679609,14656.077652
1439.743300,689.485948,-518.144159,12213.398043
1439.743619,2298.286494,1554.432478,7624.121203
1439.743938,3294.210641,2442.679609,4885.359217
1439.744257,3447.429741,3701.029710,2960.823768
1439.744576,3294.210641,3701.029710,1776.494261
1439.744895,2298.286494,2960.823768,2368.659014
1439.745213,1302.362347,2072.576638,5403.503377
1439.745532,229.828649,1258.350101,8216.285956
1439.745851,-1225.752797,370.102971,10362.883188
1439.746170,-842.705048,-1110.308913,13841.851115
1439.746489,-1072.533697,-2146.597232,16580.613101
1439.746808,-306.438199,-1480.411884,15914.427753
1439.747126,766.095498,-666.185348,15470.304188
1439.747445,995.924147,740.205942,12805.562797
1439.747764,2604.724693,2146.597232,8808.450710
1439.748083,3677.258390,2812.782580,6217.729913
1439.748402,3677.258390,3701.029710,4219.173869
1439.748721,3753.867940,3997.112087,2516.700203
1439.749039,2451.505594,3997.112087,2442.679609
1439.749358,2221.676944,2146.597232,5921.647536
1439.749677,689.485948,370.102971,7994.224174
1439.749996,-1149.143247,-370.102971,9770.718434
1439.750315,-1915.238745,-2368.659014,13323.706956
1439.750634,-1915.238745,-3404.947333,16210.510130
1439.750952,-1532.190996,-3404.947333,15988.448347
1439.751271,-1072.533697,-2886.803174,15470.304188
1439.751590,-383.047749,-1036.288319,14137.933492
1439.751909,306.438199,666.185348,10436.903782
1439.752228,1225.752797,1110.308913,6735.874072
1439.752547,1225.752797,1924.535449,5847.626942
1439.752865,919.314598,2442.679609,3997.112087
1439.753184,459.657299,2590.720797,2368.659014
1439.753503,-383.047749,1332.370696,4737.318029
1439.753822,-612.876398,814.226536,7846.182985
1439.754141,-1225.752797,-74.020594,9030.512492
1439.754460,-1608.800546,-1702.473667,11991.336260
1439.754778,-995.924147,-2960.823768,15914.427753
1439.755097,-1149.143247,-2516.700203,15692.365970
1439.755416,0.000000,-1480.411884,14359.995275
1439.755735,612.876398,-370.102971,13989.892304
1439.756054,2221.676944,1110.308913,10732.986159
1439.756373,3217.601092,2220.617826,5847.626942
1439.756692,3294.210641,2960.823768,3997.112087
1439.757010,2911.162892,3478.967927,2442.679609
1439.757329,2221.676944,3849.070898,1480.411884
1439.757648,1225.752797,2886.803174,2516.700203
1439.757967,76.609550,1776.494261,5921.647536
1439.758286,-1455.581446,814.226536,8882.471304
1439.758605,-2068.457845,-1332.370696,10955.047942
1439.758923,-1455.581446,-3404.947333,15470.304188
1439.759242,-1608.800546,-2368.659014,15470.304188
1439.759561,-229.828649,-1850.514855,15026.180623
1439.759880,383.047749,-740.205942,14285.974681
1439.760199,1762.019645,518.144159,11695.253884
1439.760518,2451.505594,888.247130,7031.956449
1439.760836,3064.381992,2590.720797,4441.235652
1439.761155,3447.429741,3701.029710,3330.926739
1439.761474,2068.457845,3182.885551,370.102971
1439.761793,689.485948,2368.659014,2368.659014
1439.762112,-919.314598,-0.000000,6291.750507
1439.762431,-2987.772442,-444.123565,8438.347739
1439.762749,-3677.258390,-1850.514855,11547.212695
1439.763068,-3830.477490,-3478.967927,15914.427753
1439.763387,-2681.334243,-3552.988522,17764.942608
1439.763706,-2145.067394,-3108.864956,16506.592507
1439.764025,-383.047749,-1332.370696,15026.180623
1439.764344,1072.533697,-222.061783,13101.645173
1439.764662,2451.505594,1850.514855,8068.244768
1439.764981,4213.525239,3330.926739,4737.318029
1439.765300,4596.572988,4367.215058,2886.803174
1439.765619,4136.915689,4959.379811,962.267725
1439.765938,2911.162892,3849.070898,1258.350101
1439.766257,1532.190996,1924.535449,4589.276840
1439.766575,0.000000,444.123565,7624.121203
1439.766894,-1455.581446,-518.144159,10510.924376
1439.767213,-2374.896044,-2664.741391,14508.036463
1439.767532,-1762.019645,-3478.967927,17764.942608
1439.767851,-919.314598,-2960.823768,17764.942608
1439.768170,536.266849,-1554.432478,16358.551318
1439.768489,1378.971896,-592.164754,14656.077652
1439.768807,3294.210641,1110.308913,10362.883188
1439.769126,4290.134789,2738.761985,5699.585753
1439.769445,5209.449386,3849.070898,3404.947333
1439.769764,4749.792088,4515.256246,1258.350101
1439.770083,3600.648841,3478.967927,148.041188
1439.770402,2145.067394,1924.535449,3182.885551
1439.770720,383.047749,296.082377,6809.894666
1439.771039,-1608.800546,-888.247130,9178.553681
1439.771358,-2757.943793,-2442.679609,13323.706956
1439.771677,-3064.381992,-4071.132681,17320.819043
1439.771996,-3370.820191,-3775.050304,17912.983796
1439.772315,-2911.162892,-2812.782580,17320.819043
1439.772633,-1915.238745,-2072.576638,16580.613101
1439.772952,0.000000,-74.020594,12731.542202
1439.773271,995.924147,1110.308913,7476.080014
1439.773590,2145.067394,2368.659014,4663.297435
1439.773909,2374.896044,3627.009116,1998.556043
1439.774228,2145.067394,3404.947333,-222.061783
1439.774546,1532.190996,3330.926739,962.267725
1439.774865,536.266849,1924.535449,4811.338623
1439.775184,-766.095498,1036.288319,6957.935855
1439.775503,-2068.457845,-1110.308913,10288.862594
1439.775822,-2604.724693,-3034.844362,15988.448347
1439.776141,-2145.067394,-2590.720797,16876.695478
1439.776459,-1762.019645,-1554.432478,15766.386565
1439.776778,-995.924147,-1110.308913,15766.386565
1439.777097,766.095498,814.226536,13175.665768
1439.777416,1762.019645,1628.453072,8660.409521
1439.777735,2911.162892,3701.029710,4441.235652
1439.778054,3294.210641,4663.297435,2368.659014
1439.778373,3524.039291,5477.523971,-222.061783
1439.778691,2987.772442,4959.379811,148.041188
1439.779010,1915.238745,1924.535449,4219.173869
1439.779329,536.266849,962.267725,6069.688724
1439.779648,-536.266849,-592.164754,9474.636058
1439.779967,-1072.533697,-2590.720797,14434.015869
1439.780286,-1455.581446,-3552.988522,16580.613101
1439.780604,-1072.533697,-2886.803174,16580.613101
1439.780923,-536.266849,-2516.700203,15988.448347
1439.781242,383.047749,-1554.432478,14137.933492
1439.781561,1378.971896,-0.000000,9696.697840
1439.781880,2911.162892,1702.473667,6587.832884
1439.782199,2221.676944,2368.659014,5107.421000
1439.782517,1608.800546,3182.885551,1998.556043
1439.782836,306.438199,2294.638420,1850.514855
1439.783155,-383.047749,592.164754,5107.421000
1439.783474,-1378.971896,-74.020594,7402.059420
1439.783793,-2451.505594,-1110.308913,10066.800811
1439.784112,-2528.115143,-2738.761985,14063.912898
1439.784430,-2068.457845,-3997.112087,17246.798449
1439.784749,-1838.629195,-3627.009116,17024.736666
1439.785068,-536.266849,-2294.638420,16136.489536
1439.785387,995.924147,-740.205942,14211.954086
1439.785706,2374.896044,1480.411884,9844.739029
1439.786025,3524.039291,2516.700203,6143.709319
1439.786343,3753.867940,3182.885551,3478.967927
1439.786662,3600.648841,4515.256246,1480.411884
1439.786981,2757.943793,3775.050304,1110.308913
1439.787300,1455.581446,2590.720797,2886.803174
1439.787619,-459.657299,1850.514855,5773.606348
1439.787938,-1685.410096,-74.020594,9474.636058
1439.788256,-2145.067394,-1406.391290,13397.727550
1439.788575,-1685.410096,-2886.803174,16358.551318
1439.788894,-689.485948,-1998.556043,16950.716072
1439.789213,306.438199,-3182.885551,16950.716072
1439.789532,2068.457845,-370.102971,15100.201217
1439.789851,2987.772442,444.123565,11251.130318
1439.790170,4443.353888,1850.514855,6217.729913
1439.790488,5056.230287,3108.864956,3182.885551
1439.790807,5362.668486,4737.318029,888.247130
1439.791126,3907.087040,3552.988522,-1110.308913
1439.791445,2528.115143,2960.823768,1406.391290
1439.791764,0.000000,1332.370696,4737.318029
1439.792083,-1762.019645,-0.000000,7772.162391
1439.792401,-3753.867940,-1998.556043,11991.336260
1439.792720,-4136.915689,-4367.215058,16950.716072
1439.793039,-4366.744339,-3849.070898,18431.127956
1439.793358,-3524.039291,-3330.926739,18209.066173
1439.793677,-2145.067394,-2812.782580,17838.963202
1439.793996,-536.266849,-148.041188,13471.748144
1439.794314,1685.410096,1480.411884,8808.450710
1439.794633,2528.115143,3330.926739,5625.565159
1439.794952,3447.429741,5033.400406,2220.617826
1439.795271,2987.772442,5403.503377,-592.164754
1439.795590,2757.943793,4071.132681,148.041188
1439.795909,689.485948,2442.679609,3182.885551
1439.796227,-919.314598,1480.411884,5921.647536
1439.796546,-2604.724693,-0.000000,9252.574275
1439.796865,-2604.724693,-1998.556043,15026.180623
1439.797184,-2911.162892,-3182.885551,16654.633695
1439.797503,-2604.724693,-2590.720797,17468.860231
1439.797822,-1455.581446,-2442.679609,18431.127956
1439.798140,0.000000,-814.226536,15174.221811
1439.798459,1608.800546,1184.329507,10066.800811
1439.798778,3064.381992,2294.638420,6439.791695
1439.799097,3600.648841,4145.153275,3849.070898
1439.799416,4213.525239,5255.462188,962.267725
1439.799735,4366.744339,4589.276840,-148.041188
1439.800053,3600.648841,2886.803174,2220.617826
1439.800372,1915.238745,2146.597232,4811.338623
1439.800691,229.828649,592.164754,7698.141797
1439.801010,-1149.143247,-2886.803174,13101.645173
1439.801329,-2298.286494,-4737.318029,17542.880825
1439.801648,-2451.505594,-4367.215058,17987.004391
1439.801967,-2221.676944,-3775.050304,18135.045579
1439.802285,-1685.410096,-1998.556043,16506.592507
1439.802604,-306.438199,-444.123565,12953.603985
1439.802923,689.485948,888.247130,8734.430116
1439.803242,1149.143247,1480.411884,6291.750507
1439.803561,1149.143247,3627.009116,2812.782580
1439.803880,842.705048,3552.988522,1110.308913
1439.804198,1225.752797,1924.535449,2664.741391
1439.804517,153.219100,1036.288319,5477.523971
1439.804836,-306.438199,296.082377,7254.018232
1439.805155,-1225.752797,-1850.514855,11177.109724
1439.805474,-689.485948,-3108.864956,15026.180623
1439.805793,-306.438199,-2516.700203,15100.201217
1439.806111,-153.219100,-3182.885551,16062.468941
1439.806430,-306.438199,-1110.308913,14878.139434
1439.806749,536.266849,-0.000000,12139.377449
1439.807068,1302.362347,1480.411884,7550.100608
1439.807387,2374.896044,2738.761985,5107.421000
1439.807706,2528.115143,4589.276840,3330.926739
1439.808024,2451.505594,4811.338623,0.000000
1439.808343,1762.019645,3701.029710,2294.638420
1439.808662,1378.971896,2590.720797,5551.544565
1439.808981,383.047749,962.267725,7772.162391
1439.809300,-153.219100,-814.226536,10288.862594
1439.809619,-459.657299,-2146.597232,14137.933492
1439.809937,766.095498,-2368.659014,15692.365970
1439.810256,1608.800546,-1702.473667,14359.995275
1439.810575,2068.457845,-1332.370696,14359.995275
1439.810894,2911.162892,370.102971,11547.212695
1439.811213,3830.477490,1924.535449,7105.977043
1439.811532,3753.867940,2368.659014,4811.338623
1439.811850,3370.820191,2886.803174,3256.906145
1439.812169,1302.362347,3108.864956,1702.473667
1439.812488,0.000000,2220.617826,2368.659014
1439.812807,-1149.143247,222.061783,6217.729913
1439.813126,-2451.505594,-444.123565,9474.636058
1439.813445,-3370.820191,-1850.514855,11917.315666
1439.813764,-3524.039291,-3330.926739,15544.324782
1439.814082,-2604.724693,-3849.070898,17320.819043
1439.814401,-2298.286494,-3256.906145,16358.551318
1439.814720,-153.219100,-2146.597232,15618.345376
1439.815039,995.924147,-296.082377,11991.336260
1439.815358,2221.676944,1184.329507,8290.306550
1439.815677,2604.724693,2368.659014,5403.503377
1439.815995,3447.429741,3478.967927,2886.803174
1439.816314,2681.334243,4589.276840,814.226536
1439.816633,2145.067394,3330.926739,1184.329507
1439.816952,-306.438199,1554.432478,4959.379811
1439.817271,-2298.286494,518.144159,7550.100608
1439.817590,-3447.429741,-1406.391290,10955.047942
1439.817908,-3753.867940,-2368.659014,15100.201217
1439.818227,-3294.210641,-2960.823768,17616.901420
1439.818546,-2528.115143,-2442.679609,16728.654289
1439.818865,-689.485948,-1776.494261,16580.613101
1439.819184,1225.752797,-0.000000,14508.036463
1439.819503,3217.601092,1110.308913,9030.512492
1439.819821,4213.525239,2146.597232,5477.523971
1439.820140,5209.449386,3627.009116,3627.009116
1439.820459,5439.278036,4367.215058,2220.617826
1439.820778,4519.963438,3775.050304,370.102971
1439.821097,3830.477490,2960.823768,2960.823768
1439.821416,2451.505594,1702.473667,6365.771101
1439.821734,689.485948,444.123565,8660.409521
1439.822053,-689.485948,-1924.535449,12435.459826
1439.822372,-1838.629195,-3478.967927,16358.551318
1439.822691,-1762.019645,-3182.885551,17542.880825
1439.823010,-1762.019645,-3627.009116,17172.777854
1439.823329,-1455.581446,-2886.803174,16210.510130
1439.823648,-459.657299,-888.247130,12805.562797
1439.823966,459.657299,1406.391290,8290.306550
1439.824285,1685.410096,2368.659014,6513.812290
1439.824604,1915.238745,3627.009116,3701.029710
1439.824923,1685.410096,4293.194464,1406.391290
1439.825242,689.485948,3256.906145,2590.720797
1439.825561,536.266849,1850.514855,4885.359217
1439.825879,-229.828649,592.164754,8068.244768
1439.826198,-766.095498,-740.205942,10214.842000
1439.826517,-1072.533697,-2442.679609,14211.954086
1439.826836,-1685.410096,-2886.803174,15026.180623
1439.827155,-1608.800546,-2886.803174,15174.221811
1439.827474,-1225.752797,-1332.370696,14359.995275
1439.827792,76.609550,592.164754,10955.047942
1439.828111,1072.533697,1998.556043,8142.265362
1439.828430,2604.724693,2294.638420,6143.709319
1439.828749,3140.991542,3404.947333,4811.338623
1439.829068,3753.867940,3330.926739,2960.823768
1439.829387,4136.915689,1924.535449,3923.091493
1439.829705,4749.792088,444.123565,7031.956449
1439.830024,4443.353888,-888.247130,7624.121203
1439.830343,4903.011187,-2442.679609,10214.842000
1439.830662,5209.449386,-3701.029710,12879.583391
1439.830981,6435.202183,-4367.215058,14211.954086
1439.831300,6128.763984,-3849.070898,12583.501014
1439.831618,6588.421283,-3256.906145,12657.521608
1439.831937,6435.202183,-2516.700203,11547.212695
1439.832256,5515.887586,-666.185348,7772.162391
1439.832575,4673.182538,-1924.535449,7328.038826
1439.832894,3983.696590,-1628.453072,7031.956449
1439.833213,3524.039291,-1924.535449,6809.894666
1439.833531,2681.334243,-2812.782580,6735.874072
1439.833850,2528.115143,-4515.256246,9548.656652
1439.834169,2451.505594,-5773.606348,10955.047942
1439.834488,1378.971896,-6069.688724,11991.336260
1439.834807,1302.362347,-6069.688724,13323.706956
1439.835126,1685.410096,-5847.626942,13841.851115
1439.835445,1608.800546,-5329.482782,13175.665768
1439.835763,2451.505594,-4589.276840,12065.356855
1439.836082,2374.896044,-3182.885551,10732.986159
1439.836401,2145.067394,-2072.576638,7920.203579
1439.836720,2298.286494,-1406.391290,6883.915261
1439.837039,1915.238745,-1554.432478,6143.709319
1439.837358,2451.505594,-1480.411884,4737.318029
1439.837676,2604.724693,-1332.370696,4811.338623
1439.837995,3217.601092,-1628.453072,6809.894666
1439.838314,3140.991542,-2220.617826,7550.100608
1439.838633,2757.943793,-2368.659014,7846.182985
1439.838952,2298.286494,-2146.597232,9326.594869
1439.839271,1608.800546,-2664.741391,10510.924376
1439.839589,1455.581446,-3034.844362,11325.150913
1439.839908,995.924147,-1998.556043,10214.842000
1439.840227,1302.362347,-1184.329507,9622.677246
1439.840546,1838.629195,-370.102971,8068.244768
1439.840865,2374.896044,-444.123565,7328.038826
1439.841184,2757.943793,-370.102971,6809.894666
1439.841502,3294.210641,518.144159,5477.523971
1439.841821,3370.820191,370.102971,6143.709319
1439.842140,3217.601092,-1036.288319,7031.956449
1439.842459,3140.991542,-1628.453072,8734.430116
1439.842778,2834.553343,-2072.576638,9030.512492
1439.843097,2221.676944,-2368.659014,9696.697840
1439.843416,1302.362347,-1702.473667,9844.739029
1439.843734,1302.362347,-1776.494261,10362.883188
1439.844053,1072.533697,-1702.473667,9918.759623
1439.844372,1225.752797,-1998.556043,9622.677246
1439.844691,766.095498,-2442.679609,10066.800811
1439.845010,459.657299,-1332.370696,9104.533087
1439.845329,842.705048,-1258.350101,9474.636058
1439.845647,612.876398,-444.123565,9918.759623
1439.845966,1072.533697,-222.061783,10436.903782
1439.846285,2374.896044,-148.041188,10955.047942
1439.846604,3064.381992,1110.308913,10955.047942
1439.846923,4060.306139,814.226536,10436.903782
1439.847242,4596.572988,888.247130,9548.656652
1439.847560,5132.839837,-74.020594,9992.780217
1439.847879,5439.278036,-740.205942,8882.471304
1439.848198,5132.839837,-888.247130,8660.409521
1439.848517,5056.230287,-814.226536,8882.471304
1439.848836,4213.525239,-222.061783,8808.450710
1439.849155,4060.306139,-74.020594,8956.491898
1439.849473,3140.991542,-370.102971,9548.656652
1439.849792,2374.896044,-592.164754,10658.965565
1439.850111,2221.676944,-1332.370696,11251.130318
