#time,accel_x,accel_y,accel_z
1877.786574,1072.533697,4663.297435,12953.603985
1877.786892,1608.800546,3256.906145,13397.727550
1877.787209,1608.800546,2146.597232,13323.706956
1877.787526,1915.238745,1036.288319,13619.789333
1877.787844,1762.019645,592.164754,13323.706956
1877.788161,919.314598,592.164754,13619.789333
1877.788478,459.657299,1554.432478,13175.665768
1877.788796,0.000000,1628.453072,13175.665768
1877.789113,-306.438199,2442.679609,12657.521608
1877.789430,-612.876398,2146.597232,12435.459826
1877.789748,-689.485948,1332.370696,12213.398043
1877.790065,-612.876398,148.041188,11621.233289
1877.790382,-153.219100,-666.185348,10584.944971
1877.790699,153.219100,-740.205942,10288.862594
1877.791017,153.219100,-814.226536,9844.739029
1877.791334,536.266849,-592.164754,9178.553681
1877.791651,0.000000,-148.041188,8956.491898
1877.791969,-842.705048,-74.020594,8956.491898
1877.792286,-1378.971896,-148.041188,9252.574275
1877.792603,-1838.629195,-148.041188,8956.491898
1877.792921,-2145.067394,-962.267725,8808.450710
1877.793238,-2298.286494,-1332.370696,9030.512492
1877.793555,-1915.238745,-1480.411884,8956.491898
1877.793873,-612.876398,-888.247130,7402.059420
1877.794190,-383.047749,-518.144159,7179.997637
1877.794507,0.000000,-518.144159,7179.997637
1877.794825,459.657299,-370.102971,6735.874072
1877.795142,766.095498,-370.102971,6365.771101
1877.795459,612.876398,-814.226536,6809.894666
1877.795777,536.266849,-1258.350101,6513.812290
1877.796094,689.485948,-1702.473667,6513.812290
1877.796411,842.705048,-1554.432478,6291.750507
1877.796729,1225.752797,-1850.514855,6365.771101
1877.797046,1838.629195,-1924.535449,5995.668130
1877.797363,1915.238745,-1850.514855,5477.523971
1877.797681,1685.410096,-1480.411884,5477.523971
1877.797998,1072.533697,-1480.411884,5773.606348
1877.798315,153.219100,-1258.350101,6439.791695
1877.798632,0.000000,-1628.453072,7105.977043
1877.798950,-1532.190996,-1924.535449,7476.080014
1877.799267,-2298.286494,-2072.576638,7994.224174
1877.799584,-2987.772442,-1776.494261,8660.409521
1877.799902,-2911.162892,-1258.350101,8512.368333
1877.800219,-3830.477490,-1258.350101,9030.512492
1877.800536,-4213.525239,-962.267725,9400.615463
1877.800854,-4826.401637,-444.123565,9474.636058
1877.801171,-4673.182538,222.061783,9252.574275
1877.801488,-4979.620737,888.247130,9326.594869
1877.801806,-4903.011187,1702.473667,9474.636058
1877.802123,-5056.230287,2294.638420,9030.512492
1877.802440,-5592.497135,2812.782580,8956.491898
1877.802758,-5592.497135,3552.988522,8956.491898
1877.803075,-5592.497135,4145.153275,9326.594869
1877.803392,-5439.278036,4885.359217,9104.533087
1877.803710,-5286.058936,5181.441594,9030.512492
1877.804027,-4826.401637,5847.626942,8882.471304
1877.804344,-4060.306139,6069.688724,9178.553681
1877.804662,-2911.162892,6069.688724,9178.553681
1877.804979,-2834.553343,6587.832884,9548.656652
1877.805296,-2145.067394,6883.915261,9696.697840
1877.805614,-995.924147,7550.100608,9770.718434
1877.805931,229.828649,8068.244768,9696.697840
1877.806248,919.314598,8734.430116,9474.636058
1877.806566,1838.629195,9178.553681,9178.553681
1877.806883,2911.162892,9030.512492,9178.553681
1877.807200,3524.039291,8808.450710,8586.388927
1877.807517,2987.772442,9104.533087,7698.141797
1877.807835,2911.162892,8068.244768,7698.141797
1877.808152,2068.457845,7105.977043,8142.265362
1877.808469,995.924147,5551.544565,10140.821405
1877.808787,-612.876398,4811.338623,9400.615463
1877.809104,-2068.457845,3182.885551,11991.336260
1877.809421,-3447.429741,3478.967927,13323.706956
1877.809739,-4060.306139,2812.782580,14137.933492
1877.810056,-4443.353888,3256.906145,14137.933492
1877.810373,-3677.258390,3330.926739,14508.036463
1877.810691,-3294.210641,4663.297435,12879.583391
1877.811008,-2374.896044,5107.421000,12657.521608
1877.811325,-919.314598,4441.235652,13397.727550
1877.811643,-536.266849,4737.318029,11991.336260
1877.811960,153.219100,3849.070898,12213.398043
1877.812277,76.609550,3256.906145,12731.542202
1877.812595,306.438199,2072.576638,13323.706956
1877.812912,229.828649,1258.350101,12731.542202
1877.813229,306.438199,1184.329507,12509.480420
1877.813547,1225.752797,2072.576638,11843.295072
1877.813864,2451.505594,2368.659014,10807.006753
1877.814181,3370.820191,1628.453072,10214.842000
1877.814499,3370.820191,740.205942,10362.883188
1877.814816,3140.991542,148.041188,9844.739029
1877.815133,2681.334243,-814.226536,9918.759623
1877.815450,2145.067394,-1998.556043,10807.006753
1877.815768,1685.410096,-2368.659014,11399.171507
1877.816085,1608.800546,-2072.576638,10807.006753
1877.816402,1915.238745,-1628.453072,9992.780217
1877.816719,2604.724693,-1184.329507,9178.553681
1877.817037,3217.601092,-814.226536,8586.388927
1877.817354,3140.991542,-1110.308913,7920.203579
1877.817671,2911.162892,-2368.659014,8216.285956
1877.817988,2068.457845,-4293.194464,8438.347739
1877.818306,1149.143247,-4663.297435,8882.471304
1877.818623,306.438199,-4811.338623,9548.656652
1877.818940,612.876398,-4367.215058,9696.697840
1877.819257,1149.143247,-2960.823768,8882.471304
1877.819574,1225.752797,-1554.432478,7328.038826
1877.819892,2298.286494,-888.247130,6661.853478
1877.820209,2221.676944,-1998.556043,6069.688724
1877.820526,1838.629195,-3627.009116,5847.626942
1877.820843,1072.533697,-5181.441594,6143.709319
1877.821161,383.047749,-5921.647536,5773.606348
1877.821478,459.657299,-5403.503377,6439.791695
1877.821795,1149.143247,-4663.297435,7105.977043
1877.822112,995.924147,-3701.029710,6883.915261
1877.822429,919.314598,-2368.659014,6217.729913
1877.822747,842.705048,-1924.535449,5847.626942
1877.823064,0.000000,-1924.535449,6661.853478
1877.823381,-1072.533697,-2738.761985,6513.812290
1877.823698,-1225.752797,-2664.741391,7105.977043
1877.824016,-612.876398,-2516.700203,7624.121203
1877.824333,383.047749,-1702.473667,7846.182985
1877.824650,689.485948,-962.267725,7698.141797
1877.824967,1608.800546,-148.041188,6809.894666
1877.825284,1532.190996,370.102971,6661.853478
1877.825602,1685.410096,1036.288319,6291.750507
1877.825919,1685.410096,1406.391290,5847.626942
1877.826236,1532.190996,1776.494261,5773.606348
1877.826553,1455.581446,1406.391290,5995.668130
1877.826871,1378.971896,1332.370696,6587.832884
1877.827188,1149.143247,1554.432478,7476.080014
1877.827505,766.095498,2368.659014,9030.512492
1877.827822,0.000000,2738.761985,9252.574275
1877.828139,-153.219100,3034.844362,9770.718434
1877.828457,-383.047749,3627.009116,9992.780217
1877.828774,-689.485948,3701.029710,10362.883188
1877.829091,-919.314598,3923.091493,10140.821405
1877.829408,-383.047749,3923.091493,10214.842000
1877.829725,-306.438199,4219.173869,10288.862594
1877.830043,-306.438199,4367.215058,10658.965565
1877.830360,-383.047749,3997.112087,11399.171507
1877.830677,-1302.362347,3701.029710,11991.336260
1877.830994,-1608.800546,3552.988522,12731.542202
1877.831312,-2374.896044,3404.947333,13397.727550
1877.831629,-1838.629195,3552.988522,13397.727550
1877.831946,-1532.190996,3330.926739,13175.665768
1877.832263,-1608.800546,2516.700203,12953.603985
1877.832580,-1532.190996,2516.700203,12731.542202
1877.832898,-1225.752797,2442.679609,12657.521608
1877.833215,-1378.971896,2886.803174,12509.480420
1877.833532,-1838.629195,3108.864956,12657.521608
1877.833849,-1608.800546,3849.070898,12509.480420
1877.834167,-1378.971896,3627.009116,12583.501014
1877.834484,-995.924147,3478.967927,13027.624579
1877.834801,-612.876398,3108.864956,12657.521608
1877.835118,0.000000,2442.679609,12139.377449
1877.835435,536.266849,2368.659014,12065.356855
1877.835753,995.924147,2146.597232,11769.274478
1877.836070,1762.019645,2146.597232,11769.274478
1877.836387,2298.286494,2294.638420,11103.089130
1877.836704,2451.505594,2886.803174,10658.965565
1877.837022,2604.724693,3182.885551,10658.965565
1877.837339,2911.162892,3108.864956,10510.924376
1877.837656,3064.381992,2812.782580,10214.842000
1877.837973,2911.162892,1850.514855,10362.883188
1877.838290,2911.162892,1332.370696,10140.821405
1877.838608,3140.991542,740.205942,9474.636058
1877.838925,3524.039291,518.144159,8216.285956
1877.839242,3830.477490,592.164754,8142.265362
1877.839559,4136.915689,-74.020594,7698.141797
1877.839877,3447.429741,-370.102971,7476.080014
1877.840194,2987.772442,-1036.288319,7994.224174
1877.840511,2298.286494,-1924.535449,8290.306550
1877.840828,1608.800546,-2664.741391,8438.347739
1877.841145,919.314598,-3627.009116,8734.430116
1877.841463,536.266849,-3849.070898,8512.368333
1877.841780,766.095498,-3849.070898,8438.347739
1877.842097,689.485948,-3849.070898,7920.203579
1877.842414,1149.143247,-3997.112087,7550.100608
1877.842732,612.876398,-4145.153275,7920.203579
1877.843049,0.000000,-4441.235652,8068.244768
1877.843366,76.609550,-4737.318029,7994.224174
1877.843683,-689.485948,-4737.318029,7846.182985
1877.844000,-766.095498,-4959.379811,7476.080014
1877.844318,-612.876398,-4515.256246,7328.038826
1877.844635,-612.876398,-4367.215058,7105.977043
1877.844952,-919.314598,-4293.194464,7031.956449
1877.845269,-1149.143247,-4367.215058,7105.977043
1877.845587,-1378.971896,-4219.173869,7476.080014
1877.845904,-1685.410096,-4441.235652,7920.203579
1877.846221,-1915.238745,-4367.215058,8216.285956
1877.846538,-1762.019645,-3775.050304,8216.285956
1877.846855,-1302.362347,-2590.720797,8142.265362
1877.847173,-842.705048,-1998.556043,7994.224174
1877.847490,76.609550,-1702.473667,7994.224174
1877.847807,612.876398,-962.267725,7402.059420
1877.848124,919.314598,-370.102971,7698.141797
1877.848441,1455.581446,-74.020594,7846.182985
1877.848759,1838.629195,-222.061783,7402.059420
1877.849076,2604.724693,-74.020594,7550.100608
1877.849393,3064.381992,-0.000000,7920.203579
1877.849710,3907.087040,592.164754,7846.182985
1877.850028,4979.620737,592.164754,7846.182985
1877.850345,4749.792088,1110.308913,7624.121203
1877.850662,4749.792088,962.267725,7994.224174
1877.850979,3907.087040,1110.308913,8290.306550
1877.851296,3524.039291,666.185348,8660.409521
1877.851614,2987.772442,444.123565,9844.739029
1877.851931,2451.505594,370.102971,10140.821405
1877.852248,2451.505594,814.226536,10658.965565
1877.852565,2451.505594,1258.350101,10436.903782
1877.852883,2834.553343,1554.432478,11177.109724
1877.853200,2604.724693,1702.473667,11325.150913
1877.853517,2374.896044,2368.659014,10807.006753
1877.853834,2374.896044,2442.679609,11103.089130
1877.854151,2068.457845,2516.700203,11325.150913
1877.854469,1685.410096,2516.700203,11695.253884
1877.854786,1608.800546,2442.679609,11843.295072
1877.855103,842.705048,2368.659014,11843.295072
1877.855420,536.266849,2368.659014,12065.356855
1877.855738,153.219100,2294.638420,11991.336260
1877.856055,-459.657299,2368.659014,11695.253884
1877.856372,-689.485948,2294.638420,11769.274478
1877.856689,-1149.143247,2294.638420,11769.274478
1877.857006,-1685.410096,1628.453072,11843.295072
1877.857324,-2221.676944,1184.329507,11917.315666
1877.857641,-2451.505594,962.267725,11917.315666
1877.857958,-2757.943793,1332.370696,11991.336260
1877.858275,-2987.772442,1036.288319,11917.315666
1877.858593,-2604.724693,1924.535449,12065.356855
1877.858910,-2451.505594,1702.473667,11695.253884
1877.859227,-1991.848295,2146.597232,10362.883188
1877.859544,-1762.019645,1924.535449,9918.759623
1877.859861,-1149.143247,1998.556043,9474.636058
1877.860179,-919.314598,1332.370696,9400.615463
1877.860496,-919.314598,740.205942,9548.656652
1877.860813,-1455.581446,-0.000000,9326.594869
1877.861130,-1149.143247,-0.000000,9400.615463
1877.861448,-995.924147,-0.000000,9474.636058
1877.861765,-1072.533697,148.041188,9178.553681
1877.862082,-306.438199,-888.247130,9030.512492
1877.862399,-919.314598,-888.247130,8512.368333
1877.862716,0.000000,-740.205942,8956.491898
1877.863034,536.266849,-1480.411884,8808.450710
1877.863351,536.266849,-1776.494261,8438.347739
1877.863668,1455.581446,-1924.535449,8734.430116
1877.863985,1915.238745,-1776.494261,8734.430116
1877.864303,2528.115143,-1332.370696,8068.244768
1877.864620,3524.039291,-1332.370696,8068.244768
1877.864937,4290.134789,-962.267725,7698.141797
1877.865254,5056.230287,-962.267725,7476.080014
1877.865571,5056.230287,-1998.556043,7105.977043
1877.865889,5209.449386,-2220.617826,7105.977043
1877.866206,5362.668486,-2294.638420,7476.080014
1877.866523,5362.668486,-2294.638420,7254.018232
1877.866840,4903.011187,-2368.659014,7105.977043
1877.867157,5132.839837,-2442.679609,7328.038826
1877.867475,4903.011187,-1776.494261,7105.977043
1877.867792,4596.572988,-2072.576638,7105.977043
1877.868109,3600.648841,-2442.679609,7254.018232
1877.868426,3294.210641,-2590.720797,7476.080014
1877.868744,2068.457845,-3108.864956,7994.224174
1877.869061,1838.629195,-3627.009116,8512.368333
1877.869378,1455.581446,-3552.988522,9104.533087
1877.869695,1378.971896,-2960.823768,9474.636058
1877.870012,1455.581446,-2072.576638,8808.450710
1877.870330,1608.800546,-1332.370696,8660.409521
1877.870647,1608.800546,-814.226536,8142.265362
1877.870964,1455.581446,-666.185348,8660.409521
1877.871281,1072.533697,-740.205942,8512.368333
1877.871599,306.438199,-888.247130,8512.368333
1877.871916,229.828649,-592.164754,8512.368333
1877.872233,-153.219100,-814.226536,9104.533087
1877.872550,-689.485948,-518.144159,9474.636058
1877.872867,-842.705048,-74.020594,9474.636058
1877.873185,-1378.971896,-148.041188,9400.615463
1877.873502,-1685.410096,-0.000000,9770.718434
1877.873819,-2068.457845,-0.000000,10066.800811
1877.874136,-2528.115143,-74.020594,9918.759623
1877.874454,-2604.724693,-0.000000,10955.047942
1877.874771,-1915.238745,-0.000000,10807.006753
1877.875088,-2145.067394,222.061783,10955.047942
1877.875405,-1302.362347,1036.288319,10881.027347
1877.875722,-842.705048,1776.494261,11103.089130
1877.876040,-229.828649,1998.556043,10807.006753
1877.876357,153.219100,2738.761985,10732.986159
1877.876674,459.657299,2738.761985,10436.903782
1877.876991,1838.629195,2664.741391,10510.924376
1877.877309,1838.629195,2368.659014,10066.800811
1877.877626,1838.629195,2664.741391,10510.924376
1877.877943,2757.943793,2516.700203,10140.821405
1877.878260,2374.896044,2590.720797,9918.759623
1877.878577,2757.943793,2738.761985,9770.718434
1877.878895,2451.505594,3330.926739,9918.759623
1877.879212,2451.505594,3404.947333,9696.697840
1877.879529,1991.848295,3330.926739,9992.780217
1877.879846,2145.067394,2442.679609,10362.883188
1877.880164,1685.410096,2368.659014,10510.924376
1877.880481,1762.019645,2220.617826,10732.986159
1877.880798,1455.581446,2220.617826,11103.089130
1877.881115,2145.067394,2516.700203,10955.047942
1877.881432,2681.334243,2368.659014,11029.068536
1877.881750,2145.067394,3256.906145,10288.862594
1877.882067,2221.676944,3701.029710,9918.759623
1877.882384,2068.457845,3330.926739,9548.656652
1877.882701,1532.190996,2960.823768,9548.656652
1877.883019,1532.190996,1702.473667,9844.739029
1877.883336,612.876398,962.267725,10066.800811
1877.883653,536.266849,370.102971,9992.780217
1877.883970,153.219100,444.123565,9770.718434
1877.884287,76.609550,-148.041188,10436.903782
1877.884605,0.000000,-0.000000,9548.656652
1877.884922,-459.657299,-0.000000,9474.636058
1877.885239,-612.876398,-592.164754,9622.677246
1877.885556,-1072.533697,888.247130,9992.780217
1877.885873,-1455.581446,-1702.473667,9326.594869
1877.886191,-2451.505594,-2294.638420,9104.533087
1877.886508,-1685.410096,-1998.556043,10510.924376
1877.886825,-1838.629195,-1850.514855,10066.800811
1877.887142,-1838.629195,-1924.535449,9548.656652
1877.887460,-1455.581446,-2368.659014,9474.636058
1877.887777,-1455.581446,-1702.473667,9326.594869
1877.888094,-1072.533697,-1998.556043,8882.471304
1877.888411,-919.314598,-2146.597232,8882.471304
1877.888728,-995.924147,-1850.514855,8734.430116
1877.889046,-536.266849,-1998.556043,8808.450710
1877.889363,-842.705048,-2442.679609,7920.203579
1877.889680,0.000000,-2294.638420,8290.306550
1877.889997,306.438199,-1998.556043,8216.285956
1877.890315,766.095498,-1332.370696,8216.285956
1877.890632,919.314598,-962.267725,7772.162391
1877.890949,1378.971896,-1036.288319,7624.121203
1877.891266,1455.581446,-962.267725,7920.203579
1877.891583,1762.019645,-1258.350101,7698.141797
1877.891901,1991.848295,-888.247130,7402.059420
1877.892218,3294.210641,-814.226536,7402.059420
1877.892535,3140.991542,-0.000000,7402.059420
1877.892852,3600.648841,592.164754,7328.038826
1877.893170,4213.525239,666.185348,7550.100608
1877.893487,3830.477490,740.205942,7624.121203
1877.893804,4366.744339,814.226536,7328.038826
1877.894121,3983.696590,962.267725,7476.080014
1877.894438,4060.306139,666.185348,7994.224174
1877.894756,3677.258390,222.061783,8290.306550
1877.895073,3830.477490,444.123565,8364.327145
1877.895390,3830.477490,740.205942,8438.347739
1877.895707,3217.601092,1258.350101,8586.388927
1877.896025,2757.943793,1258.350101,8660.409521
1877.896342,2221.676944,962.267725,8882.471304
1877.896659,1762.019645,814.226536,9400.615463
1877.896976,842.705048,1110.308913,9770.718434
1877.897293,383.047749,740.205942,10214.842000
1877.897611,0.000000,814.226536,10584.944971
1877.897928,0.000000,1924.535449,10807.006753
1877.898245,0.000000,1628.453072,11103.089130
1877.898562,-383.047749,2368.659014,11177.109724
1877.898880,-306.438199,2368.659014,10584.944971
1877.899197,-1072.533697,2590.720797,10362.883188
1877.899514,-1072.533697,2442.679609,10807.006753
1877.899831,-1455.581446,2738.761985,11399.171507
1877.900148,-1762.019645,1776.494261,11399.171507
1877.900466,-1915.238745,2146.597232,11399.171507
1877.900783,-1915.238745,2146.597232,11399.171507
1877.901100,-1685.410096,2294.638420,11177.109724
1877.901417,-2221.676944,2516.700203,11029.068536
1877.901735,-2374.896044,2664.741391,11251.130318
1877.902052,-2451.505594,2368.659014,11029.068536
1877.902369,-2604.724693,2146.597232,11177.109724
1877.902686,-2757.943793,2146.597232,11621.233289
1877.903003,-2911.162892,1850.514855,11399.171507
1877.903321,-2834.553343,1628.453072,11399.171507
1877.903638,-2911.162892,1776.494261,11399.171507
1877.903955,-2451.505594,2072.576638,11177.109724
1877.904272,-1378.971896,2368.659014,11325.150913
1877.904589,-1225.752797,2664.741391,10807.006753
1877.904907,-919.314598,2516.700203,10214.842000
1877.905224,-153.219100,2294.638420,9770.718434
1877.905541,0.000000,2220.617826,9474.636058
1877.905858,689.485948,1628.453072,9696.697840
1877.906176,612.876398,1554.432478,9548.656652
1877.906493,1149.143247,1258.350101,9844.739029
1877.906810,1838.629195,1332.370696,9474.636058
1877.907127,1991.848295,1332.370696,9030.512492
1877.907444,2451.505594,1258.350101,8956.491898
1877.907762,2528.115143,1110.308913,8956.491898
1877.908079,2604.724693,740.205942,8586.388927
1877.908396,2911.162892,518.144159,8586.388927
1877.908713,3524.039291,370.102971,8290.306550
1877.909031,3294.210641,296.082377,8068.244768
1877.909348,3370.820191,-0.000000,7772.162391
1877.909665,3830.477490,-370.102971,8216.285956
1877.909982,3524.039291,-74.020594,7772.162391
1877.910299,3294.210641,-0.000000,7698.141797
1877.910617,3447.429741,-296.082377,7698.141797
1877.910934,2604.724693,-1702.473667,7550.100608
1877.911251,1915.238745,-1850.514855,8290.306550
1877.911568,1608.800546,-1332.370696,8956.491898
1877.911886,1072.533697,-1850.514855,8216.285956
1877.912203,1072.533697,-1480.411884,7994.224174
1877.912520,459.657299,-1702.473667,8586.388927
1877.912837,383.047749,-1776.494261,8068.244768
1877.913154,0.000000,-1480.411884,8586.388927
1877.913472,-306.438199,-2294.638420,8364.327145
1877.913789,-1225.752797,-2516.700203,8142.265362
1877.914106,-1149.143247,-2738.761985,8956.491898
1877.914423,-1455.581446,-3108.864956,8586.388927
1877.914741,-1302.362347,-2960.823768,8808.450710
1877.915058,-1378.971896,-2960.823768,9400.615463
1877.915375,-1149.143247,-2442.679609,8956.491898
1877.915692,-612.876398,-1850.514855,8808.450710
1877.916009,0.000000,-1036.288319,8216.285956
1877.916327,76.609550,-1110.308913,9030.512492
1877.916644,-153.219100,-1110.308913,8364.327145
1877.916961,0.000000,-1480.411884,8808.450710
1877.917278,0.000000,-1480.411884,8660.409521
1877.917596,76.609550,-1258.350101,8660.409521
1877.917913,459.657299,-888.247130,8956.491898
1877.918230,689.485948,-444.123565,9474.636058
1877.918547,689.485948,-370.102971,9178.553681
1877.918865,612.876398,-148.041188,8956.491898
1877.919182,995.924147,-0.000000,9104.533087
1877.919499,919.314598,-74.020594,9252.574275
1877.919816,1149.143247,-222.061783,9474.636058
1877.920134,1072.533697,-222.061783,9992.780217
1877.920451,1532.190996,74.020594,10214.842000
1877.920768,1991.848295,444.123565,10288.862594
1877.921086,2374.896044,1184.329507,9918.759623
1877.921403,2681.334243,1480.411884,9770.718434
1877.921720,2987.772442,2072.576638,9696.697840
1877.922037,2911.162892,2220.617826,9548.656652
1877.922355,3524.039291,1628.453072,9622.677246
1877.922672,2681.334243,1776.494261,9770.718434
1877.922989,2681.334243,1776.494261,9844.739029
1877.923306,2451.505594,1850.514855,9918.759623
1877.923624,2451.505594,2294.638420,9844.739029
1877.923941,1991.848295,2368.659014,10140.821405
1877.924258,1378.971896,2738.761985,10066.800811
1877.924576,689.485948,2368.659014,10584.944971
1877.924893,0.000000,1998.556043,10732.986159
1877.925210,-306.438199,1628.453072,11177.109724
1877.925527,-995.924147,1998.556043,11991.336260
1877.925845,-1378.971896,1110.308913,11547.212695
1877.926162,-1378.971896,1332.370696,11695.253884
1877.926479,-1149.143247,1776.494261,11547.212695
1877.926796,-1072.533697,1924.535449,11325.150913
1877.927114,-1072.533697,2294.638420,10955.047942
1877.927431,-1149.143247,2368.659014,10658.965565
1877.927748,-919.314598,2072.576638,10584.944971
1877.928066,-1302.362347,1776.494261,10584.944971
1877.928383,-1378.971896,518.144159,10732.986159
1877.928700,-1072.533697,1702.473667,11103.089130
1877.929017,-1532.190996,296.082377,10584.944971
1877.929335,-1225.752797,296.082377,10436.903782
1877.929652,-842.705048,740.205942,10732.986159
1877.929969,-306.438199,888.247130,9844.739029
1877.930286,-536.266849,592.164754,9474.636058
1877.930604,-612.876398,222.061783,9474.636058
1877.930921,-689.485948,-0.000000,9474.636058
1877.931238,153.219100,-0.000000,9474.636058
1877.931555,459.657299,-296.082377,9696.697840
1877.931873,76.609550,-296.082377,9474.636058
1877.932190,459.657299,-296.082377,9696.697840
1877.932507,1072.533697,-0.000000,8734.430116
1877.932825,1838.629195,370.102971,9104.533087
1877.933142,2374.896044,222.061783,8734.430116
1877.933459,2911.162892,-0.000000,8142.265362
1877.933776,3064.381992,-0.000000,7846.182985
1877.934094,3370.820191,-296.082377,8068.244768
1877.934411,3677.258390,-740.205942,7402.059420
1877.934728,3677.258390,-592.164754,7624.121203
1877.935045,3600.648841,-666.185348,7550.100608
1877.935363,3753.867940,-592.164754,7698.141797
1877.935680,3677.258390,-444.123565,7328.038826
1877.935997,3140.991542,-444.123565,7994.224174
1877.936315,3217.601092,-1184.329507,7920.203579
1877.936632,2604.724693,-1776.494261,7994.224174
1877.936949,2374.896044,-2072.576638,7846.182985
1877.937266,2221.676944,-2072.576638,8290.306550
1877.937584,1991.848295,-2294.638420,8882.471304
1877.937901,1915.238745,-2146.597232,8734.430116
1877.938218,1378.971896,-1998.556043,8364.327145
1877.938535,1455.581446,-1480.411884,8364.327145
1877.938853,1838.629195,-1406.391290,8512.368333
1877.939170,1149.143247,-1776.494261,9178.553681
1877.939487,766.095498,-2220.617826,8956.491898
1877.939805,689.485948,-2812.782580,9030.512492
1877.940122,229.828649,-2368.659014,8882.471304
1877.940439,689.485948,-2812.782580,9326.594869
1877.940756,383.047749,-2294.638420,9252.574275
1877.941074,383.047749,-1776.494261,9400.615463
1877.941391,0.000000,-1332.370696,8882.471304
1877.941708,-842.705048,-1702.473667,9400.615463
1877.942025,-689.485948,-1924.535449,9622.677246
1877.942343,-1072.533697,-1924.535449,9918.759623
1877.942660,-995.924147,-1924.535449,9918.759623
1877.942977,-919.314598,-1554.432478,9770.718434
1877.943295,-689.485948,-1110.308913,9770.718434
1877.943612,-153.219100,-592.164754,9696.697840
1877.943929,306.438199,-148.041188,9548.656652
1877.944246,536.266849,-0.000000,9770.718434
1877.944564,612.876398,-0.000000,9400.615463
1877.944881,766.095498,148.041188,9326.594869
1877.945198,1455.581446,888.247130,9474.636058
1877.945515,995.924147,592.164754,9400.615463
1877.945833,1225.752797,444.123565,9326.594869
1877.946150,1685.410096,888.247130,9326.594869
1877.946467,1838.629195,1184.329507,9326.594869
1877.946785,1762.019645,1184.329507,9400.615463
1877.947102,1838.629195,1258.350101,9474.636058
1877.947419,1455.581446,888.247130,9548.656652
1877.947736,1608.800546,666.185348,10066.800811
1877.948054,1685.410096,592.164754,10066.800811
1877.948371,1685.410096,1110.308913,10140.821405
1877.948688,1685.410096,1406.391290,10140.821405
1877.949005,2221.676944,1628.453072,10066.800811
1877.949323,2145.067394,1702.473667,9770.718434
1877.949640,2451.505594,1776.494261,9844.739029
1877.949957,1991.848295,1776.494261,9844.739029
1877.950274,1991.848295,1850.514855,9770.718434
1877.950592,1532.190996,1406.391290,9844.739029
1877.950909,1762.019645,1184.329507,10140.821405
1877.951226,689.485948,296.082377,10066.800811
1877.951544,1225.752797,962.267725,10436.903782
1877.951861,766.095498,666.185348,10066.800811
1877.952178,689.485948,1332.370696,10140.821405
1877.952495,459.657299,1332.370696,9770.718434
1877.952813,0.000000,962.267725,9770.718434
1877.953130,-229.828649,666.185348,10288.862594
1877.953447,-766.095498,666.185348,10214.842000
1877.953764,-766.095498,666.185348,10214.842000
1877.954082,-1072.533697,222.061783,10510.924376
1877.954399,-612.876398,370.102971,10362.883188
1877.954716,-459.657299,666.185348,10214.842000
1877.955034,-229.828649,-74.020594,9918.759623
1877.955351,0.000000,296.082377,9696.697840
1877.955668,306.438199,1036.288319,9474.636058
1877.955985,306.438199,814.226536,8808.450710
1877.956303,153.219100,1110.308913,9326.594869
1877.956620,76.609550,740.205942,9030.512492
1877.956937,229.828649,-0.000000,8956.491898
1877.957254,612.876398,1332.370696,8956.491898
1877.957572,306.438199,592.164754,8956.491898
1877.957889,383.047749,740.205942,8142.265362
1877.958206,153.219100,222.061783,8290.306550
1877.958524,689.485948,222.061783,8586.388927
1877.958841,612.876398,-0.000000,8512.368333
1877.959158,612.876398,-148.041188,8734.430116
1877.959475,612.876398,-148.041188,8808.450710
1877.959793,766.095498,-222.061783,8660.409521
1877.960110,1225.752797,-0.000000,8956.491898
1877.960427,1378.971896,148.041188,8808.450710
1877.960744,1762.019645,370.102971,8882.471304
1877.961062,2068.457845,370.102971,8660.409521
1877.961379,2298.286494,962.267725,8142.265362
1877.961696,2757.943793,370.102971,8290.306550
1877.962014,2298.286494,222.061783,7994.224174
1877.962331,2068.457845,296.082377,8438.347739
1877.962648,1685.410096,-296.082377,9030.512492
1877.962965,1608.800546,-444.123565,8882.471304
1877.963283,1302.362347,-666.185348,9104.533087
1877.963600,1455.581446,-0.000000,9030.512492
1877.963917,1149.143247,-148.041188,9252.574275
1877.964234,1149.143247,-148.041188,9326.594869
1877.964552,842.705048,-592.164754,9474.636058
1877.964869,306.438199,-740.205942,9548.656652
1877.965186,536.266849,-962.267725,9992.780217
1877.965503,383.047749,-444.123565,9992.780217
1877.965821,536.266849,-370.102971,10214.842000
1877.966138,1072.533697,222.061783,10436.903782
1877.966455,919.314598,-0.000000,10214.842000
1877.966773,1072.533697,370.102971,9918.759623
1877.967090,919.314598,148.041188,9770.718434
1877.967407,1225.752797,-0.000000,10066.800811
1877.967724,1685.410096,-370.102971,9622.677246
1877.968042,1302.362347,-444.123565,9844.739029
1877.968359,842.705048,-444.123565,9770.718434
1877.968676,995.924147,-222.061783,10066.800811
1877.968993,995.924147,-296.082377,9622.677246
1877.969311,689.485948,-74.020594,9918.759623
1877.969628,689.485948,-296.082377,9992.780217
1877.969945,229.828649,-222.061783,9696.697840
1877.970263,76.609550,-814.226536,9770.718434
1877.970580,0.000000,-518.144159,9992.780217
1877.970897,0.000000,-518.144159,10288.862594
1877.971214,76.609550,-592.164754,10288.862594
1877.971532,612.876398,-370.102971,10140.821405
1877.971849,919.314598,-0.000000,10288.862594
1877.972166,1149.143247,148.041188,10214.842000
1877.972483,1225.752797,666.185348,9844.739029
1877.972801,1455.581446,518.144159,9474.636058
1877.973118,1762.019645,148.041188,9252.574275
1877.973435,1608.800546,148.041188,9252.574275
1877.973753,1991.848295,-0.000000,9104.533087
1877.974070,1838.629195,-0.000000,9030.512492
1877.974387,1838.629195,222.061783,9030.512492
1877.974704,1762.019645,444.123565,8734.430116
1877.975022,1378.971896,518.144159,8512.368333
1877.975339,1302.362347,518.144159,8808.450710
1877.975656,612.876398,518.144159,8660.409521
1877.975973,459.657299,518.144159,8808.450710
1877.976291,306.438199,-0.000000,8808.450710
1877.976608,-842.705048,222.061783,9548.656652
1877.976925,-306.438199,148.041188,9400.615463
1877.977243,0.000000,518.144159,9252.574275
1877.977560,0.000000,962.267725,9326.594869
1877.977877,306.438199,1480.411884,9104.533087
1877.978194,612.876398,1998.556043,8660.409521
1877.978512,919.314598,2368.659014,8364.327145
1877.978829,536.266849,1924.535449,8438.347739
1877.979146,306.438199,1554.432478,8438.347739
1877.979463,229.828649,1850.514855,8438.347739
1877.979781,76.609550,1258.350101,8068.244768
1877.980098,153.219100,1628.453072,8734.430116
1877.980415,0.000000,962.267725,8956.491898
1877.980732,-536.266849,1406.391290,8586.388927
1877.981050,-995.924147,962.267725,8586.388927
1877.981367,-1225.752797,1406.391290,9178.553681
1877.981684,-1532.190996,1110.308913,9326.594869
1877.982002,-2068.457845,740.205942,9696.697840
1877.982319,-1762.019645,666.185348,9770.718434
1877.982636,-1532.190996,814.226536,9918.759623
1877.982953,-1225.752797,1332.370696,10214.842000
1877.983271,-536.266849,1702.473667,10066.800811
1877.983588,-536.266849,1628.453072,9770.718434
1877.983905,-229.828649,1924.535449,9474.636058
1877.984222,0.000000,1924.535449,9622.677246
1877.984540,0.000000,1628.453072,9696.697840
1877.984857,0.000000,1184.329507,9622.677246
1877.985174,-153.219100,962.267725,9548.656652
1877.985492,153.219100,814.226536,10140.821405
1877.985809,153.219100,592.164754,10214.842000
1877.986126,383.047749,592.164754,10436.903782
1877.986443,459.657299,962.267725,10214.842000
1877.986761,459.657299,962.267725,10362.883188
1877.987078,536.266849,962.267725,10214.842000
1877.987395,842.705048,1110.308913,10658.965565
1877.987712,689.485948,962.267725,10584.944971
1877.988030,1302.362347,740.205942,10807.006753
1877.988347,1455.581446,740.205942,10658.965565
1877.988664,2451.505594,740.205942,10288.862594
1877.988982,2221.676944,1110.308913,10658.965565
1877.989299,2528.115143,1110.308913,9918.759623
1877.989616,3370.820191,1110.308913,10214.842000
1877.989933,3677.258390,814.226536,9696.697840
1877.990251,3524.039291,740.205942,9548.656652
1877.990568,3140.991542,592.164754,9400.615463
1877.990885,2911.162892,-0.000000,9622.677246
1877.991202,2451.505594,-148.041188,9770.718434
1877.991520,2451.505594,-222.061783,9992.780217
1877.991837,1762.019645,-74.020594,9844.739029
1877.992154,1685.410096,-222.061783,9918.759623
1877.992472,1378.971896,-444.123565,9696.697840
1877.992789,995.924147,-740.205942,9696.697840
1877.993106,766.095498,-1036.288319,10066.800811
1877.993423,76.609550,-1554.432478,10140.821405
1877.993741,0.000000,-1554.432478,9844.739029
1877.994058,0.000000,-1480.411884,9992.780217
1877.994375,0.000000,-1258.350101,9918.759623
1877.994692,76.609550,-666.185348,9622.677246
1877.995010,153.219100,-666.185348,8808.450710
1877.995327,383.047749,-222.061783,8660.409521
1877.995644,0.000000,-518.144159,8142.265362
1877.995962,0.000000,-740.205942,8290.306550
1877.996279,-153.219100,-962.267725,8364.327145
1877.996596,-306.438199,-1184.329507,7772.162391
1877.996913,-766.095498,-1406.391290,7994.224174
1877.997231,-689.485948,-1258.350101,8216.285956
1877.997548,-766.095498,-1036.288319,8364.327145
1877.997865,-766.095498,-1332.370696,8438.347739
1877.998182,-1225.752797,-1258.350101,8216.285956
1877.998500,-689.485948,-1184.329507,8586.388927
1877.998817,-919.314598,-1332.370696,8882.471304
1877.999134,-842.705048,-1036.288319,8512.368333
1877.999451,-229.828649,-1036.288319,8512.368333
1877.999769,153.219100,-222.061783,8512.368333
1878.000086,689.485948,222.061783,8142.265362
1878.000403,1378.971896,666.185348,8216.285956
1878.000721,2068.457845,1184.329507,7772.162391
1878.001038,2451.505594,1184.329507,7624.121203
1878.001355,2681.334243,1258.350101,7402.059420
1878.001672,2451.505594,888.247130,7254.018232
1878.001990,2451.505594,-0.000000,7772.162391
1878.002307,1915.238745,592.164754,7920.203579
1878.002624,1685.410096,222.061783,8216.285956
1878.002941,1762.019645,222.061783,8808.450710
1878.003259,1149.143247,296.082377,9178.553681
1878.003576,995.924147,740.205942,9104.533087
1878.003893,766.095498,444.123565,9474.636058
1878.004211,612.876398,444.123565,10140.821405
1878.004528,536.266849,370.102971,10140.821405
1878.004845,0.000000,592.164754,10140.821405
1878.005162,229.828649,296.082377,10658.965565
1878.005480,536.266849,370.102971,11029.068536
1878.005797,919.314598,1184.329507,10584.944971
1878.006114,1149.143247,1480.411884,10584.944971
1878.006431,1072.533697,1628.453072,9918.759623
1878.006749,1072.533697,1406.391290,9918.759623
1878.007066,689.485948,1110.308913,10288.862594
1878.007383,383.047749,740.205942,10288.862594
1878.007701,153.219100,518.144159,10510.924376
1878.008018,0.000000,518.144159,10436.903782
1878.008335,-229.828649,222.061783,10658.965565
1878.008652,-612.876398,370.102971,10881.027347
1878.008970,-612.876398,296.082377,10955.047942
1878.009287,-1072.533697,296.082377,11177.109724
1878.009604,-1149.143247,-0.000000,11251.130318
1878.009921,-1302.362347,148.041188,11473.192101
1878.010239,-995.924147,296.082377,11325.150913
1878.010556,-612.876398,370.102971,10807.006753
1878.010873,-229.828649,444.123565,11029.068536
1878.011191,766.095498,1110.308913,11029.068536
1878.011508,842.705048,1036.288319,10881.027347
1878.011825,1302.362347,1332.370696,10066.800811
1878.012142,2145.067394,1332.370696,9770.718434
1878.012460,2221.676944,1332.370696,9548.656652
1878.012777,2145.067394,962.267725,9400.615463
1878.013094,2604.724693,1036.288319,8956.491898
1878.013411,2298.286494,888.247130,8882.471304
1878.013729,2145.067394,518.144159,8734.430116
1878.014046,2068.457845,518.144159,9030.512492
1878.014363,1302.362347,148.041188,9622.677246
1878.014680,2145.067394,-0.000000,9030.512492
1878.014998,1532.190996,-296.082377,9400.615463
1878.015315,1455.581446,-148.041188,9474.636058
1878.015632,1225.752797,-518.144159,9474.636058
1878.015944,919.314598,-296.082377,9474.636058
1878.016261,766.095498,-518.144159,9474.636058
1878.016579,766.095498,-222.061783,9252.574275
1878.016896,1225.752797,-148.041188,9252.574275
1878.017213,1532.190996,-0.000000,9104.533087
1878.017530,2604.724693,-148.041188,8956.491898
1878.017848,2374.896044,296.082377,8438.347739
1878.018165,2145.067394,74.020594,7994.224174
1878.018482,1991.848295,-148.041188,8068.244768
1878.018799,1915.238745,-592.164754,8068.244768
1878.019117,1532.190996,-740.205942,7846.182985
1878.019434,1072.533697,-592.164754,8142.265362
1878.019751,995.924147,-814.226536,8438.347739
1878.020068,842.705048,-962.267725,8068.244768
1878.020386,306.438199,-962.267725,7994.224174
1878.020703,0.000000,-814.226536,8512.368333
1878.021020,-919.314598,-1036.288319,8882.471304
1878.021337,-1149.143247,-1258.350101,8586.388927
1878.021655,-1378.971896,-1332.370696,9104.533087
1878.021972,-1378.971896,-814.226536,9474.636058
1878.022289,-995.924147,-444.123565,9104.533087
1878.022606,-689.485948,-222.061783,9326.594869
1878.022924,-229.828649,-148.041188,9252.574275
1878.023241,76.609550,-0.000000,9178.553681
1878.023558,76.609550,-0.000000,8882.471304
1878.023875,536.266849,-370.102971,8808.450710
1878.024193,689.485948,-370.102971,9178.553681
1878.024510,689.485948,-148.041188,9030.512492
1878.024827,995.924147,-0.000000,8808.450710
1878.025144,1302.362347,296.082377,8956.491898
1878.025462,1915.238745,-148.041188,9030.512492
1878.025779,1608.800546,-0.000000,9178.553681
1878.026096,1762.019645,296.082377,9178.553681
1878.026413,1838.629195,-0.000000,9474.636058
1878.026731,1685.410096,-592.164754,9622.677246
1878.027048,1378.971896,-518.144159,9844.739029
1878.027365,1225.752797,-148.041188,10362.883188
1878.027682,1302.362347,-148.041188,10436.903782
1878.028000,1608.800546,222.061783,10288.862594
1878.028317,1915.238745,296.082377,10510.924376
1878.028634,2528.115143,666.185348,10510.924376
1878.028951,2451.505594,666.185348,10214.842000
1878.029269,2604.724693,444.123565,10066.800811
1878.029586,2911.162892,222.061783,10066.800811
1878.029903,2374.896044,74.020594,9992.780217
1878.030220,2068.457845,148.041188,9992.780217
1878.030538,1991.848295,222.061783,9918.759623
1878.030855,1838.629195,296.082377,9844.739029
1878.031172,1608.800546,518.144159,10066.800811
1878.031489,1532.190996,740.205942,9918.759623
1878.031807,919.314598,592.164754,9770.718434
1878.032124,689.485948,518.144159,9622.677246
1878.032441,612.876398,-0.000000,9770.718434
1878.032759,0.000000,-0.000000,9992.780217
1878.033076,-612.876398,-148.041188,10288.862594
1878.033393,-842.705048,370.102971,10288.862594
1878.033710,-306.438199,370.102971,10436.903782
1878.034028,0.000000,222.061783,10436.903782
1878.034345,-383.047749,666.185348,10140.821405
1878.034662,0.000000,814.226536,9992.780217
1878.034979,-76.609550,740.205942,9474.636058
1878.035297,459.657299,518.144159,9178.553681
1878.035614,229.828649,592.164754,9326.594869
1878.035931,459.657299,444.123565,9178.553681
1878.036248,842.705048,444.123565,8438.347739
1878.036566,689.485948,-0.000000,8882.471304
1878.036883,383.047749,370.102971,9104.533087
1878.037200,842.705048,518.144159,8882.471304
1878.037517,766.095498,296.082377,8882.471304
1878.037835,459.657299,-0.000000,9178.553681
1878.038152,459.657299,-148.041188,9326.594869
1878.038469,153.219100,-222.061783,9030.512492
1878.038786,459.657299,-148.041188,9104.533087
1878.039104,995.924147,-0.000000,9326.594869
1878.039421,842.705048,370.102971,9178.553681
1878.039738,1685.410096,592.164754,8586.388927
1878.040055,1991.848295,666.185348,8882.471304
1878.040373,2145.067394,888.247130,8438.347739
1878.040690,1915.238745,888.247130,8512.368333
1878.041007,1915.238745,518.144159,8364.327145
1878.041324,1838.629195,-148.041188,8808.450710
1878.041642,1685.410096,-296.082377,8882.471304
1878.041959,1455.581446,-370.102971,8956.491898
1878.042276,1532.190996,-222.061783,9030.512492
1878.042593,1762.019645,-148.041188,8808.450710
1878.042911,1302.362347,222.061783,8808.450710
1878.043228,1378.971896,222.061783,8956.491898
1878.043545,919.314598,-74.020594,8882.471304
1878.043862,842.705048,-296.082377,9178.553681
1878.044180,459.657299,-444.123565,9474.636058
1878.044497,383.047749,-0.000000,9474.636058
1878.044814,306.438199,-0.000000,9474.636058
1878.045131,612.876398,370.102971,9844.739029
1878.045449,995.924147,370.102971,9844.739029
1878.045766,1072.533697,222.061783,9474.636058
1878.046083,1302.362347,592.164754,9474.636058
1878.046400,1302.362347,296.082377,9400.615463
1878.046718,1762.019645,370.102971,9252.574275
1878.047035,1378.971896,-0.000000,9474.636058
1878.047352,1225.752797,296.082377,9622.677246
1878.047669,995.924147,518.144159,9474.636058
1878.047987,1378.971896,-0.000000,9548.656652
1878.048304,995.924147,444.123565,9696.697840
1878.048621,612.876398,740.205942,9770.718434
1878.048938,766.095498,222.061783,9696.697840
1878.049256,229.828649,370.102971,10140.821405
1878.049573,0.000000,-0.000000,10140.821405
1878.049890,76.609550,-0.000000,10214.842000
1878.050207,-383.047749,-0.000000,10214.842000
1878.050525,-306.438199,-74.020594,10658.965565
1878.050842,0.000000,444.123565,10584.944971
1878.051159,153.219100,444.123565,10732.986159
1878.051477,229.828649,1036.288319,10510.924376
1878.051794,153.219100,1184.329507,9992.780217
1878.052111,612.876398,888.247130,9474.636058
1878.052428,459.657299,1036.288319,9326.594869
1878.052746,842.705048,1036.288319,9178.553681
1878.053063,306.438199,370.102971,9252.574275
1878.053380,153.219100,444.123565,8956.491898
1878.053697,459.657299,296.082377,8956.491898
1878.054015,76.609550,370.102971,9400.615463
1878.054332,0.000000,296.082377,9400.615463
1878.054649,-306.438199,370.102971,9252.574275
1878.054966,-612.876398,222.061783,9252.574275
1878.055284,-766.095498,148.041188,9474.636058
1878.055601,-383.047749,444.123565,9548.656652
1878.055918,-383.047749,370.102971,9400.615463
1878.056235,-229.828649,666.185348,9548.656652
1878.056553,459.657299,740.205942,9474.636058
1878.056870,842.705048,888.247130,9548.656652
1878.057187,1302.362347,1258.350101,9030.512492
1878.057504,1838.629195,1110.308913,8882.471304
1878.057822,1608.800546,1036.288319,8882.471304
1878.058139,1838.629195,740.205942,8734.430116
1878.058456,1149.143247,148.041188,8586.388927
1878.058773,1608.800546,592.164754,8438.347739
1878.059091,1378.971896,370.102971,8512.368333
1878.059408,1302.362347,518.144159,8512.368333
1878.059725,1225.752797,592.164754,8808.450710
1878.060042,1072.533697,370.102971,9178.553681
1878.060360,689.485948,222.061783,9326.594869
1878.060677,306.438199,-0.000000,9548.656652
1878.060994,0.000000,-222.061783,9770.718434
1878.061311,0.000000,-74.020594,10214.842000
1878.061629,-306.438199,-370.102971,9844.739029
1878.061946,459.657299,-0.000000,9918.759623
1878.062263,459.657299,-0.000000,9918.759623
1878.062580,689.485948,-0.000000,9770.718434
1878.062898,995.924147,-0.000000,9400.615463
1878.063215,1302.362347,222.061783,9326.594869
1878.063532,1225.752797,444.123565,9178.553681
1878.063849,842.705048,222.061783,9030.512492
1878.064167,612.876398,-0.000000,9030.512492
1878.064484,689.485948,296.082377,9178.553681
1878.064801,229.828649,-0.000000,9178.553681
1878.065118,0.000000,222.061783,9104.533087
1878.065436,0.000000,-0.000000,9104.533087
1878.065753,-689.485948,148.041188,9030.512492
1878.066070,-919.314598,-0.000000,9252.574275
1878.066387,-1072.533697,-296.082377,9400.615463
1878.066705,-1302.362347,-222.061783,9844.739029
1878.067022,-1225.752797,-296.082377,10066.800811
1878.067339,-919.314598,-518.144159,10140.821405
1878.067656,-383.047749,-0.000000,9918.759623
1878.067974,0.000000,444.123565,9992.780217
1878.068291,612.876398,1036.288319,9696.697840
1878.068608,1225.752797,1406.391290,9326.594869
1878.068925,1915.238745,1332.370696,8956.491898
1878.069243,2068.457845,1406.391290,9252.574275
1878.069560,1915.238745,1332.370696,9104.533087
1878.069877,1991.848295,1184.329507,8808.450710
1878.070194,1838.629195,1036.288319,9178.553681
1878.070512,2374.896044,814.226536,9104.533087
1878.070829,2145.067394,814.226536,9178.553681
1878.071146,1838.629195,740.205942,9326.594869
1878.071464,1838.629195,518.144159,9474.636058
1878.071781,1608.800546,222.061783,9696.697840
1878.072098,1455.581446,222.061783,10066.800811
1878.072415,766.095498,-0.000000,10140.821405
1878.072733,612.876398,-0.000000,10214.842000
1878.073050,612.876398,518.144159,10584.944971
1878.073367,919.314598,666.185348,10584.944971
1878.073684,1072.533697,1184.329507,10362.883188
1878.074002,1225.752797,1332.370696,10214.842000
1878.074319,1532.190996,1332.370696,9844.739029
1878.074636,1455.581446,962.267725,9770.718434
1878.074953,1762.019645,1110.308913,9548.656652
1878.075271,1685.410096,666.185348,9030.512492
1878.075588,995.924147,222.061783,9178.553681
1878.075905,766.095498,148.041188,9252.574275
1878.076222,536.266849,-74.020594,9252.574275
1878.076540,153.219100,-74.020594,9474.636058
1878.076857,-153.219100,-296.082377,9474.636058
1878.077174,-612.876398,-296.082377,9474.636058
1878.077491,-919.314598,-370.102971,9622.677246
1878.077809,-1532.190996,-962.267725,9696.697840
1878.078126,-1532.190996,-518.144159,10066.800811
1878.078443,-1532.190996,-518.144159,9992.780217
1878.078760,-1532.190996,-518.144159,9992.780217
1878.079078,-1149.143247,-370.102971,9992.780217
1878.079395,-383.047749,-444.123565,9474.636058
1878.079712,0.000000,296.082377,9326.594869
1878.080029,229.828649,296.082377,9178.553681
1878.080347,689.485948,222.061783,8956.491898
1878.080664,919.314598,-74.020594,8808.450710
1878.080981,1225.752797,-74.020594,8512.368333
1878.081298,1302.362347,-0.000000,8364.327145
1878.081616,1915.238745,222.061783,8438.347739
1878.081933,1991.848295,-0.000000,8512.368333
1878.082250,1838.629195,-0.000000,8364.327145
1878.082567,1991.848295,-74.020594,9030.512492
1878.082885,1608.800546,-0.000000,8586.388927
1878.083202,1455.581446,-296.082377,8956.491898
1878.083519,1378.971896,-370.102971,9030.512492
1878.083836,1072.533697,-296.082377,9104.533087
1878.084154,995.924147,-740.205942,9474.636058
1878.084471,1302.362347,-0.000000,9474.636058
1878.084788,1608.800546,74.020594,9474.636058
1878.085105,2145.067394,592.164754,9326.594869
1878.085423,2298.286494,666.185348,9030.512492
1878.085740,2374.896044,592.164754,8660.409521
1878.086057,1991.848295,370.102971,8808.450710
1878.086374,1532.190996,-0.000000,8734.430116
1878.086692,1455.581446,-0.000000,8956.491898
1878.087009,1072.533697,-370.102971,9178.553681
1878.087326,1072.533697,-222.061783,9030.512492
1878.087643,459.657299,-222.061783,8956.491898
1878.087961,76.609550,-222.061783,9252.574275
1878.088278,229.828649,-444.123565,9252.574275
1878.088595,76.609550,-518.144159,9400.615463
1878.088912,-766.095498,-814.226536,9548.656652
1878.089230,-1072.533697,-814.226536,9992.780217
1878.089547,-1225.752797,-740.205942,10066.800811
1878.089864,-1072.533697,-296.082377,10140.821405
1878.090182,-383.047749,-0.000000,10066.800811
1878.090499,-76.609550,518.144159,10140.821405
1878.090816,0.000000,222.061783,10066.800811
1878.091133,612.876398,814.226536,9770.718434
1878.091451,1225.752797,888.247130,9548.656652
1878.091768,1225.752797,814.226536,9474.636058
1878.092085,1455.581446,962.267725,9474.636058
1878.092402,1532.190996,814.226536,9178.553681
1878.092720,1455.581446,814.226536,9400.615463
1878.093037,1762.019645,518.144159,9844.739029
1878.093354,1608.800546,592.164754,9844.739029
1878.093671,1149.143247,814.226536,9696.697840
1878.093989,842.705048,666.185348,10066.800811
1878.094306,1149.143247,962.267725,9474.636058
1878.094623,1302.362347,296.082377,9992.780217
1878.094940,919.314598,370.102971,9770.718434
1878.095258,766.095498,222.061783,10066.800811
1878.095575,919.314598,-0.000000,9918.759623
1878.095892,1072.533697,296.082377,10214.842000
1878.096209,1455.581446,518.144159,10066.800811
1878.096527,1455.581446,1036.288319,9918.759623
1878.096844,1302.362347,1036.288319,9400.615463
1878.097161,1455.581446,962.267725,9474.636058
1878.097478,1608.800546,444.123565,9474.636058
1878.097796,1302.362347,148.041188,9178.553681
1878.098113,1149.143247,-0.000000,9104.533087
1878.098430,1225.752797,-0.000000,8882.471304
1878.098747,1072.533697,-0.000000,9030.512492
1878.099065,1378.971896,-148.041188,9178.553681
1878.099382,612.876398,-0.000000,9252.574275
1878.099699,306.438199,-0.000000,9252.574275
1878.100016,76.609550,-148.041188,9326.594869
1878.100334,-153.219100,-518.144159,9474.636058
1878.100651,-459.657299,-148.041188,9992.780217
1878.100968,-383.047749,-444.123565,9992.780217
1878.101285,-153.219100,-370.102971,9622.677246
1878.101603,229.828649,-0.000000,9548.656652
1878.101920,536.266849,-0.000000,9548.656652
1878.102237,919.314598,370.102971,9474.636058
1878.102554,1225.752797,370.102971,9400.615463
1878.102872,1378.971896,296.082377,9252.574275
1878.103189,1685.410096,444.123565,8808.450710
1878.103506,2298.286494,370.102971,8660.409521
1878.103823,2068.457845,296.082377,8734.430116
1878.104141,1838.629195,444.123565,8290.306550
1878.104458,1838.629195,296.082377,8512.368333
1878.104775,1532.190996,222.061783,8586.388927
1878.105092,1608.800546,-0.000000,8586.388927
1878.105410,1302.362347,-0.000000,8882.471304
1878.105727,612.876398,-370.102971,9030.512492
1878.106044,536.266849,-518.144159,9326.594869
1878.106361,76.609550,-888.247130,9474.636058
1878.106679,0.000000,-444.123565,9548.656652
1878.106996,76.609550,-370.102971,9622.677246
1878.107313,153.219100,-222.061783,9548.656652
1878.107630,229.828649,-148.041188,9696.697840
1878.107948,766.095498,-148.041188,9548.656652
1878.108265,766.095498,-0.000000,9474.636058
1878.108582,995.924147,296.082377,9326.594869
1878.108900,1302.362347,-222.061783,9178.553681
1878.109217,1225.752797,-74.020594,9030.512492
1878.109534,1685.410096,-222.061783,8808.450710
1878.109851,1149.143247,-0.000000,8808.450710
1878.110169,1072.533697,-0.000000,9104.533087
1878.110486,1225.752797,-0.000000,9252.574275
1878.110803,1225.752797,-0.000000,9252.574275
1878.111120,842.705048,-148.041188,9474.636058
1878.111438,612.876398,-444.123565,9474.636058
1878.111755,229.828649,-666.185348,9548.656652
1878.112072,0.000000,-814.226536,9844.739029
1878.112389,0.000000,-518.144159,10066.800811
1878.112707,229.828649,-592.164754,10436.903782
1878.113024,383.047749,-0.000000,10362.883188
1878.113341,383.047749,-0.000000,10140.821405
1878.113658,1225.752797,592.164754,9918.759623
1878.113976,1532.190996,592.164754,9696.697840
1878.114293,1838.629195,740.205942,9474.636058
1878.114610,1838.629195,740.205942,9252.574275
1878.114927,1762.019645,962.267725,9030.512492
1878.115245,1762.019645,740.205942,8882.471304
1878.115562,1608.800546,814.226536,8956.491898
1878.115879,2221.676944,296.082377,9178.553681
1878.116196,1685.410096,666.185348,9104.533087
1878.116514,1072.533697,666.185348,9030.512492
1878.116831,766.095498,296.082377,9178.553681
1878.117148,612.876398,74.020594,9400.615463
1878.117466,0.000000,-74.020594,9696.697840
1878.117783,0.000000,-0.000000,9918.759623
1878.118100,-306.438199,-0.000000,9918.759623
1878.118418,-153.219100,148.041188,10140.821405
1878.118735,229.828649,222.061783,9918.759623
1878.119053,383.047749,666.185348,9992.780217
1878.119370,766.095498,814.226536,9622.677246
1878.119688,536.266849,666.185348,9400.615463
1878.120005,536.266849,518.144159,9252.574275
1878.120322,459.657299,666.185348,9104.533087
1878.120640,842.705048,518.144159,8956.491898
1878.120957,766.095498,666.185348,9178.553681
1878.121275,919.314598,592.164754,9178.553681
1878.121592,842.705048,-0.000000,9326.594869
1878.121910,842.705048,222.061783,9770.718434
1878.122227,842.705048,-0.000000,9326.594869
1878.122544,0.000000,-296.082377,9252.574275
1878.122862,0.000000,-222.061783,9474.636058
1878.123179,0.000000,-444.123565,9622.677246
1878.123497,0.000000,-0.000000,9474.636058
1878.123814,0.000000,-0.000000,9770.718434
1878.124132,306.438199,222.061783,9992.780217
1878.124449,536.266849,222.061783,9918.759623
1878.124766,766.095498,518.144159,9844.739029
1878.125084,1302.362347,666.185348,9696.697840
1878.125401,1608.800546,962.267725,9104.533087
1878.125719,1685.410096,962.267725,8882.471304
1878.126036,1608.800546,1110.308913,8956.491898
1878.126354,1532.190996,1258.350101,8734.430116
1878.126671,1378.971896,814.226536,8882.471304
1878.126988,1302.362347,888.247130,8956.491898
1878.127306,1302.362347,888.247130,9178.553681
1878.127623,1149.143247,740.205942,9104.533087
1878.127941,1225.752797,814.226536,9252.574275
1878.128258,995.924147,592.164754,9178.553681
1878.128576,919.314598,666.185348,9104.533087
1878.128893,306.438199,666.185348,9178.553681
1878.129210,612.876398,222.061783,9400.615463
1878.129528,306.438199,592.164754,9474.636058
1878.129845,383.047749,518.144159,9622.677246
1878.130163,689.485948,518.144159,9474.636058
1878.130480,995.924147,888.247130,9252.574275
1878.130798,995.924147,1110.308913,9104.533087
1878.131115,1072.533697,888.247130,8956.491898
1878.131432,995.924147,740.205942,8882.471304
1878.131750,153.219100,296.082377,9104.533087
1878.132067,306.438199,296.082377,9178.553681
1878.132385,76.609550,-0.000000,9474.636058
1878.132702,153.219100,-370.102971,9548.656652
1878.133020,-153.219100,-148.041188,9474.636058
1878.133337,-306.438199,-0.000000,9696.697840
1878.133654,-383.047749,-74.020594,9844.739029
1878.133972,0.000000,-0.000000,9992.780217
1878.134289,-306.438199,-518.144159,10066.800811
1878.134607,-383.047749,-518.144159,9992.780217
1878.134924,-229.828649,-370.102971,10288.862594
1878.135242,306.438199,-148.041188,10066.800811
1878.135559,1149.143247,-0.000000,9844.739029
1878.135876,1149.143247,370.102971,9696.697840
1878.136194,1685.410096,370.102971,9474.636058
1878.136511,2068.457845,518.144159,9474.636058
1878.136829,1991.848295,518.144159,9326.594869
1878.137146,2145.067394,296.082377,9178.553681
1878.137464,2068.457845,370.102971,9178.553681
1878.137781,1838.629195,296.082377,9030.512492
1878.138098,1455.581446,-0.000000,9178.553681
1878.138416,1762.019645,-0.000000,9326.594869
1878.138733,1302.362347,-222.061783,9696.697840
1878.139051,1072.533697,-222.061783,9548.656652
1878.139368,1302.362347,-222.061783,9474.636058
1878.139686,1149.143247,-148.041188,9622.677246
1878.140003,1072.533697,-444.123565,10066.800811
1878.140320,612.876398,-0.000000,9696.697840
1878.140638,459.657299,-0.000000,9252.574275
1878.140955,383.047749,-0.000000,9400.615463
1878.141273,689.485948,-0.000000,9474.636058
1878.141590,689.485948,222.061783,9992.780217
1878.141908,766.095498,-0.000000,9474.636058
1878.142225,919.314598,518.144159,9030.512492
1878.142542,536.266849,148.041188,8956.491898
1878.142860,536.266849,-0.000000,9030.512492
1878.143177,0.000000,-74.020594,9474.636058
1878.143495,0.000000,-148.041188,9104.533087
1878.143812,-229.828649,-296.082377,9474.636058
1878.144130,-383.047749,-370.102971,9474.636058
1878.144447,-459.657299,-296.082377,9400.615463
1878.144765,-536.266849,-296.082377,9770.718434
1878.145082,-306.438199,-296.082377,9548.656652
1878.145399,-612.876398,-370.102971,9548.656652
1878.145717,-536.266849,-370.102971,9622.677246
1878.146034,-229.828649,-74.020594,9548.656652
1878.146352,0.000000,-222.061783,9992.780217
1878.146669,459.657299,-0.000000,9474.636058
1878.146987,842.705048,592.164754,9178.553681
1878.147304,1225.752797,962.267725,9252.574275
1878.147621,1838.629195,1184.329507,9030.512492
1878.147939,1608.800546,1258.350101,9030.512492
1878.148256,1991.848295,1110.308913,8808.450710
1878.148574,1915.238745,1036.288319,8290.306550
1878.148891,1685.410096,888.247130,8512.368333
1878.149209,1608.800546,888.247130,8660.409521
1878.149526,1608.800546,962.267725,8660.409521
1878.149843,1532.190996,740.205942,8808.450710
1878.150161,995.924147,888.247130,9104.533087
1878.150478,842.705048,666.185348,9178.553681
1878.150796,459.657299,740.205942,9104.533087
1878.151113,306.438199,444.123565,9474.636058
1878.151431,-153.219100,666.185348,9622.677246
1878.151748,-459.657299,592.164754,9622.677246
1878.152065,-536.266849,592.164754,10140.821405
1878.152383,-383.047749,666.185348,9844.739029
1878.152700,0.000000,1184.329507,10140.821405
1878.153018,536.266849,1184.329507,9844.739029
1878.153335,612.876398,740.205942,9770.718434
1878.153653,842.705048,666.185348,9770.718434
1878.153970,1455.581446,592.164754,9548.656652
1878.154287,383.047749,518.144159,9474.636058
1878.154605,1149.143247,296.082377,9178.553681
1878.154922,689.485948,370.102971,9474.636058
1878.155240,612.876398,222.061783,9474.636058
1878.155557,612.876398,370.102971,9696.697840
1878.155875,383.047749,370.102971,9844.739029
1878.156192,536.266849,444.123565,9622.677246
1878.156509,306.438199,296.082377,9696.697840
1878.156827,0.000000,-0.000000,10140.821405
1878.157144,229.828649,222.061783,10807.006753
1878.157462,-306.438199,222.061783,10510.924376
1878.157779,0.000000,370.102971,10362.883188
1878.158097,0.000000,222.061783,10436.903782
1878.158414,153.219100,518.144159,10510.924376
1878.158731,1072.533697,888.247130,10140.821405
1878.159049,1072.533697,888.247130,9844.739029
1878.159366,1225.752797,740.205942,9326.594869
1878.159684,1685.410096,444.123565,9400.615463
1878.160001,1762.019645,222.061783,9474.636058
1878.160319,2221.676944,-444.123565,9474.636058
1878.160636,1455.581446,222.061783,8956.491898
1878.160953,1149.143247,444.123565,8956.491898
1878.161271,1302.362347,444.123565,9178.553681
1878.161588,919.314598,592.164754,9326.594869
1878.161906,536.266849,370.102971,9030.512492
1878.162223,153.219100,-74.020594,9104.533087
1878.162541,0.000000,-370.102971,9474.636058
1878.162858,0.000000,-814.226536,9696.697840
1878.163175,-153.219100,-1184.329507,10288.862594
1878.163493,0.000000,-1110.308913,9696.697840
1878.163810,76.609550,-666.185348,10584.944971
1878.164128,689.485948,-222.061783,9992.780217
1878.164445,1225.752797,222.061783,9474.636058
1878.164763,1225.752797,296.082377,8734.430116
1878.165080,1685.410096,888.247130,8586.388927
1878.165397,1762.019645,518.144159,8364.327145
1878.165715,1915.238745,296.082377,8290.306550
1878.166032,1608.800546,-74.020594,8438.347739
1878.166350,1991.848295,-592.164754,8660.409521
1878.166667,1762.019645,-444.123565,8512.368333
1878.166985,1378.971896,-740.205942,8660.409521
1878.167302,1378.971896,-592.164754,9030.512492
1878.167619,842.705048,-444.123565,8882.471304
1878.167937,689.485948,-518.144159,8734.430116
1878.168254,306.438199,-296.082377,8956.491898
1878.168572,-229.828649,-444.123565,9252.574275
1878.168889,0.000000,-444.123565,9400.615463
1878.169207,0.000000,-370.102971,9474.636058
1878.169524,-229.828649,-74.020594,9770.718434
1878.169841,0.000000,-0.000000,9696.697840
1878.170159,306.438199,-0.000000,9622.677246
1878.170476,689.485948,592.164754,9400.615463
1878.170794,1302.362347,444.123565,9548.656652
1878.171111,1072.533697,444.123565,9030.512492
1878.171429,1225.752797,370.102971,8734.430116
1878.171746,1072.533697,296.082377,8438.347739
1878.172063,842.705048,518.144159,8586.388927
1878.172381,842.705048,370.102971,8660.409521
1878.172698,689.485948,148.041188,9104.533087
1878.173016,689.485948,296.082377,9104.533087
1878.173333,612.876398,-0.000000,9474.636058
1878.173651,612.876398,-222.061783,9474.636058
1878.173968,76.609550,-666.185348,9622.677246
1878.174285,153.219100,-592.164754,9696.697840
1878.174603,76.609550,-518.144159,9844.739029
1878.174920,76.609550,-222.061783,9992.780217
1878.175238,306.438199,-148.041188,10288.862594
1878.175555,612.876398,370.102971,10362.883188
1878.175873,689.485948,740.205942,10436.903782
1878.176190,766.095498,962.267725,10362.883188
1878.176507,1072.533697,962.267725,10140.821405
1878.176825,1149.143247,444.123565,9992.780217
1878.177142,1302.362347,518.144159,9622.677246
1878.177460,1608.800546,296.082377,9548.656652
1878.177777,1685.410096,518.144159,9474.636058
1878.178095,2068.457845,370.102971,9548.656652
1878.178412,1915.238745,592.164754,9474.636058
1878.178729,1762.019645,370.102971,9474.636058
1878.179047,1608.800546,148.041188,9474.636058
1878.179364,1302.362347,222.061783,9474.636058
1878.179682,766.095498,-222.061783,9696.697840
1878.179999,612.876398,-0.000000,10066.800811
1878.180317,383.047749,-0.000000,10288.862594
1878.180634,536.266849,296.082377,10436.903782
1878.180952,766.095498,370.102971,9992.780217
1878.181269,842.705048,592.164754,10362.883188
1878.181586,1302.362347,592.164754,10140.821405
1878.181904,1302.362347,740.205942,9548.656652
1878.182221,1302.362347,962.267725,9400.615463
1878.182539,1685.410096,814.226536,9178.553681
1878.182856,612.876398,814.226536,9178.553681
1878.183174,1072.533697,814.226536,9178.553681
1878.183491,919.314598,666.185348,8956.491898
1878.183808,919.314598,296.082377,9030.512492
1878.184126,919.314598,74.020594,8882.471304
1878.184443,383.047749,-0.000000,9104.533087
1878.184761,153.219100,-0.000000,9252.574275
1878.185078,229.828649,-222.061783,9400.615463
1878.185396,0.000000,-296.082377,9474.636058
1878.185713,0.000000,-370.102971,9326.594869
1878.186030,-306.438199,-74.020594,9548.656652
1878.186348,76.609550,-0.000000,9474.636058
1878.186665,306.438199,148.041188,9474.636058
1878.186983,383.047749,148.041188,9474.636058
1878.187300,1225.752797,148.041188,9474.636058
1878.187618,689.485948,-0.000000,9030.512492
1878.187935,1149.143247,-0.000000,9104.533087
1878.188252,1149.143247,-222.061783,9104.533087
1878.188570,995.924147,-222.061783,9104.533087
1878.188887,1455.581446,-148.041188,8660.409521
1878.189205,1225.752797,-0.000000,9178.553681
1878.189522,919.314598,-222.061783,8956.491898
1878.189840,842.705048,-0.000000,8808.450710
1878.190157,689.485948,-0.000000,8808.450710
1878.190474,842.705048,-296.082377,9104.533087
1878.190792,459.657299,-74.020594,9178.553681
1878.191109,153.219100,-222.061783,9252.574275
1878.191427,76.609550,-0.000000,9400.615463
1878.191744,689.485948,-0.000000,9178.553681
1878.192062,1302.362347,-0.000000,9252.574275
1878.192379,1072.533697,296.082377,9178.553681
1878.192696,1378.971896,-0.000000,9400.615463
1878.193014,1149.143247,222.061783,9400.615463
1878.193331,1225.752797,222.061783,9104.533087
1878.193649,1455.581446,222.061783,9400.615463
1878.193966,1302.362347,518.144159,9326.594869
1878.194284,1149.143247,518.144159,9400.615463
1878.194601,1072.533697,370.102971,9400.615463
1878.194918,1072.533697,-0.000000,9252.574275
1878.195236,1302.362347,148.041188,9400.615463
1878.195553,1302.362347,444.123565,9474.636058
1878.195871,1455.581446,-0.000000,9622.677246
1878.196188,1149.143247,-148.041188,9770.718434
1878.196506,766.095498,-370.102971,10140.821405
1878.196823,766.095498,-444.123565,9918.759623
1878.197140,689.485948,-296.082377,10214.842000
1878.197458,612.876398,-296.082377,10362.883188
1878.197775,842.705048,-74.020594,10436.903782
1878.198093,919.314598,-222.061783,10362.883188
1878.198410,1072.533697,-74.020594,10214.842000
1878.198728,1072.533697,-0.000000,10288.862594
1878.199045,1378.971896,-0.000000,10066.800811
1878.199362,1532.190996,148.041188,9918.759623
1878.199680,1378.971896,-0.000000,9548.656652
1878.199997,995.924147,222.061783,9696.697840
1878.200315,689.485948,370.102971,9474.636058
1878.200632,766.095498,444.123565,9326.594869
1878.200950,995.924147,518.144159,9474.636058
1878.201267,842.705048,370.102971,9474.636058
1878.201584,459.657299,444.123565,9252.574275
1878.201902,76.609550,444.123565,9326.594869
1878.202219,0.000000,-0.000000,9252.574275
1878.202537,0.000000,-148.041188,9400.615463
1878.202854,-229.828649,444.123565,9252.574275
1878.203172,-153.219100,592.164754,9400.615463
1878.203489,0.000000,740.205942,9548.656652
1878.203806,76.609550,740.205942,9178.553681
1878.204124,459.657299,1258.350101,8956.491898
1878.204441,995.924147,1332.370696,8734.430116
1878.204759,1225.752797,1184.329507,8734.430116
1878.205076,1302.362347,1258.350101,8290.306550
1878.205394,995.924147,1036.288319,8216.285956
1878.205711,919.314598,888.247130,8512.368333
1878.206028,1225.752797,740.205942,8216.285956
1878.206346,1302.362347,518.144159,8586.388927
1878.206663,1072.533697,518.144159,8586.388927
1878.206981,766.095498,444.123565,8808.450710
1878.207298,612.876398,148.041188,8808.450710
1878.207616,153.219100,-0.000000,9326.594869
1878.207933,229.828649,-0.000000,9474.636058
1878.208250,-153.219100,-0.000000,9770.718434
1878.208568,0.000000,-148.041188,10066.800811
1878.208885,0.000000,-148.041188,10066.800811
1878.209203,153.219100,-0.000000,10214.842000
1878.209520,842.705048,370.102971,10140.821405
1878.209838,1149.143247,814.226536,9770.718434
1878.210155,1378.971896,962.267725,9474.636058
1878.210472,1838.629195,1258.350101,9178.553681
1878.210790,1455.581446,740.205942,9326.594869
1878.211107,1608.800546,518.144159,9178.553681
1878.211425,766.095498,296.082377,9474.636058
1878.211742,1378.971896,592.164754,9030.512492
1878.212060,1685.410096,444.123565,9326.594869
1878.212377,1225.752797,222.061783,9622.677246
1878.212694,689.485948,370.102971,9622.677246
1878.213012,612.876398,-74.020594,9696.697840
1878.213329,153.219100,-74.020594,9770.718434
1878.213647,-306.438199,-296.082377,10214.842000
1878.213964,-459.657299,-592.164754,10288.862594
1878.214282,-689.485948,-370.102971,10510.924376
1878.214599,-842.705048,-666.185348,10584.944971
1878.214916,-459.657299,-0.000000,10436.903782
1878.215234,-153.219100,148.041188,10066.800811
1878.215551,76.609550,444.123565,9844.739029
1878.215869,842.705048,518.144159,9622.677246
1878.216186,689.485948,444.123565,9400.615463
1878.216504,919.314598,222.061783,9326.594869
1878.216821,1149.143247,444.123565,9252.574275
1878.217139,1072.533697,592.164754,9104.533087
1878.217456,919.314598,296.082377,8882.471304
1878.217773,1608.800546,-0.000000,9326.594869
1878.218091,1762.019645,222.061783,9474.636058
1878.218408,1455.581446,74.020594,8956.491898
1878.218726,1762.019645,-0.000000,9400.615463
1878.219043,1762.019645,-148.041188,9474.636058
1878.219360,1378.971896,-444.123565,9400.615463
1878.219678,842.705048,-518.144159,9400.615463
1878.219995,995.924147,-296.082377,9474.636058
1878.220313,919.314598,-222.061783,9696.697840
1878.220630,1532.190996,-0.000000,10066.800811
1878.220947,1838.629195,296.082377,9918.759623
1878.221265,1455.581446,148.041188,9696.697840
1878.221582,1532.190996,592.164754,9400.615463
1878.221900,1838.629195,814.226536,8882.471304
1878.222217,2298.286494,-0.000000,9030.512492
1878.222534,1685.410096,444.123565,8586.388927
1878.222852,1225.752797,-0.000000,8734.430116
1878.223169,1225.752797,-0.000000,8956.491898
1878.223486,1072.533697,370.102971,8882.471304
1878.223804,842.705048,-518.144159,9104.533087
1878.224121,153.219100,-74.020594,8734.430116
1878.224439,-383.047749,-296.082377,9104.533087
1878.224756,-612.876398,-444.123565,9104.533087
1878.225073,-919.314598,-592.164754,9178.553681
1878.225391,-1072.533697,-444.123565,9400.615463
1878.225708,-1149.143247,-296.082377,9178.553681
1878.226026,-1072.533697,-222.061783,9400.615463
1878.226343,-1072.533697,-148.041188,9622.677246
1878.226660,-766.095498,-0.000000,9474.636058
1878.226978,-76.609550,592.164754,9696.697840
1878.227295,-153.219100,518.144159,9252.574275
1878.227612,0.000000,592.164754,9178.553681
1878.227930,0.000000,592.164754,8808.450710
1878.228247,383.047749,814.226536,8586.388927
1878.228565,612.876398,888.247130,8438.347739
1878.228882,842.705048,592.164754,8512.368333
1878.229199,1378.971896,518.144159,9104.533087
1878.229517,1149.143247,296.082377,9104.533087
1878.229834,919.314598,-0.000000,9474.636058
1878.230152,842.705048,-0.000000,9474.636058
1878.230469,766.095498,148.041188,9770.718434
1878.230786,766.095498,444.123565,9548.656652
1878.231104,612.876398,592.164754,9696.697840
1878.231421,689.485948,370.102971,9918.759623
1878.231738,1149.143247,518.144159,9844.739029
1878.232056,1532.190996,518.144159,9770.718434
1878.232373,1685.410096,740.205942,9770.718434
1878.232691,1915.238745,444.123565,9992.780217
1878.233008,1762.019645,740.205942,9622.677246
1878.233325,1762.019645,814.226536,9622.677246
1878.233643,1685.410096,1184.329507,9548.656652
1878.233960,1302.362347,814.226536,9326.594869
1878.234278,995.924147,814.226536,9252.574275
1878.234595,612.876398,592.164754,9474.636058
1878.234912,459.657299,444.123565,9622.677246
1878.235230,0.000000,296.082377,9474.636058
1878.235547,-536.266849,370.102971,9622.677246
1878.235864,-383.047749,148.041188,9696.697840
1878.236182,-1532.190996,-296.082377,10436.903782
1878.236499,-1991.848295,-222.061783,10584.944971
1878.236817,-1762.019645,-0.000000,10362.883188
1878.237134,-1685.410096,-0.000000,10658.965565
1878.237451,-766.095498,222.061783,10658.965565
1878.237769,-612.876398,740.205942,10362.883188
1878.238086,229.828649,888.247130,9844.739029
1878.238404,612.876398,1184.329507,9548.656652
1878.238721,919.314598,1406.391290,9104.533087
1878.239038,1455.581446,1110.308913,9178.553681
1878.239356,1455.581446,1110.308913,8882.471304
1878.239673,1532.190996,888.247130,8956.491898
1878.239991,2068.457845,888.247130,8882.471304
1878.240308,2068.457845,666.185348,8882.471304
1878.240625,1915.238745,888.247130,8956.491898
1878.240943,1991.848295,666.185348,9178.553681
1878.241260,1838.629195,518.144159,9104.533087
1878.241577,1838.629195,-0.000000,9178.553681
1878.241895,1455.581446,148.041188,9326.594869
1878.242212,1072.533697,-0.000000,9474.636058
1878.242530,995.924147,296.082377,9548.656652
1878.242847,1072.533697,222.061783,9622.677246
1878.243164,1225.752797,370.102971,9696.697840
1878.243482,1685.410096,444.123565,9918.759623
1878.243799,1378.971896,370.102971,9622.677246
1878.244117,1762.019645,-0.000000,9400.615463
1878.244434,1455.581446,-74.020594,9252.574275
1878.244751,1225.752797,-0.000000,9030.512492
1878.245069,1149.143247,-0.000000,8586.388927
1878.245386,689.485948,-0.000000,8586.388927
1878.245703,995.924147,-74.020594,8956.491898
1878.246021,842.705048,-296.082377,8808.450710
1878.246338,612.876398,-888.247130,9326.594869
1878.246656,306.438199,-592.164754,9326.594869
1878.246973,0.000000,-592.164754,9178.553681
1878.247290,-306.438199,-740.205942,9030.512492
1878.247608,-459.657299,-740.205942,9326.594869
1878.247925,-766.095498,-962.267725,9474.636058
1878.248243,-536.266849,-592.164754,9548.656652
1878.248560,-612.876398,-370.102971,9400.615463
1878.248877,0.000000,-444.123565,9474.636058
1878.249195,383.047749,-296.082377,9400.615463
1878.249512,153.219100,-148.041188,9326.594869
1878.249829,153.219100,-444.123565,9400.615463
1878.250147,383.047749,-0.000000,9474.636058
1878.250464,536.266849,-0.000000,9326.594869
1878.250782,1225.752797,296.082377,9400.615463
1878.251099,919.314598,-0.000000,9252.574275
1878.251416,1455.581446,-0.000000,9104.533087
1878.251734,1378.971896,-222.061783,9400.615463
1878.252051,1838.629195,-222.061783,9030.512492
1878.252369,2145.067394,-148.041188,9178.553681
1878.252686,1915.238745,-222.061783,9104.533087
1878.253003,1532.190996,-148.041188,9252.574275
1878.253321,1072.533697,-296.082377,9400.615463
1878.253638,1149.143247,-0.000000,9326.594869
1878.253955,1302.362347,-74.020594,9474.636058
1878.254273,919.314598,-0.000000,9622.677246
1878.254590,919.314598,-0.000000,9992.780217
1878.254908,1149.143247,222.061783,9918.759623
1878.255225,1455.581446,370.102971,9622.677246
1878.255542,1532.190996,740.205942,9474.636058
1878.255860,1685.410096,518.144159,9104.533087
1878.256177,1608.800546,370.102971,9104.533087
1878.256495,1378.971896,518.144159,9104.533087
1878.256812,1455.581446,296.082377,9252.574275
1878.257129,2068.457845,296.082377,9030.512492
1878.257447,1378.971896,444.123565,9548.656652
1878.257764,1455.581446,444.123565,9326.594869
1878.258082,1225.752797,370.102971,9326.594869
1878.258399,1149.143247,-0.000000,9252.574275
1878.258716,766.095498,-0.000000,9178.553681
1878.259034,536.266849,74.020594,9474.636058
1878.259351,76.609550,222.061783,9400.615463
1878.259668,0.000000,370.102971,9548.656652
1878.259986,76.609550,370.102971,9770.718434
1878.260303,76.609550,592.164754,9992.780217
1878.260621,153.219100,666.185348,9918.759623
1878.260938,459.657299,962.267725,9770.718434
1878.261255,612.876398,962.267725,9474.636058
1878.261573,842.705048,814.226536,9696.697840
1878.261890,689.485948,1184.329507,9474.636058
1878.262208,689.485948,814.226536,9326.594869
1878.262525,766.095498,888.247130,9104.533087
1878.262842,612.876398,1036.288319,9326.594869
1878.263160,1072.533697,518.144159,9622.677246
1878.263477,459.657299,296.082377,9622.677246
1878.263794,153.219100,296.082377,9474.636058
1878.264112,76.609550,-0.000000,9696.697840
1878.264429,0.000000,-0.000000,9918.759623
1878.264747,-459.657299,-148.041188,9696.697840
1878.265064,-306.438199,148.041188,9918.759623
1878.265381,-383.047749,-0.000000,9696.697840
1878.265699,229.828649,444.123565,9770.718434
1878.266016,689.485948,518.144159,9548.656652
1878.266334,995.924147,592.164754,9548.656652
1878.266651,1302.362347,444.123565,9326.594869
1878.266968,1149.143247,370.102971,9252.574275
1878.267286,1072.533697,370.102971,9104.533087
1878.267603,1838.629195,74.020594,9178.553681
1878.267920,1225.752797,444.123565,9326.594869
1878.268238,919.314598,592.164754,9178.553681
1878.268555,1302.362347,370.102971,9252.574275
1878.268873,1302.362347,296.082377,9178.553681
1878.269190,1455.581446,296.082377,9030.512492
1878.269507,1225.752797,370.102971,8956.491898
1878.269825,842.705048,-0.000000,9178.553681
1878.270142,842.705048,-0.000000,9252.574275
1878.270460,766.095498,-148.041188,9104.533087
1878.270777,766.095498,-148.041188,9326.594869
1878.271094,1225.752797,222.061783,9548.656652
1878.271412,1072.533697,74.020594,9696.697840
1878.271729,1608.800546,148.041188,9548.656652
1878.272046,2145.067394,148.041188,9252.574275
1878.272364,2528.115143,518.144159,9178.553681
1878.272681,2604.724693,740.205942,8734.430116
1878.272999,2681.334243,962.267725,8364.327145
1878.273316,2451.505594,666.185348,8364.327145
1878.273633,1991.848295,592.164754,8586.388927
1878.273951,1608.800546,296.082377,8734.430116
1878.274268,1302.362347,222.061783,9178.553681
1878.274586,766.095498,222.061783,9400.615463
1878.274903,612.876398,-0.000000,9474.636058
1878.275220,459.657299,-814.226536,9844.739029
1878.275538,-383.047749,-666.185348,9992.780217
1878.275855,-536.266849,-888.247130,9992.780217
1878.276173,-536.266849,-888.247130,10288.862594
1878.276490,-842.705048,-888.247130,10066.800811
1878.276807,-766.095498,-666.185348,10436.903782
1878.277125,-842.705048,-666.185348,10288.862594
1878.277442,0.000000,-296.082377,10362.883188
1878.277759,76.609550,-222.061783,10288.862594
1878.278077,766.095498,-0.000000,10140.821405
1878.278394,612.876398,-0.000000,9474.636058
1878.278712,612.876398,-0.000000,9474.636058
1878.279029,612.876398,-0.000000,8882.471304
1878.279346,842.705048,-0.000000,8956.491898
1878.279664,842.705048,148.041188,8956.491898
1878.279981,995.924147,-0.000000,8882.471304
1878.280299,1072.533697,-148.041188,9326.594869
1878.280616,842.705048,-148.041188,9474.636058
1878.280933,459.657299,-296.082377,9474.636058
1878.281251,76.609550,-370.102971,9770.718434
1878.281568,0.000000,-370.102971,9622.677246
1878.281885,-153.219100,370.102971,9474.636058
1878.282203,0.000000,814.226536,9400.615463
1878.282520,306.438199,592.164754,9474.636058
1878.282838,1225.752797,666.185348,9326.594869
1878.283155,1685.410096,592.164754,9252.574275
1878.283472,1838.629195,740.205942,9178.553681
1878.283790,2068.457845,1036.288319,9104.533087
1878.284107,1838.629195,962.267725,8660.409521
1878.284425,1991.848295,1036.288319,8734.430116
1878.284742,1915.238745,1480.411884,8142.265362
1878.285059,1915.238745,1258.350101,8512.368333
1878.285377,1915.238745,1258.350101,8290.306550
1878.285694,1225.752797,1036.288319,8882.471304
1878.286011,1608.800546,666.185348,8882.471304
1878.286329,1225.752797,666.185348,8882.471304
1878.286646,766.095498,296.082377,9104.533087
1878.286964,306.438199,-0.000000,9326.594869
1878.287281,76.609550,-148.041188,9622.677246
1878.287598,-689.485948,-0.000000,9696.697840
1878.287916,-689.485948,222.061783,9992.780217
1878.288233,-229.828649,296.082377,9844.739029
1878.288551,-153.219100,592.164754,10214.842000
1878.288868,153.219100,518.144159,9696.697840
1878.289185,0.000000,370.102971,10066.800811
1878.289503,153.219100,370.102971,9474.636058
1878.289820,536.266849,296.082377,9474.636058
1878.290137,153.219100,-0.000000,9622.677246
1878.290455,306.438199,-74.020594,9474.636058
1878.290772,306.438199,-370.102971,9696.697840
1878.291090,153.219100,-296.082377,10066.800811
1878.291407,383.047749,-74.020594,9918.759623
1878.291724,229.828649,-222.061783,9992.780217
1878.292042,306.438199,-444.123565,9696.697840
1878.292359,76.609550,-296.082377,9992.780217
1878.292677,229.828649,-0.000000,10140.821405
1878.292994,153.219100,-0.000000,9770.718434
1878.293311,459.657299,-0.000000,9918.759623
1878.293629,383.047749,592.164754,9474.636058
1878.293946,995.924147,370.102971,9992.780217
1878.294263,1455.581446,592.164754,9622.677246
1878.294581,1991.848295,888.247130,9474.636058
1878.294898,2451.505594,740.205942,9252.574275
1878.295216,2298.286494,1036.288319,8882.471304
1878.295533,2374.896044,888.247130,8882.471304
1878.295850,1991.848295,666.185348,8734.430116
1878.296168,2221.676944,814.226536,8734.430116
1878.296485,1608.800546,518.144159,8808.450710
1878.296803,995.924147,296.082377,9178.553681
1878.297120,919.314598,148.041188,8956.491898
1878.297437,766.095498,444.123565,9326.594869
1878.297755,995.924147,370.102971,9326.594869
1878.298072,842.705048,222.061783,9548.656652
1878.298390,459.657299,-0.000000,9030.512492
1878.298707,229.828649,148.041188,9326.594869
1878.299024,153.219100,-0.000000,9326.594869
1878.299342,153.219100,148.041188,9252.574275
1878.299659,229.828649,-0.000000,9474.636058
1878.299976,383.047749,148.041188,9400.615463
1878.300294,995.924147,444.123565,9474.636058
1878.300611,1378.971896,444.123565,9104.533087
1878.300929,1072.533697,370.102971,8882.471304
1878.301246,919.314598,-0.000000,9178.553681
1878.301563,689.485948,-148.041188,9030.512492
1878.301881,536.266849,-0.000000,9104.533087
1878.302198,536.266849,-0.000000,9326.594869
1878.302516,153.219100,-0.000000,9474.636058
1878.302833,229.828649,-0.000000,9622.677246
1878.303150,76.609550,-0.000000,9548.656652
1878.303468,229.828649,222.061783,9400.615463
1878.303785,0.000000,-74.020594,9622.677246
1878.304102,229.828649,-0.000000,9474.636058
1878.304420,0.000000,-148.041188,10066.800811
1878.304737,-306.438199,148.041188,9696.697840
1878.305055,-153.219100,222.061783,9622.677246
1878.305372,153.219100,370.102971,9770.718434
1878.305689,459.657299,518.144159,9696.697840
1878.306007,766.095498,592.164754,9474.636058
1878.306324,459.657299,444.123565,9622.677246
1878.306642,536.266849,518.144159,9400.615463
1878.306959,459.657299,296.082377,9400.615463
1878.307276,76.609550,222.061783,9252.574275
1878.307594,229.828649,-0.000000,9326.594869
1878.307911,153.219100,-0.000000,9178.553681
1878.308228,536.266849,222.061783,9474.636058
1878.308546,459.657299,222.061783,9400.615463
1878.308863,612.876398,222.061783,9696.697840
1878.309181,153.219100,-0.000000,9548.656652
1878.309498,459.657299,-0.000000,9622.677246
1878.309815,229.828649,-148.041188,9622.677246
1878.310133,766.095498,-370.102971,9548.656652
1878.310450,459.657299,222.061783,9548.656652
1878.310768,995.924147,-0.000000,9770.718434
1878.311085,1532.190996,370.102971,9918.759623
1878.311402,1991.848295,518.144159,9770.718434
1878.311720,2451.505594,666.185348,9474.636058
1878.312037,2451.505594,666.185348,9252.574275
1878.312354,2834.553343,740.205942,8734.430116
1878.312672,2374.896044,444.123565,8660.409521
1878.312989,2528.115143,-0.000000,9178.553681
1878.313307,2221.676944,370.102971,8882.471304
1878.313624,2451.505594,222.061783,9252.574275
1878.313941,2068.457845,-0.000000,9474.636058
1878.314259,2068.457845,-148.041188,9548.656652
1878.314576,1378.971896,-370.102971,9474.636058
1878.314894,1072.533697,-444.123565,9548.656652
1878.315211,995.924147,-222.061783,9622.677246
1878.315528,689.485948,-296.082377,9474.636058
1878.315846,0.000000,-0.000000,9918.759623
1878.316163,-383.047749,-0.000000,10066.800811
1878.316481,0.000000,-0.000000,9548.656652
1878.316798,0.000000,222.061783,9992.780217
1878.317115,153.219100,444.123565,9992.780217
1878.317433,306.438199,296.082377,9696.697840
1878.317750,153.219100,518.144159,9104.533087
1878.318067,76.609550,222.061783,8956.491898
1878.318385,229.828649,370.102971,8808.450710
1878.318702,76.609550,518.144159,8438.347739
1878.319020,0.000000,444.123565,8586.388927
1878.319337,0.000000,-0.000000,8438.347739
1878.319654,-306.438199,-0.000000,8808.450710
1878.319972,-459.657299,-0.000000,9030.512492
1878.320289,-919.314598,-0.000000,9326.594869
1878.320607,-919.314598,148.041188,9474.636058
1878.320924,-1225.752797,-222.061783,9400.615463
1878.321241,-1378.971896,-148.041188,9622.677246
1878.321559,-1302.362347,-222.061783,9696.697840
1878.321876,-995.924147,-0.000000,9548.656652
1878.322194,-306.438199,296.082377,9844.739029
1878.322511,689.485948,518.144159,9474.636058
1878.322828,1072.533697,740.205942,9696.697840
1878.323146,1225.752797,740.205942,9326.594869
1878.323463,1838.629195,1110.308913,9252.574275
1878.323781,1991.848295,888.247130,8956.491898
1878.324098,2221.676944,1110.308913,8660.409521
1878.324415,2528.115143,962.267725,8660.409521
1878.324733,2451.505594,814.226536,8808.450710
1878.325050,2757.943793,518.144159,8882.471304
1878.325368,2681.334243,592.164754,8956.491898
1878.325685,2374.896044,592.164754,9252.574275
1878.326002,1762.019645,666.185348,9326.594869
1878.326320,1378.971896,296.082377,9474.636058
1878.326637,842.705048,-0.000000,9992.780217
1878.326954,536.266849,-74.020594,9918.759623
1878.327272,306.438199,-0.000000,10214.842000
1878.327589,306.438199,-0.000000,10362.883188
1878.327907,689.485948,-0.000000,10510.924376
1878.328224,919.314598,-0.000000,10881.027347
1878.328541,536.266849,-0.000000,10436.903782
1878.328859,1149.143247,518.144159,9918.759623
1878.329176,1225.752797,666.185348,9400.615463
1878.329494,1302.362347,888.247130,9400.615463
1878.329811,1378.971896,740.205942,9104.533087
1878.330128,1072.533697,814.226536,9030.512492
1878.330446,842.705048,518.144159,9030.512492
1878.330763,459.657299,-0.000000,9178.553681
1878.331081,306.438199,-74.020594,9474.636058
1878.331398,153.219100,-740.205942,9622.677246
1878.331715,-229.828649,-148.041188,9918.759623
1878.332033,-459.657299,-296.082377,9770.718434
1878.332350,-306.438199,-592.164754,9992.780217
1878.332668,-459.657299,-370.102971,9992.780217
1878.332985,-229.828649,-592.164754,9992.780217
1878.333302,0.000000,-592.164754,10362.883188
1878.333620,306.438199,-444.123565,10288.862594
1878.333937,689.485948,-0.000000,9992.780217
1878.334255,919.314598,222.061783,9918.759623
1878.334572,1685.410096,296.082377,9844.739029
1878.334889,1915.238745,444.123565,9474.636058
1878.335207,2145.067394,222.061783,9104.533087
1878.335524,1915.238745,148.041188,8882.471304
1878.335842,2374.896044,222.061783,8956.491898
1878.336159,2145.067394,-148.041188,8586.388927
1878.336476,1991.848295,-444.123565,8808.450710
1878.336794,1991.848295,-370.102971,9326.594869
1878.337111,1532.190996,-518.144159,9178.553681
1878.337428,1455.581446,-814.226536,9252.574275
1878.337746,919.314598,-814.226536,9178.553681
1878.338063,612.876398,-888.247130,9622.677246
1878.338381,383.047749,-518.144159,9400.615463
1878.338698,766.095498,-592.164754,9474.636058
1878.339015,306.438199,-74.020594,9548.656652
1878.339333,1149.143247,296.082377,9400.615463
1878.339650,1455.581446,222.061783,8956.491898
1878.339968,1685.410096,148.041188,8734.430116
1878.340285,1685.410096,518.144159,8438.347739
1878.340602,919.314598,296.082377,8512.368333
1878.340920,1838.629195,740.205942,8216.285956
1878.341237,1149.143247,888.247130,8142.265362
1878.341555,995.924147,370.102971,7846.182985
1878.341872,766.095498,518.144159,8216.285956
1878.342189,536.266849,444.123565,8290.306550
1878.342507,383.047749,222.061783,8512.368333
1878.342824,0.000000,296.082377,8660.409521
1878.343142,-459.657299,74.020594,9178.553681
1878.343459,-842.705048,-74.020594,9474.636058
1878.343776,-1455.581446,-518.144159,9696.697840
1878.344094,-1455.581446,-0.000000,9770.718434
1878.344411,-1455.581446,-0.000000,9770.718434
1878.344729,-1225.752797,444.123565,10066.800811
1878.345046,-459.657299,148.041188,10288.862594
1878.345363,-383.047749,666.185348,9918.759623
1878.345681,229.828649,814.226536,9622.677246
1878.345998,536.266849,666.185348,9696.697840
1878.346316,995.924147,370.102971,9252.574275
1878.346633,919.314598,814.226536,9178.553681
1878.346950,1072.533697,888.247130,8956.491898
1878.347268,919.314598,1036.288319,9326.594869
1878.347585,1072.533697,740.205942,9400.615463
1878.347902,842.705048,370.102971,10140.821405
1878.348220,536.266849,370.102971,10066.800811
1878.348537,306.438199,370.102971,10436.903782
1878.348855,229.828649,296.082377,10362.883188
1878.349172,229.828649,222.061783,10436.903782
1878.349489,153.219100,518.144159,10510.924376
1878.349807,0.000000,666.185348,10362.883188
1878.350124,229.828649,1110.308913,10436.903782
1878.350442,766.095498,1110.308913,10362.883188
1878.350759,1378.971896,1480.411884,10288.862594
1878.351076,1225.752797,1110.308913,10140.821405
1878.351394,1991.848295,1628.453072,10066.800811
1878.351711,2221.676944,1406.391290,9770.718434
1878.352029,2374.896044,1480.411884,9252.574275
1878.352346,2528.115143,1258.350101,8956.491898
1878.352663,2451.505594,1258.350101,8956.491898
1878.352981,2451.505594,1258.350101,9030.512492
1878.353298,2374.896044,888.247130,8956.491898
1878.353616,2604.724693,814.226536,9326.594869
1878.353933,2298.286494,592.164754,9104.533087
1878.354250,1608.800546,592.164754,9326.594869
1878.354568,1378.971896,-0.000000,9474.636058
1878.354885,842.705048,-296.082377,9548.656652
1878.355203,153.219100,-592.164754,9696.697840
1878.355520,459.657299,-370.102971,9844.739029
1878.355837,306.438199,-296.082377,9918.759623
1878.356155,306.438199,-370.102971,10214.842000
1878.356472,536.266849,-0.000000,9844.739029
1878.356790,842.705048,-0.000000,9696.697840
1878.357107,1378.971896,-0.000000,9474.636058
1878.357424,612.876398,-74.020594,9030.512492
1878.357742,995.924147,-444.123565,9252.574275
1878.358059,536.266849,-444.123565,9178.553681
1878.358376,383.047749,-888.247130,9622.677246
1878.358694,306.438199,-592.164754,9474.636058
1878.359011,229.828649,-666.185348,9252.574275
1878.359329,76.609550,-1184.329507,9474.636058
1878.359646,76.609550,-962.267725,9474.636058
1878.359963,0.000000,-592.164754,9622.677246
1878.360281,76.609550,-888.247130,9178.553681
1878.360598,0.000000,-1036.288319,9400.615463
1878.360916,-229.828649,-740.205942,9474.636058
1878.361233,0.000000,-740.205942,9326.594869
1878.361550,459.657299,-74.020594,9178.553681
1878.361868,995.924147,-74.020594,9104.533087
1878.362185,1302.362347,296.082377,9104.533087
1878.362503,1532.190996,296.082377,8586.388927
1878.362820,2068.457845,592.164754,8882.471304
1878.363137,2298.286494,370.102971,8438.347739
1878.363455,2145.067394,222.061783,8068.244768
1878.363772,2145.067394,592.164754,7994.224174
1878.364090,1762.019645,370.102971,7994.224174
1878.364407,1072.533697,-0.000000,8216.285956
1878.364724,1302.362347,-222.061783,8438.347739
1878.365042,1072.533697,-518.144159,8660.409521
1878.365359,1072.533697,-148.041188,8956.491898
1878.365677,766.095498,-74.020594,8956.491898
1878.365994,459.657299,-444.123565,9474.636058
1878.366311,76.609550,-518.144159,9474.636058
1878.366629,306.438199,-148.041188,9326.594869
1878.366946,306.438199,-74.020594,9474.636058
1878.367264,689.485948,-74.020594,9548.656652
1878.367581,612.876398,-148.041188,9622.677246
1878.367898,842.705048,222.061783,9622.677246
1878.368216,1302.362347,370.102971,9696.697840
1878.368533,1302.362347,666.185348,9474.636058
1878.368850,1302.362347,592.164754,9548.656652
1878.369168,1149.143247,518.144159,9326.594869
1878.369485,1072.533697,666.185348,9104.533087
1878.369803,689.485948,148.041188,9326.594869
1878.370120,919.314598,370.102971,9400.615463
1878.370437,919.314598,444.123565,9918.759623
1878.370755,766.095498,222.061783,9992.780217
1878.371072,229.828649,518.144159,9992.780217
1878.371390,0.000000,518.144159,10214.842000
1878.371707,-383.047749,296.082377,10362.883188
1878.372024,-842.705048,444.123565,10510.924376
1878.372342,-689.485948,814.226536,10510.924376
1878.372659,-612.876398,962.267725,10066.800811
1878.372977,-383.047749,1036.288319,10288.862594
1878.373294,76.609550,888.247130,10288.862594
1878.373611,459.657299,1554.432478,10140.821405
1878.373929,689.485948,1628.453072,9696.697840
1878.374246,612.876398,1850.514855,9696.697840
1878.374564,919.314598,1776.494261,9548.656652
1878.374881,919.314598,1628.453072,9326.594869
1878.375198,689.485948,1702.473667,9326.594869
1878.375516,689.485948,1702.473667,9178.553681
1878.375833,766.095498,1406.391290,9178.553681
1878.376151,536.266849,1110.308913,9178.553681
1878.376468,536.266849,1258.350101,9474.636058
1878.376785,76.609550,1036.288319,9770.718434
1878.377103,0.000000,888.247130,9622.677246
1878.377420,-229.828649,518.144159,9918.759623
1878.377738,0.000000,296.082377,10288.862594
1878.378055,-306.438199,370.102971,10288.862594
1878.378372,-383.047749,444.123565,10066.800811
1878.378690,-76.609550,444.123565,10066.800811
1878.379007,689.485948,444.123565,9918.759623
1878.379324,689.485948,740.205942,9696.697840
1878.379642,1532.190996,740.205942,9548.656652
1878.379959,2068.457845,962.267725,9178.553681
1878.380277,2145.067394,962.267725,8956.491898
1878.380594,2298.286494,444.123565,8808.450710
1878.380911,2528.115143,148.041188,8882.471304
1878.381229,1991.848295,222.061783,9030.512492
1878.381546,1838.629195,-74.020594,9178.553681
1878.381864,1685.410096,-0.000000,9104.533087
1878.382181,1608.800546,-0.000000,9178.553681
1878.382498,1378.971896,-74.020594,9474.636058
1878.382816,1149.143247,-148.041188,9252.574275
1878.383133,383.047749,-592.164754,9474.636058
1878.383451,0.000000,-592.164754,9474.636058
1878.383768,76.609550,-444.123565,9622.677246
1878.384085,306.438199,-222.061783,9474.636058
1878.384403,153.219100,-518.144159,9696.697840
1878.384720,689.485948,-148.041188,9770.718434
1878.385038,842.705048,-74.020594,9474.636058
1878.385355,1225.752797,-222.061783,9178.553681
1878.385672,1991.848295,-74.020594,9400.615463
1878.385990,1225.752797,-0.000000,9178.553681
1878.386307,1608.800546,-74.020594,8364.327145
1878.386625,689.485948,-518.144159,8142.265362
1878.386942,1072.533697,-444.123565,8290.306550
1878.387259,689.485948,-888.247130,8586.388927
1878.387577,612.876398,-666.185348,8808.450710
1878.387894,459.657299,-814.226536,8882.471304
1878.388212,76.609550,-1036.288319,9104.533087
1878.388529,0.000000,-962.267725,9474.636058
1878.388846,0.000000,-1110.308913,9474.636058
1878.389164,-229.828649,-1258.350101,9474.636058
1878.389481,-383.047749,-1184.329507,9770.718434
1878.389798,-306.438199,-962.267725,9548.656652
1878.390116,229.828649,-888.247130,9918.759623
1878.390433,689.485948,-518.144159,9770.718434
1878.390751,995.924147,-444.123565,9622.677246
1878.391068,1455.581446,-74.020594,9474.636058
1878.391385,1685.410096,-222.061783,9326.594869
1878.391703,1608.800546,-0.000000,9326.594869
1878.392020,1685.410096,-0.000000,8882.471304
1878.392338,1685.410096,-0.000000,8660.409521
1878.392655,1685.410096,148.041188,8586.388927
1878.392972,1532.190996,370.102971,8808.450710
1878.393290,1685.410096,222.061783,9178.553681
1878.393607,1608.800546,-0.000000,9030.512492
1878.393925,1072.533697,-0.000000,9252.574275
1878.394242,612.876398,-74.020594,9400.615463
1878.394559,0.000000,-222.061783,9696.697840
1878.394877,153.219100,-74.020594,9770.718434
1878.395194,229.828649,296.082377,9770.718434
1878.395512,459.657299,814.226536,9770.718434
1878.395829,612.876398,962.267725,9622.677246
1878.396146,1149.143247,888.247130,9696.697840
1878.396464,1072.533697,1110.308913,9252.574275
1878.396781,1455.581446,1036.288319,9252.574275
1878.397099,1378.971896,1258.350101,9178.553681
1878.397416,1378.971896,1184.329507,9030.512492
1878.397733,1378.971896,1184.329507,8956.491898
1878.398051,1378.971896,1036.288319,8808.450710
1878.398368,1149.143247,888.247130,9030.512492
1878.398686,1072.533697,1110.308913,9104.533087
1878.399003,689.485948,444.123565,9474.636058
1878.399320,766.095498,148.041188,9474.636058
1878.399638,0.000000,370.102971,9622.677246
1878.399955,-153.219100,370.102971,9992.780217
1878.400272,-459.657299,148.041188,10288.862594
1878.400590,-612.876398,222.061783,10362.883188
1878.400907,-766.095498,296.082377,10436.903782
1878.401225,-689.485948,666.185348,10510.924376
1878.401542,76.609550,814.226536,10288.862594
1878.401859,229.828649,1036.288319,10140.821405
1878.402177,383.047749,740.205942,9992.780217
1878.402494,919.314598,1036.288319,9844.739029
1878.402812,919.314598,740.205942,9474.636058
1878.403129,995.924147,740.205942,9178.553681
1878.403446,766.095498,444.123565,9252.574275
1878.403764,842.705048,592.164754,9400.615463
1878.404081,766.095498,740.205942,9178.553681
1878.404399,536.266849,296.082377,9400.615463
1878.404716,383.047749,-0.000000,9326.594869
1878.405033,383.047749,-370.102971,9400.615463
1878.405351,153.219100,-0.000000,9400.615463
1878.405668,-153.219100,-148.041188,9474.636058
1878.405986,-306.438199,-74.020594,9474.636058
1878.406303,-459.657299,-0.000000,9696.697840
1878.406620,0.000000,222.061783,9622.677246
1878.406938,76.609550,666.185348,9622.677246
1878.407255,459.657299,740.205942,9474.636058
1878.407573,689.485948,814.226536,9326.594869
1878.407890,1378.971896,666.185348,9326.594869
1878.408207,1532.190996,518.144159,9178.553681
1878.408525,2068.457845,814.226536,8734.430116
1878.408842,1991.848295,666.185348,8956.491898
1878.409160,2068.457845,888.247130,8364.327145
1878.409477,1838.629195,666.185348,8586.388927
1878.409794,2221.676944,518.144159,8512.368333
1878.410112,2145.067394,518.144159,8586.388927
1878.410429,1915.238745,222.061783,9030.512492
1878.410746,1685.410096,148.041188,9326.594869
1878.411064,1991.848295,-148.041188,9252.574275
1878.411381,1455.581446,74.020594,9622.677246
1878.411699,1532.190996,-222.061783,9400.615463
1878.412016,919.314598,-370.102971,9548.656652
1878.412333,919.314598,-222.061783,9696.697840
1878.412651,1149.143247,-370.102971,10214.842000
1878.412968,1072.533697,-74.020594,10362.883188
1878.413286,1149.143247,-0.000000,10140.821405
1878.413603,1302.362347,222.061783,9992.780217
1878.413920,1225.752797,148.041188,9770.718434
1878.414238,919.314598,148.041188,9622.677246
1878.414555,1302.362347,-0.000000,9622.677246
1878.414873,689.485948,-222.061783,9326.594869
1878.415190,1072.533697,-592.164754,9326.594869
1878.415507,842.705048,-518.144159,9474.636058
1878.415825,842.705048,-962.267725,9696.697840
1878.416142,229.828649,-814.226536,9770.718434
1878.416460,0.000000,-1036.288319,9622.677246
1878.416777,-229.828649,-888.247130,9696.697840
1878.417094,-459.657299,-1110.308913,9770.718434
1878.417412,-536.266849,-1258.350101,10288.862594
1878.417729,-1072.533697,-962.267725,10066.800811
1878.418047,-689.485948,-518.144159,9918.759623
1878.418364,-229.828649,-370.102971,9918.759623
1878.418681,459.657299,-0.000000,9918.759623
1878.418999,842.705048,-0.000000,9622.677246
1878.419316,1072.533697,518.144159,9252.574275
1878.419634,1302.362347,518.144159,8882.471304
1878.419951,1608.800546,666.185348,8882.471304
1878.420268,1991.848295,518.144159,8586.388927
1878.420586,1991.848295,814.226536,8142.265362
1878.420903,1762.019645,592.164754,8438.347739
1878.421220,1991.848295,370.102971,8364.327145
1878.421538,1838.629195,444.123565,8364.327145
1878.421855,1455.581446,518.144159,8882.471304
1878.422173,1455.581446,592.164754,8808.450710
1878.422490,1149.143247,296.082377,8808.450710
1878.422807,842.705048,-0.000000,9326.594869
1878.423125,689.485948,-0.000000,9474.636058
1878.423442,383.047749,-0.000000,9696.697840
1878.423760,459.657299,-0.000000,9326.594869
1878.424077,1149.143247,370.102971,9548.656652
1878.424394,1072.533697,666.185348,9474.636058
1878.424712,1225.752797,888.247130,9474.636058
1878.425029,1302.362347,814.226536,9178.553681
1878.425347,1532.190996,1036.288319,8734.430116
1878.425664,1378.971896,888.247130,8808.450710
1878.425981,995.924147,666.185348,8882.471304
1878.426299,612.876398,74.020594,9178.553681
1878.426616,383.047749,-74.020594,9178.553681
1878.426934,76.609550,-0.000000,9326.594869
1878.427251,0.000000,-0.000000,9548.656652
1878.427568,0.000000,-0.000000,9622.677246
1878.427886,-383.047749,-0.000000,9770.718434
1878.428203,-536.266849,-222.061783,10140.821405
1878.428520,-689.485948,-222.061783,10214.842000
1878.428838,-459.657299,-148.041188,9992.780217
1878.429155,-229.828649,-0.000000,9844.739029
1878.429473,-229.828649,-0.000000,10436.903782
1878.429790,383.047749,296.082377,9992.780217
1878.430107,612.876398,740.205942,9622.677246
1878.430425,1378.971896,962.267725,9622.677246
1878.430742,1608.800546,1184.329507,9474.636058
1878.431060,1915.238745,962.267725,9400.615463
1878.431377,1838.629195,1036.288319,9104.533087
1878.431694,1532.190996,888.247130,8956.491898
1878.432012,1302.362347,740.205942,9030.512492
1878.432329,1302.362347,814.226536,9252.574275
1878.432647,1532.190996,-0.000000,9474.636058
1878.432964,1378.971896,148.041188,9622.677246
1878.433281,612.876398,-0.000000,9918.759623
1878.433599,459.657299,-0.000000,9918.759623
1878.433916,459.657299,-0.000000,9770.718434
1878.434234,229.828649,-0.000000,9918.759623
1878.434551,0.000000,148.041188,9844.739029
1878.434868,76.609550,222.061783,9918.759623
1878.435186,0.000000,222.061783,9548.656652
1878.435503,-1149.143247,592.164754,8364.327145
1878.435820,383.047749,-740.205942,10732.986159
1878.436138,-383.047749,-222.061783,10288.862594
1878.436455,-383.047749,-0.000000,10362.883188
1878.436773,-1302.362347,-1110.308913,8808.450710
1878.437090,-153.219100,-222.061783,10510.924376
1878.437407,-689.485948,-1258.350101,10658.965565
1878.437725,-1455.581446,-518.144159,9548.656652
1878.438042,0.000000,-148.041188,10362.883188
1878.438360,-612.876398,518.144159,9178.553681
1878.438677,1838.629195,-74.020594,10584.944971
1878.438994,689.485948,592.164754,8438.347739
1878.439312,1838.629195,148.041188,9844.739029
1878.439629,1685.410096,296.082377,9030.512492
1878.439947,2451.505594,-370.102971,8734.430116
1878.440264,2757.943793,148.041188,8660.409521
1878.440581,2528.115143,962.267725,8734.430116
1878.440899,2681.334243,1110.308913,8586.388927
1878.441216,2834.553343,1110.308913,8438.347739
1878.441534,3753.867940,-0.000000,9548.656652
1878.441851,2987.772442,2516.700203,6957.935855
1878.442168,3294.210641,1924.535449,9030.512492
1878.442486,2834.553343,666.185348,9400.615463
1878.442803,2528.115143,-0.000000,7550.100608
1878.443120,2068.457845,1554.432478,7550.100608
1878.443438,1455.581446,962.267725,9474.636058
1878.443755,1608.800546,296.082377,8882.471304
1878.444073,1378.971896,740.205942,7920.203579
1878.444390,689.485948,740.205942,9474.636058
1878.444707,153.219100,222.061783,9252.574275
1878.445025,0.000000,-296.082377,9178.553681
1878.445342,-612.876398,-518.144159,9770.718434
1878.445660,-536.266849,-0.000000,9844.739029
1878.445977,-1149.143247,370.102971,9104.533087
1878.446294,-1225.752797,-0.000000,9548.656652
1878.446612,-995.924147,-296.082377,10140.821405
1878.446929,-995.924147,444.123565,9252.574275
1878.447247,-612.876398,666.185348,9696.697840
1878.447564,0.000000,-0.000000,10066.800811
1878.447881,-153.219100,-370.102971,9474.636058
1878.448199,-229.828649,296.082377,9104.533087
1878.448516,-306.438199,592.164754,9474.636058
1878.448834,-229.828649,-962.267725,9918.759623
1878.449151,0.000000,-1184.329507,9696.697840
1878.449468,383.047749,-148.041188,9474.636058
1878.449786,153.219100,-74.020594,10436.903782
1878.450103,612.876398,-814.226536,10732.986159
1878.450420,766.095498,-518.144159,9622.677246
1878.450738,689.485948,518.144159,9770.718434
1878.451055,306.438199,444.123565,10066.800811
1878.451373,306.438199,-0.000000,9992.780217
1878.451690,842.705048,592.164754,9622.677246
1878.452007,1532.190996,888.247130,9696.697840
1878.452325,1225.752797,740.205942,10288.862594
1878.452642,1378.971896,-0.000000,9770.718434
1878.452960,1991.848295,-0.000000,9622.677246
1878.453277,2298.286494,-0.000000,9992.780217
1878.453594,2451.505594,444.123565,9918.759623
1878.453912,2221.676944,370.102971,8956.491898
1878.454229,2451.505594,296.082377,9030.512492
1878.454547,2145.067394,592.164754,9474.636058
1878.454864,1915.238745,888.247130,9252.574275
1878.455181,2298.286494,814.226536,8882.471304
1878.455499,1991.848295,444.123565,8808.450710
1878.455816,2068.457845,666.185348,8882.471304
1878.456134,1378.971896,296.082377,8882.471304
1878.456451,1532.190996,-74.020594,8882.471304
1878.456768,1072.533697,-814.226536,9030.512492
1878.457086,383.047749,-296.082377,9030.512492
1878.457403,229.828649,-0.000000,8882.471304
1878.457720,76.609550,-444.123565,9400.615463
1878.458038,76.609550,-740.205942,10066.800811
1878.458355,-153.219100,-296.082377,9696.697840
1878.458673,-383.047749,296.082377,9622.677246
1878.458990,76.609550,370.102971,9548.656652
1878.459307,0.000000,-0.000000,9918.759623
1878.459625,0.000000,-0.000000,9770.718434
1878.459942,383.047749,592.164754,9400.615463
1878.460260,612.876398,296.082377,9030.512492
1878.460577,919.314598,370.102971,9252.574275
1878.460894,1378.971896,444.123565,8734.430116
1878.461212,1302.362347,518.144159,8586.388927
1878.461529,1608.800546,666.185348,8882.471304
1878.461847,919.314598,-0.000000,8734.430116
1878.462164,536.266849,-74.020594,8660.409521
1878.462481,612.876398,-0.000000,9030.512492
1878.462799,153.219100,-148.041188,9400.615463
1878.463116,-153.219100,-444.123565,9474.636058
1878.463434,0.000000,-0.000000,9400.615463
1878.463751,76.609550,148.041188,9696.697840
1878.464068,153.219100,-0.000000,9844.739029
1878.464386,612.876398,592.164754,9622.677246
1878.464703,0.000000,444.123565,9992.780217
1878.465020,612.876398,740.205942,10066.800811
1878.465338,306.438199,518.144159,9696.697840
1878.465655,689.485948,666.185348,9474.636058
1878.465973,536.266849,518.144159,9252.574275
1878.466290,689.485948,666.185348,9400.615463
1878.466607,689.485948,888.247130,8956.491898
1878.466925,919.314598,666.185348,8734.430116
1878.467242,1149.143247,444.123565,9030.512492
1878.467560,1455.581446,444.123565,9104.533087
1878.467877,766.095498,222.061783,9104.533087
1878.468194,0.000000,-74.020594,9326.594869
1878.468512,-229.828649,-0.000000,9326.594869
1878.468829,0.000000,-0.000000,9918.759623
1878.469147,-229.828649,-0.000000,10214.842000
1878.469464,0.000000,148.041188,10214.842000
1878.469781,229.828649,370.102971,10288.862594
1878.470099,612.876398,444.123565,10066.800811
1878.470416,1149.143247,370.102971,9770.718434
1878.470734,1149.143247,1036.288319,9918.759623
1878.471051,1225.752797,888.247130,9548.656652
1878.471368,1225.752797,814.226536,9622.677246
1878.471686,1762.019645,1036.288319,9474.636058
1878.472003,2068.457845,814.226536,9252.574275
1878.472320,1991.848295,1036.288319,9178.553681
1878.472638,1455.581446,666.185348,9178.553681
1878.472955,1532.190996,740.205942,9178.553681
1878.473273,1378.971896,740.205942,8956.491898
1878.473590,1149.143247,296.082377,9400.615463
1878.473907,842.705048,-0.000000,9770.718434
1878.474225,459.657299,296.082377,9548.656652
1878.474542,383.047749,-0.000000,9696.697840
1878.474860,689.485948,-0.000000,10066.800811
1878.475177,459.657299,-0.000000,10066.800811
1878.475494,612.876398,-0.000000,9992.780217
1878.475812,842.705048,296.082377,9622.677246
1878.476129,995.924147,370.102971,9326.594869
1878.476447,1149.143247,370.102971,9474.636058
1878.476764,1072.533697,592.164754,9326.594869
1878.477081,766.095498,222.061783,9030.512492
1878.477399,1149.143247,370.102971,9030.512492
1878.477716,1072.533697,148.041188,9030.512492
1878.478034,1072.533697,222.061783,9252.574275
1878.478351,1072.533697,222.061783,8882.471304
1878.478668,766.095498,-0.000000,9104.533087
1878.478986,459.657299,-74.020594,9178.553681
1878.479303,-153.219100,-518.144159,9474.636058
1878.479620,-153.219100,-0.000000,9326.594869
1878.479938,-536.266849,-296.082377,9400.615463
1878.480255,-383.047749,-296.082377,9696.697840
1878.480573,-153.219100,-222.061783,9622.677246
1878.480890,-766.095498,-0.000000,9474.636058
1878.481207,76.609550,-0.000000,9474.636058
1878.481525,612.876398,296.082377,9252.574275
1878.481842,689.485948,-0.000000,9326.594869
1878.482160,689.485948,-0.000000,9104.533087
1878.482477,995.924147,-0.000000,8882.471304
1878.482794,612.876398,148.041188,8956.491898
1878.483112,766.095498,-74.020594,8882.471304
1878.483429,689.485948,148.041188,8956.491898
1878.483747,689.485948,296.082377,9326.594869
1878.484064,536.266849,-0.000000,9030.512492
1878.484381,689.485948,-0.000000,9252.574275
1878.484699,536.266849,-74.020594,9252.574275
1878.485016,153.219100,-222.061783,9326.594869
1878.485334,229.828649,-518.144159,9548.656652
1878.485651,536.266849,-814.226536,9474.636058
1878.485968,612.876398,-518.144159,9622.677246
1878.486286,995.924147,-148.041188,9622.677246
1878.486603,1532.190996,-0.000000,9622.677246
1878.486920,1915.238745,-0.000000,9548.656652
1878.487238,2145.067394,740.205942,9178.553681
1878.487555,2374.896044,1036.288319,9252.574275
1878.487873,2374.896044,740.205942,8734.430116
1878.488190,2374.896044,444.123565,8808.450710
1878.488507,1991.848295,592.164754,8734.430116
1878.488825,1838.629195,444.123565,9030.512492
1878.489142,1532.190996,148.041188,9252.574275
1878.489460,1225.752797,296.082377,9400.615463
1878.489777,1072.533697,592.164754,9474.636058
1878.490094,842.705048,296.082377,9474.636058
1878.490412,459.657299,-0.000000,9918.759623
1878.490729,0.000000,-222.061783,10066.800811
1878.491047,229.828649,-296.082377,10362.883188
1878.491364,-383.047749,-0.000000,10140.821405
1878.491681,153.219100,148.041188,10584.944971
1878.491999,306.438199,518.144159,10584.944971
1878.492316,536.266849,518.144159,10214.842000
1878.492634,1225.752797,1036.288319,9844.739029
1878.492951,1455.581446,1258.350101,9474.636058
1878.493268,1378.971896,1110.308913,9474.636058
1878.493586,1915.238745,1110.308913,9104.533087
1878.493903,1532.190996,740.205942,9104.533087
1878.494220,1378.971896,296.082377,9030.512492
1878.494538,1072.533697,370.102971,9474.636058
1878.494855,1378.971896,296.082377,9548.656652
1878.495173,1149.143247,296.082377,9326.594869
1878.495490,842.705048,222.061783,9400.615463
1878.495807,612.876398,-0.000000,9474.636058
1878.496125,612.876398,-148.041188,9992.780217
1878.496442,76.609550,-0.000000,9696.697840
1878.496760,0.000000,-74.020594,9992.780217
1878.497077,0.000000,-0.000000,9770.718434
1878.497394,76.609550,222.061783,9992.780217
1878.497712,0.000000,370.102971,10214.842000
1878.498029,612.876398,814.226536,9548.656652
1878.498347,1149.143247,888.247130,9474.636058
1878.498664,1149.143247,962.267725,9326.594869
1878.498981,1378.971896,888.247130,9252.574275
1878.499299,1455.581446,740.205942,9030.512492
1878.499616,1455.581446,740.205942,8734.430116
1878.499934,1838.629195,666.185348,8438.347739
1878.500251,1455.581446,518.144159,8512.368333
1878.500568,1225.752797,444.123565,8512.368333
1878.500886,766.095498,-0.000000,8882.471304
1878.501203,612.876398,-0.000000,9030.512492
1878.501520,76.609550,74.020594,9400.615463
1878.501838,0.000000,-296.082377,9548.656652
1878.502155,-459.657299,-814.226536,9844.739029
1878.502473,-1072.533697,-962.267725,9844.739029
1878.502790,-689.485948,-148.041188,10066.800811
1878.503107,-306.438199,-148.041188,9548.656652
1878.503425,153.219100,-0.000000,9548.656652
1878.503742,612.876398,222.061783,9622.677246
1878.504060,536.266849,222.061783,9474.636058
1878.504377,919.314598,518.144159,9474.636058
1878.504694,1149.143247,296.082377,9104.533087
1878.505012,1608.800546,370.102971,9104.533087
1878.505329,1225.752797,296.082377,8808.450710
1878.505647,1225.752797,148.041188,8882.471304
1878.505964,1225.752797,148.041188,9178.553681
1878.506281,1532.190996,-0.000000,8882.471304
1878.506599,1532.190996,-370.102971,9252.574275
1878.506916,689.485948,-148.041188,9252.574275
1878.507234,383.047749,-222.061783,9622.677246
1878.507551,0.000000,-518.144159,9844.739029
1878.507868,0.000000,-518.144159,9992.780217
1878.508186,0.000000,-444.123565,10214.842000
1878.508503,0.000000,-0.000000,9992.780217
1878.508820,383.047749,148.041188,9992.780217
1878.509138,1149.143247,296.082377,9770.718434
1878.509455,1532.190996,444.123565,9696.697840
1878.509773,1838.629195,444.123565,9400.615463
1878.510090,1838.629195,740.205942,9252.574275
1878.510407,2374.896044,1110.308913,9178.553681
1878.510725,2145.067394,1036.288319,8734.430116
1878.511042,2374.896044,666.185348,8586.388927
1878.511360,1991.848295,962.267725,8512.368333
1878.511677,1685.410096,962.267725,8734.430116
1878.511994,1455.581446,740.205942,8882.471304
1878.512312,1378.971896,296.082377,8882.471304
1878.512629,766.095498,-0.000000,9030.512492
1878.512947,383.047749,-222.061783,9474.636058
1878.513264,0.000000,-370.102971,9696.697840
1878.513581,-612.876398,-444.123565,10140.821405
1878.513899,-536.266849,-370.102971,9992.780217
1878.514216,-306.438199,-296.082377,10362.883188
1878.514534,-306.438199,-148.041188,10362.883188
1878.514851,0.000000,-0.000000,9844.739029
1878.515168,459.657299,296.082377,9918.759623
1878.515486,842.705048,740.205942,9696.697840
1878.515803,1455.581446,592.164754,9474.636058
1878.516120,995.924147,592.164754,9326.594869
1878.516438,1225.752797,740.205942,9178.553681
1878.516755,995.924147,592.164754,8956.491898
1878.517073,995.924147,444.123565,8808.450710
1878.517390,995.924147,-0.000000,9104.533087
1878.517707,842.705048,-74.020594,9400.615463
1878.518025,459.657299,-74.020594,9326.594869
1878.518342,153.219100,-148.041188,9474.636058
1878.518660,76.609550,-370.102971,9696.697840
1878.518977,76.609550,-518.144159,9992.780217
1878.519294,0.000000,-296.082377,9770.718434
1878.519612,-306.438199,-148.041188,9992.780217
1878.519929,-306.438199,222.061783,9992.780217
1878.520247,536.266849,518.144159,10066.800811
1878.520564,459.657299,814.226536,9548.656652
1878.520881,842.705048,814.226536,9622.677246
1878.521199,1378.971896,1110.308913,9548.656652
1878.521516,1378.971896,1036.288319,9474.636058
1878.521834,1608.800546,740.205942,8956.491898
1878.522151,1608.800546,740.205942,8808.450710
1878.522469,1685.410096,1036.288319,8660.409521
1878.522786,1455.581446,814.226536,8882.471304
1878.523104,1149.143247,444.123565,8808.450710
1878.523421,1455.581446,296.082377,9104.533087
1878.523739,1149.143247,148.041188,9030.512492
1878.524056,689.485948,-0.000000,9252.574275
1878.524373,229.828649,-370.102971,9548.656652
1878.524691,0.000000,-296.082377,9844.739029
1878.525008,0.000000,-444.123565,9548.656652
1878.525326,0.000000,-0.000000,9696.697840
1878.525643,0.000000,370.102971,9844.739029
1878.525961,153.219100,444.123565,9622.677246
1878.526278,919.314598,740.205942,9474.636058
1878.526596,1455.581446,222.061783,9474.636058
1878.526913,1149.143247,148.041188,9474.636058
1878.527230,1378.971896,-0.000000,9252.574275
1878.527548,1532.190996,-0.000000,9326.594869
1878.527865,1838.629195,-74.020594,9548.656652
1878.528183,1532.190996,-0.000000,9252.574275
1878.528500,1762.019645,222.061783,8956.491898
1878.528818,1838.629195,444.123565,9104.533087
1878.529135,1685.410096,296.082377,9030.512492
1878.529453,1762.019645,-0.000000,8808.450710
1878.529770,766.095498,-148.041188,9104.533087
1878.530087,612.876398,-296.082377,9326.594869
1878.530405,306.438199,-222.061783,9548.656652
1878.530722,0.000000,-296.082377,9696.697840
1878.531040,0.000000,-148.041188,9696.697840
1878.531357,76.609550,-74.020594,9844.739029
1878.531675,459.657299,296.082377,9918.759623
1878.531992,459.657299,-0.000000,9918.759623
1878.532310,689.485948,-0.000000,9548.656652
1878.532627,919.314598,222.061783,9252.574275
1878.532945,1072.533697,740.205942,9474.636058
1878.533262,1302.362347,888.247130,9030.512492
1878.533579,1225.752797,1110.308913,8882.471304
1878.533897,1455.581446,962.267725,9104.533087
1878.534214,1302.362347,518.144159,9178.553681
1878.534532,1302.362347,-0.000000,9104.533087
1878.534849,995.924147,-0.000000,9474.636058
1878.535167,766.095498,-74.020594,9474.636058
1878.535484,536.266849,-148.041188,9400.615463
1878.535802,766.095498,-222.061783,9474.636058
1878.536119,306.438199,-222.061783,9548.656652
1878.536436,153.219100,-444.123565,9696.697840
1878.536754,0.000000,-0.000000,9548.656652
1878.537071,306.438199,222.061783,9844.739029
1878.537389,919.314598,370.102971,9844.739029
1878.537706,612.876398,666.185348,9548.656652
1878.538024,995.924147,666.185348,9474.636058
1878.538341,1608.800546,296.082377,9474.636058
1878.538659,1225.752797,444.123565,9400.615463
1878.538976,1302.362347,444.123565,9326.594869
1878.539293,1455.581446,-0.000000,9400.615463
1878.539611,1072.533697,-148.041188,9474.636058
1878.539928,1225.752797,-370.102971,9474.636058
1878.540246,842.705048,-222.061783,9400.615463
1878.540563,766.095498,-222.061783,9474.636058
1878.540881,383.047749,-0.000000,9400.615463
1878.541198,536.266849,-296.082377,9696.697840
1878.541516,-153.219100,-518.144159,9474.636058
1878.541833,0.000000,-444.123565,9178.553681
1878.542151,0.000000,-444.123565,9474.636058
1878.542468,0.000000,-370.102971,9696.697840
1878.542785,229.828649,-296.082377,9474.636058
1878.543103,689.485948,-0.000000,9474.636058
1878.543420,612.876398,222.061783,9474.636058
1878.543738,995.924147,518.144159,9400.615463
1878.544055,1225.752797,666.185348,9178.553681
1878.544373,1455.581446,740.205942,8956.491898
1878.544690,1302.362347,814.226536,8808.450710
1878.545008,1532.190996,962.267725,8512.368333
1878.545325,1608.800546,592.164754,8660.409521
1878.545642,1302.362347,518.144159,8882.471304
1878.545960,842.705048,592.164754,8734.430116
1878.546277,229.828649,962.267725,8142.265362
1878.546595,-842.705048,962.267725,7920.203579
1878.546912,229.828649,-814.226536,9548.656652
1878.547230,-1455.581446,-222.061783,9622.677246
1878.547547,-1225.752797,-1036.288319,10436.903782
1878.547865,-2298.286494,-592.164754,9326.594869
1878.548182,-995.924147,-592.164754,11177.109724
1878.548500,-1608.800546,-518.144159,11399.171507
1878.548817,-1302.362347,-74.020594,10362.883188
1878.549134,0.000000,1776.494261,9400.615463
1878.549452,536.266849,2072.576638,9844.739029
1878.549769,1838.629195,1998.556043,9548.656652
1878.550087,1991.848295,1702.473667,8808.450710
1878.550404,2298.286494,1332.370696,9696.697840
1878.550722,1915.238745,1184.329507,8660.409521
1878.551039,2451.505594,592.164754,8882.471304
1878.551357,2298.286494,370.102971,8956.491898
1878.551674,2451.505594,740.205942,9178.553681
1878.551991,1532.190996,1184.329507,8438.347739
1878.552309,1532.190996,370.102971,9992.780217
1878.552626,1532.190996,-518.144159,9474.636058
1878.552944,842.705048,592.164754,9178.553681
1878.553261,229.828649,-148.041188,10732.986159
1878.553579,306.438199,-962.267725,10362.883188
1878.553896,-306.438199,-814.226536,9844.739029
1878.554214,383.047749,814.226536,10436.903782
1878.554531,995.924147,814.226536,10881.027347
1878.554848,1149.143247,888.247130,9474.636058
1878.555166,2145.067394,1332.370696,9770.718434
1878.555483,2298.286494,1184.329507,9474.636058
1878.555801,2221.676944,1110.308913,8438.347739
1878.556118,2374.896044,444.123565,8660.409521
1878.556436,2068.457845,296.082377,8808.450710
1878.556753,2145.067394,666.185348,8660.409521
1878.557071,1455.581446,592.164754,8512.368333
1878.557388,1455.581446,370.102971,9474.636058
1878.557706,383.047749,370.102971,8956.491898
1878.558023,612.876398,-0.000000,9104.533087
1878.558340,-383.047749,-0.000000,9992.780217
1878.558658,-995.924147,-518.144159,9918.759623
1878.558975,-842.705048,-740.205942,9844.739029
1878.559293,-766.095498,-296.082377,9770.718434
1878.559610,0.000000,-518.144159,10584.944971
1878.559928,536.266849,-1332.370696,10510.924376
1878.560245,153.219100,-814.226536,9770.718434
1878.560563,612.876398,370.102971,9696.697840
1878.560880,1302.362347,370.102971,9770.718434
1878.561197,1378.971896,-0.000000,9548.656652
1878.561515,1225.752797,370.102971,9178.553681
1878.561832,1149.143247,888.247130,8660.409521
1878.562150,995.924147,518.144159,8438.347739
1878.562467,1302.362347,148.041188,8956.491898
1878.562785,1532.190996,-222.061783,8956.491898
1878.563102,689.485948,-0.000000,8882.471304
1878.563420,383.047749,-296.082377,8882.471304
1878.563737,0.000000,-1258.350101,9474.636058
1878.564054,76.609550,-1184.329507,9622.677246
1878.564372,-306.438199,-1406.391290,9844.739029
1878.564689,-536.266849,-296.082377,9548.656652
1878.565007,-383.047749,-370.102971,9326.594869
1878.565324,0.000000,-444.123565,9474.636058
1878.565642,383.047749,-0.000000,9474.636058
1878.565959,689.485948,296.082377,9252.574275
1878.566277,689.485948,444.123565,8512.368333
1878.566594,153.219100,666.185348,8216.285956
1878.566912,1302.362347,-74.020594,9252.574275
1878.567229,459.657299,148.041188,9252.574275
1878.567546,612.876398,-370.102971,9844.739029
1878.567864,0.000000,-740.205942,9178.553681
1878.568181,612.876398,-740.205942,9770.718434
1878.568499,689.485948,-518.144159,9104.533087
1878.568816,842.705048,-296.082377,8808.450710
1878.569134,1225.752797,-222.061783,9104.533087
1878.569451,842.705048,592.164754,8734.430116
1878.569769,1762.019645,-74.020594,9326.594869
1878.570086,1378.971896,-0.000000,9474.636058
1878.570403,1378.971896,-370.102971,10066.800811
1878.570721,1072.533697,370.102971,9548.656652
1878.571038,1685.410096,370.102971,9474.636058
1878.571356,2145.067394,592.164754,9474.636058
1878.571673,2757.943793,666.185348,9918.759623
1878.571991,2604.724693,1850.514855,9030.512492
1878.572308,2681.334243,1480.411884,8956.491898
1878.572626,2681.334243,888.247130,9474.636058
1878.572943,2145.067394,444.123565,9178.553681
1878.573260,1991.848295,148.041188,9770.718434
1878.573578,1302.362347,296.082377,9474.636058
1878.573895,1149.143247,-0.000000,9548.656652
1878.574213,1072.533697,592.164754,10288.862594
1878.574530,689.485948,740.205942,9844.739029
1878.574848,229.828649,518.144159,9474.636058
1878.575165,0.000000,518.144159,9770.718434
1878.575483,-306.438199,222.061783,10066.800811
1878.575800,-536.266849,-0.000000,9770.718434
1878.576118,-766.095498,222.061783,9992.780217
1878.576435,-536.266849,222.061783,9992.780217
1878.576752,-383.047749,814.226536,10140.821405
1878.577070,76.609550,1110.308913,9548.656652
1878.577387,0.000000,1184.329507,9474.636058
1878.577705,689.485948,1480.411884,8882.471304
1878.578022,306.438199,1258.350101,9104.533087
1878.578340,306.438199,1036.288319,8882.471304
1878.578657,383.047749,1110.308913,8734.430116
1878.578975,-229.828649,666.185348,8734.430116
1878.579292,-383.047749,296.082377,9178.553681
1878.579609,-612.876398,-0.000000,9918.759623
1878.579927,76.609550,-148.041188,9622.677246
1878.580244,-229.828649,-0.000000,9844.739029
1878.580562,-306.438199,370.102971,9992.780217
1878.580879,153.219100,-0.000000,10140.821405
1878.581197,76.609550,-148.041188,10140.821405
1878.581514,383.047749,518.144159,9622.677246
1878.581832,842.705048,962.267725,9400.615463
1878.582149,1149.143247,962.267725,9178.553681
1878.582467,1685.410096,814.226536,9252.574275
1878.582784,2145.067394,1036.288319,8660.409521
1878.583101,2145.067394,962.267725,8882.471304
1878.583419,2221.676944,888.247130,8660.409521
1878.583736,1991.848295,444.123565,8660.409521
1878.584054,1762.019645,-444.123565,9400.615463
1878.584371,1532.190996,-222.061783,9252.574275
1878.584689,689.485948,-74.020594,9474.636058
1878.585006,536.266849,-296.082377,9770.718434
1878.585324,536.266849,-222.061783,9770.718434
1878.585641,459.657299,-0.000000,10066.800811
1878.585958,0.000000,-0.000000,10066.800811
1878.586276,0.000000,148.041188,9844.739029
1878.586593,76.609550,-222.061783,9622.677246
1878.586911,383.047749,148.041188,9918.759623
1878.587228,229.828649,-0.000000,9696.697840
1878.587546,766.095498,-0.000000,9252.574275
1878.587863,995.924147,444.123565,9326.594869
1878.588181,1455.581446,-0.000000,9178.553681
1878.588498,1685.410096,148.041188,8956.491898
1878.588815,2221.676944,666.185348,9104.533087
1878.589133,1685.410096,592.164754,8882.471304
1878.589450,1685.410096,370.102971,9030.512492
1878.589768,1532.190996,-0.000000,9178.553681
1878.590085,1608.800546,-148.041188,9400.615463
1878.590403,842.705048,148.041188,9474.636058
1878.590720,766.095498,-0.000000,9474.636058
1878.591038,689.485948,-0.000000,9474.636058
1878.591355,919.314598,-0.000000,9548.656652
1878.591673,766.095498,-370.102971,9770.718434
1878.591990,1378.971896,-0.000000,9400.615463
1878.592307,1072.533697,-148.041188,9622.677246
1878.592625,1455.581446,-370.102971,9622.677246
1878.592942,1149.143247,-74.020594,9326.594869
1878.593260,1149.143247,-148.041188,9844.739029
1878.593577,1302.362347,-0.000000,9400.615463
1878.593895,1608.800546,-0.000000,9400.615463
1878.594212,1608.800546,222.061783,9474.636058
1878.594530,1455.581446,296.082377,9252.574275
1878.594847,1455.581446,-0.000000,9326.594869
1878.595164,1149.143247,-370.102971,9252.574275
1878.595482,842.705048,-444.123565,9400.615463
