#time,accel_x,accel_y,accel_z
921.085551,919.314598,814.226536,6291.750507
921.085870,383.047749,148.041188,6735.874072
921.086189,-536.266849,-740.205942,6513.812290
921.086507,-1149.143247,-888.247130,7254.018232
921.086826,-1608.800546,-444.123565,7920.203579
921.087145,-1991.848295,-0.000000,8290.306550
921.087464,-2145.067394,518.144159,8512.368333
921.087783,-2068.457845,1332.370696,8734.430116
921.088102,-2298.286494,1554.432478,8364.327145
921.088421,-1991.848295,1998.556043,8660.409521
921.088740,-1915.238745,1480.411884,8586.388927
921.089059,-1991.848295,740.205942,9252.574275
921.089378,-1991.848295,-444.123565,9696.697840
921.089696,-1915.238745,-1480.411884,10214.842000
921.090015,-2221.676944,-1258.350101,10807.006753
921.090334,-1762.019645,-370.102971,10881.027347
921.090653,-1532.190996,370.102971,10436.903782
921.090972,-995.924147,1480.411884,10140.821405
921.091291,-689.485948,1110.308913,10510.924376
921.091610,0.000000,962.267725,10732.986159
921.091929,-306.438199,-0.000000,11029.068536
921.092248,153.219100,-148.041188,11103.089130
921.092567,536.266849,-740.205942,11399.171507
921.092886,612.876398,-1036.288319,11399.171507
921.093204,689.485948,-1036.288319,10881.027347
921.093523,919.314598,-888.247130,10436.903782
921.093842,1149.143247,-370.102971,9622.677246
921.094161,1455.581446,-74.020594,9474.636058
921.094480,1149.143247,222.061783,9104.533087
921.094799,536.266849,370.102971,9400.615463
921.095118,229.828649,814.226536,9252.574275
921.095437,-306.438199,888.247130,9178.553681
921.095756,-229.828649,518.144159,9252.574275
921.096075,-842.705048,-0.000000,9104.533087
921.096394,-1072.533697,-296.082377,8364.327145
921.096712,-1838.629195,-518.144159,7698.141797
921.097031,-2451.505594,-296.082377,7698.141797
921.097350,-2604.724693,-962.267725,7772.162391
921.097669,-2987.772442,-74.020594,7550.100608
921.097988,-3447.429741,-74.020594,7920.203579
921.098307,-4213.525239,148.041188,8216.285956
921.098626,-4290.134789,-0.000000,9326.594869
921.098945,-4673.182538,-592.164754,9030.512492
921.099264,-4903.011187,-1406.391290,9030.512492
921.099583,-5056.230287,-2368.659014,9474.636058
921.099901,-5209.449386,-2886.803174,9474.636058
921.100220,-5056.230287,-3627.009116,9474.636058
921.100539,-3983.696590,-4367.215058,9770.718434
921.100858,-4060.306139,-4367.215058,10584.944971
921.101177,-3447.429741,-4367.215058,11029.068536
921.101496,-2911.162892,-4219.173869,10955.047942
921.101815,-1991.848295,-3627.009116,11251.130318
921.102134,-1532.190996,-3108.864956,10510.924376
921.102453,-459.657299,-2738.761985,10214.842000
921.102772,-229.828649,-3182.885551,9992.780217
921.103091,76.609550,-3997.112087,10510.924376
921.103409,842.705048,-4737.318029,10584.944971
921.103728,995.924147,-5403.503377,10807.006753
921.104047,995.924147,-5255.462188,11399.171507
921.104366,995.924147,-5403.503377,11695.253884
921.104685,1072.533697,-4811.338623,11843.295072
921.105004,1302.362347,-3627.009116,11695.253884
921.105323,1149.143247,-2886.803174,11399.171507
921.105642,1072.533697,-2664.741391,11325.150913
921.105961,919.314598,-2442.679609,11103.089130
921.106280,689.485948,-2442.679609,10881.027347
921.106598,612.876398,-2294.638420,10436.903782
921.106917,1149.143247,-1628.453072,9844.739029
921.107236,919.314598,-1110.308913,9104.533087
921.107555,1072.533697,-888.247130,8068.244768
921.107874,1149.143247,-296.082377,8586.388927
921.108193,1072.533697,-0.000000,7920.203579
921.108512,919.314598,296.082377,7328.038826
921.108831,766.095498,296.082377,7920.203579
921.109150,1149.143247,888.247130,8142.265362
921.109469,383.047749,1258.350101,7994.224174
921.109788,612.876398,1850.514855,7105.977043
921.110106,76.609550,2072.576638,6661.853478
921.110425,0.000000,2664.741391,6217.729913
921.110744,76.609550,3108.864956,5847.626942
921.111063,153.219100,2960.823768,5921.647536
921.111382,229.828649,2590.720797,6217.729913
921.111701,76.609550,2294.638420,6661.853478
921.112020,689.485948,1776.494261,7402.059420
921.112339,766.095498,2072.576638,7550.100608
921.112658,536.266849,2442.679609,7476.080014
921.112977,536.266849,2516.700203,7476.080014
921.113295,306.438199,2590.720797,7328.038826
921.113614,306.438199,2516.700203,7402.059420
921.113933,-229.828649,2516.700203,6957.935855
921.114252,-536.266849,2368.659014,7846.182985
921.114571,-1225.752797,1406.391290,8882.471304
921.114890,-1685.410096,666.185348,9326.594869
921.115209,-1685.410096,-0.000000,11029.068536
921.115528,-1608.800546,-74.020594,11917.315666
921.115847,-1225.752797,-74.020594,12287.418637
921.116166,-689.485948,296.082377,11917.315666
921.116485,0.000000,962.267725,11399.171507
921.116803,766.095498,1258.350101,10214.842000
921.117122,1378.971896,1702.473667,9474.636058
921.117441,1455.581446,1406.391290,9178.553681
921.117760,1378.971896,518.144159,9474.636058
921.118079,1608.800546,-148.041188,10214.842000
921.118398,1225.752797,-740.205942,10955.047942
921.118717,612.876398,-740.205942,11843.295072
921.119036,383.047749,-444.123565,11843.295072
921.119355,459.657299,-148.041188,11769.274478
921.119674,689.485948,-74.020594,11251.130318
921.119993,306.438199,296.082377,10510.924376
921.120312,459.657299,-0.000000,10214.842000
921.120631,0.000000,-222.061783,10214.842000
921.120950,-306.438199,-814.226536,10881.027347
921.121269,-536.266849,-1110.308913,11325.150913
921.121588,-1072.533697,-1184.329507,11991.336260
921.121907,-919.314598,-1184.329507,11917.315666
921.122226,-612.876398,-666.185348,11621.233289
921.122545,-306.438199,-444.123565,11103.089130
921.122864,76.609550,-148.041188,10436.903782
921.123183,459.657299,-0.000000,9696.697840
921.123502,842.705048,-0.000000,9178.553681
921.123821,689.485948,-444.123565,8882.471304
921.124141,383.047749,-814.226536,8956.491898
921.124460,766.095498,-1258.350101,8956.491898
921.124779,0.000000,-1628.453072,9104.533087
921.125098,-153.219100,-1554.432478,9104.533087
921.125417,0.000000,-1110.308913,9030.512492
921.125736,0.000000,-740.205942,8882.471304
921.126055,1149.143247,-518.144159,8438.347739
921.126374,689.485948,-148.041188,7698.141797
921.126693,689.485948,-222.061783,7179.997637
921.127012,536.266849,-444.123565,7105.977043
921.127331,459.657299,-962.267725,7105.977043
921.127650,229.828649,-1332.370696,6957.935855
921.127969,-229.828649,-1628.453072,7254.018232
921.128288,-306.438199,-1702.473667,7698.141797
921.128607,-459.657299,-1554.432478,7698.141797
921.128926,0.000000,-1258.350101,7698.141797
921.129245,-229.828649,-1184.329507,7698.141797
921.129564,-229.828649,-444.123565,7624.121203
921.129883,-459.657299,-666.185348,8216.285956
921.130202,153.219100,-518.144159,8142.265362
921.130521,229.828649,-592.164754,7994.224174
921.130840,919.314598,-444.123565,7772.162391
921.131159,1149.143247,-296.082377,7550.100608
921.131478,1685.410096,-296.082377,7031.956449
921.131797,2068.457845,-0.000000,6735.874072
921.132116,2221.676944,148.041188,7031.956449
921.132435,2451.505594,222.061783,7328.038826
921.132754,2068.457845,444.123565,7994.224174
921.133073,2068.457845,222.061783,8660.409521
921.133392,1915.238745,222.061783,9178.553681
921.133711,1608.800546,370.102971,9252.574275
921.134030,1072.533697,222.061783,9770.718434
921.134349,612.876398,-0.000000,9622.677246
921.134668,306.438199,-0.000000,9548.656652
921.134987,153.219100,-370.102971,10066.800811
921.135306,-459.657299,-296.082377,10584.944971
921.135625,-689.485948,-296.082377,10955.047942
921.135944,-459.657299,-0.000000,11029.068536
921.136263,-842.705048,296.082377,11103.089130
921.136582,-383.047749,962.267725,11325.150913
921.136901,-536.266849,1184.329507,11103.089130
921.137220,-383.047749,1702.473667,10881.027347
921.137539,-153.219100,1998.556043,10510.924376
921.137858,0.000000,2294.638420,9992.780217
921.138177,-153.219100,2516.700203,9548.656652
921.138496,0.000000,2812.782580,9400.615463
921.138815,-459.657299,2368.659014,9474.636058
921.139134,0.000000,2442.679609,9770.718434
921.139453,0.000000,2368.659014,10214.842000
921.139772,-383.047749,2368.659014,10436.903782
921.140091,-306.438199,2960.823768,10584.944971
921.140410,-229.828649,3627.009116,10288.862594
921.140729,0.000000,3701.029710,9770.718434
921.141048,306.438199,3330.926739,9622.677246
921.141368,306.438199,3034.844362,9400.615463
921.141687,459.657299,2664.741391,9178.553681
921.142006,229.828649,1924.535449,9622.677246
921.142325,306.438199,1554.432478,9844.739029
921.142644,459.657299,1258.350101,10140.821405
921.142963,383.047749,1406.391290,10584.944971
921.143282,459.657299,1406.391290,10510.924376
921.143601,689.485948,1332.370696,10288.862594
921.143920,842.705048,1332.370696,10288.862594
921.144239,1225.752797,962.267725,9844.739029
921.144558,1455.581446,592.164754,9474.636058
921.144877,1991.848295,592.164754,9474.636058
921.145196,1915.238745,370.102971,8956.491898
921.145515,2374.896044,-814.226536,9030.512492
921.145834,2374.896044,-740.205942,8882.471304
921.146153,2298.286494,-962.267725,8956.491898
921.146472,2221.676944,-1110.308913,9104.533087
921.146791,2298.286494,-1110.308913,9178.553681
921.147110,2221.676944,-1184.329507,9252.574275
921.147429,1685.410096,-1480.411884,9178.553681
921.147748,1455.581446,-1332.370696,8734.430116
921.148067,919.314598,-1554.432478,8660.409521
921.148386,383.047749,-1850.514855,8882.471304
921.148705,-153.219100,-1998.556043,8808.450710
921.149024,-689.485948,-2516.700203,8438.347739
921.149343,-766.095498,-2220.617826,8882.471304
921.149662,-1149.143247,-1702.473667,9030.512492
921.149981,-842.705048,-2072.576638,8882.471304
921.150300,-995.924147,-1036.288319,8512.368333
921.150619,-689.485948,-814.226536,8364.327145
921.150938,-536.266849,-518.144159,8142.265362
921.151257,-306.438199,-222.061783,7846.182985
921.151576,0.000000,-0.000000,7624.121203
921.151895,76.609550,-0.000000,7402.059420
921.152214,229.828649,444.123565,7031.956449
921.152533,459.657299,370.102971,6957.935855
921.152852,689.485948,666.185348,7105.977043
921.153171,612.876398,296.082377,7550.100608
921.153490,995.924147,518.144159,8068.244768
921.153809,919.314598,296.082377,8512.368333
921.154128,995.924147,592.164754,8734.430116
921.154447,1302.362347,740.205942,9178.553681
921.154766,1149.143247,1036.288319,9178.553681
921.155085,1072.533697,888.247130,8586.388927
921.155404,1149.143247,1110.308913,8438.347739
921.155723,766.095498,1036.288319,8734.430116
921.156042,536.266849,296.082377,9030.512492
921.156361,306.438199,1406.391290,9326.594869
921.156680,76.609550,1406.391290,9400.615463
921.156999,76.609550,1702.473667,9696.697840
921.157318,229.828649,1924.535449,10140.821405
921.157637,229.828649,2146.597232,10140.821405
921.157956,689.485948,2516.700203,10214.842000
921.158276,842.705048,2294.638420,10510.924376
921.158595,995.924147,2368.659014,10288.862594
921.158914,1455.581446,2368.659014,10288.862594
921.159233,1532.190996,2886.803174,10510.924376
921.159552,2068.457845,3182.885551,9696.697840
921.159871,2298.286494,3404.947333,9474.636058
921.160190,2451.505594,3330.926739,9548.656652
921.160509,2298.286494,3330.926739,9844.739029
921.160828,2451.505594,3108.864956,10140.821405
921.161147,2528.115143,2812.782580,10140.821405
921.161466,2451.505594,2812.782580,10362.883188
921.161785,2068.457845,3034.844362,10362.883188
921.162104,1762.019645,2960.823768,10288.862594
921.162423,1302.362347,2812.782580,9992.780217
921.162742,919.314598,2886.803174,9992.780217
921.163061,306.438199,2442.679609,9918.759623
921.163380,0.000000,2368.659014,10214.842000
921.163699,-459.657299,1998.556043,10510.924376
921.164018,-536.266849,1702.473667,10807.006753
921.164337,-612.876398,1332.370696,11103.089130
921.164656,-689.485948,1258.350101,10955.047942
921.164975,-612.876398,1258.350101,11103.089130
921.165294,-306.438199,1184.329507,11029.068536
921.165613,76.609550,1332.370696,10288.862594
921.165932,459.657299,1110.308913,9918.759623
921.166251,612.876398,1110.308913,9474.636058
921.166570,1225.752797,444.123565,9326.594869
921.166889,842.705048,222.061783,9326.594869
921.167208,536.266849,-148.041188,9400.615463
921.167527,766.095498,-740.205942,9474.636058
921.167846,229.828649,-1036.288319,9992.780217
921.168165,76.609550,-1110.308913,9696.697840
921.168484,306.438199,-1036.288319,9844.739029
921.168803,0.000000,-814.226536,9104.533087
921.169122,0.000000,-888.247130,8882.471304
921.169441,-306.438199,-888.247130,8512.368333
921.169760,0.000000,-1184.329507,8290.306550
921.170079,-689.485948,-1480.411884,8364.327145
921.170398,-766.095498,-1702.473667,8586.388927
921.170717,-919.314598,-1776.494261,8808.450710
921.171036,-919.314598,-1628.453072,8660.409521
921.171355,-766.095498,-1480.411884,8734.430116
921.171674,-536.266849,-1258.350101,8438.347739
921.171993,0.000000,-1036.288319,8142.265362
921.172312,0.000000,-814.226536,7772.162391
921.172631,689.485948,-888.247130,7994.224174
921.172950,766.095498,-1110.308913,7920.203579
921.173269,995.924147,-1036.288319,7920.203579
921.173588,1225.752797,-814.226536,7550.100608
921.173907,1608.800546,-888.247130,7328.038826
921.174226,1608.800546,-666.185348,7476.080014
921.174545,2068.457845,-444.123565,7105.977043
921.174864,2068.457845,-296.082377,7105.977043
921.175183,2221.676944,-666.185348,7402.059420
921.175503,2145.067394,-518.144159,7402.059420
921.175822,2068.457845,-0.000000,7624.121203
921.176141,1991.848295,296.082377,7476.080014
921.176460,1378.971896,444.123565,7846.182985
921.176779,1225.752797,592.164754,7476.080014
921.177098,1149.143247,518.144159,8068.244768
921.177417,689.485948,814.226536,8364.327145
921.177736,229.828649,666.185348,8364.327145
921.178055,76.609550,962.267725,8956.491898
921.178374,306.438199,1110.308913,9326.594869
921.178693,306.438199,1036.288319,9548.656652
921.179012,229.828649,1480.411884,9548.656652
921.179331,689.485948,1924.535449,9474.636058
921.179650,689.485948,1850.514855,9696.697840
921.179969,1378.971896,2294.638420,9622.677246
921.180288,1455.581446,2590.720797,9696.697840
921.180607,1608.800546,3108.864956,8808.450710
921.180926,1608.800546,3034.844362,8956.491898
921.181245,1608.800546,2664.741391,9104.533087
921.181564,1532.190996,2220.617826,9844.739029
921.181883,1149.143247,2146.597232,9992.780217
921.182202,1072.533697,2220.617826,10732.986159
921.182521,919.314598,2368.659014,11029.068536
921.182840,1072.533697,2738.761985,10807.006753
921.183159,1072.533697,2664.741391,10362.883188
921.183478,229.828649,3034.844362,10362.883188
921.183797,0.000000,2368.659014,10140.821405
921.184116,-229.828649,2072.576638,10362.883188
921.184435,-536.266849,1554.432478,11103.089130
921.184754,-1072.533697,1332.370696,11917.315666
921.185073,-1302.362347,740.205942,12065.356855
921.185392,-1378.971896,518.144159,12361.439231
921.185711,-1072.533697,296.082377,12509.480420
921.186030,-1072.533697,370.102971,12213.398043
921.186349,-612.876398,518.144159,11843.295072
921.186668,-766.095498,740.205942,11843.295072
921.186987,-229.828649,444.123565,11103.089130
921.187306,-153.219100,370.102971,10658.965565
921.187625,459.657299,370.102971,10658.965565
921.187944,153.219100,-0.000000,10288.862594
921.188263,76.609550,-148.041188,9844.739029
921.188582,153.219100,-296.082377,10140.821405
921.188901,306.438199,-666.185348,9992.780217
921.189220,229.828649,-740.205942,9696.697840
921.189539,229.828649,-518.144159,9622.677246
921.189858,459.657299,-222.061783,9400.615463
921.190177,459.657299,-222.061783,8808.450710
921.190496,153.219100,-592.164754,8512.368333
921.190815,0.000000,-962.267725,8216.285956
921.191134,-229.828649,-1184.329507,8438.347739
921.191453,0.000000,-1406.391290,8290.306550
921.191772,-459.657299,-1628.453072,8364.327145
921.192091,-383.047749,-1628.453072,8808.450710
921.192410,-229.828649,-1924.535449,8142.265362
921.192730,153.219100,-1406.391290,7846.182985
921.193049,0.000000,-1554.432478,7846.182985
921.193368,153.219100,-1628.453072,7846.182985
921.193687,689.485948,-1702.473667,7402.059420
921.194006,766.095498,-1406.391290,7105.977043
921.194325,995.924147,-1406.391290,7031.956449
921.194644,1302.362347,-1332.370696,6735.874072
921.194963,1455.581446,-962.267725,6439.791695
921.195282,1532.190996,-962.267725,6291.750507
921.195601,1302.362347,-814.226536,6439.791695
921.195920,1838.629195,-962.267725,6513.812290
921.196239,1532.190996,-962.267725,6809.894666
921.196558,1608.800546,-1184.329507,6883.915261
921.196877,1378.971896,-888.247130,7105.977043
921.197196,1225.752797,-888.247130,7328.038826
921.197515,1072.533697,-666.185348,7402.059420
921.197834,459.657299,-518.144159,7476.080014
921.198153,383.047749,-666.185348,7402.059420
921.198472,0.000000,-814.226536,7920.203579
921.198791,-306.438199,-666.185348,8512.368333
921.199110,-459.657299,-740.205942,8882.471304
921.199429,-383.047749,-592.164754,9030.512492
921.199748,-306.438199,-518.144159,9474.636058
921.200067,-919.314598,-0.000000,9844.739029
921.200386,-536.266849,-0.000000,9918.759623
921.200705,-536.266849,296.082377,9918.759623
921.201024,-306.438199,592.164754,10214.842000
921.201343,-153.219100,740.205942,9622.677246
921.201662,153.219100,1332.370696,9548.656652
921.201981,229.828649,1628.453072,9696.697840
921.202300,306.438199,1554.432478,9548.656652
921.202619,306.438199,1480.411884,10140.821405
921.202938,0.000000,1554.432478,10436.903782
921.203257,0.000000,1480.411884,10584.944971
921.203576,153.219100,1480.411884,11177.109724
921.203895,153.219100,1776.494261,11251.130318
921.204214,306.438199,1998.556043,11473.192101
921.204533,76.609550,1998.556043,10881.027347
921.204852,0.000000,1776.494261,10881.027347
921.205171,0.000000,1776.494261,10732.986159
921.205490,76.609550,1776.494261,11177.109724
921.205809,-306.438199,1036.288319,11473.192101
921.206128,-76.609550,1184.329507,11547.212695
921.206447,-612.876398,1258.350101,11769.274478
921.206766,-612.876398,1332.370696,11325.150913
921.207085,-459.657299,1406.391290,11251.130318
921.207404,-229.828649,1110.308913,11177.109724
921.207723,76.609550,962.267725,11103.089130
921.208042,76.609550,1184.329507,11103.089130
921.208361,383.047749,1110.308913,10510.924376
921.208680,842.705048,814.226536,10214.842000
921.208999,842.705048,1036.288319,9992.780217
921.209318,1455.581446,1036.288319,9474.636058
921.209638,1149.143247,592.164754,9104.533087
921.209957,1608.800546,444.123565,9178.553681
921.210276,1532.190996,-74.020594,9252.574275
921.210595,1302.362347,-0.000000,9104.533087
921.210914,1532.190996,-0.000000,9030.512492
921.211233,1378.971896,-74.020594,8808.450710
921.211552,1378.971896,-148.041188,8290.306550
921.211871,995.924147,-666.185348,7994.224174
921.212190,689.485948,-1184.329507,7994.224174
921.212509,689.485948,-1258.350101,8142.265362
921.212828,76.609550,-1628.453072,8438.347739
921.213147,76.609550,-1850.514855,8586.388927
921.213466,-536.266849,-1924.535449,8586.388927
921.213785,-229.828649,-1628.453072,8734.430116
921.214104,-153.219100,-1702.473667,8586.388927
921.214423,0.000000,-1776.494261,7994.224174
921.214742,153.219100,-1628.453072,8290.306550
921.215061,536.266849,-1258.350101,7698.141797
921.215380,383.047749,-1258.350101,7179.997637
921.215699,842.705048,-666.185348,6809.894666
921.216018,1149.143247,-814.226536,6661.853478
921.216337,1302.362347,-888.247130,6661.853478
921.216656,1149.143247,-962.267725,6661.853478
921.216975,1149.143247,-962.267725,7031.956449
921.217294,842.705048,-1258.350101,7550.100608
921.217613,1072.533697,-1332.370696,7698.141797
921.217932,842.705048,-814.226536,8068.244768
921.218251,612.876398,-518.144159,8068.244768
921.218570,842.705048,-0.000000,7994.224174
921.218889,383.047749,-0.000000,7994.224174
921.219208,459.657299,-370.102971,7994.224174
921.219527,0.000000,-222.061783,8586.388927
921.219846,-459.657299,-296.082377,8660.409521
921.220165,-536.266849,-444.123565,9178.553681
921.220484,-689.485948,-148.041188,9400.615463
921.220802,-766.095498,-0.000000,9400.615463
921.221121,-612.876398,592.164754,9474.636058
921.221440,-689.485948,740.205942,9918.759623
921.221759,-689.485948,888.247130,9844.739029
921.222077,-612.876398,1036.288319,9622.677246
921.222396,-153.219100,1036.288319,10288.862594
921.222715,-306.438199,888.247130,10066.800811
921.223034,306.438199,1406.391290,9844.739029
921.223352,306.438199,1184.329507,10066.800811
921.223671,536.266849,1406.391290,10362.883188
921.223990,459.657299,1258.350101,10288.862594
921.224309,536.266849,1110.308913,10658.965565
921.224628,766.095498,1258.350101,11177.109724
921.224946,995.924147,1184.329507,11029.068536
921.225265,1302.362347,1332.370696,10955.047942
921.225584,689.485948,1628.453072,10881.027347
921.225903,919.314598,1850.514855,10732.986159
921.226221,612.876398,1554.432478,10584.944971
921.226540,76.609550,962.267725,11103.089130
921.226859,0.000000,1258.350101,10955.047942
921.227178,-229.828649,1036.288319,11177.109724
921.227496,-459.657299,1110.308913,11103.089130
921.227815,-459.657299,1332.370696,11399.171507
921.228134,-842.705048,1332.370696,11029.068536
921.228453,-229.828649,1332.370696,11399.171507
921.228771,-306.438199,1184.329507,10955.047942
921.229090,76.609550,1258.350101,10658.965565
921.229409,689.485948,1332.370696,10288.862594
921.229728,1225.752797,1258.350101,10066.800811
921.230046,1455.581446,1702.473667,9474.636058
921.230365,1915.238745,1554.432478,8808.450710
921.230684,2145.067394,1924.535449,8660.409521
921.231003,2451.505594,1850.514855,8290.306550
921.231321,2834.553343,1258.350101,8142.265362
921.231640,2528.115143,962.267725,8512.368333
921.231959,2451.505594,814.226536,8882.471304
921.232278,2374.896044,518.144159,8438.347739
921.232596,1915.238745,592.164754,8586.388927
921.232915,1762.019645,592.164754,8216.285956
921.233234,1302.362347,444.123565,7994.224174
921.233553,842.705048,148.041188,7698.141797
921.233872,0.000000,-74.020594,8142.265362
921.234190,76.609550,-370.102971,8216.285956
921.234509,-383.047749,-370.102971,8512.368333
921.234828,-306.438199,-592.164754,8586.388927
921.235147,-766.095498,-592.164754,8882.471304
921.235465,-459.657299,-888.247130,8956.491898
921.235784,-383.047749,-666.185348,8808.450710
921.236103,0.000000,-444.123565,8290.306550
921.236422,153.219100,-444.123565,8290.306550
921.236740,306.438199,-444.123565,7994.224174
921.237059,689.485948,-296.082377,7846.182985
921.237378,76.609550,-444.123565,7920.203579
921.237697,612.876398,-888.247130,7624.121203
921.238015,919.314598,-962.267725,7772.162391
921.238334,612.876398,-1184.329507,8438.347739
921.238653,842.705048,-1332.370696,8882.471304
921.238972,689.485948,-962.267725,8660.409521
921.239290,612.876398,-444.123565,8734.430116
921.239609,766.095498,-0.000000,8364.327145
921.239928,842.705048,-0.000000,7920.203579
921.240247,612.876398,-0.000000,7994.224174
921.240565,689.485948,-148.041188,8142.265362
921.240884,153.219100,-74.020594,8216.285956
921.241203,0.000000,-222.061783,9030.512492
921.241522,0.000000,-0.000000,9474.636058
921.241841,-153.219100,148.041188,9770.718434
921.242159,-229.828649,444.123565,9770.718434
921.242478,459.657299,888.247130,9548.656652
921.242797,459.657299,888.247130,9474.636058
921.243116,1225.752797,740.205942,9770.718434
921.243434,766.095498,814.226536,9474.636058
921.243753,1149.143247,1406.391290,9474.636058
921.244072,1378.971896,1258.350101,9474.636058
921.244391,1762.019645,1554.432478,9178.553681
921.244709,1991.848295,1628.453072,9326.594869
921.245028,1991.848295,1554.432478,9326.594869
921.245347,1685.410096,1850.514855,9400.615463
921.245666,1991.848295,1480.411884,9474.636058
921.245984,1991.848295,1850.514855,9918.759623
921.246303,1915.238745,2146.597232,10214.842000
921.246622,1685.410096,2368.659014,10066.800811
921.246941,1685.410096,2442.679609,9844.739029
921.247259,1378.971896,2516.700203,9696.697840
921.247578,1685.410096,2294.638420,9770.718434
921.247897,536.266849,2220.617826,9770.718434
921.248216,306.438199,2072.576638,9992.780217
921.248534,153.219100,1924.535449,10066.800811
921.248853,0.000000,1850.514855,10510.924376
921.249172,0.000000,1702.473667,10658.965565
921.249491,0.000000,1924.535449,10732.986159
921.249810,0.000000,1924.535449,10658.965565
921.250128,0.000000,1702.473667,10658.965565
921.250447,383.047749,1850.514855,10584.944971
921.250766,842.705048,1924.535449,10140.821405
921.251085,229.828649,2220.617826,9622.677246
921.251403,612.876398,2146.597232,9178.553681
921.251722,689.485948,1850.514855,9030.512492
921.252041,536.266849,1554.432478,8882.471304
921.252360,229.828649,1110.308913,9474.636058
921.252678,153.219100,740.205942,9622.677246
921.252997,76.609550,592.164754,9770.718434
921.253316,459.657299,740.205942,9622.677246
921.253635,612.876398,296.082377,9548.656652
921.253953,0.000000,444.123565,8956.491898
921.254272,76.609550,666.185348,8734.430116
921.254591,0.000000,222.061783,8512.368333
921.254910,-612.876398,-74.020594,8956.491898
921.255228,-612.876398,-666.185348,9252.574275
921.255547,-1149.143247,-1036.288319,9548.656652
921.255866,-1149.143247,-1332.370696,9844.739029
921.256185,-1149.143247,-1258.350101,9696.697840
921.256503,-1149.143247,-1184.329507,9770.718434
921.256822,0.000000,-1258.350101,9696.697840
921.257141,0.000000,-1110.308913,9400.615463
921.257460,0.000000,-1406.391290,9030.512492
921.257779,536.266849,-1036.288319,8734.430116
921.258097,1302.362347,-962.267725,8290.306550
921.258416,1532.190996,-666.185348,7772.162391
921.258735,1685.410096,-666.185348,7698.141797
921.259054,1455.581446,-740.205942,7624.121203
921.259372,1685.410096,-740.205942,7772.162391
921.259691,1532.190996,-666.185348,7624.121203
921.260010,1455.581446,-962.267725,7920.203579
921.260329,1378.971896,-740.205942,8216.285956
921.260647,1302.362347,-518.144159,7550.100608
921.260966,995.924147,-296.082377,7772.162391
921.261285,995.924147,-592.164754,8142.265362
921.261604,842.705048,-222.061783,7920.203579
921.261922,536.266849,-74.020594,8068.244768
921.262241,459.657299,-0.000000,8142.265362
921.262560,306.438199,-0.000000,8290.306550
921.262879,76.609550,74.020594,8216.285956
921.263197,153.219100,444.123565,8512.368333
921.263516,766.095498,666.185348,8364.327145
921.263835,995.924147,814.226536,8956.491898
921.264154,766.095498,814.226536,8882.471304
921.264472,995.924147,444.123565,8882.471304
921.264791,1072.533697,1036.288319,9030.512492
921.265110,1302.362347,1332.370696,8808.450710
921.265429,1378.971896,1776.494261,8364.327145
921.265748,1838.629195,2368.659014,8290.306550
921.266066,995.924147,1998.556043,8660.409521
921.266385,1685.410096,2072.576638,8882.471304
921.266704,919.314598,1628.453072,9474.636058
921.267023,1302.362347,1628.453072,9622.677246
921.267341,995.924147,1480.411884,10214.842000
921.267660,842.705048,1628.453072,10362.883188
921.267979,536.266849,1776.494261,10362.883188
921.268298,536.266849,2220.617826,10214.842000
921.268616,229.828649,1850.514855,9918.759623
921.268935,76.609550,1924.535449,10140.821405
921.269254,-459.657299,1406.391290,10288.862594
921.269573,-459.657299,1258.350101,10584.944971
921.269891,-919.314598,814.226536,11251.130318
921.270210,-1225.752797,740.205942,11547.212695
921.270529,-995.924147,666.185348,11917.315666
921.270848,-1072.533697,1036.288319,11695.253884
921.271166,-842.705048,814.226536,11621.233289
921.271485,-459.657299,1036.288319,11473.192101
921.271804,-536.266849,888.247130,11029.068536
921.272123,-229.828649,888.247130,10436.903782
921.272441,76.609550,1036.288319,10214.842000
921.272760,76.609550,740.205942,9844.739029
921.273079,306.438199,740.205942,9918.759623
921.273398,383.047749,444.123565,9992.780217
921.273717,459.657299,296.082377,9918.759623
921.274035,536.266849,-0.000000,10140.821405
921.274354,536.266849,-0.000000,9992.780217
921.274673,689.485948,296.082377,9696.697840
921.274992,842.705048,296.082377,9474.636058
921.275310,689.485948,222.061783,9326.594869
921.275629,306.438199,-0.000000,9178.553681
921.275948,229.828649,-444.123565,9030.512492
921.276267,383.047749,-1036.288319,8808.450710
921.276585,-153.219100,-888.247130,9400.615463
921.276904,-306.438199,-962.267725,9178.553681
921.277223,-153.219100,-740.205942,9252.574275
921.277542,76.609550,-592.164754,9030.512492
921.277860,0.000000,-740.205942,8882.471304
921.278179,306.438199,-518.144159,8512.368333
921.278498,612.876398,-370.102971,8512.368333
921.278817,766.095498,-518.144159,8068.244768
921.279135,919.314598,-518.144159,7698.141797
921.279454,1378.971896,-296.082377,7772.162391
921.279773,1225.752797,-222.061783,7031.956449
921.280092,1685.410096,-222.061783,6809.894666
921.280410,1685.410096,-222.061783,6735.874072
921.280729,1378.971896,-592.164754,7328.038826
921.281048,1302.362347,-814.226536,7402.059420
921.281367,1302.362347,-370.102971,7698.141797
921.281686,1149.143247,-222.061783,7624.121203
921.282004,1225.752797,-0.000000,7624.121203
921.282323,1149.143247,-148.041188,7772.162391
921.282642,459.657299,-0.000000,7402.059420
921.282961,459.657299,-296.082377,7328.038826
921.283279,0.000000,-296.082377,7772.162391
921.283598,-229.828649,-296.082377,8142.265362
921.283917,-919.314598,-592.164754,9030.512492
921.284236,-842.705048,-666.185348,8882.471304
921.284554,-1225.752797,-74.020594,9474.636058
921.284873,-919.314598,-222.061783,9474.636058
921.285192,-1455.581446,-0.000000,9844.739029
921.285511,-383.047749,-0.000000,9844.739029
921.285829,-383.047749,-0.000000,9622.677246
921.286148,0.000000,518.144159,9844.739029
921.286467,153.219100,444.123565,9696.697840
921.286786,612.876398,592.164754,9474.636058
921.287104,842.705048,740.205942,9400.615463
921.287423,612.876398,370.102971,9548.656652
921.287742,612.876398,222.061783,9992.780217
921.288061,536.266849,-0.000000,10510.924376
921.288379,536.266849,-370.102971,10584.944971
921.288698,229.828649,-0.000000,11029.068536
921.289017,153.219100,-0.000000,11029.068536
921.289336,306.438199,296.082377,10732.986159
921.289655,153.219100,444.123565,10510.924376
921.289973,-536.266849,222.061783,10510.924376
921.290292,-229.828649,-0.000000,10510.924376
921.290611,-689.485948,370.102971,10658.965565
921.290930,-919.314598,518.144159,11029.068536
921.291248,-766.095498,518.144159,11029.068536
921.291567,-842.705048,666.185348,11103.089130
921.291886,-842.705048,814.226536,10732.986159
921.292205,-306.438199,1406.391290,11029.068536
921.292523,76.609550,1406.391290,10510.924376
921.292842,383.047749,1554.432478,10214.842000
921.293161,766.095498,1332.370696,9622.677246
921.293480,995.924147,1628.453072,9326.594869
921.293798,1072.533697,1480.411884,8882.471304
921.294117,1455.581446,1406.391290,8660.409521
921.294436,1685.410096,1332.370696,8512.368333
921.294755,1991.848295,1110.308913,8660.409521
921.295073,1455.581446,666.185348,8956.491898
921.295392,1762.019645,444.123565,8734.430116
921.295711,1915.238745,740.205942,8956.491898
921.296030,2068.457845,962.267725,8660.409521
921.296348,1762.019645,666.185348,8216.285956
921.296667,1532.190996,666.185348,8068.244768
921.296986,1225.752797,370.102971,7994.224174
921.297305,919.314598,-0.000000,7920.203579
921.297623,842.705048,-444.123565,8216.285956
921.297942,383.047749,-666.185348,8586.388927
921.298261,-306.438199,-962.267725,8808.450710
921.298580,0.000000,-740.205942,8882.471304
921.298899,-229.828649,-666.185348,9030.512492
921.299217,0.000000,-740.205942,9178.553681
921.299536,0.000000,-666.185348,9030.512492
921.299855,0.000000,-666.185348,8882.471304
921.300174,229.828649,-592.164754,8438.347739
921.300492,842.705048,-962.267725,8512.368333
921.300811,689.485948,-666.185348,8142.265362
921.301130,766.095498,-592.164754,8068.244768
921.301449,1072.533697,-592.164754,7624.121203
921.301767,766.095498,-740.205942,7994.224174
921.302086,842.705048,-814.226536,8660.409521
921.302405,612.876398,-814.226536,8808.450710
921.302724,766.095498,-518.144159,9178.553681
921.303042,612.876398,-444.123565,8882.471304
921.303361,459.657299,-0.000000,8734.430116
921.303680,229.828649,-0.000000,8586.388927
921.303999,229.828649,-74.020594,8660.409521
921.304317,153.219100,-0.000000,8734.430116
921.304636,-459.657299,-222.061783,8956.491898
921.304955,-459.657299,-296.082377,9474.636058
921.305274,-919.314598,-74.020594,9696.697840
921.305592,-766.095498,-74.020594,9844.739029
921.305911,-919.314598,-0.000000,10140.821405
921.306230,-919.314598,518.144159,10140.821405
921.306549,-306.438199,666.185348,9992.780217
921.306868,-229.828649,814.226536,9844.739029
921.307186,229.828649,740.205942,9844.739029
921.307505,0.000000,740.205942,9548.656652
921.307824,459.657299,518.144159,9326.594869
921.308143,919.314598,888.247130,9474.636058
921.308461,842.705048,666.185348,9326.594869
921.308780,536.266849,592.164754,9548.656652
921.309099,766.095498,370.102971,9918.759623
921.309418,612.876398,222.061783,10140.821405
921.309736,919.314598,444.123565,10140.821405
921.310055,919.314598,666.185348,9918.759623
921.310374,919.314598,1110.308913,9622.677246
921.310693,1149.143247,1184.329507,9474.636058
921.311011,1455.581446,1110.308913,9326.594869
921.311330,766.095498,888.247130,9474.636058
921.311649,383.047749,592.164754,9548.656652
921.311968,153.219100,592.164754,9770.718434
921.312286,0.000000,592.164754,9770.718434
921.312605,0.000000,518.144159,9918.759623
921.312924,306.438199,814.226536,9770.718434
921.313243,306.438199,962.267725,9696.697840
921.313561,612.876398,962.267725,9696.697840
921.313880,1072.533697,1110.308913,9770.718434
921.314199,1455.581446,814.226536,9474.636058
921.314518,1302.362347,888.247130,9326.594869
921.314837,1455.581446,1184.329507,8882.471304
921.315155,1991.848295,1258.350101,8512.368333
921.315474,1685.410096,962.267725,8364.327145
921.315793,1838.629195,1036.288319,8290.306550
921.316112,1991.848295,1036.288319,8734.430116
921.316430,1991.848295,814.226536,8882.471304
921.316749,1302.362347,444.123565,9326.594869
921.317068,1532.190996,814.226536,9548.656652
921.317387,1072.533697,888.247130,9252.574275
921.317705,842.705048,666.185348,8660.409521
921.318024,459.657299,740.205942,8660.409521
921.318343,459.657299,592.164754,8586.388927
921.318662,0.000000,370.102971,8734.430116
921.318980,-383.047749,-0.000000,9104.533087
921.319299,-689.485948,-296.082377,9400.615463
921.319618,-919.314598,-444.123565,9696.697840
921.319937,-919.314598,-370.102971,9992.780217
921.320255,-1149.143247,-148.041188,9918.759623
921.320574,-842.705048,-74.020594,9918.759623
921.320893,-766.095498,-74.020594,9548.656652
921.321212,-153.219100,148.041188,9548.656652
921.321530,306.438199,222.061783,9400.615463
921.321849,229.828649,592.164754,8586.388927
921.322168,536.266849,296.082377,8290.306550
921.322487,766.095498,518.144159,8364.327145
921.322806,459.657299,518.144159,8586.388927
921.323124,919.314598,-0.000000,9030.512492
921.323443,689.485948,222.061783,9326.594869
921.323762,842.705048,370.102971,9252.574275
921.324081,842.705048,814.226536,9400.615463
921.324400,536.266849,666.185348,9326.594869
921.324718,1149.143247,592.164754,8734.430116
921.325037,689.485948,592.164754,8438.347739
921.325356,536.266849,370.102971,8512.368333
921.325675,229.828649,370.102971,8956.491898
921.325994,76.609550,-74.020594,9104.533087
921.326312,76.609550,-74.020594,9400.615463
921.326631,-153.219100,-0.000000,9770.718434
921.326950,-306.438199,-148.041188,9770.718434
921.327269,-153.219100,148.041188,9844.739029
921.327588,306.438199,222.061783,9696.697840
921.327907,536.266849,-0.000000,9622.677246
921.328225,766.095498,296.082377,9696.697840
921.328544,1072.533697,222.061783,9548.656652
921.328863,1302.362347,296.082377,9400.615463
921.329182,1608.800546,518.144159,8734.430116
921.329501,1608.800546,740.205942,8586.388927
921.329819,1762.019645,888.247130,8438.347739
921.330138,2068.457845,740.205942,8660.409521
921.330457,1762.019645,740.205942,8882.471304
921.330776,1762.019645,740.205942,9326.594869
921.331095,1302.362347,666.185348,9400.615463
921.331413,1532.190996,962.267725,9474.636058
921.331732,1532.190996,962.267725,9326.594869
921.332051,1455.581446,1258.350101,9178.553681
921.332370,995.924147,1258.350101,9104.533087
921.332689,536.266849,1184.329507,9030.512492
921.333007,229.828649,962.267725,9178.553681
921.333326,536.266849,666.185348,9548.656652
921.333645,0.000000,888.247130,9696.697840
921.333964,-153.219100,962.267725,9770.718434
921.334283,-306.438199,888.247130,10140.821405
921.334601,0.000000,1036.288319,9918.759623
921.334920,-76.609550,666.185348,9992.780217
921.335239,76.609550,1480.411884,9622.677246
921.335558,229.828649,1628.453072,9252.574275
921.335877,229.828649,1554.432478,8882.471304
921.336195,459.657299,1702.473667,8438.347739
921.336514,536.266849,1628.453072,8808.450710
921.336833,612.876398,1184.329507,8882.471304
921.337152,0.000000,888.247130,9400.615463
921.337471,0.000000,740.205942,9622.677246
921.337789,-153.219100,888.247130,9918.759623
921.338108,-153.219100,888.247130,10362.883188
921.338427,-153.219100,962.267725,9548.656652
921.338746,-229.828649,1110.308913,9400.615463
921.339065,-306.438199,1036.288319,9252.574275
921.339383,-306.438199,222.061783,9178.553681
921.339702,-919.314598,-0.000000,9474.636058
921.340021,-536.266849,-74.020594,9548.656652
921.340340,-919.314598,-444.123565,10288.862594
921.340659,-842.705048,-444.123565,10066.800811
921.340977,-229.828649,-370.102971,10140.821405
921.341296,-383.047749,-148.041188,10140.821405
921.341615,0.000000,-0.000000,9844.739029
921.341934,0.000000,-0.000000,9622.677246
921.342253,689.485948,148.041188,9622.677246
921.342572,842.705048,-0.000000,9030.512492
921.342890,1378.971896,-0.000000,8734.430116
921.343209,1532.190996,148.041188,8438.347739
921.343528,1608.800546,296.082377,8142.265362
921.343847,1991.848295,592.164754,8142.265362
921.344166,2068.457845,148.041188,7846.182985
921.344484,1915.238745,148.041188,8142.265362
921.344803,2145.067394,222.061783,8660.409521
921.345122,1915.238745,-0.000000,9104.533087
921.345441,2298.286494,-0.000000,8882.471304
921.345760,1378.971896,-148.041188,8660.409521
921.346078,1608.800546,-0.000000,8512.368333
921.346397,1378.971896,-0.000000,8290.306550
921.346716,919.314598,148.041188,8364.327145
921.347035,919.314598,-0.000000,8512.368333
921.347354,383.047749,-0.000000,8512.368333
921.347672,153.219100,-0.000000,8438.347739
921.347991,0.000000,-0.000000,8808.450710
921.348310,0.000000,-0.000000,9030.512492
921.348629,0.000000,-0.000000,9474.636058
921.348948,-229.828649,370.102971,9474.636058
921.349266,0.000000,814.226536,9474.636058
921.349585,229.828649,814.226536,9252.574275
921.349904,689.485948,1258.350101,8734.430116
921.350223,842.705048,1332.370696,8290.306550
921.350542,1072.533697,1258.350101,8068.244768
921.350860,612.876398,1036.288319,8142.265362
921.351179,689.485948,814.226536,8586.388927
921.351498,536.266849,592.164754,9400.615463
921.351817,612.876398,296.082377,9548.656652
921.352136,153.219100,666.185348,10288.862594
921.352454,229.828649,962.267725,9770.718434
921.352773,229.828649,1036.288319,9622.677246
921.353092,383.047749,962.267725,9770.718434
921.353411,153.219100,888.247130,9474.636058
921.353730,0.000000,592.164754,9474.636058
921.354048,-459.657299,296.082377,9622.677246
921.354367,-612.876398,-0.000000,10066.800811
921.354686,-919.314598,-0.000000,10362.883188
921.355005,-1685.410096,-0.000000,10510.924376
921.355324,-1072.533697,444.123565,10658.965565
921.355642,-1072.533697,592.164754,10732.986159
921.355961,-689.485948,888.247130,10658.965565
921.356280,-383.047749,740.205942,10436.903782
921.356599,-383.047749,592.164754,10214.842000
921.356918,0.000000,592.164754,9844.739029
921.357236,306.438199,740.205942,9622.677246
921.357555,612.876398,740.205942,9548.656652
921.357874,689.485948,592.164754,9474.636058
921.358193,766.095498,518.144159,9474.636058
921.358512,1149.143247,148.041188,9548.656652
921.358831,1455.581446,370.102971,9548.656652
921.359149,1072.533697,148.041188,9326.594869
921.359468,1532.190996,518.144159,9474.636058
921.359787,1302.362347,370.102971,9474.636058
921.360106,1072.533697,148.041188,9030.512492
921.360425,459.657299,-370.102971,9104.533087
921.360743,536.266849,-74.020594,8882.471304
921.361062,229.828649,-222.061783,8956.491898
921.361381,76.609550,-296.082377,9030.512492
921.361700,0.000000,-444.123565,9104.533087
921.362019,-153.219100,-74.020594,9252.574275
921.362337,0.000000,-0.000000,9400.615463
921.362656,0.000000,-0.000000,8956.491898
921.362975,153.219100,148.041188,9104.533087
921.363294,459.657299,-0.000000,8956.491898
921.363613,459.657299,-74.020594,8660.409521
921.363931,842.705048,296.082377,8364.327145
921.364250,1072.533697,444.123565,7994.224174
921.364569,1608.800546,740.205942,7402.059420
921.364888,1685.410096,518.144159,7698.141797
921.365207,1608.800546,370.102971,7550.100608
921.365525,1302.362347,370.102971,8068.244768
921.365844,1072.533697,-0.000000,8586.388927
921.366163,842.705048,-0.000000,9030.512492
921.366482,842.705048,-0.000000,8956.491898
921.366801,766.095498,-0.000000,9104.533087
921.367119,459.657299,148.041188,8808.450710
921.367438,229.828649,-0.000000,8364.327145
921.367757,76.609550,-148.041188,8142.265362
921.368076,0.000000,-74.020594,8734.430116
921.368395,-536.266849,-296.082377,8956.491898
921.368713,-919.314598,-592.164754,9474.636058
921.369032,-689.485948,-370.102971,9770.718434
921.369351,-689.485948,-444.123565,9992.780217
921.369670,-995.924147,-74.020594,9918.759623
921.369989,-766.095498,-0.000000,10066.800811
921.370307,-306.438199,-74.020594,9844.739029
921.370626,-306.438199,-0.000000,9696.697840
921.370945,153.219100,-0.000000,9622.677246
921.371264,536.266849,222.061783,9474.636058
921.371583,383.047749,-0.000000,9400.615463
921.371901,842.705048,296.082377,9326.594869
921.372220,459.657299,-0.000000,9326.594869
921.372539,1072.533697,-0.000000,9548.656652
921.372858,536.266849,370.102971,9844.739029
921.373177,612.876398,518.144159,9918.759623
921.373495,842.705048,740.205942,9918.759623
921.373814,689.485948,888.247130,9696.697840
921.374133,842.705048,888.247130,9696.697840
921.374452,842.705048,518.144159,9474.636058
921.374771,306.438199,518.144159,9178.553681
921.375090,229.828649,666.185348,9326.594869
921.375408,229.828649,592.164754,9474.636058
921.375727,76.609550,296.082377,9548.656652
921.376046,-306.438199,518.144159,9770.718434
921.376365,-306.438199,592.164754,9770.718434
921.376684,0.000000,740.205942,9474.636058
921.377002,0.000000,740.205942,9844.739029
921.377321,76.609550,518.144159,9844.739029
921.377640,229.828649,518.144159,9474.636058
921.377959,612.876398,592.164754,9548.656652
921.378278,842.705048,888.247130,8882.471304
921.378596,1225.752797,740.205942,8586.388927
921.378915,1378.971896,1036.288319,8216.285956
921.379234,1455.581446,740.205942,8290.306550
921.379553,1532.190996,592.164754,8438.347739
921.379872,1532.190996,222.061783,8882.471304
921.380190,1455.581446,222.061783,9178.553681
921.380509,1455.581446,-0.000000,9400.615463
921.380828,1532.190996,444.123565,9030.512492
921.381147,1455.581446,666.185348,8956.491898
921.381466,1302.362347,592.164754,8364.327145
921.381784,995.924147,444.123565,8068.244768
921.382103,689.485948,370.102971,8364.327145
921.382422,383.047749,-0.000000,8808.450710
921.382741,153.219100,-370.102971,9178.553681
921.383060,-306.438199,-370.102971,9474.636058
921.383378,-459.657299,-296.082377,9622.677246
921.383697,-229.828649,-74.020594,9770.718434
921.384016,-459.657299,-0.000000,10066.800811
921.384335,-229.828649,-0.000000,9770.718434
921.384654,-306.438199,-0.000000,9844.739029
921.384972,459.657299,-0.000000,9326.594869
921.385291,536.266849,-0.000000,9400.615463
921.385610,612.876398,148.041188,8882.471304
921.385929,766.095498,-0.000000,8956.491898
921.386248,536.266849,370.102971,9104.533087
921.386566,612.876398,-0.000000,9030.512492
921.386885,536.266849,-0.000000,9252.574275
921.387204,689.485948,-0.000000,9326.594869
921.387523,689.485948,-222.061783,9326.594869
921.387842,459.657299,370.102971,9326.594869
921.388160,689.485948,740.205942,9326.594869
921.388479,229.828649,370.102971,9326.594869
921.388798,0.000000,148.041188,9326.594869
921.389117,0.000000,-74.020594,9622.677246
921.389436,-459.657299,-148.041188,9696.697840
921.389754,-612.876398,-74.020594,10140.821405
921.390073,-612.876398,-296.082377,9992.780217
921.390392,-536.266849,-148.041188,9992.780217
921.390711,-1225.752797,-0.000000,10436.903782
921.391030,0.000000,-0.000000,10362.883188
921.391349,0.000000,-74.020594,9992.780217
921.391667,76.609550,148.041188,9622.677246
921.391986,612.876398,370.102971,9622.677246
921.392305,842.705048,-0.000000,9178.553681
921.392624,1072.533697,518.144159,8512.368333
921.392943,1378.971896,740.205942,8438.347739
921.393261,1378.971896,444.123565,8290.306550
921.393580,1455.581446,222.061783,8734.430116
921.393899,306.438199,-0.000000,9252.574275
921.394218,766.095498,-0.000000,9326.594869
921.394537,766.095498,148.041188,9104.533087
921.394855,689.485948,592.164754,9326.594869
921.395174,842.705048,814.226536,8808.450710
921.395493,842.705048,814.226536,8586.388927
921.395812,612.876398,814.226536,8364.327145
921.396131,459.657299,518.144159,8438.347739
921.396449,229.828649,370.102971,8734.430116
921.396768,383.047749,-0.000000,8808.450710
921.397087,-153.219100,-0.000000,9178.553681
921.397406,-153.219100,-0.000000,9400.615463
921.397725,0.000000,-0.000000,9326.594869
921.398043,383.047749,444.123565,9252.574275
921.398362,612.876398,518.144159,9400.615463
921.398681,842.705048,592.164754,9104.533087
921.399000,995.924147,666.185348,9178.553681
921.399319,1302.362347,518.144159,8734.430116
921.399637,1685.410096,814.226536,8438.347739
921.399956,1608.800546,592.164754,8216.285956
921.400275,1608.800546,888.247130,8512.368333
921.400594,1378.971896,814.226536,8438.347739
921.400913,1608.800546,518.144159,8808.450710
921.401231,1532.190996,296.082377,9400.615463
921.401550,1302.362347,370.102971,9474.636058
921.401869,1608.800546,592.164754,9548.656652
921.402188,1302.362347,666.185348,9474.636058
921.402507,1072.533697,666.185348,9326.594869
921.402825,842.705048,592.164754,9326.594869
921.403144,0.000000,-0.000000,9326.594869
921.403463,0.000000,370.102971,9918.759623
921.403782,-612.876398,-0.000000,9696.697840
921.404101,-919.314598,-74.020594,10066.800811
921.404419,-995.924147,-0.000000,10584.944971
921.404738,-1225.752797,-0.000000,10584.944971
921.405057,-1149.143247,74.020594,10658.965565
921.405376,-842.705048,370.102971,10584.944971
921.405695,-919.314598,592.164754,10510.924376
921.406013,-383.047749,888.247130,9844.739029
921.406332,153.219100,1480.411884,9474.636058
921.406651,229.828649,1480.411884,9104.533087
921.406970,689.485948,1628.453072,8586.388927
921.407289,1149.143247,1628.453072,8586.388927
921.407608,1225.752797,1554.432478,8660.409521
921.407926,1378.971896,1332.370696,9030.512492
921.408245,1302.362347,1184.329507,9474.636058
921.408564,1302.362347,666.185348,9474.636058
921.408883,1072.533697,962.267725,9178.553681
921.409202,1149.143247,1258.350101,9326.594869
921.409520,1149.143247,1110.308913,9178.553681
921.409839,1072.533697,814.226536,8734.430116
921.410158,383.047749,814.226536,8882.471304
921.410477,153.219100,370.102971,8808.450710
921.410796,153.219100,-0.000000,9400.615463
921.411114,0.000000,-444.123565,9178.553681
921.411433,-459.657299,-148.041188,9844.739029
921.411752,-229.828649,-666.185348,9918.759623
921.412071,-306.438199,148.041188,9400.615463
921.412390,76.609550,-0.000000,9548.656652
921.412708,153.219100,-0.000000,9474.636058
921.413027,229.828649,-222.061783,9622.677246
921.413346,459.657299,-74.020594,9474.636058
921.413665,459.657299,-444.123565,9252.574275
921.413984,995.924147,-0.000000,8734.430116
921.414302,1302.362347,-0.000000,8660.409521
921.414621,1608.800546,-0.000000,8586.388927
921.414940,1302.362347,222.061783,8660.409521
921.415259,1378.971896,-148.041188,8808.450710
921.415578,1608.800546,-0.000000,9030.512492
921.415896,2068.457845,148.041188,8956.491898
921.416215,2145.067394,-0.000000,8660.409521
921.416534,1608.800546,518.144159,8364.327145
921.416853,1762.019645,666.185348,8290.306550
921.417172,1378.971896,814.226536,8364.327145
921.417490,766.095498,666.185348,8364.327145
921.417809,229.828649,518.144159,8586.388927
921.418128,153.219100,444.123565,8882.471304
921.418447,229.828649,518.144159,9178.553681
921.418766,0.000000,444.123565,9474.636058
921.419084,-306.438199,592.164754,9474.636058
921.419403,612.876398,518.144159,9622.677246
921.419722,-306.438199,740.205942,9770.718434
921.420041,0.000000,962.267725,9474.636058
921.420360,76.609550,1184.329507,8956.491898
921.420678,383.047749,1258.350101,8808.450710
921.420997,306.438199,1332.370696,8512.368333
921.421316,689.485948,1332.370696,8364.327145
921.421635,459.657299,1110.308913,8438.347739
921.421954,459.657299,962.267725,8882.471304
921.422273,229.828649,666.185348,9548.656652
921.422592,0.000000,148.041188,9844.739029
921.422911,-383.047749,370.102971,9992.780217
921.423230,0.000000,740.205942,10066.800811
921.423549,0.000000,740.205942,9696.697840
921.423867,-153.219100,1036.288319,9548.656652
921.424186,0.000000,814.226536,9178.553681
921.424505,-536.266849,666.185348,9548.656652
921.424824,-153.219100,296.082377,9918.759623
921.425143,-689.485948,370.102971,10140.821405
921.425462,-612.876398,370.102971,10288.862594
921.425781,-536.266849,740.205942,10362.883188
921.426100,-689.485948,370.102971,10362.883188
921.426419,0.000000,962.267725,10066.800811
921.426738,229.828649,740.205942,9992.780217
921.427056,536.266849,518.144159,9622.677246
921.427375,766.095498,592.164754,9918.759623
921.427694,1302.362347,148.041188,9770.718434
921.428013,1302.362347,296.082377,9326.594869
921.428332,1838.629195,518.144159,9474.636058
921.428651,1532.190996,592.164754,8660.409521
921.428970,1762.019645,814.226536,8734.430116
921.429289,1915.238745,370.102971,9178.553681
921.429608,1685.410096,444.123565,8956.491898
921.429927,1991.848295,74.020594,9030.512492
921.430245,1608.800546,370.102971,9400.615463
921.430564,1532.190996,296.082377,8956.491898
921.430883,1608.800546,296.082377,9030.512492
921.431202,1072.533697,-0.000000,8808.450710
921.431521,383.047749,296.082377,8956.491898
921.431840,153.219100,-74.020594,8808.450710
921.432159,0.000000,-0.000000,8734.430116
921.432478,-612.876398,-148.041188,9252.574275
921.432797,-459.657299,-74.020594,9030.512492
921.433115,-536.266849,-74.020594,9326.594869
921.433434,-459.657299,-222.061783,9474.636058
921.433753,-383.047749,-0.000000,9474.636058
921.434072,0.000000,-148.041188,9400.615463
921.434391,306.438199,-0.000000,8882.471304
921.434710,306.438199,296.082377,8660.409521
921.435029,1072.533697,666.185348,8068.244768
921.435348,1225.752797,592.164754,8068.244768
921.435667,1378.971896,740.205942,7698.141797
921.435986,1149.143247,444.123565,8142.265362
921.436304,1378.971896,370.102971,8438.347739
921.436623,995.924147,296.082377,9178.553681
921.436942,536.266849,370.102971,9252.574275
921.437261,306.438199,148.041188,9252.574275
921.437580,536.266849,666.185348,9030.512492
921.437899,383.047749,1036.288319,8808.450710
921.438218,153.219100,888.247130,8660.409521
921.438537,153.219100,666.185348,8808.450710
921.438856,612.876398,-74.020594,9326.594869
921.439175,-689.485948,-0.000000,9548.656652
921.439493,-919.314598,-0.000000,9770.718434
921.439812,-919.314598,-0.000000,10066.800811
921.440131,-536.266849,370.102971,10066.800811
921.440450,-689.485948,370.102971,9918.759623
921.440769,-383.047749,370.102971,9844.739029
921.441088,-306.438199,592.164754,9696.697840
921.441407,0.000000,666.185348,9622.677246
921.441726,0.000000,518.144159,9622.677246
921.442045,536.266849,370.102971,9622.677246
921.442364,153.219100,444.123565,9326.594869
921.442682,766.095498,666.185348,9400.615463
921.443001,766.095498,444.123565,9252.574275
921.443320,689.485948,370.102971,9696.697840
921.443639,842.705048,296.082377,9696.697840
921.443958,1072.533697,222.061783,9770.718434
921.444277,919.314598,222.061783,9844.739029
921.444596,1072.533697,518.144159,9548.656652
921.444915,689.485948,222.061783,9622.677246
921.445234,919.314598,222.061783,9178.553681
921.445552,536.266849,370.102971,9400.615463
921.445871,229.828649,296.082377,9326.594869
921.446190,0.000000,148.041188,9400.615463
921.446509,153.219100,-0.000000,9696.697840
921.446828,459.657299,-0.000000,9548.656652
921.447147,0.000000,148.041188,9770.718434
921.447466,306.438199,148.041188,9622.677246
921.447785,383.047749,370.102971,9400.615463
921.448104,689.485948,666.185348,9844.739029
921.448423,766.095498,740.205942,9474.636058
921.448741,1149.143247,814.226536,8956.491898
921.449060,1378.971896,814.226536,8512.368333
921.449379,1378.971896,888.247130,8364.327145
921.449698,1608.800546,740.205942,7920.203579
921.450017,1455.581446,888.247130,7994.224174
921.450336,1225.752797,592.164754,8364.327145
921.450655,1072.533697,296.082377,8660.409521
921.450974,1608.800546,296.082377,8956.491898
921.451293,995.924147,518.144159,9178.553681
921.451612,919.314598,888.247130,8882.471304
921.451930,536.266849,1184.329507,8438.347739
921.452249,383.047749,1036.288319,8438.347739
921.452568,306.438199,592.164754,8290.306550
921.452887,-153.219100,370.102971,8586.388927
921.453206,-536.266849,-0.000000,8734.430116
921.453525,-766.095498,-222.061783,9326.594869
921.453844,-842.705048,-222.061783,9844.739029
921.454163,-1225.752797,-222.061783,10214.842000
921.454482,-1302.362347,-222.061783,9844.739029
921.454801,-842.705048,-0.000000,9844.739029
921.455119,-689.485948,-0.000000,9844.739029
921.455438,-919.314598,-0.000000,9918.759623
921.455757,0.000000,-0.000000,9474.636058
921.456076,229.828649,-0.000000,9252.574275
921.456395,459.657299,296.082377,9252.574275
921.456714,689.485948,-0.000000,9104.533087
921.457033,612.876398,-0.000000,8956.491898
921.457352,383.047749,-370.102971,9400.615463
921.457671,842.705048,-296.082377,9474.636058
921.457990,689.485948,-296.082377,9622.677246
921.458308,689.485948,-0.000000,9770.718434
921.458627,689.485948,-0.000000,9918.759623
921.458946,766.095498,-0.000000,9622.677246
921.459265,536.266849,-0.000000,9474.636058
921.459584,306.438199,-0.000000,9474.636058
921.459903,766.095498,-74.020594,9548.656652
921.460222,-153.219100,-222.061783,9474.636058
921.460541,229.828649,-74.020594,9548.656652
921.460860,0.000000,-370.102971,9992.780217
921.461178,76.609550,-148.041188,9844.739029
921.461497,459.657299,-74.020594,10140.821405
921.461816,383.047749,296.082377,9622.677246
921.462135,612.876398,-0.000000,9474.636058
921.462454,995.924147,-0.000000,9400.615463
921.462773,1455.581446,296.082377,9178.553681
921.463092,1072.533697,592.164754,8808.450710
921.463411,1608.800546,1258.350101,8216.285956
921.463730,1685.410096,1184.329507,7772.162391
921.464049,1532.190996,1110.308913,7698.141797
921.464367,1072.533697,740.205942,8216.285956
921.464686,1149.143247,370.102971,8660.409521
921.465005,1455.581446,370.102971,9326.594869
921.465324,919.314598,740.205942,8956.491898
921.465643,1378.971896,444.123565,9474.636058
921.465962,766.095498,1332.370696,8882.471304
921.466281,842.705048,1554.432478,8142.265362
921.466600,689.485948,518.144159,8142.265362
921.466919,0.000000,666.185348,8512.368333
921.467238,229.828649,-0.000000,9474.636058
921.467556,-306.438199,666.185348,8142.265362
921.467875,-536.266849,444.123565,9400.615463
921.468194,-229.828649,-518.144159,10140.821405
921.468513,-766.095498,-0.000000,9992.780217
921.468832,-842.705048,-74.020594,9696.697840
921.469151,-306.438199,-222.061783,10288.862594
921.469470,0.000000,296.082377,10214.842000
921.469789,459.657299,518.144159,9474.636058
921.470108,229.828649,962.267725,9326.594869
921.470427,383.047749,518.144159,9252.574275
921.470745,536.266849,-0.000000,8882.471304
921.471064,459.657299,-0.000000,8956.491898
921.471383,919.314598,148.041188,9030.512492
921.471702,612.876398,444.123565,9400.615463
921.472021,766.095498,-222.061783,9696.697840
921.472340,1149.143247,-148.041188,10436.903782
921.472659,1072.533697,444.123565,9918.759623
921.472978,766.095498,444.123565,9622.677246
921.473297,383.047749,370.102971,9844.739029
921.473615,536.266849,-0.000000,9474.636058
921.473934,459.657299,518.144159,9474.636058
921.474253,-229.828649,370.102971,9252.574275
921.474572,-306.438199,-0.000000,9918.759623
921.474891,-919.314598,-370.102971,9844.739029
921.475210,-383.047749,-0.000000,9918.759623
921.475529,-459.657299,444.123565,9918.759623
921.475848,-229.828649,666.185348,9992.780217
921.476167,0.000000,444.123565,10066.800811
921.476486,0.000000,592.164754,9844.739029
921.476804,459.657299,666.185348,9696.697840
921.477123,842.705048,1036.288319,9030.512492
921.477442,1225.752797,1184.329507,8364.327145
921.477761,1225.752797,1184.329507,8290.306550
921.478080,919.314598,740.205942,8068.244768
921.478399,842.705048,740.205942,8216.285956
921.478718,1072.533697,518.144159,8734.430116
921.479037,842.705048,592.164754,9030.512492
921.479356,842.705048,444.123565,9030.512492
921.479675,919.314598,666.185348,8808.450710
921.479993,612.876398,296.082377,9030.512492
921.480312,842.705048,444.123565,8660.409521
921.480631,612.876398,296.082377,8660.409521
921.480950,306.438199,-0.000000,8586.388927
921.481269,383.047749,-148.041188,8512.368333
921.481588,0.000000,-296.082377,8882.471304
921.481907,0.000000,-222.061783,9104.533087
921.482226,-153.219100,-0.000000,9104.533087
921.482545,0.000000,-148.041188,9474.636058
921.482864,0.000000,-296.082377,9474.636058
921.483182,459.657299,-0.000000,9474.636058
921.483501,536.266849,148.041188,9474.636058
921.483820,995.924147,370.102971,9400.615463
921.484139,1532.190996,666.185348,9178.553681
921.484458,1455.581446,370.102971,8586.388927
921.484777,1532.190996,740.205942,8364.327145
921.485096,2068.457845,592.164754,8364.327145
921.485415,2221.676944,592.164754,8290.306550
921.485734,2298.286494,592.164754,8364.327145
921.486053,2068.457845,592.164754,8882.471304
921.486371,1608.800546,444.123565,9326.594869
921.486690,1608.800546,814.226536,9400.615463
921.487009,1685.410096,888.247130,9252.574275
921.487328,1149.143247,1036.288319,9326.594869
921.487647,689.485948,740.205942,9474.636058
921.487966,306.438199,370.102971,9400.615463
921.488285,-153.219100,296.082377,9474.636058
921.488604,-689.485948,148.041188,9844.739029
921.488923,-689.485948,296.082377,10066.800811
921.489241,-919.314598,296.082377,10140.821405
921.489560,-919.314598,518.144159,10214.842000
921.489879,-1149.143247,444.123565,10510.924376
921.490198,-842.705048,740.205942,10436.903782
921.490517,-842.705048,814.226536,10288.862594
921.490836,-536.266849,888.247130,9918.759623
921.491155,0.000000,888.247130,9400.615463
921.491474,153.219100,740.205942,9400.615463
921.491793,306.438199,962.267725,9104.533087
921.492112,306.438199,814.226536,8956.491898
921.492430,459.657299,814.226536,9030.512492
921.492749,612.876398,518.144159,9400.615463
921.493068,153.219100,370.102971,9918.759623
921.493387,153.219100,296.082377,9696.697840
921.493706,306.438199,962.267725,9918.759623
921.494025,459.657299,1036.288319,9696.697840
921.494344,0.000000,888.247130,9178.553681
921.494663,459.657299,592.164754,9178.553681
921.494982,153.219100,592.164754,8956.491898
921.495301,383.047749,148.041188,8882.471304
921.495619,153.219100,-0.000000,9326.594869
921.495938,0.000000,-0.000000,9474.636058
921.496257,0.000000,-74.020594,9400.615463
921.496576,76.609550,-0.000000,9474.636058
921.496895,459.657299,592.164754,9474.636058
921.497214,689.485948,518.144159,9474.636058
921.497533,919.314598,370.102971,9178.553681
921.497852,612.876398,666.185348,9104.533087
921.498171,919.314598,370.102971,8586.388927
921.498490,1302.362347,222.061783,8586.388927
921.498808,1455.581446,148.041188,8586.388927
921.499127,2528.115143,-0.000000,8364.327145
921.499446,1915.238745,-0.000000,8216.285956
921.499765,1991.848295,518.144159,8734.430116
921.500084,2068.457845,296.082377,8512.368333
921.500403,1991.848295,296.082377,8216.285956
921.500722,1991.848295,148.041188,8956.491898
921.501041,1762.019645,-148.041188,9178.553681
921.501360,1608.800546,370.102971,8586.388927
921.501678,1225.752797,-0.000000,8586.388927
921.501997,842.705048,-0.000000,8734.430116
921.502316,229.828649,518.144159,8290.306550
921.502635,0.000000,-0.000000,8586.388927
921.502954,-689.485948,-148.041188,9030.512492
921.503273,-766.095498,-296.082377,9548.656652
921.503592,-383.047749,-74.020594,9400.615463
921.503911,-1225.752797,-0.000000,9548.656652
921.504230,-1149.143247,222.061783,9992.780217
921.504549,-1225.752797,518.144159,9992.780217
921.504867,-766.095498,296.082377,9770.718434
921.505186,-229.828649,592.164754,9844.739029
921.505505,-306.438199,962.267725,9548.656652
921.505824,0.000000,1184.329507,8808.450710
921.506143,76.609550,1184.329507,8586.388927
921.506462,229.828649,962.267725,8882.471304
921.506781,306.438199,888.247130,9400.615463
921.507100,229.828649,592.164754,9474.636058
921.507419,76.609550,444.123565,10066.800811
921.507738,76.609550,518.144159,9992.780217
921.508056,229.828649,592.164754,9992.780217
921.508375,229.828649,814.226536,9918.759623
921.508694,0.000000,740.205942,9474.636058
921.509013,76.609550,592.164754,9326.594869
921.509332,0.000000,666.185348,9178.553681
921.509651,0.000000,296.082377,9178.553681
921.509970,-229.828649,518.144159,9474.636058
921.510289,-459.657299,296.082377,9918.759623
921.510608,-229.828649,222.061783,10288.862594
921.510927,-153.219100,666.185348,10362.883188
921.511245,0.000000,518.144159,10288.862594
921.511564,689.485948,814.226536,10066.800811
921.511883,689.485948,592.164754,9992.780217
921.512202,689.485948,592.164754,9622.677246
921.512521,1455.581446,518.144159,9474.636058
921.512840,1685.410096,370.102971,9326.594869
921.513159,2068.457845,666.185348,8808.450710
921.513478,1915.238745,814.226536,8438.347739
921.513797,1915.238745,666.185348,8512.368333
921.514115,2068.457845,444.123565,8438.347739
921.514434,1608.800546,296.082377,8660.409521
921.514753,1685.410096,518.144159,8808.450710
921.515072,1532.190996,814.226536,8882.471304
921.515391,1532.190996,222.061783,9178.553681
921.515710,1072.533697,370.102971,8660.409521
921.516029,919.314598,296.082377,8512.368333
921.516348,536.266849,296.082377,8882.471304
921.516667,0.000000,148.041188,8734.430116
921.516986,0.000000,-0.000000,8956.491898
921.517304,-306.438199,148.041188,9104.533087
921.517623,-383.047749,296.082377,9326.594869
921.517942,-459.657299,148.041188,9400.615463
921.518261,0.000000,-0.000000,9474.636058
921.518580,153.219100,-0.000000,9474.636058
921.518899,0.000000,222.061783,9474.636058
921.519218,0.000000,370.102971,9178.553681
921.519537,306.438199,518.144159,8882.471304
921.519856,536.266849,666.185348,8438.347739
921.520175,536.266849,888.247130,8068.244768
921.520493,766.095498,592.164754,7920.203579
921.520812,459.657299,370.102971,8438.347739
921.521131,459.657299,222.061783,8808.450710
921.521450,0.000000,-0.000000,9326.594869
921.521769,229.828649,296.082377,9696.697840
921.522088,153.219100,370.102971,9918.759623
921.522407,0.000000,518.144159,9474.636058
921.522726,76.609550,888.247130,9178.553681
921.523045,-306.438199,444.123565,9178.553681
921.523363,76.609550,222.061783,9326.594869
921.523682,-306.438199,148.041188,9548.656652
921.524001,-306.438199,-222.061783,9918.759623
921.524320,-689.485948,-0.000000,9622.677246
921.524638,-459.657299,740.205942,9992.780217
921.524957,-306.438199,222.061783,9770.718434
921.525276,-612.876398,-0.000000,10288.862594
921.525595,-229.828649,-0.000000,10214.842000
921.525914,-229.828649,962.267725,9992.780217
921.526232,229.828649,296.082377,9844.739029
921.526551,383.047749,-0.000000,9696.697840
921.526870,612.876398,-296.082377,10436.903782
921.527189,612.876398,-0.000000,9252.574275
921.527507,1455.581446,444.123565,9474.636058
921.527826,1302.362347,740.205942,9474.636058
921.528145,1149.143247,518.144159,9622.677246
921.528464,995.924147,222.061783,8808.450710
921.528783,919.314598,518.144159,9104.533087
921.529101,1225.752797,222.061783,9474.636058
921.529420,1378.971896,370.102971,8882.471304
921.529739,1302.362347,666.185348,9030.512492
921.530058,689.485948,444.123565,8882.471304
921.530377,383.047749,296.082377,9104.533087
921.530695,459.657299,-148.041188,9030.512492
921.531014,0.000000,-0.000000,8956.491898
921.531333,76.609550,-0.000000,9252.574275
921.531652,0.000000,222.061783,8882.471304
921.531970,0.000000,-444.123565,9696.697840
921.532289,0.000000,-296.082377,9696.697840
921.532608,153.219100,518.144159,9474.636058
921.532927,229.828649,296.082377,8956.491898
921.533246,842.705048,-0.000000,9178.553681
921.533564,1225.752797,222.061783,9474.636058
921.533883,1072.533697,814.226536,8216.285956
921.534202,1072.533697,1554.432478,6957.935855
921.534521,1532.190996,962.267725,7624.121203
921.534839,1685.410096,592.164754,8068.244768
921.535158,1302.362347,592.164754,7994.224174
921.535477,1302.362347,-0.000000,8734.430116
921.535796,612.876398,-74.020594,9548.656652
921.536115,842.705048,222.061783,9474.636058
921.536433,459.657299,222.061783,9178.553681
921.536752,153.219100,814.226536,9400.615463
921.537071,76.609550,444.123565,9030.512492
921.537390,229.828649,296.082377,8586.388927
921.537708,0.000000,296.082377,8660.409521
921.538027,-459.657299,444.123565,8734.430116
921.538346,-766.095498,74.020594,9400.615463
921.538665,-1072.533697,-222.061783,10140.821405
921.538984,-995.924147,-74.020594,9844.739029
921.539302,-689.485948,518.144159,9992.780217
921.539621,-842.705048,444.123565,9992.780217
921.539940,-612.876398,-0.000000,9844.739029
921.540259,-383.047749,666.185348,9622.677246
921.540578,229.828649,666.185348,9474.636058
921.540896,229.828649,740.205942,9400.615463
921.541215,229.828649,518.144159,9326.594869
921.541534,536.266849,296.082377,9252.574275
921.541853,536.266849,296.082377,9400.615463
921.542171,536.266849,370.102971,9474.636058
921.542490,536.266849,-0.000000,9400.615463
921.542809,536.266849,-148.041188,9622.677246
921.543128,919.314598,-0.000000,9770.718434
921.543447,1225.752797,296.082377,9622.677246
921.543765,842.705048,296.082377,9622.677246
921.544084,1149.143247,-0.000000,9400.615463
921.544403,842.705048,-0.000000,9474.636058
921.544722,383.047749,-148.041188,9622.677246
921.545040,-153.219100,-444.123565,9474.636058
921.545359,0.000000,-74.020594,9770.718434
921.545678,-306.438199,-74.020594,9770.718434
921.545997,0.000000,148.041188,9474.636058
921.546316,153.219100,-74.020594,9918.759623
921.546634,306.438199,-0.000000,9844.739029
921.546953,842.705048,-0.000000,9474.636058
921.547272,1149.143247,370.102971,9474.636058
921.547591,995.924147,222.061783,9178.553681
921.547910,1532.190996,814.226536,8734.430116
921.548228,1838.629195,962.267725,8438.347739
921.548547,1838.629195,814.226536,7846.182985
921.548866,2298.286494,666.185348,7550.100608
921.549185,1838.629195,666.185348,7994.224174
921.549503,1378.971896,222.061783,8216.285956
921.549822,1455.581446,148.041188,8734.430116
921.550141,1149.143247,296.082377,9104.533087
921.550460,536.266849,814.226536,9252.574275
921.550779,536.266849,814.226536,8882.471304
921.551097,383.047749,740.205942,8364.327145
921.551416,383.047749,592.164754,8512.368333
921.551735,459.657299,444.123565,8438.347739
921.552054,0.000000,148.041188,8586.388927
921.552372,-383.047749,-0.000000,8882.471304
921.552691,-612.876398,-0.000000,9178.553681
921.553010,-995.924147,-0.000000,9474.636058
921.553329,0.000000,-0.000000,9696.697840
921.553648,-1072.533697,-0.000000,9622.677246
921.553966,-459.657299,370.102971,9548.656652
921.554285,-306.438199,-0.000000,9992.780217
921.554604,0.000000,-0.000000,9548.656652
921.554923,536.266849,-148.041188,9622.677246
921.555242,536.266849,370.102971,9178.553681
921.555560,383.047749,296.082377,8882.471304
921.555879,689.485948,296.082377,9104.533087
921.556198,689.485948,148.041188,8882.471304
921.556517,1072.533697,-0.000000,9326.594869
921.556835,689.485948,148.041188,9548.656652
921.557154,1072.533697,-0.000000,9696.697840
921.557473,766.095498,222.061783,9918.759623
921.557792,766.095498,518.144159,9622.677246
921.558111,383.047749,444.123565,9474.636058
921.558429,383.047749,-0.000000,9474.636058
921.558748,0.000000,148.041188,9474.636058
921.559067,0.000000,-0.000000,9696.697840
921.559386,0.000000,-0.000000,9770.718434
921.559704,-229.828649,148.041188,9844.739029
921.560023,-383.047749,370.102971,9844.739029
921.560342,0.000000,740.205942,9844.739029
921.560661,0.000000,592.164754,9918.759623
921.560980,0.000000,592.164754,9844.739029
921.561298,383.047749,888.247130,9474.636058
921.561617,612.876398,666.185348,9474.636058
921.561936,842.705048,1036.288319,9104.533087
921.562255,1072.533697,888.247130,8808.450710
921.562574,1302.362347,962.267725,8438.347739
921.562892,1455.581446,814.226536,8586.388927
921.563211,1072.533697,666.185348,8290.306550
921.563530,1149.143247,592.164754,8808.450710
921.563849,919.314598,-0.000000,9104.533087
921.564167,1225.752797,-0.000000,9030.512492
921.564486,766.095498,592.164754,9400.615463
921.564805,919.314598,592.164754,9252.574275
921.565124,766.095498,518.144159,9030.512492
921.565443,459.657299,444.123565,8586.388927
921.565761,459.657299,370.102971,8734.430116
921.566080,459.657299,-0.000000,8512.368333
921.566399,0.000000,-370.102971,8808.450710
921.566718,0.000000,-74.020594,9252.574275
921.567036,76.609550,-0.000000,9474.636058
921.567355,0.000000,222.061783,9400.615463
921.567674,0.000000,148.041188,9326.594869
921.567993,153.219100,148.041188,9696.697840
921.568312,306.438199,296.082377,9474.636058
921.568630,536.266849,296.082377,9696.697840
921.568949,766.095498,296.082377,9548.656652
921.569268,1225.752797,444.123565,9178.553681
921.569587,1455.581446,518.144159,9030.512492
921.569905,1455.581446,592.164754,8586.388927
921.570224,1532.190996,148.041188,8512.368333
921.570543,1378.971896,370.102971,8734.430116
921.570862,1455.581446,296.082377,8956.491898
921.571181,1378.971896,370.102971,9178.553681
921.571499,842.705048,296.082377,9178.553681
921.571818,1455.581446,592.164754,9178.553681
921.572137,1072.533697,814.226536,8882.471304
921.572456,383.047749,444.123565,8882.471304
921.572775,76.609550,444.123565,8956.491898
921.573093,-459.657299,296.082377,8882.471304
921.573412,-536.266849,-0.000000,9326.594869
921.573731,-919.314598,148.041188,9548.656652
921.574050,-995.924147,-0.000000,9622.677246
921.574368,-995.924147,-0.000000,9770.718434
921.574687,-536.266849,-0.000000,9992.780217
921.575006,-919.314598,222.061783,9696.697840
921.575325,-306.438199,444.123565,9844.739029
921.575644,-229.828649,518.144159,9474.636058
921.575962,689.485948,1036.288319,9400.615463
921.576281,536.266849,1036.288319,8882.471304
921.576600,919.314598,1184.329507,8586.388927
921.576919,1225.752797,1258.350101,8216.285956
921.577237,1302.362347,1332.370696,8438.347739
921.577556,1302.362347,666.185348,8734.430116
921.577875,1302.362347,666.185348,9252.574275
921.578194,842.705048,666.185348,9770.718434
921.578513,995.924147,518.144159,9992.780217
921.578831,689.485948,666.185348,9696.697840
921.579150,842.705048,962.267725,9696.697840
921.579469,459.657299,814.226536,9400.615463
921.579788,153.219100,592.164754,9104.533087
921.580107,0.000000,222.061783,9400.615463
921.580425,-153.219100,-0.000000,9474.636058
921.580744,0.000000,-0.000000,9548.656652
921.581063,-229.828649,-0.000000,10140.821405
921.581382,-459.657299,-0.000000,9918.759623
921.581700,-153.219100,-0.000000,10066.800811
921.582019,229.828649,-148.041188,9992.780217
921.582338,612.876398,-0.000000,9918.759623
921.582657,153.219100,-74.020594,9770.718434
921.582976,766.095498,-0.000000,9474.636058
921.583294,995.924147,222.061783,9474.636058
921.583613,919.314598,-0.000000,9104.533087
921.583932,1378.971896,518.144159,8734.430116
921.584251,1455.581446,592.164754,8512.368333
921.584569,1302.362347,444.123565,8882.471304
921.584888,1685.410096,-0.000000,8956.491898
921.585207,1302.362347,-0.000000,9326.594869
921.585526,1762.019645,592.164754,9178.553681
921.585845,1302.362347,666.185348,9400.615463
921.586163,1455.581446,518.144159,8882.471304
921.586482,1149.143247,666.185348,8808.450710
921.586801,1149.143247,592.164754,8660.409521
921.587120,536.266849,370.102971,8660.409521
921.587439,229.828649,444.123565,8660.409521
921.587757,0.000000,518.144159,8882.471304
921.588076,0.000000,444.123565,8586.388927
921.588395,0.000000,518.144159,9252.574275
921.588714,-229.828649,666.185348,9326.594869
921.589032,-459.657299,740.205942,9696.697840
921.589351,0.000000,814.226536,9548.656652
921.589670,0.000000,740.205942,9548.656652
921.589989,0.000000,1110.308913,9474.636058
921.590308,229.828649,1036.288319,8956.491898
921.590626,383.047749,1258.350101,8512.368333
921.590945,306.438199,1110.308913,8290.306550
921.591264,842.705048,1036.288319,8586.388927
921.591583,536.266849,888.247130,8660.409521
921.591901,383.047749,518.144159,8956.491898
921.592220,76.609550,370.102971,9474.636058
921.592539,0.000000,370.102971,9918.759623
921.592858,0.000000,592.164754,9622.677246
921.593177,76.609550,740.205942,9474.636058
921.593495,0.000000,666.185348,9178.553681
921.593814,0.000000,518.144159,9252.574275
921.594133,-306.438199,-0.000000,9252.574275
921.594452,0.000000,-0.000000,8956.491898
921.594771,-612.876398,-222.061783,9400.615463
921.595089,-689.485948,-370.102971,9696.697840
921.595408,-612.876398,-148.041188,9992.780217
921.595727,-612.876398,-74.020594,10288.862594
921.596046,-383.047749,-74.020594,10214.842000
921.596364,0.000000,-0.000000,9992.780217
921.596683,383.047749,-0.000000,9770.718434
921.597002,842.705048,-0.000000,9770.718434
921.597321,1225.752797,-222.061783,9548.656652
921.597640,919.314598,74.020594,9252.574275
921.597958,2374.896044,592.164754,8882.471304
921.598277,1915.238745,370.102971,8808.450710
921.598596,1915.238745,518.144159,8882.471304
921.598915,1991.848295,148.041188,8808.450710
921.599233,2145.067394,148.041188,9104.533087
921.599552,1991.848295,148.041188,9178.553681
921.599871,1608.800546,-0.000000,9252.574275
921.600190,1762.019645,148.041188,9178.553681
921.600509,1532.190996,296.082377,9030.512492
921.600827,689.485948,370.102971,9030.512492
921.601146,383.047749,-0.000000,8660.409521
921.601465,306.438199,-0.000000,9104.533087
921.601784,0.000000,-0.000000,9178.553681
921.602102,-229.828649,222.061783,9474.636058
921.602421,-536.266849,296.082377,9474.636058
921.602740,-612.876398,370.102971,9474.636058
921.603059,153.219100,370.102971,9770.718434
921.603378,-536.266849,592.164754,9474.636058
921.603696,-306.438199,814.226536,9548.656652
921.604015,76.609550,1036.288319,9178.553681
921.604334,153.219100,740.205942,8882.471304
921.604653,766.095498,1480.411884,8438.347739
921.604972,766.095498,1628.453072,8290.306550
921.605290,842.705048,1406.391290,7698.141797
921.605609,919.314598,1036.288319,8068.244768
921.605928,459.657299,888.247130,8290.306550
921.606247,383.047749,814.226536,9104.533087
921.606565,229.828649,962.267725,9326.594869
921.606884,76.609550,962.267725,9400.615463
921.607203,0.000000,1184.329507,9474.636058
921.607522,153.219100,962.267725,8956.491898
921.607841,0.000000,1036.288319,9030.512492
921.608159,0.000000,888.247130,9030.512492
921.608478,-153.219100,296.082377,9030.512492
921.608797,-612.876398,-0.000000,9770.718434
921.609116,-383.047749,-296.082377,10140.821405
921.609434,-612.876398,-74.020594,10140.821405
921.609753,-842.705048,-0.000000,9992.780217
921.610072,-612.876398,-0.000000,10288.862594
921.610391,-306.438199,74.020594,10214.842000
921.610710,-229.828649,-74.020594,10140.821405
921.611028,76.609550,-0.000000,10140.821405
921.611347,383.047749,-0.000000,9992.780217
921.611666,612.876398,-0.000000,9622.677246
921.611985,995.924147,-0.000000,9474.636058
921.612304,1072.533697,-222.061783,9548.656652
921.612622,1149.143247,-148.041188,9252.574275
921.612941,1225.752797,-0.000000,9178.553681
921.613260,1149.143247,-0.000000,9474.636058
921.613579,1302.362347,-74.020594,9548.656652
921.613897,1532.190996,-222.061783,9696.697840
921.614216,919.314598,296.082377,9400.615463
921.614535,1072.533697,-0.000000,9400.615463
921.614854,995.924147,-0.000000,9104.533087
921.615173,536.266849,-0.000000,8956.491898
921.615491,229.828649,-0.000000,8808.450710
921.615810,76.609550,-148.041188,9252.574275
921.616129,-153.219100,-74.020594,9400.615463
921.616448,-76.609550,-148.041188,9474.636058
921.616766,-153.219100,-0.000000,9474.636058
921.617085,-153.219100,222.061783,9400.615463
921.617404,76.609550,518.144159,9326.594869
921.617723,383.047749,444.123565,9104.533087
921.618042,383.047749,592.164754,8882.471304
921.618360,1072.533697,1036.288319,9104.533087
921.618679,1225.752797,1184.329507,8068.244768
921.618998,1608.800546,1406.391290,7402.059420
921.619317,1838.629195,1480.411884,7328.038826
921.619636,1762.019645,1258.350101,7402.059420
921.619954,1685.410096,1184.329507,8068.244768
921.620273,1378.971896,740.205942,8438.347739
921.620592,842.705048,666.185348,9104.533087
921.620911,1072.533697,814.226536,9252.574275
921.621229,842.705048,666.185348,9178.553681
921.621548,842.705048,666.185348,9326.594869
921.621867,459.657299,1036.288319,8808.450710
921.622186,383.047749,740.205942,8660.409521
921.622505,0.000000,592.164754,8734.430116
921.622823,0.000000,148.041188,9030.512492
921.623142,-459.657299,-148.041188,9326.594869
921.623461,-536.266849,-0.000000,9622.677246
921.623780,-842.705048,-74.020594,9918.759623
921.624099,-919.314598,-148.041188,9992.780217
921.624417,-919.314598,444.123565,10510.924376
921.624736,-689.485948,370.102971,9918.759623
921.625055,-306.438199,370.102971,10066.800811
921.625374,-153.219100,-0.000000,9844.739029
921.625693,689.485948,444.123565,9844.739029
921.626011,536.266849,148.041188,9548.656652
921.626330,536.266849,222.061783,9622.677246
921.626649,689.485948,592.164754,9326.594869
921.626968,766.095498,296.082377,9474.636058
921.627287,919.314598,740.205942,9696.697840
921.627605,995.924147,-0.000000,9770.718434
921.627924,1072.533697,296.082377,9918.759623
921.628243,919.314598,370.102971,9696.697840
921.628562,995.924147,296.082377,9474.636058
921.628881,919.314598,222.061783,9548.656652
921.629199,536.266849,222.061783,9474.636058
921.629518,153.219100,-0.000000,9400.615463
921.629837,0.000000,-222.061783,9622.677246
921.630156,0.000000,-222.061783,9696.697840
921.630475,-306.438199,-444.123565,9918.759623
921.630793,-383.047749,-0.000000,9992.780217
921.631112,-459.657299,-0.000000,10066.800811
921.631431,0.000000,-0.000000,9770.718434
921.631750,153.219100,148.041188,9918.759623
921.632069,536.266849,222.061783,9696.697840
921.632387,766.095498,740.205942,9400.615463
921.632706,1072.533697,666.185348,8882.471304
921.633025,1455.581446,592.164754,8438.347739
921.633344,1991.848295,1110.308913,7994.224174
921.633663,1838.629195,740.205942,7846.182985
921.633981,1762.019645,666.185348,7994.224174
921.634300,1762.019645,370.102971,8364.327145
921.634619,1378.971896,222.061783,8660.409521
921.634938,1455.581446,518.144159,8808.450710
921.635257,1302.362347,592.164754,8882.471304
921.635575,1149.143247,666.185348,8586.388927
921.635894,1072.533697,888.247130,8438.347739
921.636213,1378.971896,444.123565,8290.306550
921.636532,1072.533697,740.205942,7994.224174
921.636851,459.657299,296.082377,8290.306550
921.637169,306.438199,-0.000000,8512.368333
921.637488,0.000000,222.061783,8882.471304
921.637807,153.219100,-0.000000,9178.553681
921.638126,-383.047749,444.123565,9400.615463
921.638445,-153.219100,518.144159,9474.636058
921.638763,-229.828649,370.102971,9474.636058
921.639082,0.000000,444.123565,9474.636058
921.639401,306.438199,444.123565,9696.697840
921.639720,306.438199,444.123565,9326.594869
921.640039,612.876398,666.185348,9178.553681
921.640357,536.266849,592.164754,9030.512492
921.640676,689.485948,814.226536,9104.533087
921.640995,612.876398,370.102971,9326.594869
921.641314,612.876398,444.123565,9030.512492
921.641633,612.876398,518.144159,9548.656652
921.641951,689.485948,296.082377,9844.739029
921.642270,919.314598,148.041188,9918.759623
921.642589,1149.143247,370.102971,9844.739029
921.642908,383.047749,444.123565,10066.800811
921.643227,0.000000,-0.000000,9548.656652
921.643545,0.000000,-0.000000,9548.656652
921.643864,-612.876398,-296.082377,9918.759623
921.644183,-459.657299,-0.000000,10140.821405
921.644502,-689.485948,-0.000000,10214.842000
921.644821,-766.095498,-0.000000,10140.821405
921.645139,-766.095498,-0.000000,10362.883188
921.645458,0.000000,-0.000000,10584.944971
921.645777,0.000000,-0.000000,10362.883188
921.646096,0.000000,-0.000000,9992.780217
921.646415,459.657299,592.164754,9622.677246
921.646733,766.095498,1036.288319,9252.574275
921.647052,1149.143247,592.164754,8512.368333
921.647371,1455.581446,962.267725,8364.327145
921.647690,1455.581446,518.144159,8734.430116
921.648009,1225.752797,814.226536,8512.368333
921.648327,1455.581446,888.247130,8808.450710
921.648646,1915.238745,370.102971,9252.574275
921.648965,1378.971896,814.226536,9326.594869
921.649284,1378.971896,592.164754,9252.574275
921.649603,1072.533697,962.267725,8956.491898
921.649921,1302.362347,962.267725,8586.388927
921.650240,1455.581446,370.102971,8290.306550
921.650559,919.314598,518.144159,8364.327145
921.650878,919.314598,-74.020594,8512.368333
921.651197,383.047749,-74.020594,8216.285956
921.651515,459.657299,-444.123565,9104.533087
921.651834,306.438199,-370.102971,9252.574275
921.652153,153.219100,518.144159,8882.471304
921.652472,0.000000,-0.000000,9252.574275
921.652791,-306.438199,-0.000000,9326.594869
921.653109,-306.438199,-0.000000,9770.718434
921.653428,229.828649,-222.061783,9474.636058
921.653747,383.047749,-0.000000,9474.636058
921.654066,536.266849,222.061783,9030.512492
921.654385,1532.190996,222.061783,8734.430116
921.654703,766.095498,444.123565,8438.347739
921.655022,1225.752797,592.164754,8660.409521
921.655341,1378.971896,666.185348,8438.347739
921.655660,1072.533697,370.102971,8660.409521
921.655979,1149.143247,370.102971,9178.553681
921.656297,1149.143247,814.226536,9104.533087
921.656616,1149.143247,518.144159,9030.512492
921.656935,689.485948,592.164754,9178.553681
921.657254,459.657299,592.164754,9252.574275
921.657573,229.828649,666.185348,9178.553681
921.657891,0.000000,740.205942,9252.574275
921.658210,-306.438199,-0.000000,9474.636058
921.658529,-689.485948,148.041188,9622.677246
921.658848,-612.876398,370.102971,9992.780217
921.659167,-919.314598,296.082377,10214.842000
921.659485,-536.266849,296.082377,10066.800811
921.659804,-229.828649,370.102971,9918.759623
921.660123,0.000000,888.247130,9918.759623
921.660442,229.828649,888.247130,9770.718434
921.660761,536.266849,962.267725,9548.656652
921.661079,919.314598,962.267725,9252.574275
921.661398,1072.533697,888.247130,8956.491898
921.661717,919.314598,1036.288319,8734.430116
921.662036,1225.752797,444.123565,8882.471304
921.662355,689.485948,370.102971,9178.553681
921.662673,383.047749,518.144159,9474.636058
921.662992,459.657299,296.082377,9548.656652
921.663311,766.095498,-0.000000,9844.739029
921.663630,383.047749,518.144159,9622.677246
921.663949,459.657299,518.144159,9474.636058
921.664267,459.657299,666.185348,9178.553681
921.664586,689.485948,666.185348,9030.512492
921.664905,76.609550,222.061783,9178.553681
921.665224,-229.828649,148.041188,9104.533087
921.665543,0.000000,-0.000000,9622.677246
921.665861,0.000000,-0.000000,9474.636058
921.666180,-153.219100,148.041188,9400.615463
921.666499,0.000000,148.041188,9474.636058
921.666818,153.219100,-0.000000,9622.677246
921.667137,229.828649,-0.000000,9474.636058
921.667455,459.657299,-0.000000,9696.697840
921.667774,383.047749,-0.000000,9474.636058
921.668093,1455.581446,518.144159,9326.594869
921.668412,1532.190996,740.205942,8882.471304
921.668731,1302.362347,814.226536,8216.285956
921.669049,1608.800546,370.102971,7994.224174
921.669368,1838.629195,370.102971,8068.244768
921.669687,2068.457845,-0.000000,8364.327145
921.670006,1838.629195,296.082377,8882.471304
921.670325,1838.629195,296.082377,8882.471304
921.670643,1455.581446,222.061783,9104.533087
921.670962,1302.362347,444.123565,9030.512492
921.671281,842.705048,518.144159,8956.491898
921.671600,842.705048,296.082377,8586.388927
921.671919,612.876398,370.102971,8734.430116
921.672237,153.219100,444.123565,8660.409521
921.672556,-612.876398,222.061783,9400.615463
921.672875,-612.876398,222.061783,9474.636058
921.673194,-995.924147,-0.000000,9548.656652
921.673513,-919.314598,370.102971,9770.718434
921.673831,-842.705048,148.041188,9918.759623
921.674150,-919.314598,370.102971,9918.759623
921.674469,-306.438199,814.226536,9622.677246
921.674788,-306.438199,518.144159,9770.718434
921.675107,76.609550,666.185348,9400.615463
921.675425,229.828649,1110.308913,8882.471304
921.675744,383.047749,1184.329507,8512.368333
921.676063,689.485948,1258.350101,8734.430116
921.676382,612.876398,740.205942,8882.471304
921.676701,383.047749,370.102971,9474.636058
921.677019,689.485948,148.041188,9770.718434
921.677338,459.657299,444.123565,9918.759623
921.677657,229.828649,518.144159,9622.677246
921.677976,689.485948,814.226536,9474.636058
921.678295,153.219100,592.164754,9326.594869
921.678613,459.657299,518.144159,9252.574275
921.678932,76.609550,296.082377,8956.491898
921.679251,0.000000,-0.000000,9326.594869
921.679570,-459.657299,-0.000000,9770.718434
921.679889,-459.657299,-74.020594,9918.759623
921.680207,-612.876398,-0.000000,9844.739029
921.680526,-612.876398,-0.000000,9992.780217
921.680845,-306.438199,518.144159,9992.780217
921.681164,0.000000,666.185348,9474.636058
921.681483,0.000000,444.123565,9622.677246
921.681801,306.438199,-74.020594,9696.697840
921.682120,689.485948,-0.000000,9696.697840
921.682439,1072.533697,-0.000000,9326.594869
921.682758,1302.362347,370.102971,9030.512492
921.683077,1455.581446,-0.000000,9474.636058
921.683395,2221.676944,296.082377,8808.450710
921.683714,1378.971896,-148.041188,8808.450710
921.684033,1608.800546,222.061783,8660.409521
921.684352,1915.238745,-0.000000,8956.491898
921.684671,1991.848295,370.102971,8734.430116
921.684989,1455.581446,-0.000000,8734.430116
921.685308,1225.752797,-0.000000,8882.471304
921.685627,766.095498,296.082377,8586.388927
921.685946,919.314598,-0.000000,8586.388927
921.686265,306.438199,-148.041188,9178.553681
921.686583,76.609550,148.041188,9104.533087
921.686902,-306.438199,-0.000000,9252.574275
921.687221,-383.047749,-0.000000,9400.615463
921.687540,-689.485948,370.102971,9622.677246
921.687859,-153.219100,518.144159,9696.697840
921.688177,306.438199,888.247130,9474.636058
921.688496,76.609550,740.205942,9326.594869
921.688815,0.000000,814.226536,9104.533087
921.689134,459.657299,888.247130,8882.471304
921.689453,919.314598,1036.288319,8068.244768
921.689771,919.314598,1554.432478,8142.265362
921.690090,919.314598,1480.411884,8068.244768
921.690409,766.095498,888.247130,7994.224174
921.690728,919.314598,592.164754,8512.368333
921.691047,536.266849,814.226536,9030.512492
921.691365,153.219100,592.164754,9474.636058
921.691684,459.657299,592.164754,9474.636058
921.692003,536.266849,1036.288319,9400.615463
921.692322,306.438199,888.247130,9252.574275
921.692641,153.219100,666.185348,9178.553681
921.692959,0.000000,518.144159,9030.512492
921.693278,-306.438199,444.123565,9252.574275
921.693597,-536.266849,222.061783,9548.656652
921.693916,-536.266849,-0.000000,9918.759623
921.694235,-995.924147,-0.000000,9918.759623
921.694553,-1225.752797,222.061783,10288.862594
921.694872,-995.924147,222.061783,10732.986159
921.695191,-536.266849,-222.061783,9844.739029
921.695510,-459.657299,-0.000000,10362.883188
921.695829,-306.438199,-0.000000,10510.924376
921.696147,76.609550,-0.000000,10140.821405
921.696466,76.609550,-74.020594,9844.739029
921.696785,383.047749,-222.061783,9622.677246
921.697104,459.657299,296.082377,9548.656652
921.697423,842.705048,-0.000000,9178.553681
921.697741,995.924147,-0.000000,9252.574275
921.698060,1225.752797,-0.000000,9474.636058
921.698379,1378.971896,-296.082377,9474.636058
921.698698,1455.581446,-74.020594,9400.615463
921.699017,1685.410096,296.082377,9474.636058
921.699335,1455.581446,-0.000000,8882.471304
921.699654,1149.143247,-296.082377,9030.512492
921.699973,995.924147,-148.041188,9252.574275
921.700292,536.266849,148.041188,8882.471304
921.700611,536.266849,148.041188,8734.430116
921.700929,383.047749,-0.000000,9104.533087
921.701248,229.828649,-0.000000,9104.533087
921.701567,0.000000,296.082377,9178.553681
921.701886,0.000000,148.041188,9474.636058
921.702205,153.219100,222.061783,9252.574275
921.702523,306.438199,222.061783,9326.594869
921.702842,1302.362347,370.102971,9178.553681
921.703161,766.095498,666.185348,8956.491898
921.703480,1302.362347,1110.308913,8216.285956
921.703799,1608.800546,1332.370696,7846.182985
921.704117,1685.410096,1258.350101,7402.059420
921.704436,1302.362347,1110.308913,7624.121203
921.704755,1378.971896,814.226536,7994.224174
921.705074,842.705048,518.144159,8142.265362
921.705393,842.705048,518.144159,9104.533087
921.705711,766.095498,592.164754,9326.594869
921.706030,1072.533697,592.164754,9178.553681
921.706349,766.095498,518.144159,8808.450710
921.706668,459.657299,666.185348,8956.491898
921.706987,306.438199,518.144159,8734.430116
921.707305,0.000000,370.102971,8808.450710
921.707624,0.000000,518.144159,9030.512492
921.707943,-229.828649,592.164754,9252.574275
921.708262,-383.047749,296.082377,9474.636058
921.708581,-842.705048,148.041188,9770.718434
921.708899,-995.924147,-444.123565,10066.800811
921.709218,-766.095498,-0.000000,10288.862594
921.709537,-536.266849,-0.000000,10214.842000
921.709856,0.000000,-0.000000,10362.883188
921.710175,0.000000,222.061783,10214.842000
921.710493,306.438199,-0.000000,10140.821405
921.710812,383.047749,370.102971,9622.677246
921.711131,229.828649,888.247130,9474.636058
921.711450,766.095498,592.164754,9400.615463
921.711769,0.000000,740.205942,9030.512492
921.712087,612.876398,148.041188,9548.656652
921.712406,995.924147,-0.000000,9844.739029
921.712725,536.266849,222.061783,9844.739029
921.713044,919.314598,222.061783,9474.636058
921.713363,689.485948,-0.000000,9770.718434
921.713681,612.876398,444.123565,9474.636058
921.714000,689.485948,222.061783,9474.636058
921.714319,76.609550,148.041188,9474.636058
921.714638,0.000000,-0.000000,9548.656652
921.714957,0.000000,-148.041188,9548.656652
921.715275,-766.095498,-296.082377,9622.677246
921.715594,76.609550,-0.000000,9474.636058
921.715913,0.000000,-0.000000,9548.656652
921.716232,0.000000,-370.102971,9992.780217
921.716551,153.219100,-0.000000,9474.636058
921.716869,612.876398,222.061783,9252.574275
921.717188,919.314598,444.123565,9252.574275
921.717507,1378.971896,592.164754,8734.430116
921.717826,1685.410096,888.247130,8512.368333
921.718145,1915.238745,1110.308913,7772.162391
921.718463,1991.848295,962.267725,7698.141797
921.718782,1915.238745,740.205942,7772.162391
921.719101,1685.410096,518.144159,8068.244768
921.719420,1532.190996,888.247130,8586.388927
921.719739,1455.581446,592.164754,8956.491898
921.720057,1302.362347,1036.288319,8882.471304
921.720376,1302.362347,740.205942,8734.430116
921.720695,1149.143247,1184.329507,8586.388927
921.721014,1072.533697,888.247130,8364.327145
921.721333,919.314598,592.164754,8216.285956
921.721651,383.047749,296.082377,8586.388927
921.721970,459.657299,296.082377,8882.471304
921.722289,0.000000,148.041188,9030.512492
921.722608,229.828649,-0.000000,9030.512492
921.722927,-536.266849,-0.000000,9918.759623
921.723245,-383.047749,222.061783,9474.636058
921.723564,-153.219100,-0.000000,9548.656652
921.723881,-459.657299,296.082377,10288.862594
921.724200,-153.219100,296.082377,9918.759623
921.724519,-153.219100,-0.000000,9548.656652
921.724837,0.000000,444.123565,9474.636058
921.725156,612.876398,444.123565,9474.636058
921.725475,229.828649,148.041188,9104.533087
921.725794,459.657299,444.123565,9252.574275
921.726113,612.876398,222.061783,9622.677246
921.726432,536.266849,-222.061783,9622.677246
921.726751,383.047749,-0.000000,9918.759623
921.727070,689.485948,222.061783,9918.759623
921.727388,536.266849,296.082377,9548.656652
921.727707,689.485948,370.102971,9696.697840
921.728026,459.657299,296.082377,9474.636058
921.728345,0.000000,-0.000000,9548.656652
921.728664,-306.438199,-74.020594,9622.677246
921.728983,0.000000,-74.020594,9770.718434
921.729302,-536.266849,-74.020594,10066.800811
921.729621,-536.266849,-222.061783,10140.821405
921.729939,-689.485948,-222.061783,10732.986159
921.730258,-306.438199,74.020594,10214.842000
921.730577,76.609550,148.041188,9918.759623
921.730896,306.438199,222.061783,9622.677246
921.731215,1225.752797,370.102971,9474.636058
921.731534,1149.143247,592.164754,9696.697840
921.731853,1455.581446,518.144159,8586.388927
921.732172,1915.238745,1184.329507,8364.327145
921.732490,1685.410096,1036.288319,8068.244768
921.732809,2221.676944,962.267725,8068.244768
921.733128,1685.410096,666.185348,8364.327145
921.733447,1838.629195,444.123565,8660.409521
921.733766,1455.581446,592.164754,9030.512492
921.734085,1302.362347,740.205942,9030.512492
921.734404,1072.533697,666.185348,8734.430116
921.734723,995.924147,814.226536,8808.450710
921.735041,1072.533697,888.247130,8364.327145
921.735360,689.485948,518.144159,8364.327145
921.735679,536.266849,518.144159,8438.347739
921.735998,153.219100,-0.000000,8956.491898
921.736317,0.000000,-0.000000,9030.512492
921.736636,-306.438199,148.041188,9326.594869
921.736955,0.000000,-0.000000,9326.594869
921.737274,153.219100,74.020594,9474.636058
921.737593,-383.047749,-0.000000,9178.553681
921.737911,229.828649,518.144159,9178.553681
921.738230,76.609550,148.041188,9326.594869
921.738549,919.314598,370.102971,9400.615463
921.738868,842.705048,444.123565,8882.471304
921.739187,919.314598,518.144159,8660.409521
921.739506,1302.362347,518.144159,8734.430116
921.739825,919.314598,666.185348,8734.430116
921.740144,995.924147,148.041188,9104.533087
921.740462,842.705048,-0.000000,9474.636058
921.740781,766.095498,-0.000000,9844.739029
921.741100,842.705048,296.082377,9696.697840
921.741419,919.314598,666.185348,9770.718434
921.741738,459.657299,592.164754,9696.697840
921.742057,536.266849,444.123565,9474.636058
921.742376,306.438199,518.144159,9252.574275
921.742695,76.609550,222.061783,9474.636058
921.743013,-153.219100,-0.000000,9548.656652
921.743332,-612.876398,296.082377,9918.759623
921.743651,-842.705048,296.082377,9844.739029
921.743970,-842.705048,-0.000000,10214.842000
921.744289,-842.705048,-0.000000,10362.883188
921.744608,-689.485948,-0.000000,10510.924376
921.744927,-383.047749,-0.000000,10140.821405
921.745246,-229.828649,444.123565,10140.821405
921.745564,229.828649,592.164754,9548.656652
921.745883,153.219100,740.205942,9474.636058
921.746202,383.047749,666.185348,9030.512492
921.746521,919.314598,740.205942,8808.450710
921.746840,1072.533697,814.226536,8586.388927
921.747159,919.314598,740.205942,8956.491898
921.747478,1072.533697,444.123565,9030.512492
921.747797,1072.533697,-0.000000,9548.656652
921.748115,766.095498,370.102971,9696.697840
921.748434,766.095498,666.185348,9104.533087
921.748753,1072.533697,666.185348,9030.512492
921.749072,689.485948,518.144159,8734.430116
921.749391,536.266849,-0.000000,8808.450710
921.749710,459.657299,148.041188,8882.471304
921.750029,0.000000,-0.000000,8882.471304
921.750348,0.000000,-0.000000,9326.594869
921.750666,-153.219100,-0.000000,9252.574275
921.750985,-612.876398,-0.000000,9548.656652
921.751304,-383.047749,222.061783,9474.636058
921.751623,-383.047749,-0.000000,9400.615463
921.751942,0.000000,-0.000000,9474.636058
921.752261,153.219100,-0.000000,9622.677246
921.752580,766.095498,-0.000000,9474.636058
921.752899,919.314598,222.061783,9030.512492
921.753217,1302.362347,370.102971,8882.471304
921.753536,1685.410096,518.144159,8364.327145
921.753855,1838.629195,592.164754,8142.265362
921.754174,1838.629195,666.185348,8142.265362
921.754493,1685.410096,740.205942,8216.285956
921.754812,1685.410096,444.123565,8808.450710
921.755131,1608.800546,444.123565,8956.491898
921.755450,1608.800546,518.144159,9030.512492
921.755768,1302.362347,-0.000000,8734.430116
921.756087,995.924147,148.041188,8734.430116
921.756406,842.705048,296.082377,8734.430116
921.756725,76.609550,222.061783,8660.409521
921.757044,-306.438199,-0.000000,9104.533087
921.757363,-459.657299,-74.020594,8956.491898
921.757682,-612.876398,296.082377,9252.574275
921.758001,-689.485948,-0.000000,9400.615463
921.758319,-919.314598,-0.000000,9548.656652
921.758638,-995.924147,-0.000000,9992.780217
921.758957,-689.485948,222.061783,9622.677246
921.759276,-536.266849,666.185348,9548.656652
921.759595,0.000000,740.205942,9474.636058
921.759914,0.000000,592.164754,9252.574275
921.760233,306.438199,1332.370696,9178.553681
921.760552,766.095498,1406.391290,8364.327145
921.760870,689.485948,1332.370696,8586.388927
921.761189,689.485948,1110.308913,8882.471304
921.761508,1225.752797,814.226536,9104.533087
921.761827,612.876398,592.164754,9474.636058
921.762146,766.095498,666.185348,10066.800811
921.762465,612.876398,888.247130,9918.759623
921.762784,459.657299,1110.308913,9696.697840
921.763103,536.266849,1110.308913,9474.636058
921.763421,842.705048,962.267725,9326.594869
921.763740,0.000000,296.082377,9104.533087
921.764059,0.000000,-0.000000,9548.656652
921.764378,-229.828649,-0.000000,10214.842000
921.764697,0.000000,-148.041188,10510.924376
921.765016,-229.828649,222.061783,9918.759623
921.765335,-383.047749,296.082377,10362.883188
921.765654,-153.219100,-74.020594,10214.842000
921.765972,-153.219100,-148.041188,9992.780217
921.766291,0.000000,-666.185348,10584.944971
921.766610,459.657299,-148.041188,10288.862594
921.766929,153.219100,-74.020594,9992.780217
921.767248,1149.143247,148.041188,9696.697840
921.767567,1532.190996,-370.102971,9474.636058
921.767886,842.705048,296.082377,9030.512492
921.768205,1225.752797,370.102971,8808.450710
921.768523,1225.752797,296.082377,8808.450710
921.768842,1225.752797,518.144159,9030.512492
921.769161,842.705048,-0.000000,9178.553681
921.769480,919.314598,222.061783,9252.574275
921.769799,1072.533697,-0.000000,9178.553681
921.770118,1149.143247,444.123565,9030.512492
921.770437,1072.533697,370.102971,9400.615463
921.770756,612.876398,370.102971,8882.471304
921.771074,229.828649,444.123565,8882.471304
921.771393,0.000000,444.123565,8882.471304
921.771712,-229.828649,444.123565,8956.491898
921.772031,0.000000,148.041188,8734.430116
921.772350,-383.047749,518.144159,8808.450710
921.772669,-306.438199,148.041188,9104.533087
921.772988,76.609550,370.102971,9178.553681
921.773307,229.828649,666.185348,9178.553681
921.773625,306.438199,518.144159,9400.615463
921.773944,383.047749,740.205942,9178.553681
921.774263,612.876398,962.267725,8734.430116
921.774582,995.924147,1258.350101,7994.224174
921.774901,1378.971896,1258.350101,7698.141797
921.775220,1072.533697,1110.308913,8142.265362
921.775539,1072.533697,740.205942,8438.347739
921.775858,842.705048,518.144159,8808.450710
921.776176,612.876398,444.123565,9474.636058
921.776495,612.876398,666.185348,9400.615463
921.776814,536.266849,888.247130,9474.636058
921.777133,536.266849,962.267725,8956.491898
921.777452,153.219100,740.205942,9030.512492
921.777771,0.000000,666.185348,9104.533087
921.778090,-383.047749,-0.000000,9474.636058
921.778409,0.000000,-0.000000,9474.636058
921.778727,-383.047749,-0.000000,9770.718434
921.779046,-689.485948,-74.020594,10066.800811
921.779365,-536.266849,-518.144159,10214.842000
921.779684,-995.924147,-222.061783,10362.883188
921.780003,-229.828649,-0.000000,10214.842000
921.780322,-306.438199,-222.061783,10066.800811
921.780641,0.000000,148.041188,9992.780217
921.780960,459.657299,-0.000000,9992.780217
921.781279,612.876398,222.061783,9696.697840
921.781597,689.485948,148.041188,9474.636058
921.781916,842.705048,296.082377,9400.615463
921.782235,1072.533697,222.061783,9252.574275
921.782554,1072.533697,-0.000000,9252.574275
921.782873,1302.362347,-74.020594,9178.553681
921.783192,919.314598,-0.000000,9474.636058
921.783511,1302.362347,148.041188,9400.615463
921.783830,995.924147,518.144159,9400.615463
921.784148,1225.752797,222.061783,9104.533087
921.784467,842.705048,296.082377,9030.512492
921.784786,689.485948,148.041188,8956.491898
921.785105,306.438199,296.082377,9030.512492
921.785424,-153.219100,-148.041188,9104.533087
921.785743,0.000000,-0.000000,9104.533087
921.786062,-153.219100,296.082377,8956.491898
921.786381,-306.438199,518.144159,9178.553681
921.786699,-229.828649,444.123565,9474.636058
921.787018,0.000000,518.144159,9474.636058
921.787337,0.000000,592.164754,9326.594869
921.787656,459.657299,666.185348,9252.574275
921.787975,766.095498,814.226536,9030.512492
921.788294,1302.362347,1258.350101,8586.388927
921.788613,1455.581446,1110.308913,8216.285956
921.788932,1225.752797,1332.370696,7698.141797
921.789250,1225.752797,1184.329507,8142.265362
921.789569,1608.800546,962.267725,8290.306550
921.789888,1225.752797,444.123565,8660.409521
921.790207,1378.971896,666.185348,8882.471304
921.790526,1149.143247,444.123565,9104.533087
921.790845,766.095498,740.205942,9104.533087
921.791164,766.095498,814.226536,9178.553681
921.791483,536.266849,518.144159,9104.533087
921.791801,536.266849,444.123565,9104.533087
921.792120,153.219100,592.164754,8660.409521
921.792439,-383.047749,-148.041188,9252.574275
921.792758,-536.266849,-74.020594,9548.656652
921.793077,-383.047749,-0.000000,9770.718434
921.793396,-842.705048,-222.061783,9770.718434
921.793715,-995.924147,-0.000000,10214.842000
921.794034,-919.314598,-0.000000,10066.800811
921.794352,-689.485948,148.041188,9770.718434
921.794671,-459.657299,-148.041188,9844.739029
921.794990,0.000000,222.061783,9622.677246
921.795309,383.047749,370.102971,9622.677246
921.795628,459.657299,-0.000000,9326.594869
921.795947,995.924147,222.061783,9400.615463
921.796266,766.095498,518.144159,9252.574275
921.796585,919.314598,444.123565,9252.574275
921.796903,766.095498,222.061783,9252.574275
921.797222,1149.143247,222.061783,9548.656652
921.797541,995.924147,148.041188,9622.677246
921.797860,1225.752797,148.041188,9474.636058
921.798179,1225.752797,592.164754,9326.594869
921.798498,1072.533697,518.144159,9252.574275
921.798817,919.314598,444.123565,9252.574275
921.799136,0.000000,222.061783,9030.512492
921.799454,459.657299,-0.000000,9326.594869
921.799773,0.000000,-296.082377,9474.636058
921.800092,0.000000,-296.082377,9474.636058
921.800411,76.609550,-0.000000,9622.677246
921.800730,0.000000,-0.000000,9770.718434
921.801049,0.000000,-148.041188,9474.636058
921.801368,153.219100,-0.000000,9548.656652
921.801687,306.438199,-0.000000,9622.677246
921.802005,459.657299,-0.000000,9326.594869
921.802324,766.095498,370.102971,8882.471304
921.802643,1149.143247,962.267725,8586.388927
921.802962,1455.581446,666.185348,8142.265362
921.803281,1225.752797,888.247130,7994.224174
921.803600,1915.238745,1036.288319,8364.327145
921.803919,1608.800546,666.185348,8290.306550
921.804238,1532.190996,592.164754,8586.388927
921.804556,1455.581446,740.205942,9104.533087
921.804875,1225.752797,666.185348,9030.512492
921.805194,842.705048,740.205942,8586.388927
921.805513,995.924147,888.247130,8808.450710
921.805832,919.314598,1110.308913,8586.388927
921.806151,459.657299,888.247130,8512.368333
921.806470,0.000000,370.102971,8660.409521
921.806789,153.219100,518.144159,9104.533087
921.807107,-306.438199,148.041188,9474.636058
921.807426,-383.047749,148.041188,9548.656652
921.807745,-383.047749,444.123565,9844.739029
921.808064,0.000000,740.205942,9770.718434
921.808383,0.000000,148.041188,9844.739029
921.808702,0.000000,592.164754,9844.739029
921.809021,689.485948,814.226536,9474.636058
921.809340,689.485948,814.226536,9474.636058
921.809658,1225.752797,1036.288319,9326.594869
921.809977,1225.752797,1110.308913,9178.553681
921.810296,995.924147,962.267725,8956.491898
921.810615,1149.143247,592.164754,9030.512492
921.810934,1072.533697,518.144159,9326.594869
921.811253,919.314598,-0.000000,9622.677246
921.811572,1149.143247,296.082377,9844.739029
921.811891,842.705048,-0.000000,9918.759623
921.812209,919.314598,518.144159,9844.739029
921.812528,766.095498,518.144159,9548.656652
921.812847,919.314598,370.102971,9548.656652
921.813166,383.047749,296.082377,9252.574275
921.813485,76.609550,-0.000000,9252.574275
921.813804,-229.828649,-0.000000,9622.677246
921.814123,-459.657299,-222.061783,9770.718434
921.814442,-459.657299,-0.000000,9918.759623
921.814760,-383.047749,-74.020594,9844.739029
921.815079,-842.705048,-0.000000,10066.800811
921.815398,-383.047749,-0.000000,9918.759623
921.815717,-612.876398,-0.000000,9844.739029
921.816036,76.609550,222.061783,9548.656652
921.816355,229.828649,444.123565,9474.636058
921.816674,459.657299,444.123565,9104.533087
921.816993,766.095498,592.164754,8512.368333
921.817311,919.314598,592.164754,8290.306550
921.817630,919.314598,222.061783,8142.265362
921.817949,1378.971896,592.164754,8438.347739
921.818268,1072.533697,296.082377,9030.512492
921.818587,1378.971896,296.082377,9030.512492
921.818906,1225.752797,296.082377,8956.491898
921.819225,1455.581446,592.164754,8734.430116
921.819544,1608.800546,666.185348,8512.368333
921.819862,1378.971896,444.123565,8290.306550
921.820181,1225.752797,296.082377,8290.306550
921.820500,383.047749,222.061783,8734.430116
921.820819,229.828649,-0.000000,8586.388927
921.821138,0.000000,-0.000000,9178.553681
921.821457,0.000000,-74.020594,9252.574275
921.821776,0.000000,-148.041188,9474.636058
921.822095,-306.438199,-74.020594,9474.636058
921.822414,0.000000,-0.000000,9474.636058
921.822732,0.000000,-74.020594,9622.677246
921.823051,229.828649,-0.000000,9548.656652
921.823370,306.438199,222.061783,9548.656652
921.823689,459.657299,296.082377,9252.574275
921.824008,995.924147,740.205942,8586.388927
921.824327,1302.362347,740.205942,8586.388927
921.824646,1072.533697,296.082377,8660.409521
921.824965,1455.581446,740.205942,8660.409521
921.825284,1149.143247,592.164754,8808.450710
921.825603,1225.752797,444.123565,8956.491898
921.825922,766.095498,740.205942,9474.636058
921.826241,766.095498,592.164754,9400.615463
921.826560,536.266849,592.164754,9400.615463
921.826879,306.438199,666.185348,9400.615463
921.827198,0.000000,518.144159,9474.636058
921.827517,-229.828649,444.123565,9474.636058
921.827836,-229.828649,444.123565,9622.677246
921.828155,-306.438199,444.123565,9548.656652
921.828474,-766.095498,518.144159,9844.739029
921.828793,-459.657299,666.185348,9696.697840
921.829112,-229.828649,666.185348,10140.821405
921.829431,0.000000,888.247130,9770.718434
921.829749,0.000000,888.247130,9696.697840
921.830068,229.828649,814.226536,9622.677246
921.830387,383.047749,814.226536,9548.656652
921.830706,919.314598,740.205942,9400.615463
921.831025,1072.533697,1258.350101,8808.450710
921.831344,919.314598,962.267725,9030.512492
921.831663,1149.143247,814.226536,9030.512492
921.831982,919.314598,444.123565,9030.512492
921.832301,919.314598,296.082377,9548.656652
921.832620,689.485948,370.102971,9548.656652
921.832939,612.876398,518.144159,9770.718434
921.833258,612.876398,814.226536,9622.677246
921.833577,1072.533697,518.144159,9474.636058
921.833896,842.705048,666.185348,9030.512492
921.834215,383.047749,222.061783,8882.471304
921.834534,536.266849,-0.000000,8660.409521
921.834853,76.609550,-0.000000,9178.553681
921.835172,-229.828649,-148.041188,9400.615463
921.835491,-459.657299,-296.082377,9474.636058
921.835810,-306.438199,-222.061783,9696.697840
921.836129,-459.657299,-0.000000,9474.636058
921.836448,-383.047749,-74.020594,9548.656652
921.836767,0.000000,-0.000000,9844.739029
921.837085,153.219100,-296.082377,9844.739029
921.837404,383.047749,-148.041188,9474.636058
921.837723,536.266849,74.020594,9474.636058
921.838042,995.924147,148.041188,8882.471304
921.838361,1685.410096,518.144159,8438.347739
921.838680,1762.019645,444.123565,8216.285956
921.838999,1915.238745,592.164754,8364.327145
921.839318,1532.190996,444.123565,8512.368333
921.839637,1762.019645,370.102971,8438.347739
921.839956,2145.067394,518.144159,8956.491898
921.840275,1455.581446,518.144159,8734.430116
921.840594,1532.190996,814.226536,9030.512492
921.840913,1378.971896,518.144159,8808.450710
921.841232,689.485948,296.082377,8660.409521
921.841551,689.485948,370.102971,8808.450710
921.841870,0.000000,148.041188,8956.491898
921.842189,0.000000,-0.000000,9178.553681
921.842508,-229.828649,222.061783,9326.594869
921.842827,0.000000,222.061783,9400.615463
921.843146,-306.438199,666.185348,9474.636058
921.843465,-536.266849,370.102971,9474.636058
921.843784,-459.657299,444.123565,9548.656652
921.844103,-229.828649,592.164754,9548.656652
921.844421,-153.219100,740.205942,9696.697840
921.844740,76.609550,592.164754,9104.533087
921.845059,153.219100,814.226536,8956.491898
921.845378,306.438199,1110.308913,8882.471304
921.845697,76.609550,888.247130,8956.491898
921.846016,153.219100,666.185348,9474.636058
921.846335,0.000000,592.164754,9474.636058
921.846654,0.000000,222.061783,9844.739029
921.846973,0.000000,592.164754,9844.739029
921.847292,459.657299,296.082377,9918.759623
921.847611,76.609550,592.164754,9622.677246
921.847930,306.438199,888.247130,9326.594869
921.848249,153.219100,740.205942,9326.594869
921.848568,229.828649,666.185348,9252.574275
921.848887,0.000000,592.164754,9326.594869
921.849206,-306.438199,148.041188,9474.636058
921.849525,-536.266849,-0.000000,9770.718434
921.849844,-536.266849,-0.000000,10288.862594
921.850163,229.828649,-0.000000,10288.862594
921.850482,-153.219100,148.041188,10066.800811
921.850801,-153.219100,-0.000000,9918.759623
921.851120,76.609550,222.061783,10066.800811
921.851439,306.438199,222.061783,9992.780217
921.851757,612.876398,222.061783,9474.636058
921.852076,1302.362347,444.123565,9178.553681
921.852395,1532.190996,666.185348,8734.430116
921.852714,1608.800546,814.226536,7994.224174
921.853033,1915.238745,296.082377,8364.327145
921.853352,1532.190996,-222.061783,8660.409521
921.853671,1762.019645,-0.000000,9104.533087
921.853990,1762.019645,-0.000000,8808.450710
921.854309,1532.190996,222.061783,8882.471304
921.854628,1762.019645,222.061783,9474.636058
921.854947,1072.533697,-0.000000,8808.450710
921.855266,766.095498,148.041188,8882.471304
921.855585,536.266849,-0.000000,8586.388927
921.855904,229.828649,296.082377,8660.409521
921.856223,0.000000,-0.000000,9104.533087
921.856542,153.219100,518.144159,9400.615463
921.856861,-383.047749,-0.000000,9104.533087
921.857180,-306.438199,222.061783,9326.594869
921.857499,-229.828649,-0.000000,9400.615463
921.857818,229.828649,666.185348,9548.656652
921.858137,383.047749,740.205942,9178.553681
921.858456,0.000000,888.247130,9178.553681
921.858775,383.047749,740.205942,9178.553681
921.859093,919.314598,1184.329507,8734.430116
921.859412,766.095498,1110.308913,8216.285956
921.859731,995.924147,740.205942,8142.265362
921.860050,306.438199,740.205942,8290.306550
921.860369,536.266849,592.164754,9030.512492
921.860688,306.438199,-0.000000,9326.594869
921.861007,229.828649,-0.000000,9918.759623
921.861326,76.609550,296.082377,9992.780217
921.861645,76.609550,518.144159,9548.656652
921.861964,229.828649,740.205942,9326.594869
921.862283,229.828649,740.205942,9104.533087
921.862602,229.828649,370.102971,9030.512492
921.862921,-306.438199,74.020594,9104.533087
921.863240,-383.047749,-0.000000,9474.636058
921.863559,-383.047749,-74.020594,9770.718434
921.863878,-689.485948,-0.000000,9770.718434
921.864197,-229.828649,-148.041188,9918.759623
921.864516,-459.657299,74.020594,10066.800811
921.864835,-612.876398,-0.000000,10140.821405
921.865154,-306.438199,-0.000000,10436.903782
921.865473,0.000000,74.020594,10066.800811
921.865792,306.438199,-296.082377,10362.883188
921.866111,306.438199,148.041188,9992.780217
921.866429,995.924147,740.205942,9548.656652
921.866748,919.314598,444.123565,9252.574275
921.867067,1072.533697,370.102971,9030.512492
921.867386,1608.800546,222.061783,8956.491898
921.867705,1532.190996,518.144159,8956.491898
921.868024,1762.019645,296.082377,9030.512492
921.868343,1762.019645,592.164754,9178.553681
921.868662,1608.800546,666.185348,9030.512492
921.868981,1378.971896,296.082377,8956.491898
921.869300,1149.143247,222.061783,8956.491898
921.869619,995.924147,444.123565,8956.491898
921.869938,612.876398,222.061783,8956.491898
921.870257,459.657299,-74.020594,9474.636058
921.870576,153.219100,-0.000000,8882.471304
921.870895,-153.219100,-0.000000,8956.491898
921.871214,-153.219100,74.020594,9252.574275
921.871533,-153.219100,370.102971,9474.636058
921.871852,0.000000,-148.041188,9400.615463
921.872171,0.000000,74.020594,9474.636058
921.872490,229.828649,370.102971,9474.636058
921.872809,383.047749,518.144159,9104.533087
921.873128,766.095498,962.267725,8660.409521
921.873447,995.924147,1184.329507,8586.388927
921.873765,1378.971896,1110.308913,8068.244768
921.874084,1455.581446,1184.329507,7920.203579
921.874403,1302.362347,814.226536,8068.244768
921.874722,383.047749,222.061783,8438.347739
921.875041,995.924147,444.123565,9178.553681
921.875360,689.485948,444.123565,9400.615463
921.875679,919.314598,666.185348,9252.574275
921.875998,612.876398,1036.288319,9030.512492
921.876317,76.609550,962.267725,9178.553681
921.876636,229.828649,888.247130,8734.430116
921.876955,0.000000,740.205942,9030.512492
921.877274,-229.828649,518.144159,9326.594869
921.877593,-536.266849,222.061783,9548.656652
921.877912,-536.266849,370.102971,10066.800811
921.878231,-842.705048,296.082377,9992.780217
921.878550,-1072.533697,-0.000000,9918.759623
921.878869,-612.876398,-0.000000,10214.842000
921.879188,-766.095498,222.061783,10140.821405
921.879507,-229.828649,148.041188,10288.862594
921.879826,0.000000,-0.000000,9992.780217
921.880145,306.438199,370.102971,9770.718434
921.880464,459.657299,222.061783,9548.656652
921.880783,459.657299,-0.000000,9326.594869
921.881101,919.314598,370.102971,9400.615463
921.881420,995.924147,370.102971,9326.594869
921.881739,842.705048,-0.000000,9104.533087
921.882058,995.924147,222.061783,9474.636058
921.882377,1072.533697,222.061783,9474.636058
921.882696,919.314598,148.041188,9474.636058
921.883015,1149.143247,370.102971,9548.656652
921.883334,995.924147,-0.000000,9252.574275
921.883653,383.047749,-0.000000,9178.553681
921.883972,306.438199,-0.000000,9326.594869
921.884291,76.609550,296.082377,9474.636058
921.884610,0.000000,-0.000000,9400.615463
921.884929,0.000000,148.041188,9474.636058
921.885248,0.000000,-0.000000,9770.718434
921.885567,0.000000,370.102971,9474.636058
921.885886,76.609550,296.082377,9548.656652
921.886205,229.828649,370.102971,9252.574275
921.886524,536.266849,666.185348,9326.594869
921.886843,689.485948,592.164754,8956.491898
921.887162,1149.143247,666.185348,8734.430116
921.887481,1149.143247,1036.288319,8512.368333
921.887800,1455.581446,1184.329507,8142.265362
921.888119,1608.800546,1110.308913,7994.224174
921.888437,1915.238745,592.164754,8216.285956
921.888756,1072.533697,222.061783,8660.409521
921.889075,1225.752797,-0.000000,8808.450710
921.889394,995.924147,296.082377,9178.553681
921.889713,995.924147,444.123565,9030.512492
921.890032,995.924147,518.144159,8660.409521
921.890351,612.876398,592.164754,8660.409521
921.890670,383.047749,444.123565,8586.388927
921.890989,383.047749,148.041188,8586.388927
921.891308,0.000000,-0.000000,8734.430116
921.891627,0.000000,-74.020594,9030.512492
921.891946,-459.657299,-222.061783,9326.594869
921.892265,-459.657299,-148.041188,9770.718434
921.892584,-536.266849,-0.000000,9622.677246
921.892903,-689.485948,148.041188,9844.739029
921.893222,-612.876398,148.041188,9770.718434
921.893541,-383.047749,222.061783,9770.718434
921.893860,-306.438199,518.144159,9992.780217
921.894179,229.828649,370.102971,9696.697840
921.894498,306.438199,370.102971,9400.615463
921.894817,689.485948,296.082377,8956.491898
921.895136,1302.362347,888.247130,8882.471304
921.895455,1302.362347,814.226536,9104.533087
921.895773,1302.362347,740.205942,9104.533087
921.896092,1072.533697,592.164754,9326.594869
921.896411,1149.143247,518.144159,9474.636058
921.896730,1378.971896,370.102971,9548.656652
921.897049,1378.971896,592.164754,9622.677246
921.897368,1072.533697,370.102971,9400.615463
921.897687,76.609550,-0.000000,9474.636058
921.898006,0.000000,370.102971,9548.656652
921.898325,-306.438199,148.041188,9696.697840
921.898644,-229.828649,-0.000000,9696.697840
921.898963,-459.657299,-148.041188,9844.739029
921.899282,-689.485948,-222.061783,9918.759623
921.899601,-383.047749,-74.020594,9992.780217
921.899920,-306.438199,-0.000000,9918.759623
921.900239,-229.828649,-0.000000,9844.739029
921.900558,612.876398,-0.000000,9696.697840
921.900877,612.876398,-0.000000,9474.636058
921.901196,459.657299,370.102971,9326.594869
921.901515,689.485948,518.144159,8586.388927
921.901834,1072.533697,814.226536,8290.306550
921.902153,1302.362347,1036.288319,7920.203579
921.902472,1532.190996,740.205942,8142.265362
921.902791,1378.971896,592.164754,8364.327145
921.903109,1149.143247,518.144159,8808.450710
921.903428,995.924147,518.144159,9178.553681
921.903747,766.095498,518.144159,9104.533087
921.904066,1225.752797,888.247130,9104.533087
921.904385,1302.362347,1036.288319,8512.368333
921.904704,995.924147,740.205942,8364.327145
921.905023,612.876398,888.247130,8364.327145
921.905342,1072.533697,814.226536,8438.347739
921.905661,383.047749,444.123565,8734.430116
921.905980,76.609550,518.144159,8956.491898
921.906299,76.609550,370.102971,9030.512492
921.906618,0.000000,592.164754,9104.533087
921.906937,0.000000,-0.000000,9252.574275
921.907256,0.000000,-74.020594,9474.636058
921.907575,383.047749,296.082377,9474.636058
921.907894,383.047749,444.123565,9548.656652
921.908213,612.876398,296.082377,9548.656652
921.908532,919.314598,370.102971,9400.615463
921.908851,1072.533697,444.123565,8956.491898
921.909170,1072.533697,370.102971,8734.430116
921.909489,995.924147,444.123565,8734.430116
921.909808,919.314598,-0.000000,9030.512492
921.910127,919.314598,-0.000000,9400.615463
921.910445,1455.581446,296.082377,9474.636058
921.910764,689.485948,-74.020594,9622.677246
921.911083,842.705048,370.102971,9696.697840
921.911402,1072.533697,740.205942,9326.594869
921.911721,383.047749,518.144159,9474.636058
921.912040,76.609550,444.123565,9474.636058
921.912359,-153.219100,296.082377,9400.615463
921.912678,-229.828649,-0.000000,9548.656652
921.912997,-306.438199,-0.000000,9696.697840
921.913316,-919.314598,-0.000000,9918.759623
921.913635,-689.485948,370.102971,9844.739029
921.913954,-612.876398,370.102971,9992.780217
921.914273,-383.047749,370.102971,9992.780217
921.914592,0.000000,518.144159,9918.759623
921.914911,0.000000,740.205942,9696.697840
921.915230,306.438199,666.185348,9622.677246
921.915549,536.266849,888.247130,9104.533087
921.915868,536.266849,592.164754,9030.512492
921.916187,919.314598,740.205942,8734.430116
921.916506,1149.143247,814.226536,8512.368333
921.916825,995.924147,518.144159,8660.409521
921.917144,1225.752797,444.123565,8956.491898
921.917463,842.705048,296.082377,9474.636058
921.917781,842.705048,296.082377,9400.615463
921.918100,766.095498,592.164754,9400.615463
921.918419,536.266849,444.123565,9400.615463
921.918738,612.876398,296.082377,8956.491898
921.919057,459.657299,518.144159,8882.471304
921.919376,229.828649,-0.000000,8956.491898
921.919695,229.828649,-0.000000,8956.491898
921.920014,0.000000,-0.000000,9252.574275
921.920333,0.000000,-296.082377,9178.553681
921.920652,-76.609550,-0.000000,9474.636058
921.920971,-536.266849,-0.000000,9474.636058
921.921290,0.000000,-0.000000,9474.636058
921.921609,306.438199,-0.000000,9474.636058
921.921928,229.828649,-0.000000,9400.615463
921.922247,536.266849,296.082377,9474.636058
921.922566,919.314598,518.144159,9104.533087
921.922885,1072.533697,518.144159,9030.512492
921.923204,1225.752797,518.144159,8438.347739
921.923523,1302.362347,592.164754,8216.285956
921.923842,1455.581446,518.144159,8438.347739
921.924161,1532.190996,296.082377,8512.368333
921.924480,1532.190996,222.061783,8586.388927
921.924799,1608.800546,-0.000000,9252.574275
