#time,accel_x,accel_y,accel_z
1492.941023,995.924147,-1406.391290,7772.162391
1492.941340,995.924147,-518.144159,8216.285956
1492.941657,1072.533697,-0.000000,7550.100608
1492.941975,1225.752797,666.185348,7179.997637
1492.942292,1302.362347,888.247130,7254.018232
1492.942609,1378.971896,296.082377,7402.059420
1492.942926,1225.752797,592.164754,7476.080014
1492.943243,612.876398,148.041188,8068.244768
1492.943560,0.000000,-74.020594,9252.574275
1492.943877,-766.095498,-888.247130,9844.739029
1492.944195,-2145.067394,-962.267725,10362.883188
1492.944512,-1608.800546,-666.185348,10288.862594
1492.944829,-1455.581446,-74.020594,10362.883188
1492.945146,-1608.800546,-0.000000,10214.842000
1492.945463,-1378.971896,-296.082377,10436.903782
1492.945780,-1455.581446,-666.185348,11177.109724
1492.946097,-1608.800546,-518.144159,11103.089130
1492.946414,-1685.410096,-296.082377,11399.171507
1492.946732,-1915.238745,-148.041188,12213.398043
1492.947049,-2451.505594,-0.000000,12139.377449
1492.947366,-2528.115143,296.082377,12213.398043
1492.947683,-2298.286494,666.185348,12287.418637
1492.948000,-2068.457845,666.185348,12435.459826
1492.948317,-1685.410096,1258.350101,11843.295072
1492.948634,-842.705048,1406.391290,11177.109724
1492.948952,-842.705048,1628.453072,10584.944971
1492.949269,-383.047749,1554.432478,10288.862594
1492.949586,-306.438199,1406.391290,9992.780217
1492.949903,-842.705048,1036.288319,9844.739029
1492.950220,-766.095498,740.205942,9918.759623
1492.950537,-1302.362347,296.082377,9770.718434
1492.950854,-1455.581446,-0.000000,9992.780217
1492.951172,-1838.629195,-592.164754,9696.697840
1492.951489,-1685.410096,-740.205942,9918.759623
1492.951806,-1991.848295,-740.205942,9030.512492
1492.952123,-1838.629195,-444.123565,9030.512492
1492.952440,-1455.581446,-592.164754,9474.636058
1492.952757,-1378.971896,-740.205942,9622.677246
1492.953074,-1532.190996,-592.164754,9696.697840
1492.953391,-1685.410096,-962.267725,9770.718434
1492.953709,-1685.410096,-1110.308913,9992.780217
1492.954026,-1608.800546,-740.205942,9844.739029
1492.954343,-1225.752797,-1332.370696,9548.656652
1492.954660,-1149.143247,-1628.453072,9252.574275
1492.954977,-1225.752797,-2294.638420,9178.553681
1492.955294,-842.705048,-2960.823768,9400.615463
1492.955611,0.000000,-3923.091493,9474.636058
1492.955929,-919.314598,-4737.318029,9474.636058
1492.956246,-612.876398,-5403.503377,10510.924376
1492.956563,-1302.362347,-5329.482782,10066.800811
1492.956880,-1455.581446,-4885.359217,10436.903782
1492.957197,-1685.410096,-5033.400406,10510.924376
1492.957514,-1685.410096,-4441.235652,9918.759623
1492.957831,-1838.629195,-3701.029710,9696.697840
1492.958148,-1762.019645,-3849.070898,9622.677246
1492.958466,-1455.581446,-4367.215058,10140.821405
1492.958783,-2145.067394,-4663.297435,10288.862594
1492.959100,-1225.752797,-4663.297435,10288.862594
1492.959417,-536.266849,-4515.256246,10732.986159
1492.959734,306.438199,-4293.194464,10584.944971
1492.960051,306.438199,-3478.967927,9326.594869
1492.960368,766.095498,-3330.926739,8364.327145
1492.960686,766.095498,-3330.926739,8512.368333
1492.961003,153.219100,-2886.803174,8438.347739
1492.961320,229.828649,-2960.823768,7920.203579
1492.961637,-153.219100,-2368.659014,7772.162391
1492.961954,-842.705048,-3552.988522,8734.430116
1492.962271,-919.314598,-3701.029710,8734.430116
1492.962588,-842.705048,-4515.256246,8956.491898
1492.962906,-919.314598,-3923.091493,8956.491898
1492.963223,-1225.752797,-3478.967927,8512.368333
1492.963540,-536.266849,-3182.885551,7994.224174
1492.963857,-612.876398,-2368.659014,7698.141797
1492.964174,-689.485948,-1998.556043,7772.162391
1492.964491,-766.095498,-2146.597232,7994.224174
1492.964808,-612.876398,-2220.617826,8660.409521
1492.965125,229.828649,-2146.597232,9400.615463
1492.965443,842.705048,-1776.494261,9474.636058
1492.965760,919.314598,-814.226536,9104.533087
1492.966077,1685.410096,-148.041188,8586.388927
1492.966394,2068.457845,666.185348,7476.080014
1492.966711,2987.772442,1332.370696,6587.832884
1492.967028,3064.381992,1332.370696,6587.832884
1492.967345,2145.067394,1110.308913,7105.977043
1492.967663,2298.286494,222.061783,8142.265362
1492.967980,1072.533697,-518.144159,9326.594869
1492.968297,1149.143247,-592.164754,10510.924376
1492.968614,919.314598,-148.041188,11029.068536
1492.968931,995.924147,1258.350101,9992.780217
1492.969248,1608.800546,2516.700203,9400.615463
1492.969565,1762.019645,3627.009116,8956.491898
1492.969882,2068.457845,4219.173869,8068.244768
1492.970200,2068.457845,4367.215058,7772.162391
1492.970517,1532.190996,3330.926739,9030.512492
1492.970834,1302.362347,2516.700203,10362.883188
1492.971151,459.657299,2368.659014,11029.068536
1492.971468,766.095498,2738.761985,11917.315666
1492.971785,459.657299,2886.803174,11769.274478
1492.972102,842.705048,4219.173869,10584.944971
1492.972420,1149.143247,4959.379811,9178.553681
1492.972737,842.705048,5847.626942,8290.306550
1492.973054,1302.362347,5255.462188,7994.224174
1492.973371,536.266849,4071.132681,8512.368333
1492.973688,0.000000,2812.782580,9622.677246
1492.974005,-383.047749,1998.556043,10510.924376
1492.974322,-1149.143247,1554.432478,11621.233289
1492.974640,-1532.190996,1332.370696,11991.336260
1492.974957,-1838.629195,1924.535449,11473.192101
1492.975274,-1685.410096,2886.803174,10510.924376
1492.975591,-1608.800546,3034.844362,10288.862594
1492.975908,-1149.143247,2960.823768,10288.862594
1492.976225,-1532.190996,1702.473667,10658.965565
1492.976542,-1915.238745,-0.000000,11621.233289
1492.976859,-2374.896044,-666.185348,12731.542202
1492.977177,-2221.676944,-1332.370696,13545.768739
1492.977494,-1838.629195,-962.267725,13545.768739
1492.977811,-1378.971896,-0.000000,12953.603985
1492.978128,-1149.143247,444.123565,11917.315666
1492.978446,-689.485948,814.226536,10732.986159
1492.978763,229.828649,1036.288319,9992.780217
1492.979080,536.266849,-0.000000,9770.718434
1492.979398,689.485948,-1110.308913,9918.759623
1492.979715,459.657299,-2294.638420,10584.944971
1492.980033,536.266849,-2960.823768,10807.006753
1492.980350,842.705048,-3330.926739,11251.130318
1492.980667,1072.533697,-3034.844362,11177.109724
1492.980985,1378.971896,-2294.638420,10362.883188
1492.981302,2145.067394,-1850.514855,9400.615463
1492.981619,2221.676944,-1406.391290,8882.471304
1492.981937,2604.724693,-1184.329507,8068.244768
1492.982254,2451.505594,-1850.514855,7772.162391
1492.982571,2528.115143,-2368.659014,8142.265362
1492.982889,2298.286494,-3552.988522,8512.368333
1492.983206,2451.505594,-3923.091493,9178.553681
1492.983523,2298.286494,-3923.091493,9030.512492
1492.983841,2145.067394,-3552.988522,8734.430116
1492.984158,2451.505594,-3256.906145,8290.306550
1492.984475,2681.334243,-2442.679609,7402.059420
1492.984793,2604.724693,-1998.556043,6883.915261
1492.985110,2911.162892,-2368.659014,6291.750507
1492.985427,2451.505594,-2368.659014,6143.709319
1492.985745,2145.067394,-3108.864956,6513.812290
1492.986062,1915.238745,-3701.029710,7031.956449
1492.986379,1455.581446,-3849.070898,7476.080014
1492.986697,1149.143247,-3552.988522,8216.285956
1492.987014,995.924147,-2886.803174,7846.182985
1492.987331,919.314598,-2516.700203,7402.059420
1492.987649,1072.533697,-1332.370696,7105.977043
1492.987966,919.314598,-1036.288319,6809.894666
1492.988284,612.876398,-1184.329507,6587.832884
1492.988601,612.876398,-1924.535449,6957.935855
1492.988918,0.000000,-1924.535449,7624.121203
1492.989236,-306.438199,-1702.473667,8512.368333
1492.989553,-689.485948,-1998.556043,9252.574275
1492.989870,-919.314598,-1554.432478,9474.636058
1492.990188,-995.924147,-814.226536,9326.594869
1492.990505,-842.705048,-0.000000,9548.656652
1492.990822,-536.266849,666.185348,9030.512492
1492.991140,0.000000,1850.514855,8216.285956
1492.991457,0.000000,1924.535449,7920.203579
1492.991774,229.828649,2294.638420,7698.141797
1492.992092,612.876398,1924.535449,8438.347739
1492.992409,153.219100,1554.432478,8808.450710
1492.992726,0.000000,1776.494261,9474.636058
1492.993044,0.000000,2072.576638,9548.656652
1492.993361,76.609550,2886.803174,9770.718434
1492.993678,153.219100,3256.906145,9770.718434
1492.993996,229.828649,3701.029710,9474.636058
1492.994313,459.657299,4515.256246,9178.553681
1492.994630,459.657299,4737.318029,9252.574275
1492.994948,229.828649,4441.235652,9474.636058
1492.995265,-229.828649,3849.070898,10288.862594
1492.995583,-383.047749,3330.926739,11399.171507
1492.995900,-306.438199,3108.864956,11843.295072
1492.996217,-229.828649,3034.844362,12361.439231
1492.996535,0.000000,3404.947333,12287.418637
1492.996852,383.047749,3997.112087,11843.295072
1492.997169,995.924147,4293.194464,11473.192101
1492.997487,1532.190996,4515.256246,11029.068536
1492.997804,1608.800546,4145.153275,10807.006753
1492.998121,1838.629195,4293.194464,10510.924376
1492.998439,1838.629195,3701.029710,11029.068536
1492.998756,1532.190996,2812.782580,11103.089130
1492.999073,1455.581446,1998.556043,11473.192101
1492.999391,1072.533697,1110.308913,12583.501014
1492.999708,766.095498,1406.391290,12361.439231
1493.000025,919.314598,1850.514855,11843.295072
1493.000343,995.924147,1998.556043,11621.233289
1493.000660,536.266849,2146.597232,11547.212695
1493.000977,229.828649,1628.453072,10955.047942
1493.001295,0.000000,888.247130,11177.109724
1493.001612,0.000000,740.205942,11177.109724
1493.001929,0.000000,518.144159,11473.192101
1493.002247,76.609550,148.041188,11547.212695
1493.002564,76.609550,-148.041188,11843.295072
1493.002882,229.828649,-592.164754,11177.109724
1493.003199,459.657299,-296.082377,10288.862594
1493.003516,1225.752797,370.102971,9696.697840
1493.003834,2374.896044,444.123565,8808.450710
1493.004151,2604.724693,962.267725,7476.080014
1493.004468,2221.676944,666.185348,7105.977043
1493.004786,2068.457845,-0.000000,7254.018232
1493.005103,2374.896044,-1036.288319,7254.018232
1493.005420,2145.067394,-1702.473667,7994.224174
1493.005738,1991.848295,-1998.556043,8068.244768
1493.006055,1302.362347,-1850.514855,8290.306550
1493.006372,1608.800546,-1850.514855,7920.203579
1493.006690,1915.238745,-1406.391290,7550.100608
1493.007007,2298.286494,-888.247130,7179.997637
1493.007324,2298.286494,-740.205942,6735.874072
1493.007642,1532.190996,-1036.288319,6883.915261
1493.007959,1838.629195,-1628.453072,7105.977043
1493.008276,2068.457845,-2368.659014,7994.224174
1493.008594,995.924147,-2812.782580,8364.327145
1493.008911,842.705048,-2664.741391,8364.327145
1493.009228,842.705048,-2294.638420,8438.347739
1493.009546,1225.752797,-2072.576638,8364.327145
1493.009863,1302.362347,-1628.453072,7772.162391
1493.010181,1762.019645,-888.247130,7402.059420
1493.010498,1608.800546,-814.226536,7105.977043
1493.010815,1455.581446,-814.226536,7179.997637
1493.011133,1378.971896,-962.267725,6957.935855
1493.011450,766.095498,-1184.329507,7846.182985
1493.011767,766.095498,-1036.288319,8290.306550
1493.012085,383.047749,-1332.370696,8808.450710
1493.012402,229.828649,-1036.288319,8882.471304
1493.012719,536.266849,-296.082377,9178.553681
1493.013037,153.219100,296.082377,8808.450710
1493.013354,383.047749,888.247130,8586.388927
1493.013671,153.219100,1184.329507,8142.265362
1493.013989,153.219100,1554.432478,7920.203579
1493.014306,612.876398,1554.432478,8660.409521
1493.014623,153.219100,1776.494261,9622.677246
1493.014941,-536.266849,1258.350101,9770.718434
1493.015258,-306.438199,1702.473667,10288.862594
1493.015575,-229.828649,1850.514855,10658.965565
1493.015893,-383.047749,2368.659014,10658.965565
1493.016210,306.438199,2886.803174,9992.780217
1493.016527,689.485948,3627.009116,9622.677246
1493.016845,1225.752797,3849.070898,9252.574275
1493.017162,1532.190996,3923.091493,9474.636058
1493.017479,1378.971896,3478.967927,9548.656652
1493.017797,1532.190996,2886.803174,9844.739029
1493.018114,1302.362347,2368.659014,10436.903782
1493.018432,1378.971896,2590.720797,11029.068536
1493.018749,1302.362347,2738.761985,11177.109724
1493.019066,1762.019645,3108.864956,11325.150913
1493.019384,1532.190996,3627.009116,11177.109724
1493.019701,1838.629195,3849.070898,10955.047942
1493.020018,1762.019645,3775.050304,10732.986159
1493.020336,1378.971896,3404.947333,10584.944971
1493.020653,1455.581446,2738.761985,11103.089130
1493.020970,612.876398,2146.597232,11547.212695
1493.021288,306.438199,1554.432478,12287.418637
1493.021605,76.609550,1110.308913,12583.501014
1493.021922,153.219100,1258.350101,12731.542202
1493.022240,229.828649,1702.473667,12435.459826
1493.022557,153.219100,2220.617826,11769.274478
1493.022874,842.705048,2294.638420,10658.965565
1493.023192,842.705048,2294.638420,10140.821405
1493.023509,766.095498,1924.535449,9622.677246
1493.023826,842.705048,2072.576638,10066.800811
1493.024144,689.485948,1110.308913,9178.553681
1493.024461,612.876398,592.164754,9474.636058
1493.024778,612.876398,370.102971,9992.780217
1493.025096,536.266849,-0.000000,9992.780217
1493.025413,229.828649,370.102971,9696.697840
1493.025731,459.657299,-0.000000,9548.656652
1493.026048,459.657299,444.123565,8808.450710
1493.026365,536.266849,148.041188,8364.327145
1493.026683,842.705048,-0.000000,8068.244768
1493.027000,536.266849,-0.000000,8216.285956
1493.027317,0.000000,-814.226536,8290.306550
1493.027635,-306.438199,-1628.453072,8734.430116
1493.027952,-459.657299,-1998.556043,9474.636058
1493.028269,-459.657299,-1998.556043,9326.594869
1493.028587,-306.438199,-1702.473667,9400.615463
1493.028904,383.047749,-1406.391290,8660.409521
1493.029221,995.924147,-1332.370696,7994.224174
1493.029539,1149.143247,-1332.370696,7698.141797
1493.029856,1532.190996,-1406.391290,7624.121203
1493.030173,1532.190996,-1554.432478,7105.977043
1493.030491,1685.410096,-2146.597232,7254.018232
1493.030808,1378.971896,-2368.659014,7328.038826
1493.031125,1455.581446,-2812.782580,7994.224174
1493.031443,1762.019645,-2738.761985,8290.306550
1493.031760,1225.752797,-2664.741391,8290.306550
1493.032077,1378.971896,-2368.659014,8216.285956
1493.032395,1838.629195,-2442.679609,8290.306550
1493.032712,1915.238745,-2368.659014,8216.285956
1493.033030,1608.800546,-2368.659014,8068.244768
1493.033347,1685.410096,-2220.617826,8068.244768
1493.033664,1302.362347,-2146.597232,8808.450710
1493.033982,1378.971896,-1850.514855,9030.512492
1493.034299,1532.190996,-1998.556043,9252.574275
1493.034616,1225.752797,-1554.432478,9252.574275
1493.034934,1532.190996,-1332.370696,9400.615463
1493.035251,2068.457845,-962.267725,9252.574275
1493.035568,1838.629195,-518.144159,8808.450710
1493.035886,2757.943793,-0.000000,8512.368333
1493.036203,2834.553343,370.102971,8216.285956
1493.036520,2834.553343,222.061783,7846.182985
1493.036838,3064.381992,444.123565,7994.224174
1493.037155,2145.067394,-296.082377,8586.388927
1493.037472,1762.019645,-0.000000,9474.636058
1493.037790,1225.752797,-0.000000,9918.759623
1493.038107,612.876398,148.041188,9918.759623
1493.038424,766.095498,666.185348,10288.862594
1493.038742,153.219100,1258.350101,9992.780217
1493.039059,383.047749,1332.370696,9918.759623
1493.039376,306.438199,1184.329507,9918.759623
1493.039694,383.047749,1406.391290,10140.821405
1493.040011,0.000000,1554.432478,10362.883188
1493.040329,-306.438199,1554.432478,11029.068536
1493.040646,-536.266849,1332.370696,11251.130318
1493.040963,-842.705048,1332.370696,11325.150913
1493.041281,-842.705048,1554.432478,11621.233289
1493.041598,-842.705048,1776.494261,11547.212695
1493.041915,-383.047749,2146.597232,11177.109724
1493.042233,-306.438199,2368.659014,11029.068536
1493.042550,0.000000,2368.659014,10584.944971
1493.042867,-306.438199,2220.617826,9918.759623
1493.043185,536.266849,1924.535449,9992.780217
1493.043502,153.219100,1924.535449,10140.821405
1493.043819,-536.266849,1406.391290,10510.924376
1493.044137,-919.314598,1628.453072,10584.944971
1493.044454,-1302.362347,1258.350101,10807.006753
1493.044771,-1149.143247,1406.391290,11103.089130
1493.045089,-919.314598,1406.391290,10955.047942
1493.045406,-1072.533697,1184.329507,10584.944971
1493.045723,-689.485948,1332.370696,10436.903782
1493.046041,-536.266849,1406.391290,10214.842000
1493.046358,-306.438199,1406.391290,9252.574275
1493.046675,-536.266849,962.267725,9696.697840
1493.046993,-153.219100,740.205942,9770.718434
1493.047310,-459.657299,518.144159,9992.780217
1493.047627,-306.438199,-0.000000,10214.842000
1493.047945,-383.047749,296.082377,9844.739029
1493.048262,0.000000,-0.000000,9696.697840
1493.048580,459.657299,-0.000000,9474.636058
1493.048897,919.314598,-0.000000,8956.491898
1493.049214,1225.752797,370.102971,8216.285956
1493.049532,1455.581446,-74.020594,7698.141797
1493.049849,1302.362347,-592.164754,7772.162391
1493.050166,1378.971896,-814.226536,7920.203579
1493.050484,1072.533697,-1850.514855,8660.409521
1493.050801,306.438199,-1998.556043,9178.553681
1493.051118,612.876398,-2072.576638,9252.574275
1493.051436,459.657299,-1998.556043,8956.491898
1493.051753,1378.971896,-1850.514855,8808.450710
1493.052070,1378.971896,-1480.411884,8364.327145
1493.052388,1149.143247,-1924.535449,8142.265362
1493.052705,1608.800546,-1998.556043,7846.182985
1493.053022,1225.752797,-2294.638420,8290.306550
1493.053340,1302.362347,-2664.741391,8660.409521
1493.053657,1302.362347,-2738.761985,8660.409521
1493.053974,842.705048,-2516.700203,8956.491898
1493.054292,1225.752797,-2516.700203,8808.450710
1493.054609,1149.143247,-2368.659014,8660.409521
1493.054926,1608.800546,-2146.597232,8586.388927
1493.055244,1838.629195,-1850.514855,8068.244768
1493.055561,1915.238745,-1776.494261,7994.224174
1493.055879,2298.286494,-1702.473667,7994.224174
1493.056196,2145.067394,-1924.535449,7920.203579
1493.056513,1838.629195,-2072.576638,7846.182985
1493.056831,1608.800546,-2368.659014,8290.306550
1493.057148,1302.362347,-1924.535449,8660.409521
1493.057465,995.924147,-1702.473667,8956.491898
1493.057783,612.876398,-1776.494261,9400.615463
1493.058100,689.485948,-1776.494261,9474.636058
1493.058417,612.876398,-962.267725,9252.574275
1493.058735,842.705048,-814.226536,8882.471304
1493.059052,766.095498,-740.205942,8734.430116
1493.059369,459.657299,-518.144159,8882.471304
1493.059687,459.657299,-370.102971,9326.594869
1493.060004,153.219100,-296.082377,9474.636058
1493.060321,153.219100,-148.041188,9622.677246
1493.060639,-229.828649,-0.000000,9844.739029
1493.060956,-306.438199,-0.000000,10214.842000
1493.061273,-383.047749,370.102971,10436.903782
1493.061591,0.000000,518.144159,10362.883188
1493.061908,0.000000,740.205942,9474.636058
1493.062225,842.705048,1702.473667,9548.656652
1493.062543,689.485948,1776.494261,9326.594869
1493.062860,689.485948,1702.473667,9474.636058
1493.063178,689.485948,1480.411884,9474.636058
1493.063495,459.657299,1554.432478,9992.780217
1493.063812,459.657299,1554.432478,10732.986159
1493.064130,306.438199,1776.494261,10584.944971
1493.064447,153.219100,2146.597232,10584.944971
1493.064764,76.609550,2294.638420,10288.862594
1493.065082,76.609550,2220.617826,10510.924376
1493.065399,0.000000,2368.659014,9918.759623
1493.065716,229.828649,2220.617826,10066.800811
1493.066034,-306.438199,1998.556043,10732.986159
1493.066351,-229.828649,1776.494261,10584.944971
1493.066668,-306.438199,1554.432478,10955.047942
1493.066986,-612.876398,1184.329507,11473.192101
1493.067303,153.219100,1406.391290,11325.150913
1493.067620,-306.438199,1776.494261,11177.109724
1493.067938,229.828649,2368.659014,11029.068536
1493.068255,919.314598,2294.638420,10140.821405
1493.068572,1072.533697,2442.679609,9696.697840
1493.068890,1608.800546,2368.659014,9474.636058
1493.069207,1685.410096,1998.556043,9104.533087
1493.069524,1915.238745,1480.411884,9252.574275
1493.069842,1532.190996,962.267725,9696.697840
1493.070159,1685.410096,592.164754,9918.759623
1493.070477,1225.752797,518.144159,9770.718434
1493.070794,1149.143247,740.205942,10214.842000
1493.071111,1072.533697,518.144159,10288.862594
1493.071429,766.095498,296.082377,9474.636058
1493.071746,612.876398,592.164754,9252.574275
1493.072063,842.705048,592.164754,9030.512492
1493.072381,766.095498,-0.000000,8956.491898
1493.072698,306.438199,-444.123565,9474.636058
1493.073015,306.438199,-1184.329507,9992.780217
1493.073333,0.000000,-1332.370696,9918.759623
1493.073650,0.000000,-740.205942,9770.718434
1493.073967,153.219100,-518.144159,9548.656652
1493.074285,689.485948,-74.020594,8882.471304
1493.074602,1225.752797,222.061783,8364.327145
1493.074919,1762.019645,222.061783,7550.100608
1493.075237,1302.362347,222.061783,7105.977043
1493.075554,2068.457845,-0.000000,7254.018232
1493.075871,1608.800546,-592.164754,7179.997637
1493.076189,1378.971896,-1110.308913,7920.203579
1493.076506,995.924147,-1480.411884,7920.203579
1493.076824,766.095498,-1110.308913,8364.327145
1493.077141,766.095498,-1332.370696,8438.347739
1493.077458,612.876398,-518.144159,8142.265362
1493.077776,306.438199,-370.102971,7550.100608
1493.078093,536.266849,-74.020594,7698.141797
1493.078411,306.438199,-370.102971,7402.059420
1493.078728,229.828649,-666.185348,8364.327145
1493.079045,0.000000,-1258.350101,8956.491898
1493.079363,-459.657299,-1184.329507,9252.574275
1493.079680,-306.438199,-1110.308913,9844.739029
1493.079998,0.000000,-666.185348,9918.759623
1493.080315,0.000000,-148.041188,9400.615463
1493.080632,612.876398,444.123565,9178.553681
1493.080950,995.924147,814.226536,8882.471304
1493.081267,1685.410096,962.267725,8586.388927
1493.081584,1302.362347,444.123565,8512.368333
1493.081902,1378.971896,222.061783,8734.430116
1493.082219,1302.362347,-296.082377,9178.553681
1493.082537,842.705048,-296.082377,9400.615463
1493.082854,919.314598,-0.000000,9844.739029
1493.083171,919.314598,222.061783,10214.842000
1493.083489,766.095498,370.102971,10658.965565
1493.083806,842.705048,518.144159,10510.924376
1493.084124,995.924147,592.164754,10214.842000
1493.084441,1072.533697,1184.329507,9622.677246
1493.084758,766.095498,1258.350101,9844.739029
1493.085076,919.314598,962.267725,10140.821405
1493.085393,306.438199,592.164754,10658.965565
1493.085711,229.828649,518.144159,11621.233289
1493.086028,306.438199,888.247130,11695.253884
1493.086345,536.266849,1332.370696,11695.253884
1493.086663,842.705048,1776.494261,11029.068536
1493.086980,1225.752797,1850.514855,10510.924376
1493.087298,1532.190996,2146.597232,10436.903782
1493.087615,1915.238745,2368.659014,9474.636058
1493.087932,2145.067394,2590.720797,9400.615463
1493.088250,2374.896044,2442.679609,9252.574275
1493.088567,2068.457845,1628.453072,9474.636058
1493.088885,1991.848295,1036.288319,9992.780217
1493.089202,1608.800546,962.267725,10362.883188
1493.089519,1455.581446,1258.350101,10436.903782
1493.089837,1455.581446,1628.453072,9992.780217
1493.090154,1685.410096,2146.597232,9844.739029
1493.090471,1685.410096,2146.597232,9622.677246
1493.090789,1302.362347,1850.514855,9252.574275
1493.091106,995.924147,1406.391290,8882.471304
1493.091424,766.095498,962.267725,9474.636058
1493.091741,1072.533697,296.082377,9474.636058
1493.092058,536.266849,296.082377,10066.800811
1493.092376,0.000000,296.082377,10140.821405
1493.092693,-229.828649,148.041188,10510.924376
1493.093011,0.000000,370.102971,10288.862594
1493.093328,76.609550,370.102971,9844.739029
1493.093645,766.095498,962.267725,9104.533087
1493.093963,995.924147,1480.411884,8808.450710
1493.094280,995.924147,1184.329507,8142.265362
1493.094598,1302.362347,740.205942,8142.265362
1493.094915,1378.971896,370.102971,8290.306550
1493.095232,766.095498,-222.061783,8364.327145
1493.095550,612.876398,-518.144159,8882.471304
1493.095867,536.266849,-814.226536,9400.615463
1493.096185,536.266849,-592.164754,9622.677246
1493.096502,612.876398,-0.000000,9104.533087
1493.096819,842.705048,148.041188,8438.347739
1493.097137,919.314598,370.102971,7846.182985
1493.097454,1072.533697,296.082377,7846.182985
1493.097772,766.095498,-0.000000,7624.121203
1493.098089,383.047749,-74.020594,8808.450710
1493.098406,306.438199,-0.000000,8660.409521
1493.098724,153.219100,-148.041188,9030.512492
1493.099041,229.828649,-296.082377,9252.574275
1493.099358,153.219100,-222.061783,9400.615463
1493.099676,153.219100,-296.082377,9252.574275
1493.099993,383.047749,296.082377,8512.368333
1493.100311,1685.410096,592.164754,8068.244768
1493.100628,1991.848295,814.226536,7846.182985
1493.100945,1378.971896,444.123565,7772.162391
1493.101263,1532.190996,-0.000000,8142.265362
1493.101580,1532.190996,-0.000000,8586.388927
1493.101898,1532.190996,-74.020594,9178.553681
1493.102215,1378.971896,-74.020594,9548.656652
1493.102532,1455.581446,148.041188,9474.636058
1493.102850,1455.581446,222.061783,9400.615463
1493.103167,1685.410096,370.102971,9326.594869
1493.103485,1762.019645,740.205942,9104.533087
1493.103802,1991.848295,666.185348,8734.430116
1493.104119,1455.581446,740.205942,8808.450710
1493.104437,1302.362347,222.061783,9474.636058
1493.104754,383.047749,-148.041188,10140.821405
1493.105072,0.000000,-444.123565,10510.924376
1493.105389,0.000000,-518.144159,11473.192101
1493.105706,0.000000,-0.000000,10955.047942
1493.106024,0.000000,444.123565,11103.089130
1493.106341,766.095498,592.164754,10584.944971
1493.106659,306.438199,740.205942,9992.780217
1493.106976,1302.362347,962.267725,9844.739029
1493.107293,1072.533697,1036.288319,9326.594869
1493.107611,1072.533697,814.226536,9474.636058
1493.107928,1072.533697,666.185348,9844.739029
1493.108245,842.705048,222.061783,10362.883188
1493.108563,459.657299,-0.000000,10436.903782
1493.108880,76.609550,222.061783,10288.862594
1493.109198,229.828649,370.102971,10510.924376
1493.109515,459.657299,296.082377,10214.842000
1493.109832,229.828649,296.082377,10436.903782
1493.110150,459.657299,666.185348,9474.636058
1493.110467,0.000000,666.185348,9400.615463
1493.110785,-229.828649,296.082377,9770.718434
1493.111102,-459.657299,-0.000000,10436.903782
1493.111419,-612.876398,-148.041188,10732.986159
1493.111737,-689.485948,-0.000000,10807.006753
1493.112054,-842.705048,518.144159,10658.965565
1493.112372,-229.828649,296.082377,10436.903782
1493.112689,536.266849,666.185348,9992.780217
1493.113006,1072.533697,888.247130,9918.759623
1493.113324,1378.971896,296.082377,8956.491898
1493.113641,1838.629195,592.164754,8290.306550
1493.113959,2221.676944,444.123565,8586.388927
1493.114276,1991.848295,222.061783,8512.368333
1493.114593,1838.629195,-296.082377,8734.430116
1493.114911,1532.190996,-74.020594,9104.533087
1493.115228,1149.143247,-370.102971,9474.636058
1493.115546,1455.581446,-74.020594,9548.656652
1493.115863,1608.800546,74.020594,9178.553681
1493.116180,1455.581446,148.041188,9474.636058
1493.116498,1685.410096,-0.000000,8882.471304
1493.116815,1455.581446,-222.061783,8438.347739
1493.117133,1225.752797,-148.041188,8438.347739
1493.117450,1225.752797,-666.185348,8956.491898
1493.117767,689.485948,-518.144159,9178.553681
1493.118085,689.485948,-740.205942,9770.718434
1493.118402,153.219100,-592.164754,9474.636058
1493.118719,229.828649,-74.020594,9474.636058
1493.119037,536.266849,370.102971,9104.533087
1493.119354,766.095498,518.144159,8660.409521
1493.119672,1302.362347,592.164754,8290.306550
1493.119989,1302.362347,444.123565,8290.306550
1493.120306,1378.971896,222.061783,8290.306550
1493.120624,995.924147,-370.102971,8216.285956
1493.120941,1225.752797,-74.020594,8438.347739
1493.121259,919.314598,-444.123565,8586.388927
1493.121576,536.266849,-370.102971,8882.471304
1493.121893,306.438199,-444.123565,9474.636058
1493.122211,842.705048,-74.020594,9400.615463
1493.122528,536.266849,-0.000000,9252.574275
1493.122846,229.828649,370.102971,8586.388927
1493.123163,383.047749,-0.000000,8586.388927
1493.123480,-153.219100,-148.041188,8660.409521
1493.123798,76.609550,-814.226536,9918.759623
1493.124115,-306.438199,-444.123565,9696.697840
1493.124433,-536.266849,-592.164754,10214.842000
1493.124750,-919.314598,-592.164754,10140.821405
1493.125067,-229.828649,-666.185348,10881.027347
1493.125385,-459.657299,-74.020594,10807.006753
1493.125702,76.609550,-0.000000,9844.739029
1493.126020,459.657299,444.123565,9474.636058
1493.126337,842.705048,740.205942,9030.512492
1493.126654,1149.143247,296.082377,9030.512492
1493.126972,1072.533697,-74.020594,9252.574275
1493.127289,1149.143247,-296.082377,9548.656652
1493.127606,1072.533697,-518.144159,9622.677246
1493.127924,919.314598,-222.061783,10288.862594
1493.128241,766.095498,-0.000000,10362.883188
1493.128559,1149.143247,-0.000000,10140.821405
1493.128876,1149.143247,-0.000000,9696.697840
1493.129193,689.485948,-0.000000,9992.780217
1493.129511,766.095498,-0.000000,9622.677246
1493.129828,689.485948,-148.041188,9770.718434
1493.130146,536.266849,-0.000000,10140.821405
1493.130463,76.609550,-74.020594,10066.800811
1493.130780,0.000000,-592.164754,10436.903782
1493.131098,-459.657299,-888.247130,10881.027347
1493.131415,-536.266849,-592.164754,11103.089130
1493.131733,76.609550,-0.000000,10510.924376
1493.132050,229.828649,296.082377,9918.759623
1493.132367,536.266849,444.123565,9548.656652
1493.132685,766.095498,370.102971,9400.615463
1493.133002,1302.362347,-222.061783,8882.471304
1493.133320,1225.752797,222.061783,8734.430116
1493.133637,1608.800546,-74.020594,9104.533087
1493.133954,1378.971896,-0.000000,8882.471304
1493.134272,1302.362347,-740.205942,9400.615463
1493.134589,919.314598,-592.164754,9474.636058
1493.134907,689.485948,-296.082377,9474.636058
1493.135224,1072.533697,-0.000000,9252.574275
1493.135541,995.924147,148.041188,8808.450710
1493.135859,1532.190996,444.123565,9030.512492
1493.136176,1072.533697,-222.061783,8734.430116
1493.136493,536.266849,-592.164754,9178.553681
1493.136811,153.219100,-148.041188,9104.533087
1493.137128,153.219100,-370.102971,9622.677246
1493.137446,0.000000,-0.000000,10066.800811
1493.137763,76.609550,-0.000000,10140.821405
1493.138080,612.876398,-0.000000,9474.636058
1493.138398,536.266849,-0.000000,9104.533087
1493.138715,1149.143247,518.144159,8956.491898
1493.139033,919.314598,444.123565,8512.368333
1493.139350,1685.410096,740.205942,7846.182985
1493.139667,1685.410096,888.247130,7698.141797
1493.139985,1762.019645,592.164754,8142.265362
1493.140302,1378.971896,-444.123565,8142.265362
1493.140620,995.924147,-222.061783,8660.409521
1493.140937,995.924147,-0.000000,8956.491898
1493.141254,766.095498,-0.000000,9030.512492
1493.141572,919.314598,370.102971,9252.574275
1493.141889,459.657299,666.185348,8956.491898
1493.142207,459.657299,740.205942,8512.368333
1493.142524,459.657299,518.144159,8586.388927
1493.142841,306.438199,296.082377,8882.471304
1493.143159,229.828649,-148.041188,9474.636058
1493.143476,-383.047749,-148.041188,9844.739029
1493.143794,-612.876398,-0.000000,9844.739029
1493.144111,-612.876398,148.041188,10140.821405
1493.144428,-459.657299,222.061783,9992.780217
1493.144746,0.000000,148.041188,9992.780217
1493.145063,0.000000,444.123565,9992.780217
1493.145380,229.828649,592.164754,9622.677246
1493.145698,766.095498,1036.288319,9178.553681
1493.146015,995.924147,888.247130,8882.471304
1493.146333,1225.752797,814.226536,9252.574275
1493.146650,995.924147,-0.000000,9474.636058
1493.146967,995.924147,-0.000000,9696.697840
1493.147285,919.314598,-222.061783,10288.862594
1493.147602,612.876398,-0.000000,10362.883188
1493.147920,919.314598,-0.000000,10362.883188
1493.148237,842.705048,370.102971,10066.800811
1493.148554,1072.533697,370.102971,10066.800811
1493.148872,689.485948,370.102971,9844.739029
1493.149189,612.876398,-0.000000,9770.718434
1493.149507,995.924147,518.144159,10214.842000
1493.149824,536.266849,222.061783,10510.924376
1493.150141,229.828649,-0.000000,11177.109724
1493.150459,383.047749,-0.000000,11177.109724
1493.150776,1072.533697,-0.000000,10807.006753
1493.151094,995.924147,370.102971,10288.862594
1493.151411,1302.362347,1184.329507,9992.780217
1493.151728,1608.800546,1406.391290,9400.615463
1493.152046,2068.457845,962.267725,8882.471304
1493.152363,2145.067394,740.205942,8290.306550
1493.152681,2145.067394,518.144159,8808.450710
1493.152998,1838.629195,518.144159,8734.430116
1493.153315,1608.800546,296.082377,9400.615463
1493.153633,1149.143247,-0.000000,9548.656652
1493.153950,1072.533697,-0.000000,9844.739029
1493.154267,1072.533697,-0.000000,9918.759623
1493.154585,995.924147,666.185348,9178.553681
1493.154902,919.314598,518.144159,9104.533087
1493.155220,919.314598,666.185348,8956.491898
1493.155537,995.924147,222.061783,8956.491898
1493.155854,459.657299,148.041188,8956.491898
1493.156172,0.000000,-0.000000,9326.594869
1493.156489,-229.828649,-296.082377,9696.697840
1493.156807,-383.047749,-370.102971,9992.780217
1493.157124,-842.705048,-370.102971,10140.821405
1493.157441,-153.219100,-0.000000,9770.718434
1493.157759,-153.219100,518.144159,9252.574275
1493.158076,689.485948,444.123565,8660.409521
1493.158394,995.924147,814.226536,8364.327145
1493.158711,1302.362347,814.226536,7920.203579
1493.159028,1149.143247,444.123565,7920.203579
1493.159346,1149.143247,-0.000000,8216.285956
1493.159663,842.705048,-0.000000,8438.347739
1493.159981,689.485948,-222.061783,9030.512492
1493.160298,459.657299,-296.082377,9104.533087
1493.160615,842.705048,-0.000000,9326.594869
1493.160933,842.705048,370.102971,8882.471304
1493.161250,1072.533697,518.144159,8956.491898
1493.161568,1225.752797,518.144159,8438.347739
1493.161885,919.314598,592.164754,8290.306550
1493.162202,536.266849,-74.020594,8660.409521
1493.162520,76.609550,-74.020594,9252.574275
1493.162837,0.000000,-74.020594,9918.759623
1493.163154,0.000000,296.082377,10140.821405
1493.163472,153.219100,444.123565,10288.862594
1493.163789,383.047749,518.144159,9696.697840
1493.164107,766.095498,740.205942,9622.677246
1493.164424,1378.971896,962.267725,9178.553681
1493.164741,1915.238745,1332.370696,8882.471304
1493.165059,2068.457845,1332.370696,8290.306550
1493.165376,2145.067394,888.247130,8586.388927
1493.165694,2298.286494,666.185348,9104.533087
1493.166011,2451.505594,-0.000000,9474.636058
1493.166328,1685.410096,592.164754,9918.759623
1493.166646,1225.752797,370.102971,10140.821405
1493.166963,1225.752797,444.123565,10584.944971
1493.167281,1378.971896,962.267725,10066.800811
1493.167598,1608.800546,370.102971,9844.739029
1493.167915,1302.362347,1036.288319,9474.636058
1493.168233,1302.362347,962.267725,9252.574275
1493.168550,842.705048,740.205942,9622.677246
1493.168868,306.438199,222.061783,9918.759623
1493.169185,-229.828649,-0.000000,10510.924376
1493.169502,-536.266849,-0.000000,11103.089130
1493.169820,-689.485948,222.061783,11029.068536
1493.170137,-306.438199,444.123565,11029.068536
1493.170455,0.000000,962.267725,10362.883188
1493.170772,153.219100,1258.350101,9918.759623
1493.171089,536.266849,1628.453072,9474.636058
1493.171407,1072.533697,1332.370696,9104.533087
1493.171724,1149.143247,1258.350101,9178.553681
1493.172041,995.924147,888.247130,9622.677246
1493.172359,1225.752797,888.247130,9474.636058
1493.172676,1378.971896,888.247130,9474.636058
1493.172994,1149.143247,222.061783,10140.821405
1493.173311,1072.533697,740.205942,9992.780217
1493.173628,1378.971896,518.144159,9770.718434
1493.173946,1302.362347,962.267725,9252.574275
1493.174263,1608.800546,962.267725,9252.574275
1493.174580,1685.410096,814.226536,8734.430116
1493.174898,1302.362347,666.185348,8660.409521
1493.175215,842.705048,296.082377,9104.533087
1493.175532,612.876398,-0.000000,9474.636058
1493.175849,229.828649,-0.000000,10214.842000
1493.176167,229.828649,-148.041188,10066.800811
1493.176484,383.047749,-74.020594,10140.821405
1493.176801,229.828649,222.061783,9474.636058
1493.177118,766.095498,444.123565,9104.533087
1493.177435,1302.362347,740.205942,8660.409521
1493.177753,1532.190996,814.226536,8216.285956
1493.178070,1455.581446,518.144159,7994.224174
1493.178387,1378.971896,370.102971,8142.265362
1493.178704,1762.019645,-74.020594,8512.368333
1493.179021,1072.533697,-0.000000,9030.512492
1493.179339,766.095498,-296.082377,9400.615463
1493.179656,842.705048,-296.082377,9622.677246
1493.179973,536.266849,-0.000000,9474.636058
1493.180290,459.657299,296.082377,9030.512492
1493.180608,383.047749,444.123565,8882.471304
1493.180925,459.657299,-0.000000,8512.368333
1493.181242,383.047749,148.041188,8512.368333
1493.181559,76.609550,-222.061783,8586.388927
1493.181876,-383.047749,-444.123565,9474.636058
1493.182194,-536.266849,-666.185348,10066.800811
1493.182511,-306.438199,-518.144159,10214.842000
1493.182828,0.000000,-0.000000,10214.842000
1493.183145,-536.266849,148.041188,9548.656652
1493.183463,306.438199,370.102971,9400.615463
1493.183780,459.657299,666.185348,9030.512492
1493.184097,1225.752797,444.123565,8438.347739
1493.184414,1072.533697,666.185348,8364.327145
1493.184731,1378.971896,444.123565,8734.430116
1493.185049,1455.581446,-0.000000,9178.553681
1493.185366,1455.581446,-148.041188,9252.574275
1493.185683,995.924147,-592.164754,9622.677246
1493.186000,995.924147,-444.123565,9992.780217
1493.186317,1225.752797,-0.000000,9622.677246
1493.186635,1455.581446,444.123565,9696.697840
1493.186952,1685.410096,592.164754,9474.636058
1493.187269,1608.800546,740.205942,9326.594869
1493.187586,1685.410096,592.164754,9030.512492
1493.187904,1302.362347,296.082377,9252.574275
1493.188221,1072.533697,-0.000000,9844.739029
1493.188538,842.705048,-222.061783,10584.944971
1493.188855,612.876398,-148.041188,11103.089130
1493.189172,536.266849,-296.082377,11177.109724
1493.189490,766.095498,-0.000000,10807.006753
1493.189807,919.314598,592.164754,10288.862594
1493.190124,1915.238745,888.247130,9696.697840
1493.190441,1685.410096,1258.350101,9326.594869
1493.190759,1762.019645,1184.329507,8882.471304
1493.191076,1685.410096,888.247130,9030.512492
1493.191393,1532.190996,592.164754,9030.512492
1493.191710,1608.800546,-0.000000,9326.594869
1493.192027,1072.533697,-222.061783,9770.718434
1493.192345,689.485948,-0.000000,10436.903782
1493.192662,612.876398,-74.020594,10066.800811
1493.192979,766.095498,-0.000000,9918.759623
1493.193296,995.924147,370.102971,9622.677246
1493.193613,536.266849,296.082377,9326.594869
1493.193931,459.657299,296.082377,8882.471304
1493.194248,0.000000,-0.000000,9178.553681
1493.194565,-459.657299,-0.000000,9474.636058
1493.194882,-842.705048,-370.102971,9770.718434
1493.195200,-766.095498,-444.123565,10362.883188
1493.195517,-995.924147,-518.144159,10214.842000
1493.195834,-689.485948,-0.000000,9992.780217
1493.196151,-536.266849,148.041188,9622.677246
1493.196468,383.047749,518.144159,9030.512492
1493.196786,919.314598,666.185348,8586.388927
1493.197103,1225.752797,888.247130,7994.224174
1493.197420,1302.362347,592.164754,8290.306550
1493.197737,1302.362347,-74.020594,8512.368333
1493.198055,1072.533697,-74.020594,8734.430116
1493.198372,1072.533697,-222.061783,9252.574275
1493.198689,612.876398,-148.041188,9474.636058
1493.199006,766.095498,-370.102971,9474.636058
1493.199323,919.314598,-444.123565,9474.636058
1493.199641,919.314598,-0.000000,9474.636058
1493.199958,1302.362347,-74.020594,9178.553681
1493.200275,1149.143247,-74.020594,8734.430116
1493.200592,919.314598,-444.123565,8512.368333
1493.200909,766.095498,-666.185348,9030.512492
1493.201227,229.828649,-444.123565,9474.636058
1493.201544,153.219100,-814.226536,9844.739029
1493.201861,0.000000,-518.144159,10140.821405
1493.202178,76.609550,-444.123565,9992.780217
1493.202496,229.828649,-148.041188,9474.636058
1493.202813,689.485948,-74.020594,9326.594869
1493.203130,1149.143247,-74.020594,8882.471304
1493.203447,1225.752797,-0.000000,8512.368333
1493.203764,1149.143247,-0.000000,8512.368333
1493.204082,1532.190996,296.082377,8364.327145
1493.204399,689.485948,-296.082377,8586.388927
1493.204716,766.095498,-370.102971,9474.636058
1493.205033,842.705048,-518.144159,9770.718434
1493.205351,306.438199,-74.020594,9844.739029
1493.205668,536.266849,-0.000000,9844.739029
1493.205985,459.657299,148.041188,9548.656652
1493.206302,612.876398,-0.000000,9326.594869
1493.206619,842.705048,222.061783,8956.491898
1493.206937,689.485948,-0.000000,9104.533087
1493.207254,383.047749,-74.020594,9474.636058
1493.207571,0.000000,-74.020594,9474.636058
1493.207888,-306.438199,-0.000000,9770.718434
1493.208205,0.000000,-666.185348,9844.739029
1493.208523,-306.438199,-0.000000,10510.924376
1493.208840,-383.047749,222.061783,10214.842000
1493.209157,229.828649,-0.000000,10288.862594
1493.209474,612.876398,-0.000000,9918.759623
1493.209792,919.314598,296.082377,9696.697840
1493.210109,1455.581446,518.144159,9178.553681
1493.210426,1608.800546,518.144159,8956.491898
1493.210743,1762.019645,444.123565,9104.533087
1493.211060,1685.410096,296.082377,9030.512492
1493.211378,1608.800546,-0.000000,9178.553681
1493.211695,1149.143247,-0.000000,9770.718434
1493.212012,1149.143247,-74.020594,9844.739029
1493.212329,1149.143247,-0.000000,9918.759623
1493.212647,1072.533697,-0.000000,9918.759623
1493.212964,919.314598,-0.000000,9622.677246
1493.213281,842.705048,-0.000000,9400.615463
1493.213598,536.266849,-0.000000,9326.594869
1493.213915,229.828649,-0.000000,9696.697840
1493.214233,306.438199,-0.000000,10214.842000
1493.214550,-459.657299,-74.020594,10362.883188
1493.214867,-612.876398,-0.000000,10584.944971
1493.215184,-153.219100,-0.000000,10362.883188
1493.215501,0.000000,444.123565,9918.759623
1493.215819,306.438199,444.123565,9474.636058
1493.216136,842.705048,518.144159,9252.574275
1493.216453,1225.752797,592.164754,8586.388927
1493.216770,1455.581446,518.144159,8290.306550
1493.217088,1685.410096,518.144159,8142.265362
1493.217405,1149.143247,222.061783,8364.327145
1493.217722,1072.533697,-444.123565,8956.491898
1493.218039,689.485948,-0.000000,9178.553681
1493.218356,766.095498,148.041188,9474.636058
1493.218674,383.047749,74.020594,9622.677246
1493.218991,919.314598,296.082377,9474.636058
1493.219308,536.266849,296.082377,9252.574275
1493.219625,536.266849,296.082377,8882.471304
1493.219943,306.438199,222.061783,9030.512492
1493.220260,229.828649,-148.041188,9252.574275
1493.220577,153.219100,-666.185348,9548.656652
1493.220894,0.000000,-518.144159,10140.821405
1493.221211,-459.657299,-518.144159,10288.862594
1493.221529,-306.438199,-296.082377,10732.986159
1493.221846,0.000000,-296.082377,10436.903782
1493.222163,76.609550,444.123565,10214.842000
1493.222480,995.924147,592.164754,9474.636058
1493.222798,1455.581446,740.205942,8660.409521
1493.223115,1685.410096,666.185348,8216.285956
1493.223432,1762.019645,592.164754,8512.368333
1493.223749,2068.457845,296.082377,8660.409521
1493.224066,1915.238745,-0.000000,9104.533087
1493.224384,1532.190996,-370.102971,9474.636058
1493.224701,919.314598,-444.123565,9770.718434
1493.225018,842.705048,-222.061783,9622.677246
1493.225335,1302.362347,-296.082377,9548.656652
1493.225652,842.705048,148.041188,9178.553681
1493.225970,842.705048,444.123565,8882.471304
1493.226287,612.876398,666.185348,8660.409521
1493.226604,689.485948,444.123565,9104.533087
1493.226921,0.000000,-370.102971,9474.636058
1493.227239,0.000000,-0.000000,9992.780217
1493.227556,0.000000,-0.000000,10214.842000
1493.227873,-229.828649,-0.000000,10140.821405
1493.228190,229.828649,370.102971,9918.759623
1493.228507,459.657299,962.267725,9548.656652
1493.228825,919.314598,1110.308913,8956.491898
1493.229142,1225.752797,1184.329507,8290.306550
1493.229459,1685.410096,1184.329507,8068.244768
1493.229776,1762.019645,1110.308913,8586.388927
1493.230094,2298.286494,814.226536,8512.368333
1493.230411,1915.238745,592.164754,8734.430116
1493.230728,1225.752797,222.061783,9474.636058
1493.231045,1149.143247,222.061783,9696.697840
1493.231362,919.314598,444.123565,9770.718434
1493.231680,842.705048,962.267725,9696.697840
1493.231997,842.705048,1258.350101,9622.677246
1493.232314,766.095498,888.247130,9400.615463
1493.232631,612.876398,962.267725,9326.594869
1493.232948,306.438199,444.123565,9474.636058
1493.233266,229.828649,148.041188,9992.780217
1493.233583,153.219100,-0.000000,10066.800811
1493.233900,0.000000,-74.020594,10732.986159
1493.234217,0.000000,-0.000000,10658.965565
1493.234535,306.438199,296.082377,10584.944971
1493.234852,612.876398,814.226536,9992.780217
1493.235169,766.095498,1184.329507,9548.656652
1493.235486,1149.143247,1332.370696,9030.512492
1493.235803,1225.752797,888.247130,8660.409521
1493.236121,1378.971896,888.247130,8808.450710
1493.236438,919.314598,296.082377,9104.533087
1493.236755,842.705048,-148.041188,9104.533087
1493.237072,383.047749,-444.123565,9696.697840
1493.237390,459.657299,-518.144159,10066.800811
1493.237707,0.000000,-518.144159,10066.800811
1493.238024,76.609550,-74.020594,10140.821405
1493.238341,0.000000,296.082377,9918.759623
1493.238658,76.609550,222.061783,9474.636058
1493.238976,383.047749,370.102971,9030.512492
1493.239293,76.609550,296.082377,8956.491898
1493.239610,229.828649,518.144159,9400.615463
1493.239927,153.219100,-0.000000,9252.574275
1493.240244,306.438199,222.061783,9844.739029
1493.240562,229.828649,148.041188,9696.697840
1493.240879,612.876398,370.102971,9696.697840
1493.241196,995.924147,148.041188,9474.636058
1493.241513,1378.971896,592.164754,9104.533087
1493.241831,1685.410096,518.144159,8438.347739
1493.242148,2068.457845,666.185348,8512.368333
1493.242465,1762.019645,592.164754,8586.388927
1493.242782,1838.629195,370.102971,8364.327145
1493.243099,1762.019645,-0.000000,8660.409521
1493.243417,1225.752797,-370.102971,9326.594869
1493.243734,842.705048,-444.123565,9622.677246
1493.244051,842.705048,-74.020594,9770.718434
1493.244368,995.924147,148.041188,9548.656652
1493.244686,1225.752797,222.061783,9326.594869
1493.245003,1455.581446,148.041188,9104.533087
1493.245320,1225.752797,444.123565,8882.471304
1493.245637,689.485948,74.020594,8512.368333
1493.245954,766.095498,-0.000000,9326.594869
1493.246272,1302.362347,-370.102971,9622.677246
1493.246589,0.000000,-222.061783,9770.718434
1493.246906,0.000000,-296.082377,10288.862594
1493.247223,-229.828649,-0.000000,10140.821405
1493.247540,0.000000,222.061783,9770.718434
1493.247858,689.485948,370.102971,9622.677246
1493.248175,612.876398,444.123565,9326.594869
1493.248492,919.314598,962.267725,9030.512492
1493.248809,1072.533697,814.226536,8364.327145
1493.249127,1072.533697,814.226536,8734.430116
1493.249444,1225.752797,444.123565,8808.450710
1493.249761,1225.752797,518.144159,8956.491898
1493.250078,919.314598,296.082377,9326.594869
1493.250395,919.314598,444.123565,9844.739029
1493.250713,919.314598,666.185348,9622.677246
1493.251030,1225.752797,666.185348,9918.759623
1493.251347,1378.971896,1036.288319,9326.594869
1493.251664,1378.971896,962.267725,8956.491898
1493.251982,1225.752797,1036.288319,8956.491898
1493.252299,919.314598,962.267725,9178.553681
1493.252616,766.095498,296.082377,9548.656652
1493.252933,536.266849,444.123565,9992.780217
1493.253250,229.828649,222.061783,10436.903782
1493.253568,383.047749,370.102971,10510.924376
1493.253885,1225.752797,518.144159,10214.842000
1493.254202,1072.533697,666.185348,9992.780217
1493.254519,1455.581446,1036.288319,9474.636058
1493.254836,1838.629195,1184.329507,8956.491898
1493.255154,1838.629195,1110.308913,8734.430116
1493.255471,1991.848295,888.247130,8512.368333
1493.255788,1991.848295,296.082377,8956.491898
1493.256105,1532.190996,518.144159,9474.636058
1493.256423,1149.143247,296.082377,9844.739029
1493.256740,766.095498,222.061783,10362.883188
1493.257057,689.485948,148.041188,10288.862594
1493.257374,536.266849,518.144159,9918.759623
1493.257691,766.095498,592.164754,9622.677246
1493.258009,612.876398,666.185348,9326.594869
1493.258326,536.266849,444.123565,9030.512492
1493.258643,153.219100,222.061783,9474.636058
1493.258960,-153.219100,-222.061783,9474.636058
1493.259278,-612.876398,-222.061783,10066.800811
1493.259595,-842.705048,-518.144159,10214.842000
1493.259912,-995.924147,-370.102971,10510.924376
1493.260229,-995.924147,-0.000000,10362.883188
1493.260546,0.000000,370.102971,9696.697840
1493.260864,153.219100,666.185348,9326.594869
1493.261181,766.095498,740.205942,8734.430116
1493.261498,995.924147,592.164754,8364.327145
1493.261815,1455.581446,222.061783,8290.306550
1493.262132,1378.971896,-0.000000,8364.327145
1493.262450,1225.752797,-148.041188,8808.450710
1493.262767,1072.533697,-296.082377,9104.533087
1493.263084,995.924147,-296.082377,9474.636058
1493.263401,1225.752797,-296.082377,9696.697840
1493.263719,1302.362347,-296.082377,9252.574275
1493.264036,1225.752797,-222.061783,9178.553681
1493.264353,1532.190996,-0.000000,8734.430116
1493.264670,1532.190996,-0.000000,9030.512492
1493.264987,1532.190996,-74.020594,8882.471304
1493.265305,766.095498,-296.082377,9548.656652
1493.265622,459.657299,-444.123565,9696.697840
1493.265939,612.876398,-444.123565,10362.883188
1493.266256,383.047749,-444.123565,10510.924376
1493.266574,919.314598,-148.041188,10066.800811
1493.266891,1302.362347,-0.000000,9844.739029
1493.267208,1608.800546,592.164754,9252.574275
1493.267525,2298.286494,962.267725,8512.368333
1493.267842,2374.896044,740.205942,8068.244768
1493.268160,2451.505594,666.185348,7920.203579
1493.268477,2451.505594,814.226536,8290.306550
1493.268794,2298.286494,-0.000000,8364.327145
1493.269111,1762.019645,-148.041188,9178.553681
1493.269428,919.314598,-518.144159,9622.677246
1493.269746,612.876398,-0.000000,9770.718434
1493.270063,612.876398,-0.000000,9770.718434
1493.270380,612.876398,296.082377,9548.656652
1493.270697,842.705048,444.123565,9178.553681
1493.271015,459.657299,148.041188,8660.409521
1493.271332,0.000000,74.020594,8956.491898
1493.271649,0.000000,-0.000000,9326.594869
1493.271966,-536.266849,-148.041188,9622.677246
1493.272283,-766.095498,-518.144159,9992.780217
1493.272601,-919.314598,-74.020594,10362.883188
1493.272918,-842.705048,-148.041188,10214.842000
1493.273235,-229.828649,-0.000000,9992.780217
1493.273552,76.609550,222.061783,9696.697840
1493.273870,612.876398,518.144159,9326.594869
1493.274187,919.314598,518.144159,8808.450710
1493.274504,1149.143247,888.247130,8438.347739
1493.274821,919.314598,518.144159,8956.491898
1493.275138,1072.533697,222.061783,9030.512492
1493.275456,689.485948,-0.000000,9474.636058
1493.275773,766.095498,-0.000000,9844.739029
1493.276090,689.485948,-148.041188,10288.862594
1493.276407,766.095498,-74.020594,10066.800811
1493.276725,536.266849,148.041188,9992.780217
1493.277042,1072.533697,148.041188,9622.677246
1493.277359,1072.533697,296.082377,9400.615463
1493.277677,459.657299,222.061783,9178.553681
1493.277994,306.438199,296.082377,9474.636058
1493.278311,76.609550,-0.000000,9918.759623
1493.278629,0.000000,-222.061783,10510.924376
1493.278946,-536.266849,-74.020594,10732.986159
1493.279263,-383.047749,-0.000000,10732.986159
1493.279581,76.609550,296.082377,10362.883188
1493.279898,689.485948,296.082377,9770.718434
1493.280215,919.314598,444.123565,9326.594869
1493.280533,1455.581446,740.205942,9030.512492
1493.280850,2068.457845,740.205942,8216.285956
1493.281167,1915.238745,518.144159,8512.368333
1493.281485,1762.019645,296.082377,8956.491898
1493.281802,1762.019645,-74.020594,9030.512492
1493.282119,1608.800546,-0.000000,9474.636058
1493.282437,1608.800546,222.061783,9622.677246
1493.282754,1608.800546,222.061783,9326.594869
1493.283071,1762.019645,370.102971,8956.491898
1493.283389,1455.581446,370.102971,8808.450710
1493.283706,1225.752797,296.082377,8808.450710
1493.284023,1072.533697,-0.000000,8512.368333
1493.284341,536.266849,-518.144159,8808.450710
1493.284658,229.828649,-592.164754,9474.636058
1493.284975,-153.219100,-740.205942,9918.759623
1493.285293,-689.485948,-962.267725,10140.821405
1493.285610,-612.876398,-740.205942,10436.903782
1493.285927,-459.657299,-370.102971,10214.842000
1493.286245,-153.219100,-74.020594,9992.780217
1493.286562,612.876398,148.041188,9474.636058
1493.286879,842.705048,148.041188,8882.471304
1493.287197,1455.581446,370.102971,8660.409521
1493.287514,1608.800546,-148.041188,8512.368333
1493.287831,1378.971896,-0.000000,8512.368333
1493.288149,1455.581446,-74.020594,8364.327145
1493.288466,1302.362347,-370.102971,8956.491898
1493.288783,689.485948,-370.102971,9326.594869
1493.289100,612.876398,-518.144159,9400.615463
1493.289418,536.266849,-296.082377,9548.656652
1493.289735,612.876398,-222.061783,9400.615463
1493.290052,612.876398,-222.061783,9104.533087
1493.290370,0.000000,-444.123565,9252.574275
1493.290687,229.828649,-296.082377,9400.615463
1493.291004,76.609550,-222.061783,9474.636058
1493.291322,-536.266849,-296.082377,9918.759623
1493.291639,-459.657299,-444.123565,10288.862594
1493.291956,-153.219100,-222.061783,10140.821405
1493.292274,-153.219100,222.061783,10288.862594
1493.292591,0.000000,296.082377,9844.739029
1493.292908,229.828649,592.164754,9474.636058
1493.293226,766.095498,888.247130,8956.491898
1493.293543,1532.190996,962.267725,8660.409521
1493.293860,1378.971896,888.247130,8586.388927
1493.294178,1762.019645,592.164754,8290.306550
1493.294495,1302.362347,296.082377,8660.409521
1493.294812,1149.143247,-0.000000,9326.594869
1493.295130,1225.752797,-0.000000,9918.759623
1493.295447,995.924147,296.082377,9770.718434
1493.295764,919.314598,518.144159,9696.697840
1493.296082,1072.533697,518.144159,9770.718434
1493.296399,766.095498,592.164754,9622.677246
1493.296716,842.705048,-0.000000,9326.594869
1493.297034,766.095498,222.061783,9400.615463
1493.297351,766.095498,370.102971,9474.636058
1493.297668,306.438199,-0.000000,10066.800811
1493.297986,383.047749,-148.041188,10436.903782
1493.298303,0.000000,-222.061783,10658.965565
1493.298620,0.000000,-0.000000,10658.965565
1493.298938,459.657299,222.061783,10362.883188
1493.299255,766.095498,666.185348,9844.739029
1493.299572,1072.533697,962.267725,9548.656652
1493.299890,1455.581446,962.267725,9030.512492
1493.300207,1532.190996,1184.329507,8734.430116
1493.300524,1685.410096,1036.288319,8586.388927
1493.300842,1302.362347,518.144159,8586.388927
1493.301159,1149.143247,-0.000000,9326.594869
1493.301476,842.705048,-74.020594,9622.677246
1493.301794,689.485948,-222.061783,9844.739029
1493.302111,536.266849,-0.000000,10066.800811
1493.302428,612.876398,-0.000000,9844.739029
1493.302745,536.266849,592.164754,9622.677246
1493.303063,919.314598,444.123565,9400.615463
1493.303380,995.924147,814.226536,8956.491898
1493.303697,536.266849,518.144159,8956.491898
1493.304015,383.047749,296.082377,9252.574275
1493.304332,383.047749,-0.000000,9696.697840
1493.304649,0.000000,-0.000000,9918.759623
1493.304967,0.000000,148.041188,9918.759623
1493.305284,153.219100,296.082377,9696.697840
1493.305601,383.047749,592.164754,9622.677246
1493.305919,1072.533697,962.267725,9104.533087
1493.306236,842.705048,666.185348,8660.409521
1493.306553,1072.533697,888.247130,8512.368333
1493.306871,1378.971896,518.144159,8216.285956
1493.307188,1149.143247,370.102971,8586.388927
1493.307505,919.314598,-0.000000,9178.553681
1493.307823,766.095498,-0.000000,9622.677246
1493.308140,459.657299,-0.000000,9918.759623
1493.308457,306.438199,296.082377,9548.656652
1493.308775,536.266849,444.123565,10066.800811
1493.309092,995.924147,666.185348,9548.656652
1493.309409,689.485948,814.226536,9326.594869
1493.309727,1149.143247,370.102971,8734.430116
1493.310044,842.705048,222.061783,8808.450710
1493.310361,76.609550,-0.000000,9400.615463
1493.310679,153.219100,-74.020594,9696.697840
1493.310996,-153.219100,-148.041188,9992.780217
1493.311313,-459.657299,-222.061783,10658.965565
1493.311631,-536.266849,-148.041188,10510.924376
1493.311948,306.438199,-0.000000,10362.883188
1493.312265,153.219100,222.061783,9992.780217
1493.312583,995.924147,740.205942,9474.636058
1493.312900,1532.190996,814.226536,8882.471304
1493.313217,1608.800546,1036.288319,8734.430116
1493.313535,1762.019645,592.164754,8512.368333
1493.313852,2298.286494,370.102971,8808.450710
1493.314169,1915.238745,296.082377,9252.574275
1493.314487,1608.800546,148.041188,9474.636058
1493.314804,2145.067394,-0.000000,9548.656652
1493.315121,1915.238745,148.041188,9474.636058
1493.315439,1685.410096,222.061783,9326.594869
1493.315756,1532.190996,592.164754,9030.512492
1493.316073,1838.629195,814.226536,8660.409521
1493.316390,1532.190996,444.123565,8734.430116
1493.316708,689.485948,444.123565,9178.553681
1493.317025,229.828649,148.041188,9918.759623
1493.317342,-383.047749,-0.000000,10436.903782
1493.317660,-383.047749,-444.123565,10732.986159
1493.317977,-383.047749,-0.000000,10584.944971
1493.318294,-153.219100,444.123565,10214.842000
1493.318612,306.438199,888.247130,9918.759623
1493.318929,1072.533697,962.267725,9030.512492
1493.319246,1608.800546,888.247130,8068.244768
1493.319564,1455.581446,1110.308913,8438.347739
1493.319881,1608.800546,962.267725,8586.388927
1493.320198,1685.410096,444.123565,8512.368333
1493.320516,1149.143247,148.041188,9178.553681
1493.320833,995.924147,370.102971,9474.636058
1493.321150,229.828649,148.041188,9548.656652
1493.321468,306.438199,444.123565,9474.636058
1493.321785,76.609550,444.123565,9474.636058
1493.322102,536.266849,296.082377,9030.512492
1493.322420,459.657299,-0.000000,8512.368333
1493.322737,-306.438199,-296.082377,9474.636058
1493.323054,-459.657299,-222.061783,9474.636058
1493.323372,-995.924147,-666.185348,9992.780217
1493.323689,-1608.800546,-518.144159,10510.924376
1493.324006,-1302.362347,-444.123565,10807.006753
1493.324324,-995.924147,-74.020594,10658.965565
1493.324641,-536.266849,-74.020594,10510.924376
1493.324958,229.828649,444.123565,9918.759623
1493.325276,1149.143247,814.226536,9252.574275
1493.325593,1455.581446,962.267725,8586.388927
1493.325910,2221.676944,1184.329507,8290.306550
1493.326228,2451.505594,1258.350101,7920.203579
1493.326545,2451.505594,740.205942,8216.285956
1493.326862,2451.505594,-74.020594,8660.409521
1493.327180,2221.676944,-0.000000,9252.574275
1493.327497,1915.238745,-0.000000,9622.677246
1493.327814,1608.800546,-74.020594,9844.739029
1493.328132,1302.362347,-74.020594,9844.739029
1493.328449,1149.143247,-0.000000,9696.697840
1493.328766,1762.019645,222.061783,8882.471304
1493.329084,1302.362347,444.123565,9400.615463
1493.329401,1149.143247,592.164754,9326.594869
1493.329718,995.924147,518.144159,9548.656652
1493.330035,612.876398,370.102971,10066.800811
1493.330353,842.705048,444.123565,10214.842000
1493.330670,842.705048,518.144159,10214.842000
1493.330987,1149.143247,666.185348,9844.739029
1493.331305,1762.019645,814.226536,9400.615463
1493.331622,2145.067394,962.267725,8882.471304
1493.331939,2451.505594,1332.370696,8438.347739
1493.332257,2451.505594,740.205942,7698.141797
1493.332574,2451.505594,888.247130,7920.203579
1493.332891,2298.286494,296.082377,8216.285956
1493.333209,1608.800546,-74.020594,9030.512492
1493.333526,1302.362347,-74.020594,9474.636058
1493.333843,536.266849,-148.041188,9622.677246
1493.334161,229.828649,-0.000000,9844.739029
1493.334478,459.657299,-0.000000,9770.718434
1493.334795,76.609550,740.205942,9548.656652
1493.335113,306.438199,666.185348,9178.553681
1493.335430,76.609550,666.185348,8956.491898
1493.335747,0.000000,444.123565,9178.553681
1493.336065,0.000000,148.041188,9548.656652
1493.336382,-306.438199,-0.000000,9918.759623
1493.336699,-689.485948,222.061783,10140.821405
1493.337017,-766.095498,148.041188,10288.862594
1493.337334,-842.705048,518.144159,10066.800811
1493.337651,-536.266849,888.247130,9844.739029
1493.337969,-229.828649,1110.308913,9400.615463
1493.338286,153.219100,1036.288319,8956.491898
1493.338603,0.000000,1036.288319,8734.430116
1493.338921,383.047749,592.164754,8586.388927
1493.339238,612.876398,-0.000000,9252.574275
1493.339555,0.000000,-370.102971,9326.594869
1493.339873,-536.266849,-444.123565,9918.759623
1493.340190,-229.828649,-592.164754,10140.821405
1493.340507,-536.266849,-222.061783,10140.821405
1493.340825,0.000000,-74.020594,10288.862594
1493.341142,383.047749,296.082377,10214.842000
1493.341459,536.266849,592.164754,9696.697840
1493.341777,842.705048,592.164754,9252.574275
1493.342094,995.924147,370.102971,9326.594869
1493.342411,842.705048,370.102971,9622.677246
1493.342729,612.876398,-0.000000,9770.718434
1493.343046,842.705048,-0.000000,10362.883188
1493.343363,612.876398,-74.020594,10362.883188
1493.343680,612.876398,-0.000000,10436.903782
1493.343998,1149.143247,-74.020594,10214.842000
1493.344315,1762.019645,-0.000000,9918.759623
1493.344632,1915.238745,74.020594,9252.574275
1493.344950,2374.896044,-0.000000,8956.491898
1493.345267,2221.676944,-0.000000,9030.512492
1493.345584,2604.724693,-0.000000,8734.430116
1493.345902,2604.724693,-444.123565,9030.512492
1493.346219,2451.505594,-370.102971,9548.656652
1493.346536,2451.505594,-370.102971,9844.739029
1493.346854,2451.505594,-592.164754,9622.677246
1493.347171,2298.286494,-0.000000,9474.636058
1493.347488,2374.896044,222.061783,9474.636058
1493.347806,2451.505594,148.041188,8956.491898
1493.348123,2451.505594,222.061783,8438.347739
1493.348440,1838.629195,-148.041188,8660.409521
1493.348758,1532.190996,-370.102971,8808.450710
1493.349075,842.705048,-370.102971,9030.512492
1493.349392,459.657299,-666.185348,9326.594869
1493.349710,-306.438199,-888.247130,9696.697840
1493.350027,-766.095498,-666.185348,9622.677246
1493.350344,-536.266849,-592.164754,9844.739029
1493.350662,-306.438199,-370.102971,9474.636058
1493.350979,-153.219100,-74.020594,9178.553681
1493.351296,76.609550,444.123565,8734.430116
1493.351614,153.219100,370.102971,7994.224174
1493.351931,612.876398,444.123565,7994.224174
1493.352248,306.438199,518.144159,7994.224174
1493.352566,153.219100,-74.020594,8068.244768
1493.352883,0.000000,-0.000000,8808.450710
1493.353200,0.000000,-74.020594,9104.533087
1493.353518,-306.438199,-222.061783,9400.615463
1493.353835,0.000000,-370.102971,9548.656652
1493.354152,-842.705048,-370.102971,9326.594869
1493.354470,-459.657299,296.082377,9030.512492
1493.354787,-459.657299,222.061783,8956.491898
1493.355104,-842.705048,-0.000000,9326.594869
1493.355422,-1072.533697,74.020594,9474.636058
1493.355739,-995.924147,-148.041188,9770.718434
1493.356056,-995.924147,-0.000000,10362.883188
1493.356374,-612.876398,-0.000000,10510.924376
1493.356691,0.000000,296.082377,10140.821405
1493.357008,76.609550,888.247130,10066.800811
1493.357325,919.314598,888.247130,9622.677246
1493.357643,1532.190996,1332.370696,8882.471304
1493.357960,2221.676944,1480.411884,8364.327145
1493.358277,2298.286494,1258.350101,8438.347739
1493.358595,2298.286494,1406.391290,8586.388927
1493.358912,1838.629195,666.185348,8956.491898
1493.359229,1762.019645,370.102971,9474.636058
1493.359547,1225.752797,296.082377,9918.759623
1493.359864,1149.143247,222.061783,10288.862594
1493.360181,919.314598,296.082377,10658.965565
1493.360499,1149.143247,370.102971,10362.883188
1493.360816,842.705048,740.205942,10066.800811
1493.361133,842.705048,814.226536,9622.677246
1493.361451,612.876398,592.164754,9844.739029
1493.361768,383.047749,222.061783,9992.780217
1493.362085,229.828649,-0.000000,10362.883188
1493.362403,76.609550,-0.000000,10807.006753
1493.362720,229.828649,-0.000000,10881.027347
1493.363037,459.657299,-0.000000,10510.924376
1493.363355,689.485948,370.102971,10658.965565
1493.363672,1302.362347,666.185348,10362.883188
1493.363989,1838.629195,1110.308913,9178.553681
1493.364307,2374.896044,1036.288319,8660.409521
1493.364624,2374.896044,1036.288319,8438.347739
1493.364941,2451.505594,592.164754,8290.306550
1493.365259,1991.848295,222.061783,8216.285956
1493.365576,1455.581446,-370.102971,8734.430116
1493.365893,1072.533697,-592.164754,9326.594869
1493.366211,536.266849,-740.205942,9770.718434
1493.366528,536.266849,-1406.391290,9992.780217
1493.366845,383.047749,-1258.350101,10140.821405
1493.367163,383.047749,-518.144159,9770.718434
1493.367480,689.485948,-370.102971,9252.574275
1493.367797,306.438199,-0.000000,9104.533087
1493.368115,76.609550,-0.000000,9178.553681
1493.368432,229.828649,222.061783,9030.512492
1493.368749,76.609550,296.082377,9400.615463
1493.369067,0.000000,-0.000000,9474.636058
1493.369384,0.000000,-0.000000,9622.677246
1493.369701,153.219100,-0.000000,9474.636058
1493.370019,612.876398,-0.000000,9326.594869
1493.370336,1225.752797,296.082377,8586.388927
1493.370653,1225.752797,444.123565,8364.327145
1493.370970,1302.362347,222.061783,7846.182985
1493.371288,1455.581446,-296.082377,7846.182985
1493.371605,1302.362347,-148.041188,8068.244768
1493.371922,766.095498,-444.123565,8660.409521
1493.372240,536.266849,-518.144159,9326.594869
1493.372557,-459.657299,-518.144159,9474.636058
1493.372874,536.266849,-0.000000,9696.697840
1493.373192,0.000000,148.041188,9696.697840
1493.373509,536.266849,296.082377,9178.553681
1493.373826,306.438199,444.123565,8734.430116
1493.374144,459.657299,-0.000000,8660.409521
1493.374461,459.657299,-148.041188,8956.491898
1493.374778,0.000000,-444.123565,9104.533087
1493.375096,0.000000,-518.144159,9474.636058
1493.375413,-383.047749,-740.205942,10214.842000
1493.375730,-689.485948,-592.164754,10436.903782
1493.376048,-612.876398,-148.041188,10510.924376
1493.376365,-153.219100,-0.000000,10214.842000
1493.376682,306.438199,592.164754,9918.759623
1493.377000,459.657299,814.226536,9400.615463
1493.377317,1072.533697,1258.350101,9178.553681
1493.377634,1302.362347,888.247130,8882.471304
1493.377952,2068.457845,592.164754,8808.450710
1493.378269,1838.629195,518.144159,8956.491898
1493.378586,1685.410096,370.102971,9474.636058
1493.378903,1991.848295,-74.020594,9918.759623
1493.379221,1762.019645,222.061783,9696.697840
1493.379538,1991.848295,518.144159,10066.800811
1493.379855,1685.410096,814.226536,9696.697840
1493.380173,1838.629195,740.205942,9326.594869
1493.380490,1608.800546,740.205942,8882.471304
1493.380807,1378.971896,888.247130,8956.491898
1493.381124,842.705048,592.164754,9474.636058
1493.381442,306.438199,-0.000000,9992.780217
1493.381759,459.657299,-0.000000,10658.965565
1493.382076,76.609550,-74.020594,10436.903782
1493.382394,0.000000,370.102971,10807.006753
1493.382711,306.438199,444.123565,10140.821405
1493.383028,612.876398,814.226536,9770.718434
1493.383346,1532.190996,888.247130,9030.512492
1493.383663,1532.190996,1258.350101,8660.409521
1493.383980,1838.629195,962.267725,8290.306550
1493.384297,1991.848295,962.267725,8216.285956
1493.384615,1838.629195,740.205942,8512.368333
1493.384932,1455.581446,370.102971,9326.594869
1493.385249,1149.143247,370.102971,9548.656652
1493.385567,1072.533697,666.185348,9548.656652
1493.385884,229.828649,518.144159,9622.677246
1493.386201,229.828649,740.205942,9474.636058
1493.386518,76.609550,740.205942,9104.533087
1493.386836,0.000000,444.123565,9178.553681
1493.387153,-306.438199,-0.000000,9104.533087
1493.387470,-536.266849,-148.041188,9474.636058
1493.387788,-766.095498,-592.164754,9844.739029
1493.388105,-995.924147,-518.144159,10510.924376
1493.388422,-1072.533697,-666.185348,10584.944971
1493.388739,-1072.533697,-222.061783,10732.986159
1493.389057,-229.828649,-0.000000,10288.862594
1493.389374,76.609550,666.185348,9696.697840
1493.389691,919.314598,1184.329507,9104.533087
1493.390009,1762.019645,1406.391290,8586.388927
1493.390326,1915.238745,1258.350101,8216.285956
1493.390643,2145.067394,1036.288319,8142.265362
1493.390961,2451.505594,444.123565,8216.285956
1493.391278,2298.286494,222.061783,8290.306550
1493.391595,1685.410096,-222.061783,8660.409521
1493.391912,1532.190996,-370.102971,9326.594869
1493.392230,919.314598,-814.226536,9770.718434
1493.392547,995.924147,-296.082377,9548.656652
1493.392864,1149.143247,-222.061783,9474.636058
1493.393182,689.485948,-148.041188,8956.491898
1493.393499,459.657299,-0.000000,8808.450710
1493.393816,229.828649,-0.000000,9326.594869
1493.394133,0.000000,-0.000000,9548.656652
1493.394451,0.000000,-74.020594,9770.718434
1493.394768,-383.047749,370.102971,10140.821405
1493.395085,0.000000,-0.000000,10140.821405
1493.395403,536.266849,370.102971,10214.842000
1493.395720,995.924147,444.123565,9622.677246
1493.396037,1455.581446,962.267725,8660.409521
1493.396354,1838.629195,1184.329507,8364.327145
1493.396672,2298.286494,740.205942,7846.182985
1493.396989,2068.457845,1110.308913,7920.203579
1493.397306,1991.848295,592.164754,8216.285956
1493.397624,1838.629195,-0.000000,8882.471304
1493.397941,1225.752797,-74.020594,9400.615463
1493.398258,1225.752797,-370.102971,9992.780217
1493.398575,612.876398,-444.123565,10288.862594
1493.398893,842.705048,-148.041188,9918.759623
1493.399210,689.485948,296.082377,9622.677246
1493.399527,536.266849,296.082377,9474.636058
1493.399845,612.876398,-74.020594,9770.718434
1493.400162,306.438199,-0.000000,9474.636058
1493.400479,306.438199,-148.041188,9844.739029
1493.400797,0.000000,-222.061783,10288.862594
1493.401114,-306.438199,-0.000000,10658.965565
1493.401431,0.000000,-0.000000,10732.986159
1493.401748,76.609550,148.041188,10584.944971
1493.402066,612.876398,814.226536,10214.842000
1493.402383,919.314598,814.226536,9474.636058
1493.402700,1532.190996,1110.308913,8956.491898
1493.403018,1915.238745,888.247130,8512.368333
1493.403335,1762.019645,962.267725,8512.368333
1493.403652,1685.410096,518.144159,8512.368333
1493.403969,1149.143247,-74.020594,8882.471304
1493.404287,1072.533697,-0.000000,9548.656652
1493.404604,842.705048,-74.020594,10288.862594
1493.404921,612.876398,-0.000000,10510.924376
1493.405239,689.485948,-74.020594,10510.924376
1493.405556,919.314598,370.102971,9770.718434
1493.405873,919.314598,592.164754,9326.594869
1493.406190,1072.533697,666.185348,8660.409521
1493.406508,995.924147,666.185348,8956.491898
1493.406825,612.876398,888.247130,9030.512492
1493.407142,383.047749,518.144159,9622.677246
1493.407460,229.828649,888.247130,10214.842000
1493.407777,-229.828649,222.061783,10510.924376
1493.408094,0.000000,148.041188,9918.759623
1493.408411,229.828649,592.164754,9844.739029
1493.408729,536.266849,666.185348,9326.594869
1493.409046,612.876398,962.267725,8660.409521
1493.409363,1149.143247,666.185348,8068.244768
1493.409681,919.314598,666.185348,8216.285956
1493.409998,919.314598,148.041188,8290.306550
1493.410315,995.924147,-0.000000,8734.430116
1493.410633,536.266849,-370.102971,9400.615463
1493.410950,383.047749,-444.123565,9918.759623
1493.411267,459.657299,-0.000000,9844.739029
1493.411584,689.485948,370.102971,9696.697840
1493.411902,689.485948,814.226536,9326.594869
1493.412219,1072.533697,518.144159,8956.491898
1493.412536,1225.752797,814.226536,8512.368333
1493.412854,919.314598,370.102971,8512.368333
1493.413171,766.095498,-0.000000,8882.471304
1493.413488,229.828649,-0.000000,9474.636058
1493.413805,0.000000,-518.144159,10066.800811
1493.414123,-383.047749,-444.123565,10510.924376
1493.414440,0.000000,-222.061783,10658.965565
1493.414757,306.438199,-0.000000,10362.883188
1493.415075,153.219100,370.102971,9844.739029
1493.415392,1149.143247,666.185348,8956.491898
1493.415709,1838.629195,814.226536,8586.388927
1493.416026,1915.238745,740.205942,8438.347739
1493.416344,2221.676944,666.185348,8364.327145
1493.416661,2068.457845,296.082377,8956.491898
1493.416978,1991.848295,-0.000000,9474.636058
1493.417296,1302.362347,-148.041188,9548.656652
1493.417613,1378.971896,-222.061783,9918.759623
1493.417930,1302.362347,-74.020594,10066.800811
1493.418247,1225.752797,-0.000000,10288.862594
1493.418565,1455.581446,-0.000000,9474.636058
1493.418882,1378.971896,222.061783,9178.553681
1493.419199,995.924147,222.061783,9178.553681
1493.419517,919.314598,-74.020594,9326.594869
1493.419834,76.609550,-296.082377,9992.780217
1493.420151,76.609550,-148.041188,10140.821405
1493.420469,-459.657299,-222.061783,10658.965565
1493.420786,-306.438199,-0.000000,10584.944971
1493.421103,76.609550,-0.000000,10214.842000
1493.421420,536.266849,518.144159,9622.677246
1493.421738,1072.533697,888.247130,8882.471304
1493.422055,1302.362347,814.226536,8438.347739
1493.422372,1762.019645,814.226536,8216.285956
1493.422690,1608.800546,370.102971,8586.388927
1493.423007,1378.971896,148.041188,8660.409521
1493.423324,1378.971896,222.061783,9104.533087
1493.423641,995.924147,74.020594,9622.677246
1493.423959,689.485948,-0.000000,10066.800811
1493.424276,306.438199,592.164754,9918.759623
1493.424593,229.828649,814.226536,9622.677246
1493.424911,459.657299,666.185348,9474.636058
1493.425228,459.657299,518.144159,9030.512492
1493.425545,76.609550,-0.000000,9104.533087
1493.425862,0.000000,-74.020594,9400.615463
1493.426180,-612.876398,-444.123565,9548.656652
1493.426497,-766.095498,-370.102971,10140.821405
1493.426814,-1072.533697,-444.123565,10658.965565
1493.427132,-1302.362347,-148.041188,10881.027347
1493.427449,-536.266849,-74.020594,10510.924376
1493.427766,0.000000,296.082377,10140.821405
1493.428084,689.485948,666.185348,9474.636058
1493.428401,1149.143247,962.267725,8808.450710
1493.428718,1685.410096,1036.288319,8512.368333
1493.429035,1991.848295,814.226536,8290.306550
1493.429353,2145.067394,740.205942,8364.327145
1493.429670,2145.067394,148.041188,8808.450710
1493.429987,1915.238745,-74.020594,9548.656652
1493.430305,1838.629195,-0.000000,9622.677246
1493.430622,1378.971896,-74.020594,9770.718434
1493.430939,1378.971896,-148.041188,9548.656652
1493.431256,1378.971896,-0.000000,9474.636058
1493.431574,1762.019645,-74.020594,9030.512492
1493.431891,1225.752797,296.082377,8808.450710
1493.432208,766.095498,-0.000000,8956.491898
1493.432526,229.828649,-0.000000,9326.594869
1493.432843,0.000000,-0.000000,9696.697840
1493.433160,0.000000,-370.102971,10214.842000
1493.433477,-306.438199,-0.000000,10288.862594
1493.433795,-383.047749,-0.000000,9992.780217
1493.434112,153.219100,370.102971,9844.739029
1493.434429,612.876398,740.205942,9252.574275
1493.434747,1225.752797,592.164754,8882.471304
1493.435064,1608.800546,888.247130,8290.306550
1493.435381,1532.190996,740.205942,8068.244768
1493.435698,1685.410096,518.144159,8216.285956
1493.436016,1455.581446,222.061783,8364.327145
1493.436333,1302.362347,-0.000000,9104.533087
1493.436650,766.095498,-0.000000,9474.636058
1493.436968,383.047749,148.041188,9622.677246
1493.437285,383.047749,222.061783,9918.759623
1493.437602,229.828649,222.061783,9622.677246
1493.437920,229.828649,-74.020594,9326.594869
1493.438237,306.438199,-0.000000,9252.574275
1493.438554,229.828649,-0.000000,9400.615463
1493.438871,0.000000,-148.041188,9474.636058
1493.439189,-229.828649,-444.123565,10140.821405
1493.439506,-1225.752797,-740.205942,10214.842000
1493.439823,-383.047749,-74.020594,10510.924376
1493.440141,-383.047749,-148.041188,10288.862594
1493.440458,-229.828649,-0.000000,10510.924376
1493.440775,76.609550,222.061783,9918.759623
1493.441092,612.876398,592.164754,9326.594869
1493.441410,1225.752797,814.226536,9104.533087
1493.441727,1685.410096,814.226536,9030.512492
1493.442044,1762.019645,666.185348,8734.430116
1493.442362,1608.800546,370.102971,8734.430116
1493.442679,1608.800546,74.020594,9030.512492
1493.442996,1532.190996,-0.000000,9474.636058
1493.443313,1685.410096,-74.020594,9622.677246
1493.443631,1302.362347,-74.020594,9918.759623
1493.443948,1685.410096,-148.041188,9770.718434
1493.444265,1302.362347,148.041188,9400.615463
1493.444583,1302.362347,148.041188,9104.533087
1493.444900,1149.143247,222.061783,9030.512492
1493.445217,1072.533697,370.102971,9104.533087
1493.445534,995.924147,148.041188,9548.656652
1493.445852,383.047749,-74.020594,9918.759623
1493.446169,383.047749,222.061783,9918.759623
1493.446486,0.000000,148.041188,10214.842000
1493.446804,229.828649,148.041188,10214.842000
1493.447121,383.047749,148.041188,9844.739029
1493.447438,1225.752797,518.144159,9030.512492
1493.447756,1455.581446,740.205942,8808.450710
1493.448073,1762.019645,592.164754,8586.388927
1493.448390,2145.067394,-0.000000,8290.306550
1493.448707,1838.629195,296.082377,8512.368333
1493.449025,1608.800546,-0.000000,8956.491898
1493.449342,1532.190996,-0.000000,9326.594869
1493.449659,1149.143247,-0.000000,9548.656652
1493.449977,1072.533697,-296.082377,9918.759623
1493.450294,689.485948,-0.000000,9770.718434
1493.450611,689.485948,444.123565,9548.656652
1493.450928,383.047749,148.041188,9474.636058
1493.451246,229.828649,222.061783,9252.574275
1493.451563,153.219100,-0.000000,9252.574275
1493.451880,-153.219100,-148.041188,9696.697840
1493.452198,-306.438199,-222.061783,10214.842000
1493.452515,-536.266849,-222.061783,10510.924376
1493.452832,-842.705048,-74.020594,10584.944971
1493.453149,-612.876398,-0.000000,10436.903782
1493.453467,-306.438199,444.123565,9770.718434
1493.453784,76.609550,814.226536,9400.615463
1493.454101,459.657299,888.247130,8512.368333
1493.454419,995.924147,962.267725,8068.244768
1493.454736,1072.533697,814.226536,7920.203579
1493.455053,459.657299,148.041188,8290.306550
1493.455370,536.266849,-0.000000,8956.491898
1493.455688,459.657299,-148.041188,9400.615463
1493.456005,153.219100,-0.000000,9622.677246
1493.456322,229.828649,-0.000000,9696.697840
1493.456640,229.828649,-0.000000,9548.656652
1493.456957,383.047749,518.144159,9474.636058
1493.457274,459.657299,370.102971,9178.553681
1493.457592,842.705048,518.144159,8808.450710
1493.457909,842.705048,444.123565,8808.450710
1493.458226,536.266849,814.226536,8882.471304
1493.458543,383.047749,296.082377,9400.615463
1493.458861,229.828649,-0.000000,9770.718434
1493.459178,689.485948,444.123565,9918.759623
1493.459495,612.876398,296.082377,9918.759623
1493.459813,766.095498,370.102971,9844.739029
1493.460130,1532.190996,740.205942,9400.615463
1493.460447,1838.629195,740.205942,8660.409521
1493.460764,2068.457845,814.226536,8512.368333
1493.461082,2145.067394,444.123565,8512.368333
1493.461399,2068.457845,222.061783,8660.409521
1493.461716,1762.019645,-0.000000,8956.491898
1493.462034,2145.067394,-74.020594,9844.739029
1493.462351,1225.752797,-148.041188,10288.862594
1493.462668,919.314598,148.041188,10288.862594
1493.462985,919.314598,-0.000000,10140.821405
1493.463303,842.705048,370.102971,10214.842000
1493.463620,1072.533697,518.144159,9474.636058
1493.463937,612.876398,296.082377,9326.594869
1493.464255,536.266849,-0.000000,9474.636058
1493.464572,459.657299,-0.000000,9696.697840
1493.464889,-229.828649,-296.082377,9770.718434
1493.465206,-306.438199,-222.061783,10436.903782
1493.465524,-689.485948,-222.061783,10584.944971
1493.465841,-766.095498,148.041188,10510.924376
1493.466158,-306.438199,518.144159,10436.903782
1493.466476,153.219100,518.144159,10140.821405
1493.466793,536.266849,740.205942,9400.615463
1493.467110,1149.143247,888.247130,8586.388927
1493.467428,1225.752797,962.267725,8290.306550
1493.467745,1378.971896,962.267725,8364.327145
1493.468062,1685.410096,-0.000000,8364.327145
1493.468379,995.924147,148.041188,9030.512492
1493.468697,1225.752797,-0.000000,9178.553681
1493.469014,766.095498,-0.000000,9622.677246
1493.469331,612.876398,-0.000000,9548.656652
1493.469649,919.314598,370.102971,9622.677246
1493.469966,919.314598,296.082377,9104.533087
1493.470283,612.876398,444.123565,8660.409521
1493.470600,383.047749,592.164754,8808.450710
1493.470918,153.219100,222.061783,9030.512492
1493.471235,-153.219100,148.041188,9252.574275
1493.471552,-229.828649,-74.020594,9696.697840
1493.471870,-459.657299,-148.041188,10436.903782
1493.472187,-153.219100,-74.020594,10214.842000
1493.472504,76.609550,-0.000000,9918.759623
1493.472821,612.876398,296.082377,9548.656652
1493.473139,1225.752797,666.185348,8808.450710
1493.473456,1685.410096,888.247130,8068.244768
1493.473773,1991.848295,666.185348,8216.285956
1493.474091,2451.505594,370.102971,8216.285956
1493.474408,2604.724693,-0.000000,8364.327145
1493.474725,1838.629195,-0.000000,8734.430116
1493.475043,1455.581446,-0.000000,9548.656652
1493.475360,1302.362347,-74.020594,9770.718434
1493.475677,1455.581446,-0.000000,9992.780217
1493.475994,1302.362347,-0.000000,9770.718434
1493.476312,1455.581446,-0.000000,9548.656652
1493.476629,1149.143247,296.082377,8956.491898
1493.476946,995.924147,296.082377,9030.512492
1493.477264,842.705048,148.041188,9326.594869
1493.477581,459.657299,-148.041188,9622.677246
1493.477898,153.219100,-148.041188,10140.821405
1493.478215,76.609550,-0.000000,10510.924376
1493.478533,76.609550,-0.000000,10584.944971
1493.478850,0.000000,518.144159,10732.986159
1493.479167,306.438199,518.144159,9844.739029
1493.479485,842.705048,740.205942,9326.594869
1493.479802,1149.143247,814.226536,8882.471304
1493.480119,1302.362347,888.247130,8660.409521
1493.480437,995.924147,814.226536,8956.491898
1493.480754,766.095498,444.123565,9104.533087
1493.481071,995.924147,-0.000000,9474.636058
1493.481389,153.219100,-296.082377,9844.739029
1493.481706,229.828649,-74.020594,10140.821405
1493.482023,0.000000,-74.020594,10510.924376
1493.482341,612.876398,-0.000000,9992.780217
1493.482658,612.876398,148.041188,9696.697840
1493.482975,383.047749,370.102971,9178.553681
1493.483293,1225.752797,444.123565,9104.533087
1493.483610,76.609550,222.061783,9104.533087
1493.483928,76.609550,222.061783,9474.636058
1493.484245,-229.828649,370.102971,10066.800811
1493.484562,-459.657299,296.082377,10214.842000
1493.484880,-76.609550,296.082377,10510.924376
1493.485197,-459.657299,296.082377,10288.862594
1493.485514,0.000000,592.164754,9992.780217
1493.485832,766.095498,962.267725,9474.636058
1493.486149,1149.143247,962.267725,8882.471304
1493.486466,1378.971896,962.267725,8734.430116
1493.486784,1608.800546,962.267725,8364.327145
1493.487101,1762.019645,888.247130,8364.327145
1493.487418,1991.848295,814.226536,8512.368333
1493.487736,1685.410096,370.102971,9178.553681
1493.488053,1532.190996,-74.020594,9622.677246
1493.488370,1532.190996,296.082377,9474.636058
1493.488688,1532.190996,592.164754,9104.533087
1493.489005,1532.190996,740.205942,8882.471304
1493.489322,1991.848295,888.247130,8734.430116
1493.489640,1302.362347,296.082377,8512.368333
1493.489957,1302.362347,148.041188,8512.368333
1493.490274,1072.533697,-222.061783,8956.491898
1493.490592,612.876398,-444.123565,9696.697840
1493.490909,0.000000,-74.020594,10214.842000
1493.491226,76.609550,-148.041188,10288.862594
1493.491544,-153.219100,-0.000000,10288.862594
1493.491861,153.219100,148.041188,9770.718434
1493.492178,459.657299,740.205942,9400.615463
1493.492496,1149.143247,1036.288319,8956.491898
1493.492813,1378.971896,1258.350101,8290.306550
1493.493130,1838.629195,888.247130,8216.285956
1493.493448,1685.410096,518.144159,8216.285956
1493.493765,1302.362347,296.082377,8808.450710
1493.494083,1149.143247,-148.041188,9252.574275
1493.494400,995.924147,-296.082377,9696.697840
1493.494717,919.314598,-0.000000,9992.780217
1493.495035,842.705048,-0.000000,9770.718434
1493.495352,689.485948,370.102971,9844.739029
1493.495669,689.485948,444.123565,9548.656652
1493.495987,919.314598,444.123565,9326.594869
1493.496304,612.876398,518.144159,9178.553681
1493.496621,919.314598,222.061783,9474.636058
1493.496939,-383.047749,-222.061783,9696.697840
1493.497256,-229.828649,-222.061783,10510.924376
1493.497573,0.000000,-0.000000,10362.883188
1493.497891,0.000000,-0.000000,10732.986159
1493.498208,0.000000,-0.000000,10436.903782
1493.498525,0.000000,222.061783,10214.842000
1493.498843,766.095498,444.123565,9474.636058
1493.499160,1072.533697,592.164754,9030.512492
1493.499477,1149.143247,518.144159,8956.491898
1493.499795,1302.362347,-0.000000,8734.430116
1493.500112,1532.190996,-0.000000,9326.594869
1493.500429,995.924147,-74.020594,9474.636058
1493.500747,995.924147,-74.020594,10140.821405
1493.501064,536.266849,-148.041188,9992.780217
1493.501381,842.705048,-0.000000,10066.800811
1493.501699,919.314598,-0.000000,9548.656652
1493.502016,919.314598,222.061783,9622.677246
1493.502333,689.485948,148.041188,9252.574275
1493.502651,383.047749,-74.020594,9030.512492
1493.502968,229.828649,-222.061783,9474.636058
1493.503286,0.000000,-740.205942,9548.656652
1493.503603,-536.266849,-370.102971,10214.842000
1493.503920,-459.657299,-518.144159,10510.924376
1493.504238,-459.657299,-222.061783,10510.924376
1493.504555,0.000000,-0.000000,10214.842000
1493.504872,76.609550,-0.000000,9844.739029
1493.505190,919.314598,444.123565,9326.594869
1493.505507,1149.143247,296.082377,8882.471304
1493.505824,1455.581446,444.123565,8290.306550
1493.506142,1532.190996,296.082377,8216.285956
1493.506459,1838.629195,222.061783,7920.203579
1493.506776,1455.581446,-148.041188,8512.368333
1493.507094,1532.190996,-0.000000,9030.512492
1493.507411,1455.581446,-74.020594,9326.594869
1493.507728,1149.143247,-148.041188,9400.615463
1493.508046,1225.752797,-0.000000,9104.533087
1493.508363,1455.581446,-0.000000,9104.533087
1493.508680,1225.752797,-74.020594,8882.471304
1493.508998,919.314598,-148.041188,8660.409521
1493.509315,995.924147,-0.000000,8956.491898
1493.509632,459.657299,-0.000000,9326.594869
1493.509950,459.657299,-0.000000,9474.636058
1493.510267,306.438199,222.061783,9844.739029
1493.510584,383.047749,148.041188,9696.697840
1493.510902,689.485948,592.164754,10140.821405
1493.511219,919.314598,518.144159,9326.594869
1493.511536,1378.971896,1184.329507,8882.471304
1493.511854,1532.190996,1036.288319,8364.327145
1493.512171,1762.019645,962.267725,8068.244768
1493.512488,1838.629195,518.144159,8068.244768
1493.512806,1455.581446,666.185348,8586.388927
1493.513123,995.924147,222.061783,8882.471304
1493.513441,995.924147,-222.061783,9474.636058
1493.513758,612.876398,-74.020594,9844.739029
1493.514075,0.000000,-148.041188,10140.821405
1493.514393,0.000000,-0.000000,10140.821405
1493.514710,-306.438199,296.082377,9844.739029
1493.515027,0.000000,370.102971,9622.677246
1493.515345,0.000000,296.082377,9622.677246
1493.515662,-459.657299,148.041188,9696.697840
1493.515979,-229.828649,-0.000000,9548.656652
1493.516297,-612.876398,-0.000000,10140.821405
1493.516614,-689.485948,-74.020594,10436.903782
1493.516931,-1225.752797,-296.082377,10584.944971
1493.517249,-919.314598,-0.000000,10584.944971
1493.517566,-459.657299,370.102971,10140.821405
1493.517883,0.000000,592.164754,9844.739029
1493.518201,229.828649,814.226536,9474.636058
1493.518518,459.657299,740.205942,8956.491898
1493.518835,842.705048,740.205942,8734.430116
1493.519153,995.924147,370.102971,8956.491898
1493.519470,1149.143247,222.061783,9178.553681
1493.519787,842.705048,-0.000000,9474.636058
1493.520105,306.438199,-0.000000,9844.739029
1493.520422,842.705048,444.123565,9844.739029
1493.520739,1225.752797,370.102971,9696.697840
1493.521057,1225.752797,444.123565,9622.677246
1493.521374,1378.971896,592.164754,9326.594869
1493.521691,1838.629195,666.185348,9104.533087
1493.522009,1685.410096,370.102971,8882.471304
1493.522326,1149.143247,74.020594,9252.574275
1493.522644,919.314598,74.020594,9474.636058
1493.522961,536.266849,-0.000000,9844.739029
1493.523278,842.705048,-0.000000,10214.842000
1493.523596,842.705048,-0.000000,10066.800811
1493.523913,919.314598,296.082377,9696.697840
1493.524230,1532.190996,444.123565,9622.677246
1493.524548,2145.067394,740.205942,9030.512492
1493.524865,1991.848295,740.205942,8512.368333
1493.525182,1838.629195,518.144159,8438.347739
1493.525500,2298.286494,518.144159,8290.306550
1493.525817,2145.067394,222.061783,8660.409521
1493.526134,2298.286494,-222.061783,9326.594869
1493.526452,1685.410096,-148.041188,9474.636058
1493.526769,1532.190996,-74.020594,9474.636058
1493.527086,1149.143247,-148.041188,9474.636058
1493.527404,995.924147,148.041188,9178.553681
1493.527721,919.314598,148.041188,8956.491898
1493.528038,766.095498,592.164754,8586.388927
1493.528356,76.609550,-0.000000,8956.491898
1493.528673,153.219100,-0.000000,9178.553681
1493.528990,-459.657299,-444.123565,9622.677246
1493.529308,-842.705048,-444.123565,9918.759623
1493.529625,-766.095498,-148.041188,10288.862594
1493.529942,-1149.143247,-222.061783,10362.883188
1493.530260,-689.485948,-0.000000,9918.759623
1493.530577,-229.828649,222.061783,9992.780217
1493.530894,76.609550,592.164754,9252.574275
1493.531212,459.657299,1036.288319,8660.409521
1493.531529,459.657299,666.185348,8364.327145
1493.531846,842.705048,518.144159,8660.409521
1493.532164,612.876398,296.082377,8586.388927
1493.532481,383.047749,-0.000000,9178.553681
1493.532799,383.047749,-148.041188,9622.677246
1493.533116,153.219100,-74.020594,9844.739029
1493.533433,229.828649,-444.123565,9474.636058
1493.533751,306.438199,-0.000000,9770.718434
1493.534068,229.828649,148.041188,9622.677246
1493.534385,459.657299,370.102971,9252.574275
1493.534703,536.266849,-0.000000,9178.553681
1493.535020,153.219100,-0.000000,9474.636058
1493.535337,0.000000,-148.041188,9696.697840
1493.535655,-229.828649,-74.020594,10140.821405
1493.535972,-153.219100,-222.061783,10436.903782
1493.536289,76.609550,-0.000000,10362.883188
1493.536607,153.219100,-0.000000,10214.842000
1493.536924,612.876398,296.082377,9844.739029
1493.537241,1378.971896,592.164754,9474.636058
1493.537559,1532.190996,814.226536,8956.491898
1493.537876,1838.629195,888.247130,8734.430116
1493.538193,1915.238745,962.267725,8660.409521
1493.538511,2298.286494,888.247130,8586.388927
1493.538828,1838.629195,370.102971,9178.553681
1493.539145,1455.581446,-0.000000,9622.677246
1493.539463,1149.143247,-148.041188,9918.759623
1493.539780,1532.190996,-0.000000,9992.780217
1493.540097,1608.800546,370.102971,9770.718434
1493.540415,1838.629195,444.123565,9474.636058
1493.540732,1762.019645,592.164754,9104.533087
1493.541049,1762.019645,592.164754,8808.450710
1493.541367,1608.800546,666.185348,8808.450710
1493.541684,995.924147,296.082377,9252.574275
1493.542002,919.314598,370.102971,9474.636058
1493.542319,612.876398,-0.000000,9918.759623
1493.542636,229.828649,222.061783,10214.842000
1493.542954,76.609550,-0.000000,10140.821405
1493.543271,153.219100,592.164754,9992.780217
1493.543588,306.438199,740.205942,9548.656652
1493.543906,842.705048,962.267725,9326.594869
1493.544223,612.876398,666.185348,8734.430116
1493.544540,766.095498,888.247130,8512.368333
1493.544858,1302.362347,888.247130,8734.430116
1493.545175,536.266849,518.144159,8808.450710
1493.545492,229.828649,296.082377,9252.574275
1493.545810,229.828649,-148.041188,9992.780217
1493.546127,0.000000,222.061783,9992.780217
1493.546444,153.219100,148.041188,9770.718434
1493.546762,306.438199,518.144159,9770.718434
1493.547079,153.219100,666.185348,9178.553681
1493.547396,383.047749,222.061783,8512.368333
1493.547714,536.266849,370.102971,8882.471304
1493.548031,0.000000,-74.020594,8956.491898
1493.548348,-306.438199,-222.061783,9622.677246
1493.548666,-459.657299,-0.000000,10140.821405
1493.548983,-612.876398,-0.000000,10288.862594
1493.549300,-689.485948,148.041188,10288.862594
1493.549618,-153.219100,222.061783,10066.800811
1493.549935,153.219100,518.144159,9696.697840
1493.550252,612.876398,518.144159,9474.636058
1493.550570,1762.019645,666.185348,8734.430116
1493.550887,1608.800546,444.123565,8142.265362
1493.551204,1455.581446,370.102971,8438.347739
1493.551522,1762.019645,370.102971,8512.368333
1493.551839,1532.190996,148.041188,9326.594869
1493.552157,1225.752797,-74.020594,9474.636058
1493.552474,689.485948,-0.000000,9696.697840
1493.552791,842.705048,-0.000000,9844.739029
1493.553109,1149.143247,-0.000000,9622.677246
1493.553426,1149.143247,-0.000000,9622.677246
1493.553743,1302.362347,-0.000000,9104.533087
1493.554061,1225.752797,-0.000000,9252.574275
1493.554378,1072.533697,-74.020594,9104.533087
1493.554695,842.705048,-0.000000,9548.656652
1493.555013,383.047749,-370.102971,10214.842000
1493.555330,383.047749,-74.020594,10288.862594
1493.555647,229.828649,-74.020594,10362.883188
1493.555965,766.095498,222.061783,10214.842000
1493.556282,1225.752797,518.144159,9770.718434
1493.556599,1455.581446,370.102971,9252.574275
1493.556917,1991.848295,814.226536,8734.430116
1493.557234,2374.896044,962.267725,8290.306550
1493.557551,2145.067394,518.144159,8438.347739
1493.557869,1991.848295,222.061783,8882.471304
1493.558186,1608.800546,-0.000000,9178.553681
1493.558503,1225.752797,-74.020594,9474.636058
1493.558821,766.095498,-74.020594,9844.739029
1493.559138,689.485948,-148.041188,9844.739029
1493.559455,612.876398,-148.041188,9770.718434
1493.559773,766.095498,74.020594,9770.718434
1493.560090,766.095498,-0.000000,9178.553681
1493.560407,459.657299,148.041188,9252.574275
1493.560725,536.266849,296.082377,8956.491898
1493.561042,76.609550,148.041188,9326.594869
1493.561360,0.000000,-0.000000,9696.697840
1493.561677,-306.438199,296.082377,10066.800811
1493.561994,-536.266849,296.082377,10214.842000
1493.562312,0.000000,444.123565,10066.800811
1493.562629,0.000000,740.205942,10066.800811
1493.562946,459.657299,740.205942,9252.574275
1493.563264,919.314598,962.267725,8808.450710
1493.563581,995.924147,1036.288319,8438.347739
1493.563898,1072.533697,814.226536,7994.224174
1493.564216,919.314598,666.185348,8438.347739
1493.564533,919.314598,592.164754,8734.430116
1493.564850,536.266849,296.082377,9252.574275
1493.565168,306.438199,296.082377,9770.718434
1493.565485,306.438199,-74.020594,9844.739029
1493.565802,229.828649,296.082377,9918.759623
1493.566120,306.438199,444.123565,9548.656652
1493.566437,459.657299,518.144159,9400.615463
1493.566754,536.266849,-0.000000,9104.533087
1493.567072,383.047749,148.041188,9178.553681
1493.567389,76.609550,-0.000000,9474.636058
1493.567706,-153.219100,-0.000000,9770.718434
1493.568024,-306.438199,-222.061783,10214.842000
1493.568341,0.000000,-222.061783,10362.883188
1493.568658,-153.219100,-222.061783,10288.862594
1493.568976,229.828649,-74.020594,10140.821405
1493.569293,689.485948,222.061783,9918.759623
1493.569610,1532.190996,666.185348,9400.615463
1493.569928,2221.676944,444.123565,8734.430116
1493.570245,2068.457845,666.185348,8364.327145
1493.570562,2145.067394,592.164754,8438.347739
1493.570880,2145.067394,370.102971,8586.388927
1493.571197,2221.676944,-0.000000,9104.533087
1493.571515,1685.410096,-148.041188,9622.677246
1493.571832,1455.581446,-370.102971,9622.677246
1493.572149,1302.362347,-148.041188,10066.800811
1493.572467,1302.362347,-222.061783,9770.718434
1493.572784,1608.800546,-0.000000,9696.697840
1493.573101,1378.971896,-0.000000,9474.636058
1493.573419,995.924147,296.082377,8956.491898
1493.573736,1225.752797,592.164754,9030.512492
1493.574053,766.095498,148.041188,9474.636058
1493.574371,306.438199,-0.000000,9844.739029
1493.574688,0.000000,148.041188,10214.842000
1493.575005,0.000000,-0.000000,10214.842000
1493.575323,306.438199,-0.000000,10140.821405
1493.575640,306.438199,222.061783,9918.759623
1493.575957,919.314598,592.164754,9252.574275
1493.576275,1225.752797,592.164754,8660.409521
1493.576592,1302.362347,740.205942,8068.244768
1493.576909,1378.971896,518.144159,8216.285956
1493.577227,1149.143247,370.102971,8364.327145
1493.577541,229.828649,-74.020594,8956.491898
1493.577858,459.657299,-74.020594,9474.636058
1493.578175,383.047749,-148.041188,9844.739029
1493.578493,153.219100,-0.000000,9992.780217
1493.578810,536.266849,222.061783,9844.739029
1493.579127,536.266849,222.061783,9252.574275
1493.579444,689.485948,518.144159,9104.533087
1493.579762,76.609550,222.061783,8512.368333
1493.580079,229.828649,-0.000000,8586.388927
1493.580396,-383.047749,-74.020594,9104.533087
1493.580714,-536.266849,-444.123565,9622.677246
1493.581031,-995.924147,-518.144159,10214.842000
1493.581348,-1302.362347,-222.061783,10807.006753
1493.581666,-919.314598,-74.020594,10658.965565
1493.581983,-842.705048,-74.020594,10658.965565
1493.582300,612.876398,370.102971,10140.821405
1493.582618,536.266849,296.082377,9326.594869
1493.582935,1455.581446,740.205942,8882.471304
1493.583252,1608.800546,666.185348,8586.388927
1493.583570,1991.848295,592.164754,8734.430116
1493.583887,2068.457845,518.144159,8808.450710
1493.584204,1838.629195,370.102971,9104.533087
1493.584521,1685.410096,-0.000000,9400.615463
1493.584839,1685.410096,-0.000000,9474.636058
1493.585156,1991.848295,-0.000000,9844.739029
1493.585473,1762.019645,-0.000000,9548.656652
1493.585791,2145.067394,-370.102971,9178.553681
1493.586108,1532.190996,-0.000000,9104.533087
1493.586425,1455.581446,-0.000000,9030.512492
1493.586743,1455.581446,-370.102971,9474.636058
1493.587060,689.485948,-74.020594,9622.677246
1493.587377,229.828649,-0.000000,10140.821405
1493.587695,0.000000,-0.000000,10436.903782
1493.588012,76.609550,-74.020594,10436.903782
1493.588329,229.828649,222.061783,10658.965565
1493.588647,842.705048,592.164754,9770.718434
1493.588964,1302.362347,518.144159,9178.553681
1493.589281,1608.800546,740.205942,8660.409521
1493.589598,1685.410096,518.144159,8216.285956
1493.589916,1762.019645,370.102971,8142.265362
1493.590233,1685.410096,444.123565,8512.368333
1493.590550,1455.581446,-0.000000,8882.471304
1493.590868,919.314598,222.061783,9400.615463
1493.591185,612.876398,-0.000000,9770.718434
1493.591502,536.266849,296.082377,9548.656652
1493.591820,459.657299,370.102971,9252.574275
1493.592137,229.828649,222.061783,9252.574275
1493.592454,0.000000,-0.000000,8956.491898
1493.592772,0.000000,-666.185348,8956.491898
1493.593089,-383.047749,-296.082377,9252.574275
1493.593406,-842.705048,-888.247130,9548.656652
1493.593723,-1302.362347,-888.247130,10140.821405
1493.594041,-1225.752797,-666.185348,10510.924376
1493.594358,-1608.800546,-444.123565,10584.944971
1493.594675,-689.485948,370.102971,10214.842000
1493.594993,-383.047749,444.123565,9696.697840
1493.595310,0.000000,888.247130,9252.574275
1493.595627,766.095498,1036.288319,8512.368333
1493.595945,1378.971896,1332.370696,8290.306550
1493.596262,1532.190996,1036.288319,7920.203579
1493.596579,1762.019645,814.226536,8142.265362
1493.596897,1685.410096,370.102971,8512.368333
1493.597214,1455.581446,-444.123565,9400.615463
1493.597531,919.314598,-222.061783,9696.697840
1493.597849,1072.533697,-0.000000,9696.697840
1493.598166,919.314598,148.041188,9474.636058
1493.598483,919.314598,-0.000000,9474.636058
1493.598800,1149.143247,296.082377,9400.615463
1493.599118,919.314598,370.102971,9030.512492
1493.599435,842.705048,296.082377,9178.553681
1493.599752,459.657299,370.102971,9548.656652
1493.600070,383.047749,296.082377,9992.780217
1493.600387,383.047749,222.061783,10362.883188
1493.600704,459.657299,222.061783,10436.903782
1493.601022,842.705048,148.041188,10214.842000
1493.601339,1302.362347,370.102971,9770.718434
1493.601656,1838.629195,814.226536,9178.553681
1493.601974,1838.629195,1184.329507,8808.450710
1493.602291,2298.286494,1184.329507,8142.265362
1493.602608,1991.848295,814.226536,8216.285956
1493.602926,2068.457845,666.185348,8512.368333
1493.603243,1608.800546,-0.000000,9030.512492
1493.603560,1225.752797,-74.020594,9696.697840
1493.603877,995.924147,-444.123565,10214.842000
1493.604195,689.485948,-74.020594,10140.821405
1493.604512,689.485948,148.041188,9992.780217
1493.604829,766.095498,370.102971,9992.780217
1493.605147,383.047749,592.164754,9326.594869
1493.605464,459.657299,444.123565,9474.636058
1493.605781,383.047749,-0.000000,9474.636058
1493.606099,306.438199,-148.041188,9844.739029
1493.606416,0.000000,-296.082377,9992.780217
1493.606733,0.000000,-148.041188,10658.965565
1493.607051,-306.438199,-0.000000,10584.944971
1493.607368,0.000000,-0.000000,10362.883188
1493.607685,306.438199,370.102971,10140.821405
1493.608002,459.657299,666.185348,9622.677246
1493.608320,919.314598,814.226536,9030.512492
1493.608637,1225.752797,666.185348,8364.327145
1493.608954,1072.533697,518.144159,8660.409521
1493.609272,1149.143247,148.041188,8660.409521
1493.609589,995.924147,-148.041188,8808.450710
1493.609906,766.095498,-370.102971,9474.636058
1493.610224,536.266849,-296.082377,9770.718434
1493.610541,229.828649,-222.061783,9696.697840
1493.610858,536.266849,-370.102971,9992.780217
1493.611176,766.095498,-222.061783,9548.656652
1493.611493,766.095498,-0.000000,9104.533087
1493.611810,612.876398,296.082377,8882.471304
1493.612128,766.095498,370.102971,8734.430116
1493.612445,76.609550,296.082377,9104.533087
1493.612762,229.828649,296.082377,9326.594869
1493.613079,0.000000,-0.000000,9696.697840
1493.613397,0.000000,-0.000000,9696.697840
1493.613714,-153.219100,148.041188,9918.759623
1493.614031,383.047749,-0.000000,9696.697840
1493.614349,842.705048,-148.041188,9474.636058
1493.614666,689.485948,-0.000000,9030.512492
1493.614983,1378.971896,444.123565,8512.368333
1493.615301,1685.410096,592.164754,8216.285956
1493.615618,2221.676944,740.205942,8290.306550
1493.615935,1838.629195,740.205942,8512.368333
1493.616253,1685.410096,296.082377,8734.430116
1493.616570,1455.581446,370.102971,9104.533087
1493.616887,1225.752797,222.061783,9252.574275
1493.617204,919.314598,814.226536,9252.574275
1493.617522,1302.362347,296.082377,9548.656652
1493.617839,1149.143247,518.144159,8956.491898
1493.618156,1149.143247,370.102971,8956.491898
1493.618474,689.485948,222.061783,9104.533087
1493.618791,153.219100,-444.123565,9326.594869
1493.619108,153.219100,-296.082377,9696.697840
1493.619426,-153.219100,-148.041188,10214.842000
1493.619743,-612.876398,-0.000000,10436.903782
1493.620060,-612.876398,74.020594,10658.965565
1493.620378,-612.876398,222.061783,10584.944971
1493.620695,0.000000,444.123565,9992.780217
1493.621012,306.438199,740.205942,9474.636058
1493.621330,919.314598,1184.329507,9104.533087
1493.621647,1149.143247,1036.288319,8734.430116
1493.621964,1838.629195,1110.308913,8734.430116
1493.622281,1455.581446,962.267725,8956.491898
1493.622599,1225.752797,370.102971,9178.553681
1493.622916,995.924147,518.144159,9770.718434
1493.623233,612.876398,370.102971,10140.821405
1493.623551,766.095498,296.082377,10140.821405
1493.623868,766.095498,296.082377,10140.821405
1493.624185,689.485948,370.102971,9696.697840
1493.624503,536.266849,518.144159,9548.656652
1493.624820,766.095498,296.082377,9474.636058
1493.625137,995.924147,370.102971,9400.615463
1493.625455,383.047749,222.061783,9696.697840
1493.625772,229.828649,222.061783,10066.800811
1493.626089,153.219100,148.041188,10140.821405
1493.626407,0.000000,296.082377,10288.862594
1493.626724,306.438199,444.123565,10288.862594
1493.627041,919.314598,592.164754,9622.677246
1493.627358,995.924147,666.185348,9474.636058
1493.627676,1149.143247,814.226536,8734.430116
1493.627993,1532.190996,740.205942,8512.368333
1493.628310,1838.629195,666.185348,8290.306550
1493.628628,1762.019645,666.185348,8512.368333
1493.628945,1455.581446,444.123565,8660.409521
1493.629262,1532.190996,-0.000000,9252.574275
1493.629580,1455.581446,-0.000000,9622.677246
1493.629897,842.705048,296.082377,9474.636058
1493.630214,612.876398,-0.000000,9474.636058
1493.630532,536.266849,-0.000000,9326.594869
1493.630849,536.266849,-74.020594,9178.553681
1493.631166,612.876398,-148.041188,8956.491898
1493.631483,383.047749,-74.020594,9104.533087
1493.631801,153.219100,-444.123565,9178.553681
1493.632118,153.219100,-370.102971,9474.636058
1493.632435,-153.219100,-444.123565,10140.821405
1493.632753,-306.438199,-222.061783,9918.759623
1493.633070,0.000000,-0.000000,10066.800811
1493.633387,536.266849,296.082377,9770.718434
1493.633705,919.314598,296.082377,9696.697840
1493.634022,919.314598,444.123565,9622.677246
1493.634339,1762.019645,814.226536,8512.368333
1493.634657,2221.676944,666.185348,8068.244768
1493.634974,2068.457845,444.123565,8142.265362
1493.635291,2374.896044,444.123565,8586.388927
1493.635609,1838.629195,-0.000000,8734.430116
1493.635926,1455.581446,-74.020594,9252.574275
1493.636243,1455.581446,-222.061783,9770.718434
1493.636560,995.924147,-370.102971,10066.800811
1493.636878,1072.533697,-148.041188,9992.780217
1493.637195,536.266849,-0.000000,9548.656652
1493.637512,383.047749,74.020594,9548.656652
1493.637830,153.219100,-0.000000,9474.636058
1493.638147,229.828649,-0.000000,9474.636058
1493.638464,-153.219100,-222.061783,10362.883188
1493.638782,0.000000,-74.020594,9770.718434
1493.639099,0.000000,148.041188,10140.821405
1493.639416,306.438199,444.123565,10214.842000
1493.639734,459.657299,444.123565,9770.718434
1493.640051,689.485948,740.205942,9474.636058
1493.640368,1302.362347,888.247130,8734.430116
1493.640686,1302.362347,1110.308913,8142.265362
1493.641003,1532.190996,962.267725,8290.306550
1493.641320,1762.019645,740.205942,8142.265362
1493.641637,1608.800546,370.102971,8290.306550
1493.641955,1225.752797,222.061783,8882.471304
1493.642272,612.876398,-0.000000,9326.594869
1493.642589,153.219100,370.102971,9696.697840
1493.642907,0.000000,592.164754,9992.780217
1493.643224,459.657299,814.226536,9770.718434
1493.643541,0.000000,888.247130,9474.636058
1493.643859,229.828649,740.205942,9252.574275
1493.644176,153.219100,666.185348,9030.512492
1493.644493,229.828649,-0.000000,9178.553681
1493.644811,0.000000,-0.000000,9696.697840
1493.645128,-153.219100,-74.020594,10066.800811
1493.645445,-306.438199,-296.082377,10436.903782
1493.645762,-612.876398,-74.020594,10140.821405
1493.646080,0.000000,-0.000000,10732.986159
1493.646397,306.438199,814.226536,10140.821405
1493.646714,689.485948,888.247130,9548.656652
1493.647032,842.705048,666.185348,9030.512492
1493.647349,1072.533697,592.164754,9030.512492
1493.647666,1378.971896,592.164754,9030.512492
1493.647984,1685.410096,222.061783,9178.553681
1493.648301,1532.190996,-0.000000,9326.594869
1493.648618,1608.800546,-74.020594,9844.739029
1493.648936,1302.362347,148.041188,10288.862594
1493.649253,1608.800546,370.102971,10140.821405
1493.649570,1762.019645,444.123565,9696.697840
1493.649888,1762.019645,148.041188,9548.656652
1493.650205,1532.190996,370.102971,9400.615463
1493.650522,1302.362347,592.164754,8956.491898
1493.650839,1072.533697,222.061783,9030.512492
1493.651157,689.485948,-74.020594,9474.636058
1493.651474,383.047749,-222.061783,9992.780217
1493.651791,306.438199,-0.000000,10436.903782
1493.652109,0.000000,-148.041188,10510.924376
1493.652426,-153.219100,148.041188,10288.862594
1493.652743,76.609550,-0.000000,9770.718434
1493.653061,383.047749,444.123565,9474.636058
1493.653378,919.314598,592.164754,8956.491898
1493.653695,1225.752797,666.185348,8808.450710
1493.654013,1225.752797,592.164754,8512.368333
1493.654330,1455.581446,370.102971,8512.368333
1493.654647,1378.971896,-148.041188,9030.512492
1493.654965,1149.143247,-148.041188,9252.574275
1493.655282,1532.190996,-74.020594,9400.615463
1493.655599,1378.971896,296.082377,9252.574275
1493.655916,995.924147,148.041188,9178.553681
1493.656234,995.924147,-0.000000,9030.512492
1493.656551,689.485948,222.061783,8882.471304
1493.656868,995.924147,518.144159,8808.450710
1493.657186,383.047749,-74.020594,8808.450710
1493.657503,0.000000,-444.123565,9326.594869
1493.657820,-459.657299,-740.205942,9918.759623
1493.658138,-536.266849,-666.185348,9918.759623
1493.658455,-766.095498,-1036.288319,10362.883188
1493.658772,-536.266849,-296.082377,10066.800811
1493.659090,0.000000,296.082377,9770.718434
1493.659407,306.438199,370.102971,9326.594869
1493.659724,689.485948,740.205942,8882.471304
1493.660041,612.876398,370.102971,8586.388927
1493.660359,1225.752797,444.123565,8438.347739
1493.660676,1072.533697,444.123565,8586.388927
1493.660993,1532.190996,-0.000000,8660.409521
1493.661311,1225.752797,-0.000000,9178.553681
1493.661628,995.924147,-370.102971,9178.553681
1493.661945,612.876398,-222.061783,9474.636058
1493.662263,919.314598,-0.000000,9400.615463
1493.662580,1149.143247,-0.000000,9474.636058
1493.662897,1149.143247,-0.000000,9400.615463
1493.663215,766.095498,148.041188,9326.594869
1493.663532,689.485948,-0.000000,9400.615463
1493.663849,612.876398,-0.000000,9474.636058
1493.664167,536.266849,-0.000000,9770.718434
1493.664484,306.438199,-0.000000,9844.739029
1493.664801,612.876398,370.102971,10140.821405
1493.665118,766.095498,518.144159,9918.759623
1493.665436,995.924147,740.205942,9992.780217
1493.665753,1149.143247,814.226536,9474.636058
1493.666070,1838.629195,962.267725,9326.594869
1493.666388,1991.848295,1036.288319,8808.450710
1493.666705,2068.457845,1110.308913,8660.409521
1493.667022,1991.848295,962.267725,8734.430116
1493.667340,2298.286494,666.185348,9104.533087
1493.667657,1762.019645,296.082377,9474.636058
1493.667974,1302.362347,518.144159,9770.718434
1493.668292,1225.752797,148.041188,9992.780217
1493.668609,1149.143247,518.144159,9622.677246
1493.668926,766.095498,814.226536,9696.697840
1493.669243,612.876398,518.144159,9696.697840
1493.669561,689.485948,740.205942,9252.574275
1493.669878,383.047749,666.185348,9326.594869
1493.670195,0.000000,-0.000000,9844.739029
1493.670513,-383.047749,-296.082377,10288.862594
1493.670830,-229.828649,-444.123565,10510.924376
1493.671147,-842.705048,-592.164754,10881.027347
1493.671465,-383.047749,-74.020594,10807.006753
1493.671782,-306.438199,-0.000000,10584.944971
1493.672099,0.000000,296.082377,9844.739029
1493.672417,229.828649,888.247130,9474.636058
1493.672734,612.876398,962.267725,8734.430116
1493.673051,1072.533697,1036.288319,8364.327145
1493.673369,842.705048,740.205942,8290.306550
1493.673686,766.095498,444.123565,8438.347739
1493.674003,612.876398,-222.061783,9030.512492
1493.674320,536.266849,-296.082377,9474.636058
1493.674638,612.876398,-370.102971,9918.759623
1493.674955,459.657299,-148.041188,9622.677246
1493.675272,689.485948,-0.000000,9178.553681
1493.675590,536.266849,148.041188,9178.553681
1493.675907,536.266849,296.082377,9030.512492
1493.676224,536.266849,296.082377,8660.409521
1493.676542,-153.219100,444.123565,9252.574275
1493.676859,76.609550,-0.000000,9252.574275
1493.677176,-306.438199,-148.041188,9696.697840
1493.677494,153.219100,74.020594,10288.862594
1493.677811,229.828649,148.041188,10140.821405
1493.678128,306.438199,-0.000000,9844.739029
1493.678446,1149.143247,518.144159,9326.594869
1493.678763,1532.190996,740.205942,8586.388927
1493.679080,1915.238745,888.247130,8512.368333
1493.679397,2528.115143,518.144159,7994.224174
1493.679715,2068.457845,444.123565,8142.265362
1493.680032,2145.067394,518.144159,8290.306550
1493.680349,2068.457845,-0.000000,8660.409521
1493.680666,1685.410096,-74.020594,9252.574275
1493.680984,1608.800546,-148.041188,9548.656652
1493.681301,995.924147,-0.000000,9474.636058
1493.681618,919.314598,-148.041188,9696.697840
1493.681936,1072.533697,-0.000000,9474.636058
1493.682253,1072.533697,-0.000000,9474.636058
1493.682570,612.876398,-444.123565,9474.636058
1493.682887,459.657299,-222.061783,9252.574275
1493.683205,153.219100,-592.164754,9770.718434
1493.683522,0.000000,-592.164754,10288.862594
1493.683839,0.000000,-518.144159,10584.944971
1493.684157,76.609550,-148.041188,10584.944971
1493.684474,153.219100,148.041188,10140.821405
1493.684791,536.266849,444.123565,9918.759623
1493.685108,1149.143247,592.164754,9474.636058
1493.685426,1225.752797,814.226536,9178.553681
1493.685743,1378.971896,518.144159,8660.409521
1493.686060,1685.410096,592.164754,8512.368333
1493.686377,1608.800546,518.144159,8734.430116
1493.686695,1149.143247,444.123565,9104.533087
1493.687012,1072.533697,222.061783,9400.615463
1493.687329,536.266849,-0.000000,9622.677246
1493.687647,383.047749,148.041188,9770.718434
1493.687964,459.657299,-0.000000,9622.677246
1493.688281,536.266849,-0.000000,9770.718434
1493.688598,306.438199,-0.000000,9474.636058
1493.688916,383.047749,222.061783,9178.553681
1493.689233,76.609550,370.102971,9252.574275
1493.689550,76.609550,296.082377,9474.636058
1493.689868,0.000000,444.123565,9918.759623
1493.690185,-306.438199,-0.000000,9992.780217
1493.690502,-766.095498,-0.000000,10214.842000
1493.690819,-536.266849,222.061783,9992.780217
1493.691137,229.828649,518.144159,9696.697840
1493.691454,766.095498,592.164754,9474.636058
1493.691771,1378.971896,666.185348,9178.553681
1493.692088,1149.143247,888.247130,8660.409521
1493.692406,1685.410096,888.247130,8734.430116
1493.692723,1608.800546,444.123565,8512.368333
1493.693040,1532.190996,592.164754,8808.450710
1493.693358,1302.362347,370.102971,8882.471304
1493.693675,766.095498,370.102971,9548.656652
1493.693992,766.095498,296.082377,9400.615463
1493.694309,842.705048,-0.000000,9622.677246
1493.694627,536.266849,370.102971,9474.636058
1493.694944,1149.143247,666.185348,9400.615463
1493.695261,612.876398,444.123565,9178.553681
1493.695579,306.438199,148.041188,9252.574275
1493.695896,153.219100,148.041188,9474.636058
1493.696213,-153.219100,-74.020594,9844.739029
1493.696530,0.000000,-222.061783,10066.800811
1493.696848,-76.609550,-296.082377,10881.027347
1493.697165,-306.438199,-74.020594,10362.883188
1493.697482,-153.219100,-0.000000,10510.924376
1493.697799,383.047749,-0.000000,9844.739029
1493.698117,919.314598,740.205942,9474.636058
1493.698434,1378.971896,666.185348,8586.388927
1493.698751,1685.410096,740.205942,8586.388927
1493.699069,2145.067394,592.164754,8290.306550
1493.699386,2451.505594,666.185348,8216.285956
1493.699703,1838.629195,-0.000000,8734.430116
1493.700020,1455.581446,-0.000000,9104.533087
1493.700338,1378.971896,-0.000000,9474.636058
1493.700655,1378.971896,-296.082377,9474.636058
1493.700972,995.924147,-296.082377,9474.636058
1493.701290,919.314598,-148.041188,9844.739029
1493.701607,612.876398,-0.000000,9474.636058
1493.701924,842.705048,-0.000000,9474.636058
1493.702241,306.438199,444.123565,9326.594869
1493.702559,229.828649,-0.000000,9696.697840
1493.702876,0.000000,-0.000000,9622.677246
1493.703193,153.219100,-0.000000,10140.821405
1493.703510,0.000000,-0.000000,10214.842000
1493.703828,0.000000,-0.000000,10288.862594
1493.704145,306.438199,-0.000000,10362.883188
1493.704462,995.924147,370.102971,9252.574275
1493.704780,1455.581446,740.205942,8660.409521
1493.705097,1455.581446,666.185348,8290.306550
1493.705414,1608.800546,592.164754,8290.306550
1493.705731,2068.457845,222.061783,8068.244768
1493.706049,1302.362347,-148.041188,8586.388927
1493.706366,1225.752797,-74.020594,9252.574275
1493.706683,766.095498,-222.061783,9844.739029
1493.707001,536.266849,-0.000000,9474.636058
1493.707318,383.047749,-0.000000,9696.697840
1493.707635,459.657299,296.082377,9400.615463
1493.707952,229.828649,296.082377,9474.636058
1493.708270,459.657299,-0.000000,9400.615463
1493.708587,689.485948,-148.041188,9030.512492
1493.708904,-229.828649,-0.000000,9548.656652
1493.709221,-306.438199,-0.000000,9844.739029
1493.709539,-612.876398,-370.102971,9992.780217
1493.709856,-383.047749,-148.041188,10214.842000
1493.710173,0.000000,-370.102971,10214.842000
1493.710491,-536.266849,-0.000000,10214.842000
1493.710808,153.219100,444.123565,9770.718434
1493.711125,919.314598,666.185348,9252.574275
1493.711442,1302.362347,740.205942,9030.512492
1493.711760,1378.971896,962.267725,8734.430116
1493.712077,1608.800546,518.144159,8216.285956
1493.712394,1532.190996,296.082377,8734.430116
1493.712712,1225.752797,370.102971,9400.615463
1493.713029,1225.752797,296.082377,9474.636058
1493.713346,1149.143247,74.020594,9770.718434
1493.713663,842.705048,222.061783,9474.636058
1493.713981,1302.362347,-0.000000,9474.636058
1493.714298,1302.362347,-0.000000,9622.677246
1493.714615,1532.190996,370.102971,9178.553681
1493.714932,842.705048,296.082377,9030.512492
1493.715250,842.705048,592.164754,9326.594869
1493.715567,306.438199,-0.000000,9696.697840
1493.715884,76.609550,-0.000000,10066.800811
1493.716202,229.828649,370.102971,10214.842000
1493.716519,0.000000,148.041188,9992.780217
1493.716836,153.219100,222.061783,10140.821405
1493.717153,612.876398,444.123565,9770.718434
1493.717471,1149.143247,814.226536,9178.553681
1493.717788,1685.410096,1184.329507,8512.368333
1493.718105,1838.629195,1258.350101,8216.285956
1493.718423,1608.800546,888.247130,8068.244768
1493.718740,1915.238745,814.226536,8216.285956
1493.719057,1378.971896,296.082377,8808.450710
1493.719374,1225.752797,-0.000000,9474.636058
1493.719692,612.876398,148.041188,9474.636058
1493.720009,689.485948,370.102971,9548.656652
1493.720326,459.657299,444.123565,9770.718434
1493.720643,766.095498,296.082377,9474.636058
1493.720961,383.047749,444.123565,9178.553681
1493.721278,229.828649,444.123565,9252.574275
1493.721595,153.219100,-0.000000,9326.594869
1493.721913,0.000000,-0.000000,9474.636058
1493.722230,-229.828649,-370.102971,10066.800811
1493.722547,-306.438199,-222.061783,10140.821405
1493.722864,-536.266849,-0.000000,10510.924376
1493.723182,-459.657299,-0.000000,10510.924376
1493.723499,536.266849,370.102971,10288.862594
1493.723816,766.095498,222.061783,9696.697840
1493.724134,919.314598,518.144159,9474.636058
1493.724451,1455.581446,666.185348,8660.409521
1493.724768,1685.410096,962.267725,8438.347739
1493.725085,1915.238745,370.102971,8882.471304
1493.725403,1608.800546,148.041188,8956.491898
1493.725720,1302.362347,-0.000000,9178.553681
1493.726037,919.314598,-296.082377,9622.677246
1493.726354,689.485948,-296.082377,9844.739029
1493.726672,919.314598,-370.102971,10288.862594
1493.726989,689.485948,-0.000000,9696.697840
1493.727306,766.095498,-0.000000,9030.512492
1493.727624,612.876398,-0.000000,9030.512492
1493.727941,612.876398,-0.000000,9178.553681
1493.728258,383.047749,-0.000000,9400.615463
1493.728575,0.000000,-0.000000,9548.656652
1493.728893,0.000000,-0.000000,9992.780217
1493.729210,0.000000,74.020594,10214.842000
1493.729527,0.000000,666.185348,9918.759623
1493.729844,842.705048,370.102971,9622.677246
1493.730162,842.705048,888.247130,9030.512492
1493.730479,1225.752797,666.185348,8808.450710
1493.730796,1685.410096,1110.308913,8364.327145
1493.731114,1532.190996,962.267725,8290.306550
1493.731431,1302.362347,444.123565,8364.327145
1493.731748,1532.190996,222.061783,8438.347739
1493.732065,1302.362347,-74.020594,9252.574275
1493.732383,1072.533697,-222.061783,9474.636058
1493.732700,766.095498,-148.041188,9844.739029
1493.733017,766.095498,222.061783,9548.656652
1493.733335,766.095498,518.144159,9400.615463
1493.733652,612.876398,740.205942,8808.450710
1493.733969,612.876398,666.185348,8512.368333
1493.734286,383.047749,-74.020594,9178.553681
1493.734604,153.219100,-740.205942,9474.636058
1493.734921,-612.876398,-592.164754,9918.759623
1493.735238,-536.266849,-814.226536,10658.965565
1493.735555,-1149.143247,-814.226536,10881.027347
1493.735873,-1072.533697,-444.123565,10881.027347
1493.736190,-459.657299,-296.082377,10732.986159
1493.736507,153.219100,-0.000000,10140.821405
1493.736825,459.657299,518.144159,9622.677246
1493.737142,1225.752797,814.226536,8808.450710
1493.737459,1685.410096,740.205942,8660.409521
1493.737776,1762.019645,666.185348,8290.306550
1493.738094,1991.848295,-0.000000,8364.327145
1493.738411,1991.848295,-222.061783,9178.553681
1493.738728,2068.457845,-444.123565,9548.656652
1493.739046,1302.362347,-0.000000,9326.594869
1493.739363,1455.581446,-0.000000,9326.594869
1493.739680,1455.581446,-148.041188,9548.656652
1493.739997,1532.190996,-222.061783,9104.533087
1493.740315,1225.752797,-0.000000,9030.512492
1493.740632,842.705048,-296.082377,8808.450710
1493.740949,919.314598,-0.000000,9178.553681
1493.741266,229.828649,222.061783,9474.636058
1493.741584,229.828649,-296.082377,10288.862594
1493.741901,-153.219100,-74.020594,10436.903782
1493.742218,0.000000,-74.020594,10436.903782
1493.742536,612.876398,370.102971,9992.780217
1493.742853,1225.752797,962.267725,9474.636058
1493.743170,1685.410096,1184.329507,8734.430116
1493.743487,1991.848295,1258.350101,7772.162391
1493.743805,2374.896044,1036.288319,7550.100608
1493.744122,2068.457845,370.102971,8068.244768
1493.744439,1838.629195,518.144159,8438.347739
1493.744757,1608.800546,370.102971,9178.553681
1493.745074,1072.533697,-0.000000,9326.594869
1493.745391,536.266849,-0.000000,9844.739029
1493.745708,76.609550,-0.000000,9918.759623
1493.746026,229.828649,148.041188,9844.739029
1493.746343,383.047749,370.102971,9548.656652
1493.746660,229.828649,148.041188,9326.594869
1493.746977,-153.219100,-0.000000,9548.656652
1493.747295,0.000000,-74.020594,9918.759623
1493.747612,-459.657299,-296.082377,10436.903782
1493.747929,-919.314598,-74.020594,10510.924376
1493.748247,-459.657299,-0.000000,10658.965565
1493.748564,-153.219100,222.061783,10807.006753
1493.748881,0.000000,296.082377,10436.903782
1493.749198,536.266849,518.144159,9844.739029
1493.749516,612.876398,592.164754,9252.574275
1493.749833,1378.971896,1184.329507,8956.491898
1493.750150,1838.629195,962.267725,8290.306550
1493.750468,1685.410096,592.164754,8660.409521
1493.750785,1149.143247,444.123565,8956.491898
1493.751102,1149.143247,370.102971,9178.553681
1493.751419,995.924147,222.061783,9400.615463
1493.751737,689.485948,296.082377,9696.697840
1493.752054,459.657299,296.082377,9622.677246
1493.752371,689.485948,296.082377,9548.656652
1493.752688,919.314598,-0.000000,9474.636058
1493.753006,842.705048,518.144159,9474.636058
1493.753323,919.314598,592.164754,9104.533087
1493.753640,689.485948,370.102971,9326.594869
