#time,accel_x,accel_y,accel_z
1536.074064,2757.943793,-0.000000,5921.647536
1536.074381,2451.505594,-0.000000,6365.771101
1536.074698,1915.238745,-666.185348,7105.977043
1536.075016,536.266849,-1036.288319,7920.203579
1536.075333,-153.219100,-1406.391290,8882.471304
1536.075651,-383.047749,-888.247130,8956.491898
1536.075968,-229.828649,-0.000000,7994.224174
1536.076285,0.000000,814.226536,7920.203579
1536.076603,306.438199,814.226536,7920.203579
1536.076920,229.828649,-0.000000,7772.162391
1536.077237,-229.828649,-296.082377,7772.162391
1536.077555,-536.266849,222.061783,8734.430116
1536.077872,-689.485948,-0.000000,9104.533087
1536.078189,-1532.190996,-148.041188,10066.800811
1536.078507,-1915.238745,-666.185348,10584.944971
1536.078824,-2451.505594,-370.102971,10732.986159
1536.079141,-2221.676944,148.041188,10807.006753
1536.079459,-1608.800546,666.185348,10214.842000
1536.079776,-1225.752797,740.205942,9622.677246
1536.080093,-1225.752797,296.082377,10066.800811
1536.080411,-1532.190996,-518.144159,10214.842000
1536.080728,-995.924147,-222.061783,11547.212695
1536.081046,-1225.752797,-592.164754,11843.295072
1536.081363,-1838.629195,-370.102971,11917.315666
1536.081680,-1915.238745,-222.061783,12139.377449
1536.081998,-1838.629195,666.185348,11473.192101
1536.082315,-1302.362347,592.164754,10881.027347
1536.082632,-1072.533697,814.226536,10584.944971
1536.082950,-612.876398,666.185348,9992.780217
1536.083267,-383.047749,370.102971,9252.574275
1536.083584,0.000000,296.082377,9474.636058
1536.083902,0.000000,-370.102971,9696.697840
1536.084219,-995.924147,-148.041188,9770.718434
1536.084536,-1838.629195,148.041188,9178.553681
1536.084854,-2298.286494,148.041188,9474.636058
1536.085171,-2604.724693,222.061783,9400.615463
1536.085488,-2987.772442,-0.000000,9178.553681
1536.085806,-3370.820191,-444.123565,9178.553681
1536.086123,-3907.087040,-1776.494261,9548.656652
1536.086441,-3447.429741,-2516.700203,9918.759623
1536.086758,-3294.210641,-2516.700203,9770.718434
1536.087075,-3217.601092,-2368.659014,10066.800811
1536.087393,-3217.601092,-2146.597232,10362.883188
1536.087710,-2451.505594,-2368.659014,10288.862594
1536.088027,-2451.505594,-2220.617826,10214.842000
1536.088345,-1991.848295,-2072.576638,10066.800811
1536.088662,-1838.629195,-2516.700203,10066.800811
1536.088979,-1378.971896,-3108.864956,10140.821405
1536.089297,-995.924147,-3849.070898,10214.842000
1536.089614,-689.485948,-4367.215058,10510.924376
1536.089931,229.828649,-4293.194464,9844.739029
1536.090249,612.876398,-4811.338623,9696.697840
1536.090566,612.876398,-4367.215058,8734.430116
1536.090883,459.657299,-4145.153275,8882.471304
1536.091201,-459.657299,-4145.153275,9104.533087
1536.091518,-995.924147,-4811.338623,9844.739029
1536.091836,-1838.629195,-5255.462188,10658.965565
1536.092153,-1762.019645,-5477.523971,11547.212695
1536.092470,-1991.848295,-5477.523971,12509.480420
1536.092788,-1302.362347,-5255.462188,12065.356855
1536.093105,-612.876398,-4589.276840,11473.192101
1536.093422,153.219100,-3552.988522,10807.006753
1536.093740,1532.190996,-2738.761985,10140.821405
1536.094057,2221.676944,-2368.659014,9548.656652
1536.094374,2834.553343,-2072.576638,8438.347739
1536.094692,2757.943793,-1998.556043,7698.141797
1536.095009,2528.115143,-1554.432478,6883.915261
1536.095326,1762.019645,-1184.329507,4959.379811
1536.095644,919.314598,-1480.411884,3997.112087
1536.095961,-842.705048,-2886.803174,5255.462188
1536.096278,-2604.724693,-4959.379811,6587.832884
1536.096596,-4596.572988,-6217.729913,8068.244768
1536.096913,-5669.106685,-6217.729913,9400.615463
1536.097231,-6894.859482,-6069.688724,10140.821405
1536.097548,-8273.831378,-5551.544565,9844.739029
1536.097865,-8427.050478,-4959.379811,9844.739029
1536.098183,-8733.488677,-4737.318029,9548.656652
1536.098500,-9806.022374,-4885.359217,9178.553681
1536.098817,-9652.803275,-4959.379811,10436.903782
1536.099135,-9729.412825,-4811.338623,10732.986159
1536.099452,-8580.269578,-5181.441594,11103.089130
1536.099769,-7737.564530,-4737.318029,10584.944971
1536.100087,-6511.811733,-4811.338623,10510.924376
1536.100404,-4213.525239,-4515.256246,9622.677246
1536.100721,-2911.162892,-3997.112087,9400.615463
1536.101039,-383.047749,-3478.967927,9696.697840
1536.101356,612.876398,-2146.597232,8660.409521
1536.101673,1762.019645,-1480.411884,7994.224174
1536.101991,1762.019645,-1406.391290,8068.244768
1536.102308,2528.115143,-814.226536,8290.306550
1536.102626,3294.210641,-888.247130,8068.244768
1536.102943,3294.210641,-1184.329507,8956.491898
1536.103260,3677.258390,-1998.556043,10140.821405
1536.103578,3830.477490,-2664.741391,10214.842000
1536.103895,4060.306139,-2294.638420,9548.656652
1536.104212,4903.011187,-1406.391290,10140.821405
1536.104530,4903.011187,-74.020594,9696.697840
1536.104847,5975.544884,814.226536,9918.759623
1536.105164,7048.078582,2146.597232,10807.006753
1536.105481,6511.811733,2886.803174,11399.171507
1536.105799,7737.564530,3330.926739,12139.377449
1536.106116,7660.954980,4441.235652,11029.068536
1536.106433,8427.050478,7105.977043,7846.182985
1536.106751,8810.098227,8068.244768,5181.441594
1536.107068,8733.488677,7846.182985,3849.070898
1536.107385,8580.269578,6217.729913,4219.173869
1536.107702,8197.221829,4219.173869,4959.379811
1536.108020,7048.078582,1776.494261,7254.018232
1536.108337,4903.011187,444.123565,9770.718434
1536.108654,2757.943793,148.041188,9474.636058
1536.108972,1072.533697,1628.453072,9548.656652
1536.109289,-612.876398,3775.050304,8512.368333
1536.109606,-1991.848295,5033.400406,7994.224174
1536.109924,-3140.991542,5625.565159,7031.956449
1536.110241,-3600.648841,5403.503377,8290.306550
1536.110558,-4596.572988,3701.029710,9918.759623
1536.110875,-5669.106685,1628.453072,12139.377449
1536.111193,-6358.592633,222.061783,13397.727550
1536.111510,-6741.640382,-74.020594,12731.542202
1536.111827,-6588.421283,296.082377,12953.603985
1536.112145,-6052.154434,1406.391290,13323.706956
1536.112462,-4673.182538,3108.864956,12213.398043
1536.112779,-4290.134789,4737.318029,10214.842000
1536.113097,-3294.210641,4589.276840,10140.821405
1536.113414,-3217.601092,3478.967927,10066.800811
1536.113731,-3447.429741,2294.638420,9474.636058
1536.114048,-3753.867940,444.123565,9992.780217
1536.114366,-4136.915689,-1554.432478,11695.253884
1536.114683,-4213.525239,-2442.679609,12361.439231
1536.115000,-3600.648841,-2220.617826,12435.459826
1536.115318,-2834.553343,-1406.391290,12657.521608
1536.115635,-2374.896044,-592.164754,12139.377449
1536.115952,-1685.410096,-0.000000,11621.233289
1536.116270,-1378.971896,-148.041188,11547.212695
1536.116587,-1149.143247,-962.267725,11843.295072
1536.116904,-1072.533697,-1998.556043,12287.418637
1536.117221,-306.438199,-2368.659014,12731.542202
1536.117539,1072.533697,-2220.617826,12361.439231
1536.117856,1685.410096,-1850.514855,12065.356855
1536.118173,2757.943793,-592.164754,11251.130318
1536.118491,3677.258390,-148.041188,9252.574275
1536.118808,4443.353888,-296.082377,8068.244768
1536.119125,4903.011187,-1480.411884,8216.285956
1536.119443,4136.915689,-2516.700203,8364.327145
1536.119760,4290.134789,-4071.132681,8290.306550
1536.120077,3830.477490,-4885.359217,9104.533087
1536.120394,3907.087040,-4885.359217,9918.759623
1536.120712,4060.306139,-4515.256246,9252.574275
1536.121029,4060.306139,-4663.297435,8882.471304
1536.121346,4213.525239,-4071.132681,8512.368333
1536.121664,4213.525239,-3404.947333,7772.162391
1536.121981,4903.011187,-3256.906145,7328.038826
1536.122298,4903.011187,-3182.885551,7031.956449
1536.122615,4749.792088,-2960.823768,6513.812290
1536.122933,4519.963438,-2812.782580,6883.915261
1536.123250,4213.525239,-3552.988522,7550.100608
1536.123567,3064.381992,-4219.173869,7920.203579
1536.123885,2528.115143,-4145.153275,8216.285956
1536.124202,2451.505594,-3627.009116,8660.409521
1536.124519,2451.505594,-2738.761985,7846.182985
1536.124837,2451.505594,-1998.556043,6957.935855
1536.125154,2987.772442,-1776.494261,6587.832884
1536.125471,3064.381992,-592.164754,5847.626942
1536.125788,3140.991542,-370.102971,4811.338623
1536.126106,2451.505594,-740.205942,4885.359217
1536.126423,1838.629195,-740.205942,5773.606348
1536.126740,1225.752797,-148.041188,5847.626942
1536.127058,306.438199,-74.020594,6291.750507
1536.127375,-459.657299,-444.123565,7550.100608
1536.127692,-766.095498,-222.061783,7402.059420
1536.128010,-995.924147,148.041188,7476.080014
1536.128327,-1455.581446,814.226536,7550.100608
1536.128644,-919.314598,1332.370696,7698.141797
1536.128961,-1149.143247,1850.514855,7550.100608
1536.129279,-1608.800546,2368.659014,7920.203579
1536.129596,-1838.629195,2664.741391,7624.121203
1536.129913,-2374.896044,3552.988522,7920.203579
1536.130231,-3447.429741,3478.967927,8512.368333
1536.130548,-3753.867940,3330.926739,9104.533087
1536.130865,-4443.353888,3256.906145,9326.594869
1536.131183,-4443.353888,2442.679609,10584.944971
1536.131500,-4749.792088,2294.638420,10288.862594
1536.131817,-4673.182538,1850.514855,10288.862594
1536.132134,-4443.353888,1258.350101,11399.171507
1536.132452,-4060.306139,1036.288319,11843.295072
1536.132769,-3217.601092,1776.494261,11769.274478
1536.133086,-3140.991542,2368.659014,12139.377449
1536.133404,-2451.505594,3478.967927,12287.418637
1536.133721,-2068.457845,4441.235652,12065.356855
1536.134038,-1532.190996,5181.441594,11843.295072
1536.134356,-995.924147,4367.215058,11991.336260
1536.134673,-229.828649,4811.338623,12139.377449
1536.134990,383.047749,4219.173869,11769.274478
1536.135307,2221.676944,3182.885551,12435.459826
1536.135625,2221.676944,3034.844362,12435.459826
1536.135942,3600.648841,2072.576638,13249.686362
1536.136259,4060.306139,2442.679609,12805.562797
1536.136577,4903.011187,2812.782580,13249.686362
1536.136894,5132.839837,3552.988522,12213.398043
1536.137211,4749.792088,4737.318029,11843.295072
1536.137528,5286.058936,4589.276840,11843.295072
1536.137846,5209.449386,4959.379811,10955.047942
1536.138163,5822.325785,4811.338623,11177.109724
1536.138480,5592.497135,3330.926739,11547.212695
1536.138798,5669.106685,2738.761985,10732.986159
1536.139115,5822.325785,1924.535449,11251.130318
1536.139432,5286.058936,1110.308913,10732.986159
1536.139750,5362.668486,740.205942,10881.027347
1536.140067,4749.792088,-222.061783,10510.924376
1536.140384,3447.429741,-0.000000,10510.924376
1536.140701,3753.867940,222.061783,10881.027347
1536.141019,2911.162892,370.102971,10066.800811
1536.141336,2604.724693,222.061783,10436.903782
1536.141653,2068.457845,-0.000000,10288.862594
1536.141971,1532.190996,-74.020594,9474.636058
1536.142288,1149.143247,-296.082377,9252.574275
1536.142605,689.485948,-888.247130,9104.533087
1536.142923,383.047749,-888.247130,8290.306550
1536.143240,612.876398,-2368.659014,8364.327145
1536.143557,-383.047749,-2960.823768,8586.388927
1536.143874,-459.657299,-3552.988522,8808.450710
1536.144192,-1149.143247,-3256.906145,8512.368333
1536.144509,-1149.143247,-2812.782580,8586.388927
1536.144826,-1762.019645,-2146.597232,7920.203579
1536.145144,-1455.581446,-1110.308913,7328.038826
1536.145461,-1838.629195,-666.185348,6291.750507
1536.145778,-1302.362347,-296.082377,5921.647536
1536.146096,-1149.143247,-296.082377,5329.482782
1536.146413,-842.705048,-814.226536,5773.606348
1536.146730,-919.314598,-1406.391290,5847.626942
1536.147047,-1608.800546,-1850.514855,6143.709319
1536.147365,-1685.410096,-1850.514855,6661.853478
1536.147682,-1762.019645,-1406.391290,6883.915261
1536.147999,-1378.971896,-1702.473667,7105.977043
1536.148317,-1072.533697,-1036.288319,7402.059420
1536.148634,-459.657299,-296.082377,7105.977043
1536.148951,229.828649,518.144159,6439.791695
1536.149269,383.047749,592.164754,6661.853478
1536.149586,612.876398,666.185348,7328.038826
1536.149903,1378.971896,962.267725,6513.812290
1536.150220,1608.800546,740.205942,6439.791695
1536.150538,1838.629195,1036.288319,6957.935855
1536.150855,2298.286494,1480.411884,6957.935855
1536.151172,2374.896044,1406.391290,7179.997637
1536.151490,2374.896044,740.205942,8586.388927
1536.151807,2298.286494,-0.000000,9030.512492
1536.152124,2374.896044,-0.000000,9622.677246
1536.152442,2451.505594,-0.000000,10288.862594
1536.152759,2298.286494,-0.000000,11103.089130
1536.153076,2298.286494,1110.308913,10807.006753
1536.153393,2221.676944,1850.514855,10732.986159
1536.153711,2298.286494,2368.659014,11325.150913
1536.154028,1915.238745,2812.782580,11103.089130
1536.154345,1838.629195,2664.741391,11251.130318
1536.154663,1685.410096,2220.617826,12065.356855
1536.154980,919.314598,1776.494261,12435.459826
1536.155297,766.095498,814.226536,12805.562797
1536.155614,842.705048,962.267725,12953.603985
1536.155932,919.314598,962.267725,12657.521608
1536.156249,1149.143247,222.061783,12731.542202
1536.156566,1225.752797,1258.350101,12509.480420
1536.156884,1378.971896,1998.556043,11991.336260
1536.157201,1608.800546,2886.803174,11399.171507
1536.157518,1072.533697,2886.803174,11547.212695
1536.157836,459.657299,3182.885551,11251.130318
1536.158153,229.828649,2960.823768,10584.944971
1536.158470,0.000000,3330.926739,10732.986159
1536.158787,153.219100,2960.823768,10658.965565
1536.159105,0.000000,2590.720797,10066.800811
1536.159422,0.000000,1924.535449,10584.944971
1536.159739,0.000000,1258.350101,10881.027347
1536.160057,229.828649,1184.329507,10362.883188
1536.160374,766.095498,1332.370696,10436.903782
1536.160691,459.657299,1628.453072,10214.842000
1536.161009,919.314598,2590.720797,9918.759623
1536.161326,1455.581446,3034.844362,9030.512492
1536.161643,1072.533697,3256.906145,8438.347739
1536.161960,995.924147,3182.885551,8216.285956
1536.162278,612.876398,2812.782580,7698.141797
1536.162595,689.485948,1776.494261,8142.265362
1536.162912,612.876398,814.226536,8142.265362
1536.163230,0.000000,222.061783,8142.265362
1536.163547,-459.657299,-666.185348,8808.450710
1536.163864,-306.438199,-1406.391290,8734.430116
1536.164182,-459.657299,-1406.391290,8808.450710
1536.164499,-766.095498,-1480.411884,9474.636058
1536.164816,-459.657299,-1184.329507,9918.759623
1536.165133,-459.657299,-1036.288319,8956.491898
1536.165451,-229.828649,-592.164754,9104.533087
1536.165768,-153.219100,-444.123565,8808.450710
1536.166085,919.314598,-740.205942,8364.327145
1536.166403,766.095498,-814.226536,7550.100608
1536.166720,1455.581446,-1702.473667,7698.141797
1536.167037,1532.190996,-2146.597232,7920.203579
1536.167355,1838.629195,-2294.638420,7698.141797
1536.167672,2528.115143,-2812.782580,7994.224174
1536.167989,1991.848295,-3034.844362,8364.327145
1536.168306,1302.362347,-3256.906145,8290.306550
1536.168624,1608.800546,-2738.761985,8808.450710
1536.168941,1762.019645,-2294.638420,8586.388927
1536.169258,1762.019645,-1480.411884,7994.224174
1536.169576,2145.067394,-518.144159,7698.141797
1536.169893,2145.067394,-518.144159,7772.162391
1536.170210,2298.286494,-518.144159,7402.059420
1536.170527,2451.505594,-592.164754,7698.141797
1536.170845,2451.505594,-888.247130,7920.203579
1536.171162,2604.724693,-740.205942,8216.285956
1536.171479,2221.676944,-1110.308913,8290.306550
1536.171797,2298.286494,-1110.308913,8660.409521
1536.172114,2221.676944,-1258.350101,8586.388927
1536.172431,1838.629195,-740.205942,8956.491898
1536.172749,1685.410096,-1036.288319,9918.759623
1536.173066,1915.238745,-444.123565,9474.636058
1536.173383,2221.676944,-148.041188,9474.636058
1536.173700,1762.019645,-0.000000,9918.759623
1536.174018,1838.629195,296.082377,10140.821405
1536.174335,1608.800546,444.123565,9548.656652
1536.174652,1378.971896,740.205942,9548.656652
1536.174970,995.924147,222.061783,10066.800811
1536.175287,919.314598,444.123565,10436.903782
1536.175604,842.705048,-0.000000,10732.986159
1536.175922,919.314598,-370.102971,10881.027347
1536.176239,536.266849,-666.185348,11103.089130
1536.176556,612.876398,-1184.329507,11843.295072
1536.176873,766.095498,-518.144159,11769.274478
1536.177191,612.876398,592.164754,11177.109724
1536.177508,383.047749,1184.329507,11103.089130
1536.177825,0.000000,2072.576638,10732.986159
1536.178143,229.828649,2072.576638,10584.944971
1536.178460,-689.485948,1998.556043,10288.862594
1536.178777,-1149.143247,1480.411884,10584.944971
1536.179095,-1991.848295,814.226536,10732.986159
1536.179412,-2145.067394,-0.000000,10955.047942
1536.179729,-2374.896044,-518.144159,11473.192101
1536.180046,-2374.896044,-444.123565,11177.109724
1536.180364,-2374.896044,-370.102971,11399.171507
1536.180681,-2374.896044,-0.000000,10807.006753
1536.180998,-1915.238745,814.226536,10584.944971
1536.181316,-2068.457845,2072.576638,9474.636058
1536.181633,-1532.190996,1406.391290,9622.677246
1536.181950,-2298.286494,1998.556043,9696.697840
1536.182268,-1608.800546,2146.597232,9474.636058
1536.182585,-1302.362347,1924.535449,9030.512492
1536.182902,-1455.581446,1702.473667,9252.574275
1536.183219,-1149.143247,1332.370696,9104.533087
1536.183537,-766.095498,1036.288319,8586.388927
1536.183854,-229.828649,-0.000000,9252.574275
1536.184171,153.219100,-370.102971,9474.636058
1536.184489,536.266849,-296.082377,8956.491898
1536.184806,1072.533697,-148.041188,8660.409521
1536.185123,1685.410096,-148.041188,8956.491898
1536.185440,1608.800546,222.061783,8586.388927
1536.185758,1685.410096,814.226536,7994.224174
1536.186075,1915.238745,1184.329507,7476.080014
1536.186392,1991.848295,814.226536,7550.100608
1536.186710,1915.238745,-148.041188,8216.285956
1536.187027,2068.457845,-888.247130,8808.450710
1536.187344,1991.848295,-1480.411884,8808.450710
1536.187662,2298.286494,-1998.556043,8808.450710
1536.187979,1991.848295,-2146.597232,8734.430116
1536.188296,1685.410096,-2294.638420,8882.471304
1536.188613,1838.629195,-2368.659014,9326.594869
1536.188931,1685.410096,-2220.617826,9474.636058
1536.189248,1915.238745,-1628.453072,9474.636058
1536.189565,1532.190996,-740.205942,8808.450710
1536.189883,1762.019645,-740.205942,9104.533087
1536.190200,1762.019645,-740.205942,8660.409521
1536.190517,1991.848295,-1110.308913,8216.285956
1536.190835,1685.410096,-1628.453072,8216.285956
1536.191152,1608.800546,-1924.535449,8290.306550
1536.191469,1838.629195,-2368.659014,8364.327145
1536.191786,1455.581446,-2442.679609,8586.388927
1536.192104,1149.143247,-2516.700203,9326.594869
1536.192421,612.876398,-2664.741391,9104.533087
1536.192738,229.828649,-2220.617826,9696.697840
1536.193056,153.219100,-1998.556043,10214.842000
1536.193373,306.438199,-888.247130,9622.677246
1536.193690,689.485948,-148.041188,8882.471304
1536.194008,383.047749,-0.000000,8660.409521
1536.194325,536.266849,-444.123565,9104.533087
1536.194642,842.705048,-148.041188,9030.512492
1536.194959,536.266849,-666.185348,8808.450710
1536.195277,383.047749,-592.164754,9030.512492
1536.195594,76.609550,-666.185348,9326.594869
1536.195911,0.000000,-1406.391290,9326.594869
1536.196229,0.000000,-1628.453072,9474.636058
1536.196546,-459.657299,-1628.453072,10214.842000
1536.196863,-459.657299,-888.247130,10658.965565
1536.197181,0.000000,-0.000000,9918.759623
1536.197498,153.219100,444.123565,9918.759623
1536.197815,229.828649,518.144159,9992.780217
1536.198132,-153.219100,814.226536,9622.677246
1536.198450,306.438199,1258.350101,9252.574275
1536.198767,76.609550,1258.350101,9844.739029
1536.199084,536.266849,1480.411884,10510.924376
1536.199402,153.219100,1110.308913,10510.924376
1536.199719,76.609550,962.267725,10584.944971
1536.200036,383.047749,-0.000000,11103.089130
1536.200353,0.000000,-0.000000,11103.089130
1536.200671,995.924147,222.061783,11547.212695
1536.200988,536.266849,1036.288319,11399.171507
1536.201305,1149.143247,1480.411884,10807.006753
1536.201623,995.924147,1924.535449,10658.965565
1536.201940,919.314598,2368.659014,10214.842000
1536.202257,1072.533697,2960.823768,10066.800811
1536.202575,1149.143247,2960.823768,9474.636058
1536.202892,919.314598,2442.679609,9770.718434
1536.203209,766.095498,2220.617826,9770.718434
1536.203526,383.047749,1554.432478,9844.739029
1536.203843,842.705048,1554.432478,9548.656652
1536.204161,689.485948,1258.350101,9918.759623
1536.204478,919.314598,1406.391290,9252.574275
1536.204795,689.485948,1036.288319,9400.615463
1536.205112,383.047749,1258.350101,9696.697840
1536.205430,995.924147,962.267725,9844.739029
1536.205747,842.705048,1332.370696,9918.759623
1536.206064,612.876398,1554.432478,9622.677246
1536.206381,612.876398,1850.514855,9474.636058
1536.206698,306.438199,1998.556043,8142.265362
1536.207016,612.876398,1924.535449,8290.306550
1536.207333,229.828649,1554.432478,7476.080014
1536.207650,536.266849,740.205942,7994.224174
1536.207967,306.438199,-814.226536,8438.347739
1536.208285,0.000000,-2220.617826,9844.739029
1536.208602,229.828649,-1924.535449,9622.677246
1536.208919,459.657299,-1554.432478,9696.697840
1536.209236,0.000000,-296.082377,9474.636058
1536.209554,536.266849,296.082377,8660.409521
1536.209871,383.047749,1554.432478,7772.162391
1536.210188,536.266849,814.226536,8216.285956
1536.210505,689.485948,888.247130,8216.285956
1536.210822,536.266849,-0.000000,8438.347739
1536.211140,229.828649,-518.144159,8808.450710
1536.211457,306.438199,-1184.329507,9104.533087
1536.211774,612.876398,-1924.535449,9326.594869
1536.212091,229.828649,-2368.659014,9252.574275
1536.212409,459.657299,-2590.720797,9844.739029
1536.212726,612.876398,-2294.638420,10140.821405
1536.213043,766.095498,-1776.494261,9696.697840
1536.213360,1378.971896,-666.185348,9400.615463
1536.213678,1302.362347,-222.061783,8586.388927
1536.213995,1378.971896,-148.041188,8882.471304
1536.214312,1302.362347,222.061783,8438.347739
1536.214629,1225.752797,222.061783,7920.203579
1536.214946,1455.581446,-74.020594,8438.347739
1536.215264,1455.581446,-888.247130,9030.512492
1536.215581,1838.629195,-1776.494261,9326.594869
1536.215898,1915.238745,-1258.350101,9326.594869
1536.216215,1455.581446,-1628.453072,9104.533087
1536.216533,1378.971896,-888.247130,9326.594869
1536.216850,2374.896044,-1110.308913,9770.718434
1536.217167,1302.362347,-370.102971,9400.615463
1536.217484,995.924147,-0.000000,9844.739029
1536.217802,689.485948,1036.288319,9474.636058
1536.218119,1225.752797,1332.370696,9400.615463
1536.218436,1149.143247,2294.638420,8586.388927
1536.218753,1455.581446,1924.535449,8660.409521
1536.219070,995.924147,1628.453072,8882.471304
1536.219388,766.095498,814.226536,8808.450710
1536.219705,536.266849,-0.000000,9400.615463
1536.220022,306.438199,-370.102971,10140.821405
1536.220339,306.438199,-370.102971,10732.986159
1536.220657,0.000000,370.102971,9696.697840
1536.220974,-306.438199,518.144159,10140.821405
1536.221291,-306.438199,740.205942,10584.944971
1536.221608,153.219100,1406.391290,10510.924376
1536.221926,459.657299,2220.617826,10140.821405
1536.222243,536.266849,1628.453072,10436.903782
1536.222560,536.266849,2442.679609,9770.718434
1536.222877,766.095498,2442.679609,9696.697840
1536.223194,1685.410096,2960.823768,9252.574275
1536.223512,1991.848295,2220.617826,9104.533087
1536.223829,1532.190996,2516.700203,8364.327145
1536.224146,1455.581446,888.247130,9622.677246
1536.224463,1225.752797,518.144159,10288.862594
1536.224781,2451.505594,-0.000000,10955.047942
1536.225098,1302.362347,444.123565,10658.965565
1536.225415,1685.410096,1258.350101,11103.089130
1536.225732,2298.286494,2886.803174,9770.718434
1536.226050,2451.505594,3701.029710,8512.368333
1536.226367,2298.286494,3997.112087,9326.594869
1536.226684,1455.581446,3404.947333,9178.553681
1536.227001,1455.581446,2812.782580,9400.615463
1536.227318,1378.971896,2368.659014,9474.636058
1536.227636,689.485948,1332.370696,9844.739029
1536.227953,383.047749,962.267725,9844.739029
1536.228270,0.000000,148.041188,10288.862594
1536.228587,0.000000,-222.061783,10510.924376
1536.228905,0.000000,-592.164754,10510.924376
1536.229222,383.047749,296.082377,10732.986159
1536.229539,766.095498,962.267725,10140.821405
1536.229856,1072.533697,1702.473667,9252.574275
1536.230173,306.438199,1480.411884,8512.368333
1536.230491,306.438199,1332.370696,9178.553681
1536.230808,-383.047749,1406.391290,8808.450710
1536.231125,0.000000,1628.453072,8734.430116
1536.231442,612.876398,1332.370696,8956.491898
1536.231760,459.657299,740.205942,8956.491898
1536.232077,459.657299,-518.144159,9252.574275
1536.232394,459.657299,-1480.411884,9844.739029
1536.232711,1072.533697,-1702.473667,10658.965565
1536.233029,1608.800546,-888.247130,10214.842000
1536.233346,1532.190996,740.205942,8808.450710
1536.233663,1915.238745,888.247130,8438.347739
1536.233980,2298.286494,962.267725,7920.203579
1536.234297,1838.629195,370.102971,8438.347739
1536.234615,1532.190996,814.226536,8808.450710
1536.234932,1455.581446,962.267725,8364.327145
1536.235249,1762.019645,740.205942,8734.430116
1536.235566,1225.752797,222.061783,8586.388927
1536.235884,459.657299,-444.123565,7920.203579
1536.236201,842.705048,-1332.370696,8512.368333
1536.236518,536.266849,-1776.494261,9252.574275
1536.236835,612.876398,-1628.453072,9252.574275
1536.237153,689.485948,-1036.288319,9400.615463
1536.237470,229.828649,-888.247130,9992.780217
1536.237787,536.266849,-666.185348,9992.780217
1536.238104,612.876398,-222.061783,9548.656652
1536.238421,306.438199,222.061783,9326.594869
1536.238739,689.485948,1184.329507,8586.388927
1536.239056,1302.362347,1628.453072,7920.203579
1536.239373,1225.752797,1110.308913,8216.285956
1536.239690,1378.971896,1036.288319,7994.224174
1536.240008,766.095498,-740.205942,7772.162391
1536.240325,153.219100,-2072.576638,9030.512492
1536.240642,76.609550,-1924.535449,9770.718434
1536.240959,229.828649,-1184.329507,9696.697840
1536.241277,76.609550,-1036.288319,10066.800811
1536.241594,-612.876398,-0.000000,9992.780217
1536.241911,-383.047749,222.061783,9474.636058
1536.242228,153.219100,1258.350101,9104.533087
1536.242545,306.438199,1850.514855,9030.512492
1536.242863,383.047749,2072.576638,8808.450710
1536.243180,306.438199,1924.535449,8586.388927
1536.243497,306.438199,1406.391290,8882.471304
1536.243814,0.000000,370.102971,8956.491898
1536.244132,0.000000,-444.123565,10066.800811
1536.244449,-459.657299,-666.185348,9770.718434
1536.244766,229.828649,-592.164754,10140.821405
1536.245083,995.924147,-222.061783,9992.780217
1536.245401,383.047749,-148.041188,10510.924376
1536.245718,995.924147,518.144159,10066.800811
1536.246035,1455.581446,1110.308913,9326.594869
1536.246352,1455.581446,1332.370696,9252.574275
1536.246669,1532.190996,1702.473667,9696.697840
1536.246987,1838.629195,1850.514855,9178.553681
1536.247304,2298.286494,1702.473667,8956.491898
1536.247621,2145.067394,1332.370696,9326.594869
1536.247938,2451.505594,444.123565,9548.656652
1536.248256,2374.896044,-0.000000,9326.594869
1536.248573,2221.676944,-1110.308913,10288.862594
1536.248890,2528.115143,-1184.329507,11029.068536
1536.249207,2604.724693,-444.123565,10510.924376
1536.249524,2834.553343,-0.000000,10584.944971
1536.249842,2298.286494,592.164754,10066.800811
1536.250159,2374.896044,1110.308913,10288.862594
1536.250476,2145.067394,1258.350101,10362.883188
1536.250793,1762.019645,1776.494261,9844.739029
1536.251111,1072.533697,2146.597232,9696.697840
1536.251428,995.924147,1406.391290,9548.656652
1536.251745,612.876398,370.102971,10288.862594
1536.252062,0.000000,-1036.288319,9918.759623
1536.252380,0.000000,-1628.453072,10955.047942
1536.252697,76.609550,-888.247130,10510.924376
1536.253014,612.876398,-222.061783,10066.800811
1536.253331,229.828649,-444.123565,9918.759623
1536.253648,153.219100,-0.000000,10140.821405
1536.253966,0.000000,518.144159,9104.533087
1536.254283,-153.219100,740.205942,9178.553681
1536.254600,-153.219100,740.205942,9474.636058
1536.254917,-153.219100,1110.308913,9104.533087
1536.255235,-689.485948,1480.411884,9104.533087
1536.255552,-306.438199,814.226536,8660.409521
1536.255869,-995.924147,370.102971,8290.306550
1536.256186,-536.266849,-222.061783,8290.306550
1536.256504,76.609550,-444.123565,9104.533087
1536.256821,-229.828649,-1036.288319,9474.636058
1536.257138,76.609550,-814.226536,9400.615463
1536.257455,0.000000,-814.226536,9104.533087
1536.257772,153.219100,-222.061783,9104.533087
1536.258090,459.657299,1036.288319,8364.327145
1536.258407,689.485948,1554.432478,7994.224174
1536.258724,1455.581446,1850.514855,7772.162391
1536.259041,842.705048,1406.391290,7846.182985
1536.259359,919.314598,1110.308913,7920.203579
1536.259676,1149.143247,962.267725,8438.347739
1536.259993,995.924147,-0.000000,8216.285956
1536.260310,459.657299,-518.144159,8438.347739
1536.260628,153.219100,-1110.308913,9178.553681
1536.260945,0.000000,-1924.535449,10066.800811
1536.261262,0.000000,-2220.617826,10436.903782
1536.261579,-153.219100,-1776.494261,11029.068536
1536.261896,306.438199,-666.185348,10807.006753
1536.262214,459.657299,-148.041188,9918.759623
1536.262531,1225.752797,370.102971,9548.656652
1536.262848,1608.800546,740.205942,9548.656652
1536.263165,1302.362347,666.185348,8956.491898
1536.263483,1685.410096,-0.000000,9178.553681
1536.263800,1455.581446,-444.123565,9030.512492
1536.264117,1608.800546,-1554.432478,9548.656652
1536.264434,1302.362347,-2146.597232,9696.697840
1536.264752,1149.143247,-1924.535449,9918.759623
1536.265069,1378.971896,-2072.576638,9696.697840
1536.265386,919.314598,-1998.556043,10066.800811
1536.265703,1302.362347,-2072.576638,10584.944971
1536.266020,995.924147,-1702.473667,10288.862594
1536.266338,1685.410096,-740.205942,9696.697840
1536.266655,995.924147,-0.000000,9474.636058
1536.266972,766.095498,888.247130,8586.388927
1536.267289,1608.800546,1406.391290,8660.409521
1536.267607,995.924147,814.226536,8882.471304
1536.267924,459.657299,-0.000000,9326.594869
1536.268241,0.000000,-814.226536,8808.450710
1536.268558,0.000000,-1184.329507,9474.636058
1536.268875,153.219100,-1628.453072,9992.780217
1536.269193,536.266849,-1776.494261,9622.677246
1536.269510,0.000000,-1332.370696,9474.636058
1536.269827,0.000000,-740.205942,9918.759623
1536.270144,536.266849,296.082377,9696.697840
1536.270462,536.266849,740.205942,9474.636058
1536.270779,459.657299,1110.308913,9474.636058
1536.271096,76.609550,2220.617826,8586.388927
1536.271413,0.000000,1184.329507,8586.388927
1536.271731,306.438199,518.144159,9400.615463
1536.272048,459.657299,-74.020594,9104.533087
1536.272365,536.266849,-222.061783,9030.512492
1536.272682,536.266849,-740.205942,9104.533087
1536.272999,919.314598,-1702.473667,9696.697840
1536.273317,995.924147,-1480.411884,9474.636058
1536.273634,1072.533697,-1480.411884,10288.862594
1536.273951,689.485948,-148.041188,9918.759623
1536.274268,919.314598,814.226536,9474.636058
1536.274586,995.924147,1628.453072,8808.450710
1536.274903,689.485948,1554.432478,8734.430116
1536.275220,306.438199,1258.350101,8882.471304
1536.275537,536.266849,592.164754,8882.471304
1536.275855,153.219100,444.123565,9104.533087
1536.276172,383.047749,-0.000000,9474.636058
1536.276489,229.828649,-0.000000,9030.512492
1536.276806,0.000000,-888.247130,9474.636058
1536.277123,76.609550,-888.247130,9622.677246
1536.277441,-229.828649,-518.144159,9400.615463
1536.277758,-153.219100,222.061783,9548.656652
1536.278075,-229.828649,1184.329507,8956.491898
1536.278392,0.000000,1924.535449,9326.594869
1536.278710,-383.047749,1628.453072,9326.594869
1536.279027,-689.485948,1924.535449,9030.512492
1536.279344,-536.266849,1776.494261,9104.533087
1536.279661,-383.047749,1998.556043,8734.430116
1536.279979,306.438199,2072.576638,8586.388927
1536.280296,0.000000,1776.494261,8142.265362
1536.280613,-229.828649,-148.041188,9400.615463
1536.280930,229.828649,-740.205942,10510.924376
1536.281247,383.047749,-1110.308913,11177.109724
1536.281565,766.095498,-592.164754,10658.965565
1536.281882,1225.752797,370.102971,10658.965565
1536.282199,1838.629195,1184.329507,9992.780217
1536.282516,2451.505594,2072.576638,9104.533087
1536.282834,2298.286494,2072.576638,9030.512492
1536.283151,2145.067394,2146.597232,8512.368333
1536.283468,2451.505594,1480.411884,8734.430116
1536.283785,2145.067394,740.205942,9474.636058
1536.284103,1915.238745,-370.102971,10288.862594
1536.284420,1225.752797,-1036.288319,10140.821405
1536.284737,842.705048,-1258.350101,10362.883188
1536.285054,689.485948,-1480.411884,10955.047942
1536.285371,1149.143247,-1554.432478,11103.089130
1536.285689,842.705048,-888.247130,10807.006753
1536.286006,1072.533697,-370.102971,10807.006753
1536.286323,919.314598,-0.000000,10288.862594
1536.286640,1762.019645,592.164754,9844.739029
1536.286958,1915.238745,814.226536,10214.842000
1536.287275,1302.362347,1332.370696,9474.636058
1536.287592,1532.190996,1258.350101,9252.574275
1536.287909,1302.362347,666.185348,9104.533087
1536.288226,1608.800546,296.082377,8660.409521
1536.288544,919.314598,-0.000000,8808.450710
1536.288861,536.266849,-592.164754,9104.533087
1536.289178,612.876398,-1332.370696,9696.697840
1536.289495,229.828649,-1184.329507,9696.697840
1536.289813,306.438199,-1406.391290,10288.862594
1536.290130,-536.266849,-888.247130,9770.718434
1536.290447,-153.219100,-0.000000,9696.697840
1536.290764,0.000000,1036.288319,8882.471304
1536.291082,229.828649,1924.535449,8808.450710
1536.291399,-153.219100,2294.638420,7846.182985
1536.291716,0.000000,1776.494261,8512.368333
1536.292033,0.000000,1258.350101,8068.244768
1536.292350,0.000000,222.061783,9030.512492
1536.292668,-153.219100,-888.247130,9252.574275
1536.292985,229.828649,-1480.411884,9548.656652
1536.293302,-459.657299,-1554.432478,9474.636058
1536.293619,766.095498,-1110.308913,9696.697840
1536.293937,689.485948,-444.123565,9474.636058
1536.294254,1072.533697,592.164754,8734.430116
1536.294571,842.705048,888.247130,8660.409521
1536.294888,1072.533697,1332.370696,8586.388927
1536.295206,1072.533697,1554.432478,8216.285956
1536.295523,919.314598,1406.391290,8364.327145
1536.295840,76.609550,814.226536,8808.450710
1536.296157,766.095498,814.226536,9178.553681
1536.296474,842.705048,-444.123565,8734.430116
1536.296792,1072.533697,-592.164754,9326.594869
1536.297109,612.876398,-1628.453072,10066.800811
1536.297426,919.314598,-1776.494261,10288.862594
1536.297743,1302.362347,-814.226536,9918.759623
1536.298061,1455.581446,-0.000000,9992.780217
1536.298378,1685.410096,1332.370696,9104.533087
1536.298695,1991.848295,1924.535449,8586.388927
1536.299012,1991.848295,1998.556043,8734.430116
1536.299330,1762.019645,1850.514855,8512.368333
1536.299647,1608.800546,1924.535449,8734.430116
1536.299964,1608.800546,1184.329507,9030.512492
1536.300281,1455.581446,740.205942,8956.491898
1536.300598,1302.362347,-222.061783,9178.553681
1536.300916,766.095498,-370.102971,9918.759623
1536.301233,766.095498,-1036.288319,9548.656652
1536.301550,842.705048,-148.041188,9474.636058
1536.301867,995.924147,-296.082377,10362.883188
1536.302185,536.266849,666.185348,9918.759623
1536.302502,1225.752797,1332.370696,9696.697840
1536.302819,919.314598,1480.411884,9548.656652
1536.303136,842.705048,1702.473667,9474.636058
1536.303454,842.705048,2368.659014,9104.533087
1536.303771,1149.143247,2146.597232,9548.656652
1536.304088,1072.533697,1480.411884,9252.574275
1536.304405,995.924147,814.226536,9400.615463
1536.304722,919.314598,-148.041188,9400.615463
1536.305040,919.314598,-814.226536,10140.821405
1536.305357,995.924147,-1110.308913,10732.986159
1536.305674,919.314598,-592.164754,10288.862594
1536.305991,842.705048,148.041188,10362.883188
1536.306308,689.485948,1184.329507,9548.656652
1536.306626,995.924147,1184.329507,9474.636058
1536.306943,1838.629195,1554.432478,9622.677246
1536.307260,689.485948,2146.597232,9104.533087
1536.307577,842.705048,1702.473667,9474.636058
1536.307895,689.485948,1628.453072,9400.615463
1536.308212,766.095498,1258.350101,9474.636058
1536.308529,459.657299,814.226536,9104.533087
1536.308846,76.609550,74.020594,9474.636058
1536.309163,76.609550,-444.123565,9696.697840
1536.309481,76.609550,-666.185348,10584.944971
1536.309798,306.438199,-1110.308913,11029.068536
1536.310115,0.000000,148.041188,10658.965565
1536.310432,459.657299,740.205942,10214.842000
1536.310749,612.876398,1406.391290,9844.739029
1536.311067,995.924147,1480.411884,9474.636058
1536.311384,995.924147,2146.597232,9252.574275
1536.311701,1455.581446,1850.514855,8290.306550
1536.312018,1685.410096,1776.494261,8734.430116
1536.312336,1685.410096,1110.308913,8142.265362
1536.312653,1685.410096,-0.000000,8586.388927
1536.312970,1455.581446,-814.226536,8438.347739
1536.313287,1455.581446,-1332.370696,9992.780217
1536.313604,1608.800546,-740.205942,9548.656652
1536.313922,1685.410096,-444.123565,9770.718434
1536.314239,1149.143247,-222.061783,9918.759623
1536.314556,1225.752797,518.144159,9474.636058
1536.314873,842.705048,962.267725,9326.594869
1536.315190,1378.971896,1554.432478,8956.491898
1536.315508,689.485948,1776.494261,8808.450710
1536.315825,153.219100,1332.370696,8438.347739
1536.316142,383.047749,444.123565,9474.636058
1536.316459,306.438199,-0.000000,9252.574275
1536.316777,306.438199,-814.226536,9696.697840
1536.317094,0.000000,-814.226536,9474.636058
1536.317411,229.828649,-1036.288319,9622.677246
1536.317728,459.657299,-666.185348,8808.450710
1536.318045,459.657299,-148.041188,9696.697840
1536.318363,766.095498,888.247130,8808.450710
1536.318680,459.657299,1184.329507,8364.327145
1536.318997,383.047749,1036.288319,8808.450710
1536.319314,229.828649,814.226536,8956.491898
1536.319631,-229.828649,814.226536,9104.533087
1536.319949,0.000000,222.061783,9474.636058
1536.320266,-459.657299,-0.000000,9178.553681
1536.320583,383.047749,-370.102971,9400.615463
1536.320900,306.438199,-666.185348,9400.615463
1536.321218,536.266849,-1184.329507,9548.656652
1536.321535,842.705048,-1480.411884,9844.739029
1536.321852,919.314598,-666.185348,9474.636058
1536.322169,1225.752797,-518.144159,9770.718434
1536.322486,919.314598,296.082377,9400.615463
1536.322804,1072.533697,740.205942,8956.491898
1536.323121,1302.362347,1258.350101,9030.512492
1536.323438,1685.410096,1258.350101,9104.533087
1536.323755,1072.533697,1406.391290,8734.430116
1536.324072,1608.800546,1258.350101,8586.388927
1536.324390,1455.581446,222.061783,9474.636058
1536.324707,1455.581446,-296.082377,9326.594869
1536.325024,1225.752797,-888.247130,9400.615463
1536.325341,689.485948,-1184.329507,9770.718434
1536.325659,766.095498,-962.267725,9770.718434
1536.325976,1072.533697,-1110.308913,10214.842000
1536.326293,1149.143247,-592.164754,10955.047942
1536.326610,612.876398,-0.000000,9992.780217
1536.326927,306.438199,444.123565,9992.780217
1536.327245,766.095498,592.164754,9770.718434
1536.327562,1072.533697,1554.432478,9400.615463
1536.327879,919.314598,1406.391290,9030.512492
1536.328196,536.266849,1110.308913,9030.512492
1536.328513,536.266849,518.144159,9400.615463
1536.328831,766.095498,-0.000000,9548.656652
1536.329148,383.047749,-444.123565,10288.862594
1536.329465,459.657299,-1184.329507,10510.924376
1536.329782,689.485948,-740.205942,10584.944971
1536.330100,1225.752797,-666.185348,10510.924376
1536.330417,1225.752797,222.061783,10584.944971
1536.330734,1532.190996,962.267725,9622.677246
1536.331051,2221.676944,1850.514855,8660.409521
1536.331368,1915.238745,1924.535449,8586.388927
1536.331686,1915.238745,1850.514855,8438.347739
1536.332003,1455.581446,1332.370696,8586.388927
1536.332320,1149.143247,-0.000000,9030.512492
1536.332637,612.876398,-74.020594,9178.553681
1536.332954,306.438199,-1184.329507,9622.677246
1536.333272,229.828649,-1184.329507,10436.903782
1536.333589,76.609550,-1184.329507,10288.862594
1536.333906,459.657299,-1036.288319,9770.718434
1536.334223,459.657299,-666.185348,10066.800811
1536.334541,1072.533697,370.102971,9104.533087
1536.334858,1072.533697,888.247130,8808.450710
1536.335175,1149.143247,1406.391290,8808.450710
1536.335492,689.485948,1554.432478,8512.368333
1536.335809,995.924147,1702.473667,8290.306550
1536.336127,383.047749,1554.432478,8364.327145
1536.336444,76.609550,814.226536,8216.285956
1536.336761,0.000000,222.061783,8438.347739
1536.337078,536.266849,-518.144159,9104.533087
1536.337396,-306.438199,-1406.391290,9548.656652
1536.337713,-459.657299,-1332.370696,9844.739029
1536.338030,-229.828649,-1110.308913,9770.718434
1536.338347,-383.047749,-296.082377,9548.656652
1536.338664,76.609550,-592.164754,9696.697840
1536.338982,-153.219100,592.164754,9622.677246
1536.339299,0.000000,1184.329507,9400.615463
1536.339616,76.609550,1850.514855,8956.491898
1536.339933,0.000000,1850.514855,8734.430116
1536.340250,766.095498,1776.494261,8808.450710
1536.340568,919.314598,962.267725,8290.306550
1536.340885,766.095498,-666.185348,8660.409521
1536.341202,229.828649,-1332.370696,8956.491898
1536.341519,306.438199,-1406.391290,9548.656652
1536.341837,766.095498,-888.247130,9844.739029
1536.342154,383.047749,-1184.329507,9844.739029
1536.342471,0.000000,-888.247130,10214.842000
1536.342788,0.000000,-814.226536,10288.862594
1536.343105,229.828649,-0.000000,9844.739029
1536.343423,766.095498,666.185348,10140.821405
1536.343740,995.924147,814.226536,9474.636058
1536.344057,1302.362347,962.267725,9548.656652
1536.344374,1532.190996,148.041188,9252.574275
1536.344691,2221.676944,-370.102971,9474.636058
1536.345009,2528.115143,-370.102971,9252.574275
1536.345326,2374.896044,-888.247130,9474.636058
1536.345643,2451.505594,-518.144159,9474.636058
1536.345960,2681.334243,-888.247130,9918.759623
1536.346278,2145.067394,-1258.350101,9992.780217
1536.346595,2068.457845,-1110.308913,10510.924376
1536.346912,2068.457845,-148.041188,10066.800811
1536.347229,2145.067394,814.226536,9622.677246
1536.347546,2374.896044,1258.350101,8956.491898
1536.347864,1838.629195,1332.370696,9104.533087
1536.348181,1378.971896,814.226536,8734.430116
1536.348498,1225.752797,148.041188,9474.636058
1536.348815,459.657299,-222.061783,8808.450710
1536.349132,0.000000,-740.205942,9696.697840
1536.349450,0.000000,-1110.308913,9770.718434
1536.349767,-459.657299,-1332.370696,10140.821405
1536.350084,-536.266849,-1406.391290,9696.697840
1536.350401,-612.876398,-814.226536,9992.780217
1536.350719,-229.828649,-0.000000,9844.739029
1536.351036,-459.657299,740.205942,9030.512492
1536.351353,0.000000,888.247130,9030.512492
1536.351670,-459.657299,1184.329507,8512.368333
1536.351987,-689.485948,1702.473667,8438.347739
1536.352305,-229.828649,1110.308913,8216.285956
1536.352622,-229.828649,518.144159,8438.347739
1536.352939,-536.266849,148.041188,8734.430116
1536.353256,-229.828649,-592.164754,8882.471304
1536.353573,-919.314598,-888.247130,9474.636058
1536.353891,-76.609550,-1036.288319,9474.636058
1536.354208,-153.219100,-1110.308913,9252.574275
1536.354525,-306.438199,-370.102971,8808.450710
1536.354842,306.438199,-0.000000,8808.450710
1536.355160,612.876398,814.226536,8734.430116
1536.355477,76.609550,1406.391290,8512.368333
1536.355794,0.000000,1850.514855,8364.327145
1536.356111,0.000000,1554.432478,8290.306550
1536.356428,0.000000,1184.329507,9030.512492
1536.356746,76.609550,592.164754,9696.697840
1536.357063,229.828649,-0.000000,9622.677246
1536.357380,229.828649,-296.082377,9770.718434
1536.357697,459.657299,-666.185348,10214.842000
1536.358014,229.828649,-1184.329507,10066.800811
1536.358332,689.485948,-1184.329507,10584.944971
1536.358649,995.924147,-592.164754,10510.924376
1536.358966,1455.581446,-0.000000,9918.759623
1536.359283,1378.971896,740.205942,9548.656652
1536.359601,1455.581446,962.267725,9844.739029
1536.359918,1685.410096,1258.350101,9844.739029
1536.360235,1685.410096,1036.288319,9326.594869
1536.360552,1762.019645,740.205942,9548.656652
1536.360869,1762.019645,74.020594,9474.636058
1536.361187,1991.848295,-296.082377,9474.636058
1536.361504,2145.067394,-888.247130,9918.759623
1536.361821,1991.848295,-1628.453072,10658.965565
1536.362138,1762.019645,-1184.329507,10658.965565
1536.362455,2298.286494,-1036.288319,10584.944971
1536.362773,2374.896044,-0.000000,10584.944971
1536.363090,2451.505594,888.247130,10140.821405
1536.363407,2451.505594,2146.597232,8882.471304
1536.363724,2451.505594,1998.556043,8660.409521
1536.364042,2298.286494,1924.535449,8734.430116
1536.364359,2221.676944,1406.391290,8216.285956
1536.364676,1608.800546,444.123565,8808.450710
1536.364993,1225.752797,-0.000000,9474.636058
1536.365310,689.485948,-1036.288319,9548.656652
1536.365628,76.609550,-1406.391290,10066.800811
1536.365945,153.219100,-1554.432478,10658.965565
1536.366262,306.438199,-666.185348,9770.718434
1536.366579,0.000000,-148.041188,9770.718434
1536.366896,459.657299,296.082377,9622.677246
1536.367214,306.438199,1110.308913,9104.533087
1536.367531,383.047749,1332.370696,9030.512492
1536.367848,383.047749,1480.411884,9030.512492
1536.368165,459.657299,1628.453072,8364.327145
1536.368483,229.828649,1406.391290,8290.306550
1536.368800,0.000000,962.267725,8882.471304
1536.369117,-306.438199,370.102971,9030.512492
1536.369434,-306.438199,-148.041188,8808.450710
1536.369751,-306.438199,-1110.308913,9622.677246
1536.370069,-689.485948,-1036.288319,9696.697840
1536.370386,-383.047749,-1406.391290,9474.636058
1536.370703,-612.876398,-444.123565,9992.780217
1536.371020,-383.047749,518.144159,9474.636058
1536.371337,-459.657299,1776.494261,8882.471304
1536.371655,-229.828649,2294.638420,8438.347739
1536.371972,-153.219100,2368.659014,8512.368333
1536.372289,0.000000,1998.556043,8290.306550
1536.372606,76.609550,1702.473667,8808.450710
1536.372924,229.828649,814.226536,8956.491898
1536.373241,536.266849,74.020594,9326.594869
1536.373558,459.657299,-962.267725,9474.636058
1536.373875,459.657299,-962.267725,9622.677246
1536.374192,229.828649,-962.267725,9474.636058
1536.374510,383.047749,-518.144159,9622.677246
1536.374827,153.219100,-0.000000,10066.800811
1536.375144,0.000000,1036.288319,9252.574275
1536.375461,536.266849,1184.329507,9252.574275
1536.375778,306.438199,1332.370696,9474.636058
1536.376096,383.047749,1332.370696,9622.677246
1536.376413,1302.362347,1184.329507,9178.553681
1536.376730,612.876398,740.205942,9548.656652
1536.377047,1072.533697,370.102971,9696.697840
1536.377365,1302.362347,-0.000000,9548.656652
1536.377682,1455.581446,-518.144159,9918.759623
1536.377999,1685.410096,-740.205942,9992.780217
1536.378316,1838.629195,-814.226536,10066.800811
1536.378633,1915.238745,-148.041188,10214.842000
1536.378951,2221.676944,222.061783,10288.862594
1536.379268,2374.896044,888.247130,9918.759623
1536.379585,2451.505594,1184.329507,9474.636058
1536.379902,2451.505594,1702.473667,9252.574275
1536.380219,2298.286494,1850.514855,8734.430116
1536.380537,2298.286494,1332.370696,8956.491898
1536.380854,2145.067394,148.041188,9474.636058
1536.381171,1685.410096,-74.020594,9622.677246
1536.381488,919.314598,-592.164754,9770.718434
1536.381806,766.095498,-740.205942,10288.862594
1536.382123,1149.143247,-814.226536,10140.821405
1536.382440,1225.752797,-666.185348,10510.924376
1536.382757,842.705048,-0.000000,10362.883188
1536.383074,1072.533697,592.164754,9918.759623
1536.383392,919.314598,1258.350101,9178.553681
1536.383709,1302.362347,1406.391290,9474.636058
1536.384026,1072.533697,1554.432478,9178.553681
1536.384343,995.924147,1702.473667,8364.327145
1536.384660,536.266849,1554.432478,8586.388927
1536.384978,536.266849,1036.288319,8734.430116
1536.385295,459.657299,370.102971,9030.512492
1536.385612,536.266849,-148.041188,9030.512492
1536.385929,0.000000,-444.123565,9474.636058
1536.386247,0.000000,-888.247130,9622.677246
1536.386564,0.000000,-888.247130,9474.636058
1536.386881,306.438199,-370.102971,9400.615463
1536.387198,459.657299,444.123565,9474.636058
1536.387515,536.266849,1406.391290,8438.347739
1536.387833,306.438199,1850.514855,8438.347739
1536.388150,229.828649,1628.453072,8512.368333
1536.388467,-153.219100,1258.350101,7920.203579
1536.388784,76.609550,1184.329507,8364.327145
1536.389102,-229.828649,592.164754,8882.471304
1536.389419,-153.219100,370.102971,9326.594869
1536.389736,0.000000,-222.061783,9474.636058
1536.390053,76.609550,-592.164754,9844.739029
1536.390370,229.828649,-740.205942,9696.697840
1536.390688,229.828649,-222.061783,9770.718434
1536.391005,536.266849,222.061783,9474.636058
1536.391322,919.314598,592.164754,9104.533087
1536.391639,1302.362347,888.247130,9252.574275
1536.391956,689.485948,1258.350101,9400.615463
1536.392274,1072.533697,1406.391290,9104.533087
1536.392591,1149.143247,1258.350101,9030.512492
1536.392908,1149.143247,592.164754,9474.636058
1536.393225,1149.143247,-0.000000,9696.697840
1536.393543,1225.752797,-444.123565,9770.718434
1536.393860,1685.410096,-888.247130,9992.780217
1536.394177,1685.410096,-962.267725,10288.862594
1536.394494,2145.067394,-592.164754,10140.821405
1536.394811,2145.067394,-0.000000,9844.739029
1536.395129,1991.848295,444.123565,9844.739029
1536.395446,1915.238745,814.226536,9474.636058
1536.395763,1532.190996,1184.329507,9474.636058
1536.396080,2221.676944,1628.453072,9400.615463
1536.396397,1532.190996,1332.370696,9474.636058
1536.396715,1455.581446,962.267725,9474.636058
1536.397032,1455.581446,370.102971,9548.656652
1536.397349,1225.752797,-148.041188,9474.636058
1536.397666,1302.362347,-592.164754,10140.821405
1536.397984,766.095498,-1036.288319,9696.697840
1536.398301,766.095498,-740.205942,9844.739029
1536.398618,766.095498,-666.185348,10066.800811
1536.398935,689.485948,-222.061783,10362.883188
1536.399252,689.485948,-0.000000,9992.780217
1536.399570,612.876398,592.164754,9400.615463
1536.399887,612.876398,888.247130,9474.636058
1536.400204,459.657299,1258.350101,9548.656652
1536.400521,383.047749,1036.288319,8882.471304
1536.400838,536.266849,814.226536,8734.430116
1536.401156,0.000000,518.144159,8808.450710
1536.401473,153.219100,-0.000000,8660.409521
1536.401790,0.000000,-518.144159,9252.574275
1536.402107,76.609550,-740.205942,9992.780217
1536.402425,0.000000,-888.247130,10066.800811
1536.402742,153.219100,-962.267725,10214.842000
1536.403059,229.828649,-370.102971,10140.821405
1536.403376,536.266849,518.144159,9474.636058
1536.403693,306.438199,1184.329507,9104.533087
1536.404011,1225.752797,1998.556043,8438.347739
1536.404328,1225.752797,1924.535449,8142.265362
1536.404645,995.924147,1554.432478,8142.265362
1536.404962,1072.533697,666.185348,8734.430116
1536.405279,1072.533697,-74.020594,9104.533087
1536.405597,919.314598,-666.185348,9326.594869
1536.405914,383.047749,-666.185348,9548.656652
1536.406231,536.266849,-1036.288319,9548.656652
1536.406548,459.657299,-740.205942,9400.615463
1536.406865,459.657299,-592.164754,9770.718434
1536.407182,919.314598,-74.020594,9770.718434
1536.407499,689.485948,296.082377,9400.615463
1536.407817,766.095498,666.185348,9622.677246
1536.408134,612.876398,814.226536,9474.636058
1536.408451,766.095498,1036.288319,9696.697840
1536.408768,459.657299,888.247130,8956.491898
1536.409085,612.876398,592.164754,9178.553681
1536.409402,919.314598,518.144159,9030.512492
1536.409720,1532.190996,-0.000000,8660.409521
1536.410037,1225.752797,-1332.370696,9770.718434
1536.410354,1302.362347,-1406.391290,10066.800811
1536.410671,1302.362347,-1184.329507,9696.697840
1536.410988,1685.410096,-518.144159,9696.697840
1536.411305,1532.190996,370.102971,9770.718434
1536.411622,1532.190996,962.267725,8808.450710
1536.411940,1532.190996,1628.453072,8734.430116
1536.412257,1149.143247,2072.576638,8512.368333
1536.412574,995.924147,1406.391290,8290.306550
1536.412891,842.705048,666.185348,9104.533087
1536.413208,229.828649,-148.041188,9474.636058
1536.413525,229.828649,-740.205942,10140.821405
1536.413842,229.828649,-1406.391290,10436.903782
1536.414160,0.000000,-1776.494261,10807.006753
1536.414477,76.609550,-1406.391290,10732.986159
1536.414794,0.000000,-666.185348,10066.800811
1536.415111,306.438199,-0.000000,10288.862594
1536.415428,536.266849,592.164754,9696.697840
1536.415745,1302.362347,1110.308913,9400.615463
1536.416063,766.095498,1258.350101,9400.615463
1536.416380,842.705048,1480.411884,9326.594869
1536.416697,1302.362347,1332.370696,8808.450710
1536.417014,1072.533697,666.185348,8734.430116
1536.417331,459.657299,222.061783,9104.533087
1536.417648,995.924147,-222.061783,9030.512492
1536.417965,919.314598,-1036.288319,9474.636058
1536.418283,689.485948,-1406.391290,9844.739029
1536.418600,612.876398,-1406.391290,10140.821405
1536.418917,459.657299,-1110.308913,10214.842000
1536.419234,536.266849,-592.164754,10288.862594
1536.419551,689.485948,148.041188,10066.800811
1536.419868,459.657299,1184.329507,9400.615463
1536.420185,689.485948,1924.535449,8734.430116
1536.420503,1072.533697,2146.597232,8586.388927
1536.420820,1072.533697,1776.494261,8290.306550
1536.421137,995.924147,814.226536,8956.491898
1536.421454,536.266849,-74.020594,9178.553681
1536.421771,612.876398,-888.247130,9400.615463
1536.422088,383.047749,-1406.391290,9992.780217
1536.422406,153.219100,-1332.370696,9992.780217
1536.422723,0.000000,-1110.308913,9696.697840
1536.423040,0.000000,-962.267725,9622.677246
1536.423357,153.219100,-148.041188,9696.697840
1536.423674,612.876398,888.247130,9326.594869
1536.423991,306.438199,1184.329507,9104.533087
1536.424308,459.657299,1332.370696,9030.512492
1536.424626,766.095498,1258.350101,8956.491898
1536.424943,229.828649,666.185348,8734.430116
1536.425260,766.095498,-0.000000,9178.553681
1536.425577,919.314598,-148.041188,9252.574275
1536.425894,1378.971896,-518.144159,9178.553681
1536.426211,995.924147,-888.247130,9400.615463
1536.426528,1072.533697,-814.226536,9474.636058
1536.426846,1378.971896,-814.226536,9252.574275
1536.427163,1532.190996,-74.020594,9548.656652
1536.427480,1685.410096,222.061783,9104.533087
1536.427797,1532.190996,518.144159,9104.533087
1536.428114,1225.752797,1258.350101,8734.430116
1536.428431,1302.362347,1480.411884,8512.368333
1536.428749,1072.533697,1406.391290,8734.430116
1536.429066,842.705048,740.205942,8660.409521
1536.429383,612.876398,296.082377,8660.409521
1536.429700,612.876398,-222.061783,9252.574275
1536.430017,229.828649,-814.226536,9474.636058
1536.430334,0.000000,-1258.350101,10140.821405
1536.430651,76.609550,-1258.350101,10066.800811
1536.430969,76.609550,-666.185348,10732.986159
1536.431286,229.828649,-518.144159,10214.842000
1536.431603,153.219100,222.061783,9770.718434
1536.431920,153.219100,1036.288319,9474.636058
1536.432237,612.876398,1702.473667,9400.615463
1536.432554,229.828649,1702.473667,9030.512492
1536.432871,306.438199,1702.473667,8882.471304
1536.433189,612.876398,888.247130,9178.553681
1536.433506,76.609550,-0.000000,9696.697840
1536.433823,306.438199,-888.247130,9622.677246
1536.434140,153.219100,-1480.411884,9992.780217
1536.434457,229.828649,-1554.432478,10436.903782
1536.434774,612.876398,-1110.308913,10288.862594
1536.435092,612.876398,-740.205942,10066.800811
1536.435409,919.314598,148.041188,9918.759623
1536.435726,1072.533697,370.102971,9030.512492
1536.436043,919.314598,962.267725,9400.615463
1536.436360,1149.143247,1554.432478,8808.450710
1536.436677,1225.752797,1258.350101,8882.471304
1536.436994,995.924147,296.082377,8586.388927
1536.437312,842.705048,-148.041188,9178.553681
1536.437629,766.095498,-518.144159,9400.615463
1536.437946,612.876398,-814.226536,9474.636058
1536.438263,383.047749,-1036.288319,9696.697840
1536.438580,612.876398,-1184.329507,10066.800811
1536.438897,536.266849,-888.247130,9770.718434
1536.439214,1149.143247,-370.102971,9696.697840
1536.439532,842.705048,296.082377,9622.677246
1536.439849,1225.752797,1036.288319,9474.636058
1536.440166,1302.362347,1480.411884,9400.615463
1536.440483,1302.362347,1554.432478,9400.615463
1536.440800,1072.533697,1480.411884,9400.615463
1536.441117,612.876398,1332.370696,8956.491898
1536.441435,919.314598,592.164754,9178.553681
1536.441752,1072.533697,666.185348,8956.491898
1536.442069,1149.143247,222.061783,8660.409521
1536.442386,1149.143247,-888.247130,9474.636058
1536.442703,689.485948,-814.226536,9844.739029
1536.443020,766.095498,-1406.391290,10362.883188
1536.443337,383.047749,-814.226536,10288.862594
1536.443655,536.266849,-0.000000,10288.862594
1536.443972,306.438199,740.205942,9770.718434
1536.444289,459.657299,1776.494261,9696.697840
1536.444606,459.657299,1776.494261,9252.574275
1536.444923,689.485948,1924.535449,8438.347739
1536.445240,306.438199,1480.411884,8512.368333
1536.445557,689.485948,814.226536,8660.409521
1536.445875,612.876398,-0.000000,8956.491898
1536.446192,229.828649,-666.185348,9030.512492
1536.446509,153.219100,-1184.329507,9770.718434
1536.446826,0.000000,-1110.308913,9622.677246
1536.447143,-229.828649,-1036.288319,9696.697840
1536.447460,383.047749,-222.061783,9992.780217
1536.447777,612.876398,814.226536,9548.656652
1536.448095,76.609550,1406.391290,9030.512492
1536.448412,153.219100,1480.411884,9252.574275
1536.448729,612.876398,2072.576638,9030.512492
1536.449046,1225.752797,1998.556043,8512.368333
1536.449363,842.705048,1628.453072,8364.327145
1536.449680,689.485948,1036.288319,8956.491898
1536.449998,842.705048,444.123565,9104.533087
1536.450315,919.314598,-666.185348,9548.656652
1536.450632,1072.533697,-1480.411884,10362.883188
1536.450949,1378.971896,-1406.391290,10510.924376
1536.451266,1685.410096,-592.164754,9844.739029
1536.451583,1915.238745,-0.000000,9844.739029
1536.451900,1915.238745,592.164754,9474.636058
1536.452218,1838.629195,1628.453072,8734.430116
1536.452535,1838.629195,2146.597232,8438.347739
1536.452852,1608.800546,2072.576638,8438.347739
1536.453169,1762.019645,1480.411884,8956.491898
1536.453486,1532.190996,666.185348,9178.553681
1536.453803,919.314598,-222.061783,9622.677246
1536.454120,995.924147,-1258.350101,10214.842000
1536.454438,536.266849,-1702.473667,10066.800811
1536.454755,1149.143247,-1628.453072,10510.924376
1536.455072,1225.752797,-1406.391290,9770.718434
1536.455389,766.095498,-1110.308913,10140.821405
1536.455706,919.314598,-148.041188,10066.800811
1536.456023,766.095498,444.123565,9844.739029
1536.456341,1762.019645,888.247130,9844.739029
1536.456658,1149.143247,1332.370696,9622.677246
1536.456975,1225.752797,1628.453072,9400.615463
1536.457292,1378.971896,1554.432478,8808.450710
1536.457609,1455.581446,1258.350101,8734.430116
1536.457926,1455.581446,814.226536,8734.430116
1536.458243,1915.238745,-0.000000,8512.368333
1536.458561,1991.848295,-444.123565,8882.471304
1536.458878,1838.629195,-888.247130,9474.636058
1536.459195,1302.362347,-962.267725,9474.636058
1536.459512,1378.971896,-888.247130,9770.718434
1536.459829,1225.752797,-0.000000,9696.697840
1536.460146,1072.533697,1406.391290,8882.471304
1536.460463,766.095498,2146.597232,8586.388927
1536.460781,689.485948,2368.659014,8068.244768
1536.461098,995.924147,2368.659014,7920.203579
1536.461415,383.047749,1480.411884,8068.244768
1536.461732,0.000000,666.185348,8734.430116
1536.462049,-536.266849,-222.061783,9104.533087
1536.462366,-1072.533697,-592.164754,9622.677246
1536.462684,-1149.143247,-1110.308913,10436.903782
1536.463001,-1608.800546,-1110.308913,9992.780217
1536.463318,-1915.238745,-592.164754,10066.800811
1536.463635,-1608.800546,-0.000000,10140.821405
1536.463952,-1455.581446,1110.308913,9992.780217
1536.464269,-766.095498,1332.370696,9622.677246
1536.464586,-919.314598,1258.350101,9696.697840
1536.464904,-612.876398,1776.494261,9252.574275
1536.465221,-689.485948,1702.473667,8882.471304
1536.465538,-383.047749,1184.329507,9030.512492
1536.465855,-306.438199,740.205942,9548.656652
1536.466172,229.828649,222.061783,9696.697840
1536.466489,536.266849,-370.102971,9696.697840
1536.466806,919.314598,-1110.308913,10584.944971
1536.467124,1608.800546,-1332.370696,10140.821405
1536.467441,1608.800546,-666.185348,10288.862594
1536.467758,2221.676944,-0.000000,10140.821405
1536.468075,2221.676944,1036.288319,9844.739029
1536.468392,2374.896044,1628.453072,9178.553681
1536.468709,2145.067394,2146.597232,8660.409521
1536.469027,2068.457845,2516.700203,8438.347739
1536.469344,2221.676944,1776.494261,8808.450710
1536.469661,1762.019645,740.205942,9030.512492
1536.469978,1608.800546,-0.000000,9696.697840
1536.470295,1608.800546,-1110.308913,10066.800811
1536.470612,459.657299,-1628.453072,10214.842000
1536.470929,995.924147,-1480.411884,10584.944971
1536.471247,689.485948,-1628.453072,10362.883188
1536.471564,1072.533697,-592.164754,10436.903782
1536.471881,1302.362347,-148.041188,10140.821405
1536.472198,1455.581446,888.247130,9474.636058
1536.472515,1532.190996,1184.329507,9178.553681
1536.472832,1455.581446,1332.370696,9252.574275
1536.473149,1149.143247,888.247130,8438.347739
1536.473467,1225.752797,592.164754,8882.471304
1536.473784,1149.143247,148.041188,8882.471304
1536.474101,1532.190996,-222.061783,9326.594869
1536.474418,1838.629195,-370.102971,9178.553681
1536.474735,2451.505594,-888.247130,9770.718434
1536.475052,2221.676944,-962.267725,9622.677246
1536.475370,2221.676944,-296.082377,9178.553681
1536.475687,2374.896044,-0.000000,9104.533087
1536.476004,2145.067394,444.123565,8660.409521
1536.476321,2145.067394,1110.308913,8438.347739
1536.476638,1608.800546,1554.432478,8438.347739
1536.476955,1455.581446,1628.453072,8216.285956
1536.477272,995.924147,1480.411884,8512.368333
1536.477590,536.266849,740.205942,8586.388927
1536.477907,536.266849,-0.000000,9474.636058
1536.478224,306.438199,-666.185348,9326.594869
1536.478541,0.000000,-1184.329507,9844.739029
1536.478858,0.000000,-1036.288319,9992.780217
1536.479175,-459.657299,-814.226536,9474.636058
1536.479492,-306.438199,-370.102971,9696.697840
1536.479810,0.000000,444.123565,9992.780217
1536.480127,0.000000,1184.329507,9178.553681
1536.480444,0.000000,1702.473667,8660.409521
1536.480761,0.000000,1850.514855,8882.471304
1536.481078,-383.047749,1776.494261,8586.388927
1536.481395,-459.657299,1110.308913,8438.347739
1536.481712,-919.314598,740.205942,9252.574275
1536.482030,-1225.752797,-222.061783,9622.677246
1536.482347,-1225.752797,-888.247130,9918.759623
1536.482664,-1378.971896,-1406.391290,10214.842000
1536.482981,-1378.971896,-1480.411884,11325.150913
1536.483298,-1225.752797,-1258.350101,10510.924376
1536.483615,0.000000,-592.164754,10732.986159
1536.483933,-306.438199,-0.000000,10288.862594
1536.484250,0.000000,888.247130,9918.759623
1536.484567,383.047749,1554.432478,9104.533087
1536.484884,1072.533697,1850.514855,8956.491898
1536.485201,1225.752797,1480.411884,8734.430116
1536.485518,1378.971896,888.247130,8660.409521
1536.485835,1532.190996,370.102971,9178.553681
1536.486153,1455.581446,-222.061783,9548.656652
1536.486470,1378.971896,-666.185348,9770.718434
1536.486787,1915.238745,-1184.329507,10288.862594
1536.487104,1149.143247,-1554.432478,10140.821405
1536.487421,1302.362347,-1258.350101,10214.842000
1536.487738,1072.533697,-814.226536,10288.862594
1536.488055,1838.629195,-222.061783,10436.903782
1536.488373,1378.971896,296.082377,10066.800811
1536.488690,2068.457845,1036.288319,9844.739029
1536.489007,2221.676944,1258.350101,10066.800811
1536.489324,2604.724693,1258.350101,9474.636058
1536.489641,3064.381992,1036.288319,9326.594869
1536.489958,2757.943793,444.123565,9030.512492
1536.490276,3217.601092,370.102971,8512.368333
1536.490593,3370.820191,-74.020594,8290.306550
1536.490910,3064.381992,-444.123565,8734.430116
1536.491227,3447.429741,-1110.308913,9474.636058
1536.491544,2528.115143,-962.267725,9400.615463
1536.491861,1991.848295,-666.185348,9548.656652
1536.492178,1532.190996,-148.041188,9474.636058
1536.492496,1225.752797,666.185348,9474.636058
1536.492813,612.876398,962.267725,8956.491898
1536.493130,306.438199,1110.308913,9030.512492
1536.493447,-306.438199,592.164754,8808.450710
1536.493764,-766.095498,814.226536,9104.533087
1536.494081,-689.485948,-0.000000,9474.636058
1536.494398,-383.047749,-666.185348,9622.677246
1536.494716,-842.705048,-1110.308913,9844.739029
1536.495033,-995.924147,-1036.288319,9992.780217
1536.495350,-766.095498,-740.205942,9548.656652
1536.495667,0.000000,-444.123565,9400.615463
1536.495984,0.000000,-74.020594,9326.594869
1536.496301,459.657299,1036.288319,8734.430116
1536.496619,0.000000,962.267725,8512.368333
1536.496936,229.828649,1036.288319,8734.430116
1536.497253,229.828649,962.267725,8512.368333
1536.497570,306.438199,814.226536,8068.244768
1536.497887,0.000000,740.205942,8216.285956
1536.498204,76.609550,222.061783,8808.450710
1536.498521,76.609550,-370.102971,8956.491898
1536.498839,76.609550,-666.185348,9548.656652
1536.499156,459.657299,-1110.308913,10214.842000
1536.499473,229.828649,-740.205942,9622.677246
1536.499790,612.876398,-740.205942,10140.821405
1536.500107,306.438199,-74.020594,10066.800811
1536.500424,76.609550,370.102971,10140.821405
1536.500741,766.095498,1776.494261,9326.594869
1536.501059,612.876398,2220.617826,9104.533087
1536.501376,612.876398,2738.761985,8734.430116
1536.501693,689.485948,2072.576638,8660.409521
1536.502010,689.485948,1036.288319,9104.533087
1536.502327,689.485948,148.041188,9400.615463
1536.502644,842.705048,-148.041188,9770.718434
1536.502962,995.924147,-888.247130,10362.883188
1536.503279,842.705048,-1184.329507,10658.965565
1536.503596,919.314598,-1036.288319,10362.883188
1536.503913,919.314598,-592.164754,10510.924376
1536.504230,842.705048,-74.020594,10362.883188
1536.504547,919.314598,740.205942,9770.718434
1536.504864,612.876398,962.267725,9844.739029
1536.505182,919.314598,1110.308913,9696.697840
1536.505499,1378.971896,1184.329507,9548.656652
1536.505816,1302.362347,518.144159,9770.718434
1536.506133,1302.362347,-0.000000,9844.739029
1536.506450,1838.629195,-592.164754,10140.821405
1536.506767,2145.067394,-888.247130,9992.780217
1536.507084,2374.896044,-1036.288319,10288.862594
1536.507402,2451.505594,-962.267725,9770.718434
1536.507719,2451.505594,-814.226536,9474.636058
1536.508036,2374.896044,-444.123565,9326.594869
1536.508353,2374.896044,-0.000000,9400.615463
1536.508670,1915.238745,740.205942,9104.533087
1536.508987,1532.190996,1258.350101,8586.388927
1536.509305,1149.143247,962.267725,8734.430116
1536.509622,995.924147,592.164754,8808.450710
1536.509939,459.657299,296.082377,9178.553681
1536.510256,153.219100,-296.082377,9400.615463
1536.510573,0.000000,-814.226536,9474.636058
1536.510890,-229.828649,-1332.370696,9844.739029
1536.511208,-306.438199,-1184.329507,10288.862594
1536.511525,-842.705048,-962.267725,9844.739029
1536.511842,-459.657299,-888.247130,9992.780217
1536.512159,-229.828649,-0.000000,9622.677246
1536.512476,-383.047749,888.247130,9178.553681
1536.512793,-306.438199,1258.350101,8438.347739
1536.513111,-306.438199,1480.411884,8512.368333
1536.513428,-229.828649,1184.329507,8216.285956
1536.513745,-766.095498,740.205942,8290.306550
1536.514062,-842.705048,-0.000000,8882.471304
1536.514379,-689.485948,-370.102971,9104.533087
1536.514696,-1149.143247,-1036.288319,9548.656652
1536.515014,-766.095498,-1776.494261,9992.780217
1536.515331,-306.438199,-1924.535449,10214.842000
1536.515648,-229.828649,-1036.288319,9474.636058
1536.515965,-153.219100,-518.144159,9622.677246
1536.516282,536.266849,296.082377,9474.636058
1536.516599,842.705048,962.267725,9178.553681
1536.516917,842.705048,1924.535449,8216.285956
1536.517234,919.314598,1998.556043,8216.285956
1536.517551,1225.752797,1480.411884,8068.244768
1536.517868,1378.971896,1258.350101,7994.224174
1536.518185,1149.143247,518.144159,8808.450710
1536.518502,766.095498,148.041188,9474.636058
1536.518820,459.657299,-222.061783,9474.636058
1536.519137,383.047749,-666.185348,9548.656652
1536.519454,229.828649,-518.144159,9770.718434
1536.519771,76.609550,-444.123565,9918.759623
1536.520088,76.609550,-148.041188,10436.903782
1536.520405,689.485948,518.144159,10436.903782
1536.520722,459.657299,1184.329507,9622.677246
1536.521040,1149.143247,1628.453072,9770.718434
1536.521357,919.314598,2072.576638,9696.697840
1536.521674,1685.410096,2220.617826,9400.615463
1536.521991,1455.581446,1406.391290,8882.471304
1536.522308,1762.019645,962.267725,9474.636058
1536.522625,1685.410096,-0.000000,9548.656652
1536.522943,2221.676944,-592.164754,9844.739029
1536.523260,2145.067394,-888.247130,10140.821405
1536.523577,2068.457845,-962.267725,10214.842000
1536.523894,2298.286494,-370.102971,9844.739029
1536.524211,2681.334243,370.102971,9918.759623
1536.524528,2911.162892,1258.350101,10214.842000
1536.524846,2757.943793,1702.473667,9326.594869
1536.525163,2451.505594,2072.576638,8808.450710
1536.525480,2068.457845,1702.473667,8586.388927
1536.525797,2068.457845,1184.329507,8956.491898
1536.526114,1532.190996,148.041188,9326.594869
1536.526431,1225.752797,-148.041188,9474.636058
1536.526749,919.314598,-592.164754,10288.862594
1536.527066,536.266849,-666.185348,10288.862594
1536.527383,229.828649,-1332.370696,10510.924376
1536.527700,306.438199,-1258.350101,10510.924376
1536.528017,0.000000,-666.185348,10288.862594
1536.528334,383.047749,296.082377,9992.780217
1536.528652,689.485948,1110.308913,9104.533087
1536.528969,536.266849,1258.350101,9400.615463
1536.529286,306.438199,1776.494261,9252.574275
1536.529603,0.000000,1554.432478,8808.450710
1536.529920,0.000000,1036.288319,8512.368333
1536.530237,-306.438199,666.185348,8956.491898
1536.530555,-383.047749,370.102971,8882.471304
1536.530872,-229.828649,-148.041188,9104.533087
1536.531189,-919.314598,-1036.288319,9548.656652
1536.531506,-995.924147,-1702.473667,10140.821405
1536.531823,-995.924147,-1406.391290,9844.739029
1536.532140,-995.924147,-740.205942,10140.821405
1536.532458,-306.438199,-518.144159,10214.842000
1536.532775,-153.219100,518.144159,9770.718434
1536.533092,0.000000,1480.411884,9030.512492
1536.533409,0.000000,2294.638420,8438.347739
1536.533726,-229.828649,2368.659014,8216.285956
1536.534043,919.314598,1702.473667,8364.327145
1536.534361,995.924147,1036.288319,8068.244768
1536.534678,766.095498,296.082377,8438.347739
1536.534995,1072.533697,-666.185348,8734.430116
1536.535312,536.266849,-1110.308913,9326.594869
1536.535629,1072.533697,-1480.411884,9474.636058
1536.535946,689.485948,-962.267725,9474.636058
1536.536263,842.705048,-370.102971,9844.739029
1536.536581,842.705048,-0.000000,9696.697840
1536.536898,919.314598,740.205942,9178.553681
1536.537215,995.924147,1554.432478,9474.636058
1536.537532,1532.190996,1850.514855,9030.512492
1536.537849,1378.971896,1628.453072,8586.388927
1536.538166,1532.190996,1184.329507,8956.491898
1536.538484,1302.362347,740.205942,9104.533087
1536.538801,2145.067394,222.061783,8808.450710
1536.539118,2298.286494,-296.082377,9178.553681
1536.539435,2298.286494,-592.164754,9770.718434
1536.539752,2528.115143,-444.123565,9548.656652
1536.540069,1915.238745,-444.123565,9474.636058
1536.540387,2221.676944,-0.000000,9474.636058
1536.540704,2068.457845,592.164754,9622.677246
1536.541021,1455.581446,1554.432478,9326.594869
1536.541338,1532.190996,1850.514855,9474.636058
1536.541655,995.924147,1406.391290,9622.677246
1536.541972,919.314598,1036.288319,9548.656652
1536.542290,766.095498,518.144159,9770.718434
1536.542607,306.438199,-0.000000,9918.759623
1536.542924,459.657299,-518.144159,10288.862594
1536.543241,383.047749,-962.267725,9844.739029
1536.543558,536.266849,-666.185348,10214.842000
1536.543875,383.047749,-740.205942,9992.780217
1536.544193,689.485948,-444.123565,9992.780217
1536.544510,919.314598,296.082377,10140.821405
1536.544827,689.485948,814.226536,9548.656652
1536.545144,536.266849,1406.391290,9474.636058
1536.545461,153.219100,1554.432478,9474.636058
1536.545778,306.438199,1332.370696,9548.656652
1536.546096,76.609550,1036.288319,9104.533087
1536.546413,153.219100,444.123565,9770.718434
1536.546730,0.000000,-0.000000,9770.718434
1536.547047,0.000000,-888.247130,10066.800811
1536.547364,229.828649,-1258.350101,10732.986159
1536.547681,229.828649,-1554.432478,10807.006753
1536.547999,612.876398,-1036.288319,10584.944971
1536.548316,1072.533697,-444.123565,10214.842000
1536.548633,1455.581446,740.205942,9844.739029
1536.548950,1838.629195,1776.494261,9326.594869
1536.549267,1608.800546,2294.638420,7994.224174
1536.549584,1378.971896,2220.617826,7846.182985
1536.549902,1455.581446,2146.597232,7698.141797
1536.550219,1072.533697,1258.350101,8216.285956
1536.550536,383.047749,296.082377,8808.450710
1536.550853,-229.828649,-296.082377,9252.574275
1536.551170,-536.266849,-962.267725,9844.739029
1536.551487,-1225.752797,-1184.329507,10066.800811
1536.551804,-1608.800546,-1628.453072,10362.883188
1536.552122,-1991.848295,-1480.411884,10436.903782
1536.552439,-1302.362347,-444.123565,10658.965565
1536.552756,-842.705048,-0.000000,10288.862594
1536.553073,-766.095498,666.185348,9992.780217
1536.553390,306.438199,1258.350101,10140.821405
1536.553707,459.657299,1998.556043,9400.615463
1536.554025,1072.533697,2516.700203,7994.224174
1536.554342,1685.410096,2294.638420,7772.162391
1536.554659,2145.067394,1924.535449,7846.182985
1536.554976,2451.505594,888.247130,7476.080014
1536.555293,2451.505594,-148.041188,8216.285956
1536.555610,2298.286494,-1110.308913,8882.471304
1536.555928,1991.848295,-1702.473667,9252.574275
1536.556245,1762.019645,-1628.453072,9252.574275
1536.556562,1455.581446,-888.247130,9844.739029
1536.556879,1302.362347,-74.020594,9844.739029
1536.557196,1378.971896,1036.288319,9030.512492
1536.557513,1378.971896,2294.638420,8586.388927
1536.557831,1608.800546,1998.556043,8734.430116
1536.558148,1378.971896,1406.391290,8438.347739
1536.558465,995.924147,592.164754,9326.594869
1536.558782,1149.143247,-592.164754,9770.718434
1536.559099,842.705048,-1406.391290,10362.883188
1536.559416,995.924147,-1332.370696,10881.027347
1536.559734,1225.752797,-1628.453072,10807.006753
1536.560051,1608.800546,-1036.288319,10436.903782
1536.560368,1915.238745,-444.123565,9622.677246
1536.560685,2221.676944,666.185348,9252.574275
1536.561002,2987.772442,592.164754,9178.553681
1536.561319,2145.067394,1258.350101,8660.409521
1536.561637,2068.457845,1554.432478,8586.388927
1536.561954,1685.410096,1406.391290,8364.327145
1536.562271,842.705048,444.123565,8956.491898
1536.562588,1072.533697,-222.061783,9696.697840
1536.562905,229.828649,-444.123565,9252.574275
1536.563222,229.828649,-666.185348,9474.636058
1536.563540,0.000000,-1110.308913,9918.759623
1536.563857,0.000000,-2146.597232,10732.986159
1536.564174,-383.047749,-2368.659014,10881.027347
1536.564491,0.000000,-1702.473667,11103.089130
1536.564808,0.000000,-370.102971,10362.883188
1536.565125,0.000000,1036.288319,9992.780217
1536.565442,383.047749,2368.659014,8956.491898
1536.565760,459.657299,2960.823768,8290.306550
1536.566077,0.000000,2886.803174,8216.285956
1536.566394,229.828649,1554.432478,8364.327145
1536.566711,0.000000,1036.288319,8512.368333
1536.567028,383.047749,-74.020594,8660.409521
1536.567345,-536.266849,-1258.350101,9474.636058
1536.567663,-536.266849,-1998.556043,10214.842000
1536.567980,-995.924147,-2220.617826,10288.862594
1536.568297,-1072.533697,-1998.556043,10066.800811
1536.568614,-536.266849,-592.164754,10288.862594
1536.568931,-306.438199,592.164754,9918.759623
1536.569248,229.828649,1110.308913,9400.615463
1536.569566,76.609550,1480.411884,9622.677246
1536.569883,229.828649,1258.350101,9474.636058
1536.570200,0.000000,1702.473667,9252.574275
1536.570517,1072.533697,1850.514855,8882.471304
1536.570834,1225.752797,1036.288319,9030.512492
1536.571151,1685.410096,814.226536,8438.347739
1536.571469,1685.410096,-74.020594,8882.471304
1536.571786,1532.190996,-1184.329507,9844.739029
1536.572103,2068.457845,-2072.576638,10510.924376
1536.572420,1838.629195,-962.267725,9696.697840
1536.572737,2068.457845,-814.226536,10140.821405
1536.573054,1838.629195,592.164754,9474.636058
1536.573372,1991.848295,1258.350101,8290.306550
1536.573689,1762.019645,2146.597232,7920.203579
1536.574006,1915.238745,2220.617826,8142.265362
1536.574323,1455.581446,2072.576638,7846.182985
1536.574640,1302.362347,814.226536,8512.368333
1536.574957,536.266849,-0.000000,9474.636058
1536.575275,383.047749,-1036.288319,10510.924376
1536.575592,153.219100,-1776.494261,10732.986159
1536.575909,229.828649,-1480.411884,10881.027347
1536.576226,76.609550,-1258.350101,10140.821405
1536.576543,766.095498,-222.061783,10140.821405
1536.576860,1072.533697,888.247130,9622.677246
1536.577178,1302.362347,1184.329507,8808.450710
1536.577495,1455.581446,1776.494261,8512.368333
1536.577812,536.266849,1850.514855,8438.347739
1536.578129,995.924147,1776.494261,8512.368333
1536.578446,536.266849,1036.288319,8660.409521
1536.578763,0.000000,74.020594,9326.594869
1536.579081,383.047749,-222.061783,9918.759623
1536.579398,153.219100,-888.247130,9918.759623
1536.579715,306.438199,-1332.370696,10066.800811
1536.580032,459.657299,-1332.370696,10436.903782
1536.580349,383.047749,-1036.288319,10584.944971
1536.580666,842.705048,-592.164754,9992.780217
1536.580983,842.705048,-0.000000,10140.821405
1536.581301,766.095498,888.247130,9548.656652
1536.581618,842.705048,1702.473667,9474.636058
1536.581935,1149.143247,1924.535449,9030.512492
1536.582252,1302.362347,2368.659014,8660.409521
1536.582569,1149.143247,1628.453072,8734.430116
1536.582886,1378.971896,888.247130,9104.533087
1536.583204,919.314598,-74.020594,9030.512492
1536.583521,919.314598,-1406.391290,9474.636058
1536.583838,689.485948,-1628.453072,9992.780217
1536.584155,536.266849,-1406.391290,9696.697840
1536.584472,536.266849,-1184.329507,9844.739029
1536.584789,612.876398,-1110.308913,10584.944971
1536.585107,0.000000,-0.000000,10214.842000
1536.585424,0.000000,666.185348,9548.656652
1536.585741,0.000000,1332.370696,9400.615463
1536.586058,229.828649,1480.411884,9326.594869
1536.586375,76.609550,1258.350101,8808.450710
1536.586692,459.657299,370.102971,9178.553681
1536.587010,306.438199,592.164754,9252.574275
1536.587327,612.876398,-0.000000,8808.450710
1536.587644,919.314598,-740.205942,9696.697840
1536.587961,766.095498,-1258.350101,9844.739029
1536.588278,995.924147,-1258.350101,10066.800811
1536.588595,919.314598,-814.226536,9252.574275
1536.588913,1225.752797,-0.000000,9918.759623
1536.589230,1072.533697,888.247130,8882.471304
1536.589547,1455.581446,1554.432478,8438.347739
1536.589864,842.705048,1702.473667,8586.388927
1536.590181,919.314598,1480.411884,8808.450710
1536.590498,459.657299,962.267725,8586.388927
1536.590816,76.609550,518.144159,9474.636058
1536.591133,229.828649,-518.144159,9992.780217
1536.591450,459.657299,-814.226536,10214.842000
1536.591767,153.219100,-1184.329507,9844.739029
1536.592084,536.266849,-1332.370696,10584.944971
1536.592401,919.314598,-1036.288319,9548.656652
1536.592719,1915.238745,-444.123565,9844.739029
1536.593036,1762.019645,148.041188,9474.636058
1536.593353,2068.457845,1036.288319,8660.409521
1536.593670,1915.238745,1480.411884,8142.265362
1536.593987,1685.410096,1628.453072,8512.368333
1536.594304,1455.581446,1998.556043,8660.409521
1536.594622,919.314598,1554.432478,9178.553681
1536.594939,612.876398,666.185348,8734.430116
1536.595256,612.876398,-0.000000,9104.533087
1536.595573,229.828649,-888.247130,9474.636058
1536.595890,306.438199,-1776.494261,10658.965565
1536.596207,229.828649,-1628.453072,10510.924376
1536.596524,612.876398,-888.247130,10066.800811
1536.596842,612.876398,-222.061783,10214.842000
1536.597159,1302.362347,592.164754,9696.697840
1536.597476,919.314598,1184.329507,9252.574275
1536.597793,459.657299,2294.638420,8660.409521
1536.598110,1072.533697,2812.782580,8364.327145
1536.598427,766.095498,2738.761985,7772.162391
1536.598745,536.266849,1850.514855,8216.285956
1536.599062,612.876398,740.205942,8734.430116
1536.599379,153.219100,222.061783,9252.574275
1536.599696,0.000000,-592.164754,9474.636058
1536.600013,0.000000,-518.144159,9844.739029
1536.600330,0.000000,-666.185348,9696.697840
1536.600648,-383.047749,-518.144159,9696.697840
1536.600965,-842.705048,-592.164754,9992.780217
1536.601282,-459.657299,-0.000000,10066.800811
1536.601599,-612.876398,962.267725,9622.677246
1536.601916,-229.828649,1702.473667,9326.594869
1536.602233,76.609550,2294.638420,8882.471304
1536.602551,536.266849,1998.556043,8956.491898
1536.602868,536.266849,1480.411884,8956.491898
1536.603185,689.485948,370.102971,9548.656652
1536.603502,766.095498,-444.123565,9474.636058
1536.603819,1685.410096,-518.144159,9696.697840
1536.604136,1378.971896,-962.267725,9992.780217
1536.604454,1378.971896,-1110.308913,10362.883188
1536.604771,1149.143247,-666.185348,9696.697840
1536.605088,1302.362347,-222.061783,10362.883188
1536.605406,1532.190996,666.185348,9918.759623
1536.605723,1991.848295,1776.494261,9178.553681
1536.606041,1991.848295,2146.597232,8956.491898
1536.606358,1455.581446,1850.514855,9104.533087
1536.606675,1149.143247,592.164754,9992.780217
1536.606992,842.705048,-296.082377,9622.677246
1536.607310,1149.143247,-444.123565,10288.862594
1536.607627,995.924147,-518.144159,10436.903782
1536.607944,842.705048,-740.205942,10362.883188
1536.608261,1225.752797,-1406.391290,10140.821405
1536.608579,842.705048,-1480.411884,10881.027347
1536.608896,995.924147,-1110.308913,10807.006753
1536.609213,919.314598,-74.020594,9992.780217
1536.609531,1455.581446,888.247130,9178.553681
1536.609848,1532.190996,1480.411884,8956.491898
1536.610165,1072.533697,1554.432478,8882.471304
1536.610482,1302.362347,962.267725,8586.388927
1536.610800,995.924147,1036.288319,8438.347739
1536.611117,919.314598,148.041188,8660.409521
1536.611434,1072.533697,-0.000000,8586.388927
1536.611751,919.314598,-1184.329507,9104.533087
1536.612069,459.657299,-1924.535449,9696.697840
1536.612386,612.876398,-1924.535449,9844.739029
1536.612703,306.438199,-1332.370696,9104.533087
1536.613021,766.095498,-74.020594,9104.533087
1536.613338,689.485948,888.247130,8660.409521
1536.613655,766.095498,1258.350101,7846.182985
1536.613972,612.876398,1110.308913,8586.388927
1536.614290,842.705048,1332.370696,8438.347739
1536.614607,689.485948,1110.308913,8290.306550
1536.614924,842.705048,1184.329507,8512.368333
1536.615241,995.924147,370.102971,8660.409521
1536.615559,536.266849,444.123565,8586.388927
1536.615876,306.438199,-592.164754,8438.347739
1536.616193,153.219100,-740.205942,8956.491898
1536.616511,689.485948,-1332.370696,9474.636058
1536.616828,842.705048,-1184.329507,10584.944971
1536.617145,229.828649,-592.164754,9918.759623
1536.617462,153.219100,-0.000000,9622.677246
1536.617780,153.219100,814.226536,9030.512492
1536.618097,689.485948,1998.556043,9400.615463
1536.618414,459.657299,2072.576638,8808.450710
1536.618732,229.828649,1776.494261,8586.388927
1536.619049,0.000000,1332.370696,9104.533087
1536.619366,306.438199,-0.000000,9844.739029
1536.619683,842.705048,-740.205942,10066.800811
1536.620001,689.485948,-2072.576638,10732.986159
1536.620318,459.657299,-962.267725,10658.965565
1536.620635,1149.143247,-814.226536,10658.965565
1536.620952,1455.581446,370.102971,9770.718434
1536.621270,2068.457845,814.226536,9696.697840
1536.621587,1455.581446,1702.473667,9178.553681
1536.621904,1685.410096,1702.473667,8882.471304
1536.622222,1838.629195,1998.556043,8956.491898
1536.622539,1455.581446,1554.432478,8956.491898
1536.622856,1378.971896,1036.288319,9548.656652
1536.623173,919.314598,1258.350101,9252.574275
1536.623491,1302.362347,222.061783,9548.656652
1536.623808,0.000000,-814.226536,9696.697840
1536.624125,76.609550,-1776.494261,11177.109724
1536.624442,612.876398,-888.247130,11843.295072
1536.624760,842.705048,-222.061783,10214.842000
1536.625077,459.657299,740.205942,9918.759623
1536.625394,76.609550,1258.350101,9696.697840
1536.625712,306.438199,1554.432478,9696.697840
1536.626029,1149.143247,962.267725,9918.759623
1536.626346,919.314598,1480.411884,10066.800811
1536.626663,306.438199,1776.494261,9178.553681
1536.626981,689.485948,2220.617826,9326.594869
1536.627298,1225.752797,1628.453072,8808.450710
1536.627615,1532.190996,222.061783,8808.450710
1536.627932,919.314598,-518.144159,8956.491898
1536.628250,612.876398,-1258.350101,10288.862594
1536.628567,1149.143247,-1406.391290,10436.903782
1536.628884,995.924147,-1036.288319,10214.842000
1536.629202,1225.752797,-962.267725,10955.047942
1536.629519,689.485948,444.123565,10510.924376
1536.629836,1225.752797,1554.432478,8956.491898
1536.630153,1378.971896,1998.556043,7550.100608
1536.630471,1378.971896,2220.617826,8364.327145
1536.630788,1149.143247,1480.411884,8216.285956
1536.631105,919.314598,1110.308913,8216.285956
1536.631422,1225.752797,-296.082377,9030.512492
1536.631740,383.047749,-592.164754,9400.615463
1536.632057,536.266849,-1110.308913,9474.636058
1536.632374,383.047749,-666.185348,9178.553681
1536.632692,612.876398,-740.205942,9104.533087
1536.633009,153.219100,-1110.308913,9474.636058
1536.633326,-306.438199,-296.082377,9474.636058
1536.633643,-153.219100,296.082377,9474.636058
1536.633961,153.219100,1184.329507,8290.306550
1536.634278,76.609550,1036.288319,8512.368333
1536.634595,-229.828649,740.205942,9252.574275
1536.634913,-536.266849,-0.000000,9326.594869
1536.635230,-842.705048,-0.000000,9474.636058
1536.635547,306.438199,-0.000000,9696.697840
1536.635864,0.000000,-148.041188,9326.594869
1536.636182,536.266849,-888.247130,9326.594869
1536.636499,76.609550,-1258.350101,8808.450710
1536.636816,612.876398,-1628.453072,9252.574275
1536.637133,1225.752797,-1702.473667,10066.800811
1536.637451,1149.143247,-222.061783,9770.718434
1536.637768,1532.190996,370.102971,9548.656652
1536.638085,689.485948,1036.288319,8956.491898
1536.638403,1149.143247,740.205942,8808.450710
1536.638720,1225.752797,1184.329507,8586.388927
1536.639037,1149.143247,592.164754,8586.388927
1536.639354,612.876398,592.164754,9104.533087
1536.639672,842.705048,-592.164754,9474.636058
1536.639989,536.266849,-962.267725,10584.944971
1536.640306,306.438199,-2072.576638,10658.965565
1536.640623,229.828649,-2072.576638,11029.068536
1536.640941,766.095498,-1406.391290,10881.027347
1536.641258,842.705048,-0.000000,10288.862594
1536.641575,1915.238745,888.247130,9918.759623
1536.641893,1685.410096,1554.432478,8808.450710
1536.642210,1762.019645,1554.432478,9104.533087
1536.642527,2145.067394,1406.391290,8808.450710
1536.642844,1915.238745,1924.535449,8068.244768
1536.643162,1532.190996,1332.370696,8438.347739
1536.643479,1378.971896,1184.329507,8956.491898
1536.643796,995.924147,148.041188,9474.636058
1536.644113,1225.752797,-740.205942,10658.965565
1536.644431,306.438199,-1998.556043,10510.924376
1536.644748,536.266849,-1480.411884,10584.944971
1536.645065,689.485948,-740.205942,10066.800811
1536.645383,766.095498,-148.041188,10066.800811
1536.645700,153.219100,370.102971,9548.656652
1536.646017,229.828649,1480.411884,9178.553681
1536.646334,0.000000,1776.494261,8808.450710
1536.646652,612.876398,2368.659014,8808.450710
1536.646969,766.095498,2442.679609,8660.409521
1536.647286,306.438199,1184.329507,8956.491898
1536.647604,-383.047749,-0.000000,9474.636058
1536.647921,-459.657299,-1258.350101,10214.842000
1536.648238,0.000000,-1406.391290,10436.903782
1536.648555,0.000000,-1850.514855,10362.883188
1536.648873,0.000000,-666.185348,9622.677246
1536.649190,153.219100,222.061783,9696.697840
1536.649507,76.609550,74.020594,8956.491898
1536.649824,-153.219100,592.164754,9474.636058
1536.650142,229.828649,1406.391290,10140.821405
1536.650459,766.095498,2072.576638,9104.533087
1536.650776,1149.143247,2738.761985,8290.306550
1536.651094,1149.143247,1628.453072,8734.430116
1536.651411,536.266849,1110.308913,8734.430116
1536.651728,919.314598,-0.000000,9326.594869
1536.652045,1608.800546,-592.164754,8956.491898
1536.652363,1608.800546,-740.205942,9548.656652
1536.652680,1302.362347,-518.144159,9770.718434
1536.652997,1685.410096,-962.267725,10362.883188
1536.653314,1455.581446,-370.102971,10288.862594
1536.653632,1378.971896,148.041188,10140.821405
1536.653949,842.705048,1406.391290,9030.512492
1536.654266,1378.971896,2442.679609,8882.471304
1536.654584,2374.896044,2590.720797,8290.306550
1536.654901,1455.581446,1628.453072,8068.244768
1536.655218,1225.752797,518.144159,8216.285956
1536.655535,842.705048,-518.144159,9548.656652
1536.655853,766.095498,-1036.288319,9622.677246
1536.656170,1072.533697,-1332.370696,9474.636058
1536.656487,306.438199,-888.247130,10140.821405
1536.656804,-229.828649,-1332.370696,10140.821405
1536.657122,-229.828649,-1110.308913,10140.821405
1536.657439,-153.219100,-1036.288319,10510.924376
1536.657756,229.828649,-74.020594,10510.924376
1536.658074,536.266849,1406.391290,9104.533087
1536.658391,612.876398,1850.514855,8438.347739
1536.658708,995.924147,1406.391290,9252.574275
1536.659025,536.266849,1184.329507,8734.430116
1536.659343,153.219100,518.144159,8956.491898
1536.659660,153.219100,-148.041188,9622.677246
1536.659977,306.438199,-370.102971,9474.636058
1536.660295,536.266849,-666.185348,9474.636058
1536.660612,306.438199,-1332.370696,10436.903782
1536.660929,229.828649,-1628.453072,10066.800811
1536.661246,306.438199,-888.247130,9696.697840
1536.661564,689.485948,-0.000000,9918.759623
1536.661881,842.705048,740.205942,9770.718434
1536.662198,1072.533697,1332.370696,8438.347739
1536.662515,766.095498,1776.494261,8290.306550
1536.662833,536.266849,1628.453072,8512.368333
1536.663150,536.266849,1110.308913,9252.574275
1536.663467,612.876398,666.185348,9326.594869
1536.663785,536.266849,444.123565,9770.718434
1536.664102,459.657299,-444.123565,9104.533087
1536.664419,76.609550,-888.247130,9992.780217
1536.664736,383.047749,-1628.453072,9844.739029
1536.665054,383.047749,-1480.411884,9992.780217
1536.665371,919.314598,-1628.453072,9696.697840
1536.665688,536.266849,-0.000000,10214.842000
1536.666005,842.705048,444.123565,9622.677246
1536.666323,1225.752797,814.226536,9252.574275
1536.666640,306.438199,1258.350101,9178.553681
1536.666957,766.095498,1258.350101,9622.677246
1536.667275,919.314598,1628.453072,8734.430116
1536.667592,1762.019645,1036.288319,9104.533087
1536.667909,1378.971896,370.102971,8586.388927
1536.668226,1608.800546,-296.082377,9030.512492
1536.668544,1838.629195,-1480.411884,9400.615463
1536.668861,2298.286494,-1776.494261,10066.800811
1536.669178,1915.238745,-1628.453072,10066.800811
1536.669495,2068.457845,-814.226536,10436.903782
1536.669813,1762.019645,148.041188,10288.862594
1536.670130,2221.676944,1406.391290,9030.512492
1536.670447,2068.457845,2442.679609,8142.265362
1536.670765,1532.190996,2590.720797,7772.162391
1536.671082,1378.971896,2516.700203,7254.018232
1536.671399,1378.971896,1776.494261,7772.162391
1536.671716,919.314598,444.123565,8808.450710
1536.672034,459.657299,-296.082377,9918.759623
1536.672351,-229.828649,-1332.370696,9918.759623
1536.672668,-306.438199,-1184.329507,10362.883188
1536.672986,-153.219100,-1184.329507,10288.862594
1536.673303,-153.219100,-962.267725,10066.800811
1536.673620,-612.876398,74.020594,9548.656652
1536.673937,0.000000,1184.329507,9178.553681
1536.674255,76.609550,1776.494261,8660.409521
1536.674572,229.828649,1628.453072,8808.450710
1536.674889,-153.219100,2146.597232,8734.430116
1536.675206,0.000000,1998.556043,8512.368333
1536.675524,-306.438199,1628.453072,8364.327145
1536.675841,-153.219100,-0.000000,9474.636058
1536.676158,-229.828649,-0.000000,9474.636058
1536.676476,153.219100,-814.226536,9992.780217
1536.676793,0.000000,-1036.288319,9992.780217
1536.677110,229.828649,-1628.453072,10362.883188
1536.677427,306.438199,-1332.370696,10436.903782
1536.677745,76.609550,-666.185348,10955.047942
1536.678062,612.876398,518.144159,9918.759623
1536.678379,689.485948,1554.432478,9104.533087
1536.678696,612.876398,2220.617826,9400.615463
1536.679014,229.828649,2960.823768,8438.347739
1536.679331,1072.533697,2368.659014,8290.306550
1536.679648,1149.143247,1110.308913,9178.553681
1536.679966,842.705048,-0.000000,9474.636058
1536.680283,459.657299,-518.144159,9474.636058
1536.680600,766.095498,-1258.350101,10066.800811
1536.680917,842.705048,-1924.535449,10732.986159
1536.681235,612.876398,-1628.453072,10436.903782
1536.681552,229.828649,-1110.308913,10436.903782
1536.681869,766.095498,-0.000000,10584.944971
1536.682186,689.485948,592.164754,9474.636058
1536.682504,842.705048,1480.411884,9474.636058
1536.682821,919.314598,1776.494261,9326.594869
1536.683138,612.876398,1554.432478,8586.388927
1536.683456,1072.533697,1036.288319,8660.409521
1536.683773,1072.533697,592.164754,9622.677246
1536.684090,1225.752797,-148.041188,9252.574275
1536.684407,1378.971896,-296.082377,9104.533087
1536.684725,1149.143247,-1554.432478,9918.759623
1536.685042,1455.581446,-1628.453072,10955.047942
1536.685359,2068.457845,-1406.391290,10436.903782
1536.685677,1915.238745,-148.041188,9622.677246
1536.685994,2145.067394,-0.000000,9696.697840
1536.686311,2451.505594,962.267725,8734.430116
1536.686628,2068.457845,2220.617826,8438.347739
1536.686946,2451.505594,2146.597232,8216.285956
1536.687263,1302.362347,1850.514855,8068.244768
1536.687580,995.924147,592.164754,8808.450710
1536.687897,689.485948,-0.000000,8956.491898
1536.688215,459.657299,-1184.329507,10140.821405
1536.688532,-153.219100,-1998.556043,10362.883188
1536.688849,0.000000,-2442.679609,10955.047942
1536.689167,-459.657299,-1480.411884,9844.739029
1536.689484,306.438199,-1258.350101,10362.883188
1536.689801,842.705048,-148.041188,9918.759623
1536.690118,995.924147,518.144159,9030.512492
1536.690436,1072.533697,888.247130,8438.347739
1536.690753,995.924147,1332.370696,8364.327145
1536.691070,766.095498,1406.391290,8882.471304
1536.691387,689.485948,1184.329507,8512.368333
1536.691705,612.876398,962.267725,8956.491898
1536.692022,229.828649,1036.288319,8660.409521
1536.692339,612.876398,370.102971,8734.430116
1536.692657,306.438199,-814.226536,8808.450710
1536.692974,0.000000,-1110.308913,9696.697840
1536.693291,229.828649,-1258.350101,9992.780217
1536.693608,76.609550,-1480.411884,9844.739029
1536.693926,153.219100,-666.185348,10362.883188
1536.694243,306.438199,592.164754,9622.677246
1536.694560,689.485948,2590.720797,8438.347739
1536.694877,766.095498,3034.844362,8216.285956
1536.695195,995.924147,2664.741391,8216.285956
1536.695512,536.266849,2072.576638,8068.244768
1536.695829,229.828649,1776.494261,8142.265362
1536.696147,842.705048,1036.288319,9030.512492
1536.696464,919.314598,222.061783,9400.615463
1536.696781,766.095498,-888.247130,9548.656652
1536.697098,-229.828649,-1776.494261,10066.800811
1536.697416,0.000000,-1036.288319,10214.842000
1536.697733,459.657299,-1036.288319,10436.903782
1536.698050,995.924147,-222.061783,10510.924376
1536.698367,1378.971896,1036.288319,9844.739029
1536.698685,1072.533697,1554.432478,9474.636058
1536.699002,1378.971896,2072.576638,9030.512492
1536.699319,1608.800546,2294.638420,8882.471304
1536.699637,1838.629195,2220.617826,8586.388927
1536.699954,1685.410096,1850.514855,8290.306550
1536.700271,1608.800546,1036.288319,8882.471304
1536.700588,1455.581446,-592.164754,9474.636058
1536.700906,1455.581446,-1702.473667,10807.006753
1536.701223,1378.971896,-2220.617826,11621.233289
1536.701540,1455.581446,-1406.391290,10955.047942
1536.701858,1685.410096,-370.102971,10214.842000
1536.702175,1608.800546,666.185348,9918.759623
1536.702492,1532.190996,1628.453072,9326.594869
1536.702809,1762.019645,2146.597232,9326.594869
1536.703127,766.095498,2220.617826,8438.347739
1536.703444,995.924147,1850.514855,9104.533087
1536.703761,306.438199,1628.453072,8808.450710
1536.704078,153.219100,-0.000000,9992.780217
1536.704396,-306.438199,-666.185348,9992.780217
1536.704713,-153.219100,-1702.473667,10584.944971
1536.705030,-383.047749,-2072.576638,10658.965565
1536.705348,306.438199,-1554.432478,10214.842000
1536.705665,306.438199,-1110.308913,9548.656652
1536.705982,995.924147,-962.267725,9844.739029
1536.706299,76.609550,222.061783,9548.656652
1536.706617,0.000000,814.226536,8808.450710
1536.706934,0.000000,1258.350101,9178.553681
1536.707251,229.828649,1184.329507,9030.512492
1536.707569,0.000000,1110.308913,8956.491898
1536.707886,0.000000,814.226536,8808.450710
1536.708204,383.047749,-0.000000,9252.574275
1536.708521,766.095498,-0.000000,8734.430116
1536.708838,1225.752797,-2072.576638,9474.636058
1536.709156,766.095498,-1628.453072,9104.533087
1536.709473,919.314598,-1702.473667,9474.636058
1536.709791,995.924147,-1406.391290,9474.636058
1536.710108,995.924147,-666.185348,9844.739029
1536.710426,1378.971896,-74.020594,9178.553681
1536.710743,995.924147,1036.288319,8882.471304
1536.711060,842.705048,1628.453072,8364.327145
1536.711378,919.314598,1554.432478,8290.306550
1536.711695,842.705048,1406.391290,8586.388927
1536.712013,1149.143247,592.164754,8956.491898
1536.712330,612.876398,-296.082377,8512.368333
1536.712647,459.657299,-814.226536,9178.553681
1536.712965,229.828649,-1554.432478,9548.656652
1536.713282,306.438199,-1554.432478,9918.759623
1536.713600,-306.438199,-1406.391290,9696.697840
1536.713917,0.000000,-592.164754,10140.821405
1536.714234,0.000000,370.102971,9918.759623
1536.714552,229.828649,740.205942,9474.636058
1536.714869,153.219100,1406.391290,8586.388927
1536.715187,919.314598,1258.350101,9178.553681
1536.715504,229.828649,1332.370696,9030.512492
1536.715821,459.657299,962.267725,8956.491898
1536.716139,766.095498,740.205942,9474.636058
1536.716456,766.095498,148.041188,9918.759623
1536.716774,1149.143247,-0.000000,9326.594869
1536.717091,1455.581446,-814.226536,9992.780217
1536.717408,1378.971896,-1406.391290,10510.924376
1536.717726,1685.410096,-814.226536,9548.656652
1536.718043,2145.067394,-0.000000,9770.718434
1536.718361,2681.334243,962.267725,9252.574275
1536.718678,2834.553343,1406.391290,9104.533087
1536.718995,2681.334243,1998.556043,8068.244768
1536.719313,2221.676944,1924.535449,8882.471304
1536.719630,1838.629195,1850.514855,8142.265362
1536.719948,1455.581446,1332.370696,9178.553681
1536.720265,612.876398,518.144159,9622.677246
1536.720582,383.047749,-0.000000,10436.903782
1536.720900,0.000000,-518.144159,10362.883188
1536.721217,306.438199,-1036.288319,11103.089130
1536.721535,0.000000,-1110.308913,11029.068536
1536.721852,76.609550,-370.102971,10732.986159
1536.722169,536.266849,-0.000000,10362.883188
1536.722487,612.876398,370.102971,10140.821405
1536.722804,766.095498,962.267725,9400.615463
1536.723122,842.705048,2146.597232,9400.615463
1536.723439,766.095498,2886.803174,7994.224174
1536.723757,766.095498,2664.741391,8216.285956
1536.724074,0.000000,1776.494261,8438.347739
1536.724391,229.828649,518.144159,9252.574275
1536.724709,-536.266849,-518.144159,9252.574275
1536.725026,-383.047749,-1702.473667,10214.842000
1536.725344,-536.266849,-1850.514855,11029.068536
1536.725661,-153.219100,-1702.473667,10881.027347
1536.725978,229.828649,-444.123565,10658.965565
1536.726296,306.438199,-148.041188,10288.862594
1536.726613,383.047749,370.102971,9844.739029
1536.726931,459.657299,1850.514855,8882.471304
1536.727248,1149.143247,2368.659014,8364.327145
1536.727565,1225.752797,2516.700203,7994.224174
1536.727883,1378.971896,1924.535449,8586.388927
1536.728200,536.266849,888.247130,8290.306550
1536.728518,612.876398,-296.082377,9030.512492
1536.728835,689.485948,-740.205942,9400.615463
1536.729152,766.095498,-1924.535449,9844.739029
1536.729470,612.876398,-2220.617826,10066.800811
1536.729787,383.047749,-1554.432478,9474.636058
1536.730105,383.047749,-962.267725,9696.697840
1536.730422,536.266849,-296.082377,9474.636058
1536.730739,536.266849,592.164754,9400.615463
1536.731057,459.657299,1110.308913,8734.430116
1536.731374,-153.219100,1258.350101,9030.512492
1536.731692,153.219100,740.205942,8734.430116
1536.732009,-229.828649,296.082377,9400.615463
1536.732326,0.000000,-0.000000,8956.491898
1536.732644,383.047749,-444.123565,9252.574275
1536.732961,536.266849,-962.267725,9252.574275
1536.733279,1225.752797,-1850.514855,10140.821405
1536.733596,1149.143247,-1998.556043,9992.780217
1536.733913,1532.190996,-1036.288319,9770.718434
1536.734231,1378.971896,-1110.308913,9992.780217
1536.734548,1685.410096,-148.041188,9474.636058
1536.734866,1915.238745,592.164754,8956.491898
1536.735183,1991.848295,1258.350101,8512.368333
1536.735500,1762.019645,1628.453072,7994.224174
1536.735818,2298.286494,1702.473667,7920.203579
1536.736135,2145.067394,666.185348,8290.306550
1536.736453,2298.286494,-444.123565,9030.512492
1536.736770,1915.238745,-740.205942,9252.574275
1536.737088,1378.971896,-1554.432478,9696.697840
1536.737405,1455.581446,-1480.411884,9844.739029
1536.737722,1685.410096,-1258.350101,10214.842000
1536.738040,1455.581446,-592.164754,9992.780217
1536.738357,1072.533697,-74.020594,10066.800811
1536.738675,995.924147,814.226536,9400.615463
1536.738992,1072.533697,1184.329507,8956.491898
1536.739309,1302.362347,1702.473667,9104.533087
1536.739627,1455.581446,1480.411884,8734.430116
1536.739944,1149.143247,1554.432478,8882.471304
1536.740262,1302.362347,1258.350101,8290.306550
1536.740579,842.705048,592.164754,9252.574275
1536.740896,383.047749,-74.020594,9178.553681
1536.741214,76.609550,-814.226536,9844.739029
1536.741531,0.000000,-1110.308913,9844.739029
1536.741849,-153.219100,-888.247130,10288.862594
1536.742166,-306.438199,-666.185348,10362.883188
1536.742483,0.000000,-0.000000,10436.903782
1536.742801,-306.438199,592.164754,9622.677246
1536.743118,0.000000,2146.597232,9326.594869
1536.743436,0.000000,2590.720797,8882.471304
1536.743753,-229.828649,2960.823768,8882.471304
1536.744070,-306.438199,2516.700203,8956.491898
1536.744388,-383.047749,1776.494261,9104.533087
1536.744705,-459.657299,518.144159,9696.697840
1536.745023,-842.705048,-296.082377,9844.739029
1536.745340,-689.485948,-666.185348,10362.883188
1536.745657,-306.438199,-1184.329507,10584.944971
1536.745975,-306.438199,-222.061783,9696.697840
1536.746292,-306.438199,-444.123565,9992.780217
1536.746610,153.219100,444.123565,9770.718434
1536.746927,766.095498,888.247130,9992.780217
1536.747244,766.095498,1850.514855,9030.512492
1536.747562,842.705048,1998.556043,9030.512492
1536.747879,842.705048,2442.679609,9178.553681
1536.748197,689.485948,1850.514855,8660.409521
1536.748514,919.314598,1184.329507,8734.430116
1536.748831,842.705048,296.082377,9252.574275
1536.749149,842.705048,-370.102971,9696.697840
1536.749466,1378.971896,-1776.494261,10436.903782
1536.749784,1455.581446,-1850.514855,10658.965565
1536.750101,1762.019645,-888.247130,10584.944971
1536.750419,2221.676944,-0.000000,10214.842000
1536.750736,2451.505594,1110.308913,9622.677246
1536.751053,2528.115143,2368.659014,8290.306550
1536.751371,2604.724693,2294.638420,8216.285956
1536.751688,2221.676944,2738.761985,7994.224174
1536.752006,1915.238745,2072.576638,8364.327145
1536.752323,1685.410096,814.226536,8882.471304
1536.752640,1225.752797,-0.000000,9548.656652
1536.752958,1149.143247,-1036.288319,10362.883188
1536.753275,536.266849,-1554.432478,10214.842000
1536.753593,766.095498,-1924.535449,10362.883188
1536.753910,383.047749,-1924.535449,10288.862594
1536.754227,766.095498,-1628.453072,10658.965565
1536.754545,766.095498,-444.123565,10288.862594
1536.754862,689.485948,222.061783,9474.636058
1536.755180,919.314598,740.205942,9474.636058
1536.755497,689.485948,962.267725,9178.553681
1536.755814,1225.752797,1184.329507,9326.594869
1536.756132,1072.533697,1554.432478,8438.347739
1536.756449,1225.752797,962.267725,8586.388927
1536.756767,1378.971896,444.123565,8586.388927
1536.757084,1608.800546,-370.102971,8438.347739
1536.757401,1455.581446,-1480.411884,8586.388927
1536.757719,919.314598,-2516.700203,9548.656652
1536.758036,536.266849,-2294.638420,9770.718434
1536.758354,459.657299,-1924.535449,9696.697840
1536.758671,229.828649,-888.247130,10066.800811
1536.758988,76.609550,-0.000000,9844.739029
1536.759306,-383.047749,1036.288319,8586.388927
1536.759623,153.219100,1924.535449,8142.265362
1536.759941,306.438199,2072.576638,7920.203579
1536.760258,76.609550,1776.494261,7846.182985
1536.760575,459.657299,444.123565,8142.265362
1536.760893,-229.828649,-0.000000,8734.430116
1536.761210,-229.828649,-222.061783,9474.636058
1536.761528,0.000000,-1184.329507,10288.862594
1536.761845,0.000000,-1110.308913,10288.862594
1536.762162,76.609550,-518.144159,9992.780217
1536.762480,0.000000,74.020594,9548.656652
1536.762797,229.828649,962.267725,9696.697840
1536.763115,383.047749,1480.411884,8956.491898
1536.763432,153.219100,1924.535449,8808.450710
1536.763750,536.266849,1850.514855,8364.327145
1536.764067,306.438199,1776.494261,8512.368333
1536.764384,229.828649,1184.329507,9104.533087
1536.764702,0.000000,592.164754,9622.677246
1536.765019,229.828649,-296.082377,9844.739029
1536.765337,229.828649,-740.205942,9992.780217
1536.765654,612.876398,-740.205942,10436.903782
1536.765971,612.876398,-1258.350101,10362.883188
1536.766289,1378.971896,-888.247130,10362.883188
1536.766606,1991.848295,-222.061783,9844.739029
1536.766924,1915.238745,962.267725,9548.656652
1536.767241,2221.676944,1480.411884,9104.533087
1536.767558,1991.848295,2294.638420,8808.450710
1536.767876,1915.238745,2590.720797,8956.491898
1536.768193,1685.410096,2368.659014,8956.491898
1536.768511,1225.752797,1850.514855,9400.615463
1536.768828,1225.752797,1258.350101,9326.594869
1536.769145,766.095498,-296.082377,9770.718434
1536.769463,383.047749,-1332.370696,10658.965565
1536.769780,383.047749,-2442.679609,11177.109724
1536.770098,0.000000,-1776.494261,10881.027347
1536.770415,76.609550,-962.267725,11103.089130
1536.770732,229.828649,-222.061783,10955.047942
1536.771050,842.705048,962.267725,10214.842000
1536.771367,1225.752797,1776.494261,10214.842000
1536.771685,1225.752797,2146.597232,9548.656652
1536.772002,1225.752797,2294.638420,9252.574275
1536.772319,1915.238745,2294.638420,8586.388927
1536.772637,2221.676944,1554.432478,8216.285956
1536.772954,1608.800546,740.205942,8290.306550
1536.773272,1302.362347,-0.000000,8438.347739
1536.773589,1455.581446,-1110.308913,9474.636058
1536.773906,1302.362347,-1998.556043,9992.780217
1536.774224,1378.971896,-2294.638420,10584.944971
1536.774541,842.705048,-1628.453072,10732.986159
1536.774859,1225.752797,-518.144159,9992.780217
1536.775176,919.314598,814.226536,9104.533087
1536.775493,766.095498,1850.514855,8068.244768
1536.775811,1378.971896,2738.761985,7402.059420
1536.776128,1149.143247,2220.617826,7105.977043
1536.776446,1302.362347,1554.432478,7402.059420
1536.776763,842.705048,370.102971,8216.285956
1536.777081,383.047749,-370.102971,9178.553681
1536.777398,306.438199,-962.267725,9474.636058
1536.777715,306.438199,-1258.350101,9622.677246
1536.778033,153.219100,-1036.288319,9622.677246
1536.778350,0.000000,-814.226536,9326.594869
1536.778668,536.266849,-0.000000,9326.594869
1536.778985,919.314598,888.247130,8734.430116
1536.779302,766.095498,1258.350101,8586.388927
1536.779620,383.047749,1406.391290,8586.388927
1536.779937,229.828649,1480.411884,9030.512492
1536.780255,0.000000,1554.432478,8882.471304
1536.780572,0.000000,1110.308913,8734.430116
1536.780889,-153.219100,592.164754,9030.512492
1536.781207,0.000000,-0.000000,8956.491898
1536.781524,612.876398,-814.226536,9178.553681
1536.781842,153.219100,-1924.535449,10436.903782
1536.782159,383.047749,-2294.638420,10288.862594
1536.782476,459.657299,-1850.514855,10140.821405
1536.782794,536.266849,-1184.329507,10214.842000
1536.783111,1072.533697,-296.082377,10066.800811
1536.783429,995.924147,1184.329507,9548.656652
1536.783746,995.924147,2368.659014,9178.553681
1536.784063,1072.533697,2590.720797,8660.409521
1536.784381,919.314598,2072.576638,8734.430116
1536.784698,919.314598,1110.308913,9178.553681
1536.785016,1302.362347,518.144159,9622.677246
1536.785333,995.924147,-1110.308913,9992.780217
1536.785650,919.314598,-1998.556043,10807.006753
1536.785968,689.485948,-2294.638420,10955.047942
1536.786285,1149.143247,-1924.535449,11029.068536
1536.786603,766.095498,-1110.308913,10881.027347
1536.786920,995.924147,-0.000000,10436.903782
1536.787237,1225.752797,1036.288319,9622.677246
1536.787555,1455.581446,1628.453072,9104.533087
1536.787872,1991.848295,1850.514855,8956.491898
1536.788190,1302.362347,1924.535449,9104.533087
1536.788507,1378.971896,1702.473667,8734.430116
1536.788824,1455.581446,962.267725,9104.533087
1536.789142,919.314598,222.061783,9696.697840
1536.789459,919.314598,-370.102971,9992.780217
1536.789777,1072.533697,-962.267725,10288.862594
1536.790094,995.924147,-1184.329507,10436.903782
1536.790412,1149.143247,-962.267725,9992.780217
1536.790729,1302.362347,-296.082377,10066.800811
1536.791046,1072.533697,-0.000000,9548.656652
1536.791364,1149.143247,962.267725,9178.553681
1536.791681,995.924147,1480.411884,8882.471304
1536.791999,1072.533697,1924.535449,8734.430116
1536.792316,383.047749,1554.432478,8660.409521
1536.792633,536.266849,1480.411884,8290.306550
1536.792951,383.047749,666.185348,8882.471304
1536.793268,383.047749,-0.000000,9104.533087
1536.793586,76.609550,-518.144159,9030.512492
1536.793903,612.876398,-1258.350101,9400.615463
1536.794220,0.000000,-962.267725,9474.636058
1536.794538,0.000000,-592.164754,9400.615463
1536.794855,76.609550,-444.123565,9548.656652
1536.795173,76.609550,444.123565,9474.636058
1536.795490,153.219100,1036.288319,9030.512492
1536.795807,0.000000,1554.432478,8808.450710
1536.796125,383.047749,1776.494261,8882.471304
1536.796442,459.657299,1850.514855,8364.327145
1536.796760,153.219100,1184.329507,8290.306550
1536.797077,229.828649,1110.308913,8660.409521
1536.797394,0.000000,-74.020594,8956.491898
1536.797712,0.000000,-962.267725,9622.677246
1536.798029,229.828649,-1850.514855,10214.842000
1536.798347,459.657299,-1998.556043,10658.965565
1536.798664,612.876398,-1184.329507,10510.924376
1536.798981,919.314598,-296.082377,9844.739029
1536.799299,1225.752797,814.226536,9548.656652
1536.799616,1225.752797,1850.514855,8734.430116
1536.799934,1455.581446,2664.741391,7994.224174
1536.800251,1225.752797,2442.679609,7846.182985
1536.800568,1302.362347,2072.576638,8586.388927
1536.800886,919.314598,1110.308913,8956.491898
1536.801203,459.657299,-0.000000,9696.697840
1536.801521,153.219100,-962.267725,10658.965565
1536.801838,0.000000,-1332.370696,10584.944971
1536.802155,0.000000,-1850.514855,10881.027347
1536.802473,153.219100,-1184.329507,10955.047942
1536.802790,76.609550,-592.164754,10510.924376
1536.803108,383.047749,-222.061783,10066.800811
1536.803425,1149.143247,592.164754,9474.636058
1536.803743,1225.752797,1406.391290,9474.636058
1536.804060,1378.971896,1702.473667,9030.512492
1536.804377,1532.190996,1776.494261,9104.533087
1536.804695,1455.581446,1480.411884,9104.533087
1536.805012,995.924147,888.247130,9178.553681
1536.805330,1225.752797,-148.041188,9474.636058
1536.805647,1455.581446,-666.185348,9326.594869
1536.805964,1378.971896,-1702.473667,9844.739029
1536.806282,1378.971896,-1554.432478,9844.739029
1536.806599,1225.752797,-1850.514855,9622.677246
1536.806917,766.095498,-888.247130,10066.800811
1536.807234,1072.533697,-370.102971,10436.903782
1536.807552,612.876398,-0.000000,9992.780217
1536.807869,689.485948,1184.329507,9474.636058
1536.808187,766.095498,1776.494261,9252.574275
1536.808504,842.705048,1554.432478,9030.512492
1536.808821,459.657299,592.164754,9104.533087
1536.809139,919.314598,148.041188,9104.533087
1536.809456,1149.143247,-296.082377,9326.594869
1536.809774,536.266849,-814.226536,9326.594869
1536.810091,1225.752797,-1554.432478,10140.821405
1536.810409,612.876398,-1480.411884,10214.842000
1536.810726,995.924147,-814.226536,9770.718434
1536.811044,689.485948,-296.082377,9770.718434
1536.811361,1149.143247,296.082377,9400.615463
1536.811678,1225.752797,888.247130,8882.471304
1536.811996,689.485948,1480.411884,8364.327145
1536.812313,766.095498,1776.494261,8586.388927
1536.812631,766.095498,1258.350101,8438.347739
1536.812948,536.266849,814.226536,8586.388927
1536.813266,689.485948,148.041188,8956.491898
1536.813583,459.657299,-370.102971,9548.656652
1536.813901,612.876398,-962.267725,9770.718434
1536.814218,536.266849,-1480.411884,9992.780217
1536.814535,919.314598,-1480.411884,9844.739029
1536.814853,919.314598,-518.144159,9474.636058
1536.815170,1608.800546,370.102971,9326.594869
1536.815488,1532.190996,962.267725,8512.368333
1536.815805,2068.457845,1776.494261,8142.265362
1536.816123,1915.238745,2368.659014,7846.182985
1536.816440,1532.190996,1998.556043,7994.224174
1536.816758,1302.362347,1332.370696,8364.327145
1536.817075,995.924147,666.185348,9178.553681
1536.817392,766.095498,-0.000000,9400.615463
1536.817710,536.266849,-444.123565,9474.636058
1536.818027,383.047749,-1036.288319,9992.780217
1536.818345,536.266849,-1036.288319,10214.842000
1536.818662,459.657299,-888.247130,9770.718434
1536.818980,459.657299,-74.020594,9992.780217
1536.819297,766.095498,666.185348,10140.821405
1536.819614,536.266849,1702.473667,9548.656652
1536.819932,689.485948,2294.638420,9474.636058
1536.820249,536.266849,2664.741391,9178.553681
1536.820567,842.705048,2738.761985,8512.368333
1536.820884,383.047749,2294.638420,8364.327145
1536.821202,842.705048,1036.288319,8808.450710
1536.821519,229.828649,666.185348,9030.512492
1536.821837,0.000000,-222.061783,9252.574275
1536.822154,-306.438199,-518.144159,9992.780217
1536.822471,-459.657299,-962.267725,10362.883188
1536.822789,0.000000,-814.226536,10436.903782
1536.823106,-536.266849,-148.041188,10584.944971
1536.823424,-612.876398,296.082377,10658.965565
1536.823741,0.000000,1110.308913,9992.780217
1536.824059,0.000000,1776.494261,9474.636058
1536.824376,-229.828649,1554.432478,9622.677246
1536.824694,0.000000,1554.432478,9252.574275
1536.825011,229.828649,1184.329507,8882.471304
1536.825328,536.266849,370.102971,9622.677246
1536.825646,1072.533697,-370.102971,9992.780217
1536.825963,995.924147,-1406.391290,10214.842000
1536.826281,689.485948,-1702.473667,10288.862594
1536.826598,689.485948,-1480.411884,10658.965565
1536.826916,1072.533697,-740.205942,9992.780217
1536.827233,1608.800546,-0.000000,9770.718434
1536.827551,1455.581446,444.123565,9474.636058
1536.827868,1455.581446,740.205942,9178.553681
1536.828185,1378.971896,814.226536,9548.656652
1536.828503,842.705048,962.267725,9400.615463
1536.828820,1072.533697,518.144159,9474.636058
1536.829138,689.485948,-0.000000,9474.636058
1536.829455,919.314598,-296.082377,10140.821405
1536.829773,842.705048,-888.247130,10288.862594
1536.830090,1149.143247,-1406.391290,10658.965565
1536.830408,1608.800546,-2072.576638,10881.027347
1536.830725,1762.019645,-1628.453072,10362.883188
1536.831042,2068.457845,-814.226536,9696.697840
1536.831360,2068.457845,-0.000000,9474.636058
1536.831677,2451.505594,666.185348,8882.471304
1536.831995,2221.676944,1332.370696,8364.327145
1536.832312,1991.848295,1702.473667,8142.265362
1536.832630,1915.238745,1702.473667,7920.203579
1536.832947,1532.190996,814.226536,7994.224174
1536.833265,1149.143247,-222.061783,8586.388927
1536.833582,995.924147,-1110.308913,9326.594869
1536.833899,612.876398,-1332.370696,9178.553681
1536.834217,306.438199,-1924.535449,9474.636058
1536.834534,0.000000,-1776.494261,9474.636058
1536.834852,0.000000,-1258.350101,9474.636058
1536.835169,-76.609550,-592.164754,9252.574275
1536.835487,-76.609550,222.061783,8956.491898
1536.835804,0.000000,444.123565,8660.409521
1536.836121,0.000000,1036.288319,8364.327145
1536.836439,0.000000,1924.535449,8808.450710
1536.836756,76.609550,1702.473667,8068.244768
1536.837074,-229.828649,1554.432478,8142.265362
1536.837391,-229.828649,888.247130,8586.388927
1536.837709,-383.047749,296.082377,8364.327145
1536.838026,0.000000,-0.000000,8660.409521
1536.838344,-153.219100,-592.164754,9474.636058
1536.838661,0.000000,-814.226536,9918.759623
1536.838978,0.000000,-518.144159,9548.656652
1536.839296,0.000000,-0.000000,9548.656652
1536.839613,-153.219100,666.185348,9548.656652
1536.839931,0.000000,1184.329507,9104.533087
1536.840248,-153.219100,2146.597232,8882.471304
1536.840566,-229.828649,2368.659014,8586.388927
1536.840883,-153.219100,2072.576638,8882.471304
1536.841201,306.438199,1480.411884,9252.574275
1536.841518,76.609550,592.164754,9696.697840
1536.841835,0.000000,-148.041188,9992.780217
1536.842153,0.000000,-962.267725,10214.842000
1536.842470,229.828649,-1332.370696,11029.068536
1536.842788,459.657299,-1036.288319,10732.986159
1536.843105,689.485948,-222.061783,10140.821405
1536.843423,919.314598,296.082377,10066.800811
1536.843740,1072.533697,666.185348,10066.800811
1536.844058,1378.971896,1406.391290,9622.677246
1536.844375,1838.629195,1480.411884,9770.718434
1536.844692,1685.410096,2146.597232,9326.594869
1536.845010,1991.848295,1628.453072,9178.553681
1536.845327,1762.019645,1258.350101,9844.739029
1536.845645,1762.019645,666.185348,9622.677246
1536.845962,1532.190996,-0.000000,9696.697840
1536.846280,1455.581446,-370.102971,10362.883188
1536.846597,1915.238745,-1110.308913,11325.150913
1536.846915,1762.019645,-1332.370696,11029.068536
1536.847232,1608.800546,-592.164754,10807.006753
1536.847549,1991.848295,148.041188,10807.006753
1536.847867,2221.676944,962.267725,10066.800811
1536.848184,2221.676944,1998.556043,9474.636058
1536.848502,2451.505594,2516.700203,8956.491898
1536.848819,2221.676944,2368.659014,8512.368333
1536.849137,2374.896044,1776.494261,8364.327145
1536.849454,1608.800546,962.267725,8734.430116
1536.849772,1455.581446,-74.020594,9252.574275
1536.850089,842.705048,-740.205942,9326.594869
1536.850406,229.828649,-1628.453072,10140.821405
1536.850724,0.000000,-2146.597232,10881.027347
1536.851041,-229.828649,-2146.597232,10658.965565
1536.851359,-612.876398,-1628.453072,10807.006753
1536.851676,-612.876398,-666.185348,10362.883188
1536.851994,0.000000,-0.000000,9474.636058
1536.852311,-229.828649,1110.308913,8660.409521
1536.852629,76.609550,1554.432478,8808.450710
1536.852946,153.219100,1258.350101,8068.244768
1536.853263,766.095498,1406.391290,7994.224174
1536.853581,612.876398,666.185348,8068.244768
1536.853898,766.095498,-0.000000,8512.368333
1536.854216,919.314598,-888.247130,8438.347739
1536.854533,1685.410096,-1628.453072,9252.574275
1536.854851,766.095498,-1554.432478,9252.574275
1536.855168,995.924147,-1036.288319,8956.491898
1536.855485,842.705048,-814.226536,9178.553681
1536.855803,842.705048,-370.102971,9104.533087
1536.856120,689.485948,222.061783,8512.368333
1536.856438,536.266849,1184.329507,8512.368333
1536.856755,459.657299,1628.453072,8290.306550
1536.857073,536.266849,1406.391290,8290.306550
1536.857390,459.657299,1036.288319,8438.347739
1536.857708,919.314598,296.082377,9474.636058
1536.858025,306.438199,-222.061783,9104.533087
1536.858342,689.485948,-666.185348,9474.636058
1536.858660,766.095498,-1036.288319,9548.656652
1536.858977,842.705048,-1258.350101,9548.656652
1536.859295,689.485948,-740.205942,9770.718434
1536.859612,612.876398,-296.082377,9400.615463
1536.859930,842.705048,296.082377,9104.533087
1536.860247,995.924147,1036.288319,8734.430116
1536.860565,919.314598,1258.350101,9326.594869
1536.860882,459.657299,1554.432478,9252.574275
1536.861199,383.047749,1110.308913,8808.450710
1536.861517,76.609550,962.267725,9178.553681
1536.861834,459.657299,-0.000000,9770.718434
1536.862152,536.266849,-888.247130,9844.739029
1536.862469,919.314598,-962.267725,9992.780217
1536.862787,612.876398,-1406.391290,10436.903782
1536.863104,842.705048,-1406.391290,10214.842000
1536.863422,1302.362347,-740.205942,10066.800811
1536.863739,1532.190996,-148.041188,10140.821405
1536.864056,1378.971896,962.267725,10066.800811
1536.864374,1225.752797,1628.453072,9326.594869
1536.864691,1378.971896,2516.700203,9252.574275
1536.865009,1378.971896,2368.659014,8734.430116
1536.865326,1302.362347,2146.597232,9030.512492
1536.865644,1455.581446,1406.391290,9252.574275
1536.865961,919.314598,370.102971,9326.594869
1536.866279,689.485948,-370.102971,10140.821405
1536.866596,536.266849,-1406.391290,10732.986159
1536.866913,459.657299,-1406.391290,11029.068536
1536.867231,0.000000,-1332.370696,10732.986159
1536.867548,229.828649,-888.247130,10807.006753
1536.867866,76.609550,-148.041188,10584.944971
1536.868183,229.828649,814.226536,9918.759623
1536.868501,612.876398,1628.453072,9326.594869
1536.868818,536.266849,1850.514855,9326.594869
1536.869136,459.657299,1924.535449,8734.430116
1536.869453,306.438199,1628.453072,8660.409521
1536.869770,383.047749,666.185348,9474.636058
1536.870088,766.095498,222.061783,9400.615463
1536.870405,536.266849,-1036.288319,9992.780217
1536.870723,919.314598,-1332.370696,10510.924376
1536.871040,842.705048,-888.247130,10362.883188
1536.871358,1225.752797,-296.082377,9844.739029
1536.871675,1838.629195,370.102971,9474.636058
1536.871992,1838.629195,1110.308913,8956.491898
1536.872310,1838.629195,1702.473667,7994.224174
1536.872627,1455.581446,2072.576638,7846.182985
1536.872945,1225.752797,1850.514855,7698.141797
1536.873262,1302.362347,1480.411884,7698.141797
1536.873580,459.657299,666.185348,8660.409521
1536.873897,383.047749,-222.061783,9178.553681
1536.874215,-459.657299,-518.144159,9474.636058
1536.874532,0.000000,-1110.308913,9770.718434
