#time,accel_x,accel_y,accel_z
938.552828,-1838.629195,-1628.453072,7402.059420
938.553147,-2145.067394,-1332.370696,8216.285956
938.553466,-1762.019645,-74.020594,8216.285956
938.553784,-2451.505594,740.205942,7846.182985
938.554103,-2145.067394,1184.329507,7550.100608
938.554422,-1991.848295,1480.411884,7550.100608
938.554741,-1838.629195,1480.411884,7476.080014
938.555060,-1762.019645,962.267725,7772.162391
938.555379,-2068.457845,-0.000000,8882.471304
938.555698,-2528.115143,-1036.288319,9696.697840
938.556017,-2528.115143,-1110.308913,10584.944971
938.556336,-2451.505594,-814.226536,10658.965565
938.556655,-2681.334243,-0.000000,10214.842000
938.556974,-1762.019645,666.185348,9918.759623
938.557293,-1532.190996,740.205942,9992.780217
938.557612,-1072.533697,592.164754,10288.862594
938.557931,-689.485948,-74.020594,10362.883188
938.558250,0.000000,-814.226536,11695.253884
938.558569,383.047749,-1628.453072,11695.253884
938.558888,153.219100,-1628.453072,11695.253884
938.559207,229.828649,-1776.494261,11843.295072
938.559526,459.657299,-814.226536,10807.006753
938.559845,1302.362347,-370.102971,10140.821405
938.560164,1149.143247,-0.000000,9696.697840
938.560483,1149.143247,-148.041188,10066.800811
938.560802,1072.533697,-0.000000,9474.636058
938.561121,1149.143247,222.061783,9474.636058
938.561440,612.876398,-74.020594,9844.739029
938.561759,-306.438199,-0.000000,9548.656652
938.562078,-689.485948,296.082377,9474.636058
938.562397,-842.705048,-296.082377,9178.553681
938.562716,-1378.971896,-444.123565,9104.533087
938.563035,-1762.019645,-222.061783,8068.244768
938.563354,-2451.505594,-74.020594,7846.182985
938.563673,-3140.991542,-148.041188,8364.327145
938.563992,-3140.991542,148.041188,8142.265362
938.564311,-3524.039291,888.247130,8290.306550
938.564630,-3677.258390,1110.308913,8364.327145
938.564949,-3217.601092,962.267725,8882.471304
938.565268,-3294.210641,962.267725,8734.430116
938.565587,-3217.601092,296.082377,8290.306550
938.565906,-3370.820191,-444.123565,8364.327145
938.566225,-3677.258390,-1554.432478,8290.306550
938.566544,-4060.306139,-2516.700203,8882.471304
938.566863,-3677.258390,-3182.885551,9104.533087
938.567181,-3600.648841,-3182.885551,9770.718434
938.567500,-3830.477490,-3256.906145,10214.842000
938.567819,-4213.525239,-3404.947333,10584.944971
938.568138,-3524.039291,-4071.132681,11547.212695
938.568457,-3907.087040,-3923.091493,11177.109724
938.568776,-3600.648841,-3775.050304,11103.089130
938.569095,-3140.991542,-4367.215058,11177.109724
938.569414,-2757.943793,-5107.421000,11769.274478
938.569733,-2145.067394,-5699.585753,11473.192101
938.570052,-2221.676944,-5255.462188,11325.150913
938.570371,-1302.362347,-5773.606348,11917.315666
938.570690,-459.657299,-5625.565159,11843.295072
938.571009,229.828649,-5551.544565,12287.418637
938.571328,1225.752797,-4737.318029,12657.521608
938.571647,1685.410096,-3997.112087,12805.562797
938.571966,2298.286494,-2738.761985,11917.315666
938.572285,2451.505594,-2368.659014,10732.986159
938.572604,2145.067394,-1184.329507,9252.574275
938.572923,2068.457845,-592.164754,7254.018232
938.573242,1455.581446,-1406.391290,6143.709319
938.573561,76.609550,-2960.823768,6735.874072
938.573880,-995.924147,-4811.338623,8734.430116
938.574199,-2221.676944,-5551.544565,10066.800811
938.574518,-3677.258390,-5477.523971,11029.068536
938.574837,-4290.134789,-4219.173869,11103.089130
938.575156,-4826.401637,-2812.782580,10732.986159
938.575475,-4749.792088,-1258.350101,9770.718434
938.575794,-4903.011187,-518.144159,8734.430116
938.576113,-4519.963438,-222.061783,7920.203579
938.576432,-3830.477490,222.061783,7698.141797
938.576751,-2911.162892,296.082377,8142.265362
938.577070,-2145.067394,518.144159,7698.141797
938.577389,-1072.533697,1110.308913,6513.812290
938.577708,306.438199,1184.329507,6365.771101
938.578027,1378.971896,1776.494261,5625.565159
938.578346,2528.115143,1554.432478,4737.318029
938.578665,2987.772442,1406.391290,5773.606348
938.578984,3753.867940,1406.391290,6291.750507
938.579303,3370.820191,1406.391290,5921.647536
938.579622,3294.210641,1184.329507,6587.832884
938.579941,2451.505594,592.164754,7328.038826
938.580260,1838.629195,962.267725,7105.977043
938.580578,1378.971896,1480.411884,7031.956449
938.580897,1302.362347,1406.391290,8660.409521
938.581216,1225.752797,1480.411884,9844.739029
938.581535,1991.848295,1702.473667,10066.800811
938.581854,3217.601092,1702.473667,10510.924376
938.582173,2757.943793,2220.617826,10288.862594
938.582492,4060.306139,3478.967927,8882.471304
938.582811,3830.477490,4071.132681,6883.915261
938.583130,3370.820191,3627.009116,6587.832884
938.583449,2757.943793,2442.679609,7254.018232
938.583768,1991.848295,1850.514855,8290.306550
938.584087,1225.752797,148.041188,10288.862594
938.584406,383.047749,-296.082377,11991.336260
938.584725,-536.266849,-0.000000,13471.748144
938.585044,-689.485948,1110.308913,12657.521608
938.585363,-1149.143247,2516.700203,11251.130318
938.585682,-1072.533697,3404.947333,10214.842000
938.586001,-995.924147,2664.741391,9992.780217
938.586320,-1225.752797,1924.535449,9326.594869
938.586639,-919.314598,592.164754,9992.780217
938.586958,-1225.752797,-444.123565,11177.109724
938.587277,-766.095498,-962.267725,12139.377449
938.587596,-536.266849,-370.102971,12361.439231
938.587915,-689.485948,1110.308913,12139.377449
938.588234,-459.657299,2368.659014,10955.047942
938.588553,229.828649,2886.803174,10288.862594
938.588872,76.609550,2516.700203,10140.821405
938.589191,-306.438199,1480.411884,10436.903782
938.589510,-919.314598,148.041188,11251.130318
938.589829,-1378.971896,-1332.370696,11843.295072
938.590148,-1838.629195,-2590.720797,12509.480420
938.590467,-2221.676944,-3849.070898,12657.521608
938.590786,-2451.505594,-3330.926739,12139.377449
938.591105,-2528.115143,-2960.823768,11547.212695
938.591424,-2298.286494,-2368.659014,10881.027347
938.591743,-1608.800546,-1628.453072,10807.006753
938.592062,-689.485948,-1406.391290,10066.800811
938.592381,-689.485948,-1554.432478,10066.800811
938.592700,-383.047749,-2220.617826,9992.780217
938.593019,153.219100,-2812.782580,9992.780217
938.593338,612.876398,-2294.638420,9918.759623
938.593657,689.485948,-1776.494261,9548.656652
938.593976,1378.971896,-1480.411884,8808.450710
938.594294,1838.629195,-1332.370696,8438.347739
938.594613,2451.505594,-592.164754,7179.997637
938.594932,3447.429741,-148.041188,6069.688724
938.595251,2834.553343,-740.205942,5995.668130
938.595570,2681.334243,-1628.453072,6513.812290
938.595889,2451.505594,-2146.597232,6883.915261
938.596208,2068.457845,-1702.473667,7031.956449
938.596527,1532.190996,-1332.370696,7105.977043
938.596846,1225.752797,-1406.391290,6957.935855
938.597165,842.705048,-1110.308913,6957.935855
938.597484,766.095498,-1184.329507,6439.791695
938.597803,612.876398,-962.267725,6513.812290
938.598122,689.485948,-888.247130,6883.915261
938.598441,689.485948,-592.164754,7328.038826
938.598760,995.924147,-74.020594,7772.162391
938.599079,1072.533697,222.061783,7698.141797
938.599398,1608.800546,518.144159,7105.977043
938.599717,1532.190996,814.226536,6735.874072
938.600036,2068.457845,1406.391290,6365.771101
938.600355,2068.457845,666.185348,6069.688724
938.600674,1762.019645,814.226536,6365.771101
938.600993,1378.971896,222.061783,7105.977043
938.601312,1072.533697,-148.041188,7476.080014
938.601631,459.657299,-222.061783,7920.203579
938.601950,-306.438199,-296.082377,8364.327145
938.602269,-689.485948,-74.020594,9178.553681
938.602588,-1991.848295,-222.061783,9770.718434
938.602907,-2681.334243,-518.144159,10214.842000
938.603226,-2681.334243,-740.205942,11251.130318
938.603545,-2834.553343,-740.205942,11473.192101
938.603864,-2374.896044,-518.144159,11843.295072
938.604183,-1915.238745,-0.000000,11843.295072
938.604502,-1608.800546,592.164754,11843.295072
938.604821,-995.924147,1332.370696,11177.109724
938.605140,-229.828649,2368.659014,10732.986159
938.605459,919.314598,2960.823768,10140.821405
938.605778,1149.143247,3552.988522,9770.718434
938.606097,1532.190996,3552.988522,9104.533087
938.606416,1838.629195,3108.864956,9178.553681
938.606735,2068.457845,2590.720797,9474.636058
938.607054,1378.971896,1480.411884,10140.821405
938.607373,995.924147,1554.432478,10584.944971
938.607692,76.609550,1776.494261,11325.150913
938.608011,0.000000,1924.535449,11325.150913
938.608330,-306.438199,1924.535449,11547.212695
938.608649,-689.485948,1850.514855,11399.171507
938.608968,-383.047749,2072.576638,11695.253884
938.609287,0.000000,1998.556043,11843.295072
938.609606,153.219100,1776.494261,12287.418637
938.609925,459.657299,1628.453072,12139.377449
938.610244,1302.362347,1628.453072,11547.212695
938.610563,2145.067394,2072.576638,11177.109724
938.610882,2681.334243,2294.638420,9770.718434
938.611201,3370.820191,2738.761985,8586.388927
938.611520,3753.867940,2886.803174,8364.327145
938.611838,3217.601092,3108.864956,7624.121203
938.612157,2987.772442,1998.556043,7994.224174
938.612476,2145.067394,814.226536,8364.327145
938.612795,1378.971896,-0.000000,9326.594869
938.613114,-459.657299,-888.247130,9474.636058
938.613433,-1302.362347,-222.061783,9252.574275
938.613752,-1762.019645,-518.144159,9474.636058
938.614071,-2145.067394,-1406.391290,9992.780217
938.614390,-2451.505594,-1406.391290,9696.697840
938.614709,-2145.067394,-2294.638420,10362.883188
938.615028,-1915.238745,-1554.432478,10288.862594
938.615347,-842.705048,-888.247130,9918.759623
938.615666,0.000000,-0.000000,9104.533087
938.615985,229.828649,592.164754,8216.285956
938.616304,919.314598,222.061783,8068.244768
938.616623,1608.800546,444.123565,7402.059420
938.616942,1991.848295,370.102971,6587.832884
938.617261,2145.067394,296.082377,5995.668130
938.617580,2145.067394,222.061783,6661.853478
938.617899,1608.800546,-740.205942,6735.874072
938.618218,1378.971896,-2146.597232,7698.141797
938.618537,459.657299,-2294.638420,7920.203579
938.618856,76.609550,-2368.659014,8512.368333
938.619175,-536.266849,-2072.576638,8512.368333
938.619494,-689.485948,-1850.514855,8956.491898
938.619813,-842.705048,-1406.391290,9030.512492
938.620132,-689.485948,-1332.370696,8660.409521
938.620451,76.609550,-1184.329507,9326.594869
938.620770,459.657299,-1110.308913,8956.491898
938.621089,1225.752797,-444.123565,9400.615463
938.621408,1685.410096,-0.000000,8808.450710
938.621727,2374.896044,666.185348,8660.409521
938.622046,2451.505594,1332.370696,8290.306550
938.622365,3370.820191,2220.617826,7550.100608
938.622684,3370.820191,1924.535449,7105.977043
938.623003,3140.991542,1776.494261,7105.977043
938.623322,2757.943793,1110.308913,7476.080014
938.623641,2068.457845,888.247130,7994.224174
938.623960,1225.752797,296.082377,8808.450710
938.624279,383.047749,296.082377,9400.615463
938.624598,-306.438199,740.205942,9696.697840
938.624917,-1225.752797,1406.391290,9622.677246
938.625236,-1072.533697,2072.576638,9474.636058
938.625555,-1378.971896,2072.576638,9474.636058
938.625874,-1225.752797,1924.535449,10140.821405
938.626193,-766.095498,2368.659014,10288.862594
938.626512,-383.047749,2812.782580,10510.924376
938.626831,689.485948,3404.947333,10510.924376
938.627150,1149.143247,3701.029710,10214.842000
938.627469,1838.629195,4367.215058,9474.636058
938.627788,2298.286494,5033.400406,9474.636058
938.628107,2834.553343,5255.462188,8882.471304
938.628426,2987.772442,5107.421000,8660.409521
938.628745,2911.162892,4441.235652,8808.450710
938.629064,2604.724693,3404.947333,9178.553681
938.629382,2374.896044,2368.659014,10140.821405
938.629701,1225.752797,1998.556043,10510.924376
938.630020,689.485948,2072.576638,10955.047942
938.630339,229.828649,1702.473667,11103.089130
938.630658,-383.047749,1776.494261,11325.150913
938.630977,-612.876398,1258.350101,10807.006753
938.631296,-995.924147,1628.453072,11177.109724
938.631615,-842.705048,1554.432478,11325.150913
938.631934,-689.485948,1258.350101,11547.212695
938.632253,-689.485948,1406.391290,11843.295072
938.632572,76.609550,1406.391290,11769.274478
938.632891,229.828649,1554.432478,11399.171507
938.633210,842.705048,2146.597232,10955.047942
938.633529,1072.533697,2368.659014,9918.759623
938.633848,1455.581446,2294.638420,9474.636058
938.634167,1762.019645,1998.556043,8882.471304
938.634486,1455.581446,962.267725,8586.388927
938.634805,1225.752797,222.061783,8882.471304
938.635124,612.876398,-666.185348,9252.574275
938.635443,766.095498,-1110.308913,9474.636058
938.635762,-766.095498,-1628.453072,9548.656652
938.636081,-1302.362347,-1702.473667,9474.636058
938.636400,-1915.238745,-1850.514855,9474.636058
938.636719,-1762.019645,-1702.473667,9548.656652
938.637038,-2068.457845,-2072.576638,9474.636058
938.637357,-1608.800546,-1924.535449,9474.636058
938.637676,-1608.800546,-1850.514855,9696.697840
938.637995,-766.095498,-1554.432478,9400.615463
938.638314,459.657299,-1406.391290,9474.636058
938.638633,612.876398,-370.102971,8956.491898
938.638952,1455.581446,-370.102971,7698.141797
938.639271,2298.286494,370.102971,7105.977043
938.639590,2528.115143,222.061783,6365.771101
938.639909,2911.162892,148.041188,5995.668130
938.640228,2987.772442,-814.226536,5847.626942
938.640547,2757.943793,-1332.370696,6291.750507
938.640866,2145.067394,-1998.556043,6809.894666
938.641185,1532.190996,-2220.617826,7254.018232
938.641504,842.705048,-2368.659014,8068.244768
938.641823,459.657299,-2368.659014,8068.244768
938.642142,0.000000,-1850.514855,7994.224174
938.642461,-306.438199,-1332.370696,8216.285956
938.642780,-229.828649,-1036.288319,8290.306550
938.643099,153.219100,-962.267725,8216.285956
938.643418,229.828649,-444.123565,8364.327145
938.643737,612.876398,-74.020594,8512.368333
938.644056,1225.752797,444.123565,8586.388927
938.644375,2374.896044,1332.370696,7920.203579
938.644694,2451.505594,1628.453072,7254.018232
938.645013,3217.601092,2812.782580,6809.894666
938.645332,2911.162892,2960.823768,6661.853478
938.645651,2987.772442,3108.864956,6735.874072
938.645970,2681.334243,2590.720797,6513.812290
938.646289,1762.019645,2294.638420,7550.100608
938.646608,1072.533697,1480.411884,8438.347739
938.646926,153.219100,1110.308913,9178.553681
938.647245,-536.266849,1110.308913,9400.615463
938.647564,-995.924147,1332.370696,9770.718434
938.647883,-1991.848295,1332.370696,10214.842000
938.648202,-2068.457845,1184.329507,10658.965565
938.648521,-1838.629195,814.226536,11103.089130
938.648840,-1532.190996,888.247130,11769.274478
938.649159,-1455.581446,1480.411884,11843.295072
938.649478,-536.266849,2664.741391,11695.253884
938.649797,153.219100,2738.761985,11695.253884
938.650116,919.314598,3478.967927,10881.027347
938.650435,1149.143247,3552.988522,10584.944971
938.650754,1532.190996,3552.988522,10584.944971
938.651073,1532.190996,3108.864956,9992.780217
938.651392,1838.629195,2590.720797,10140.821405
938.651711,1762.019645,1702.473667,10584.944971
938.652030,1149.143247,1036.288319,11325.150913
938.652349,766.095498,592.164754,11621.233289
938.652668,536.266849,222.061783,12213.398043
938.652987,0.000000,296.082377,12139.377449
938.653306,-306.438199,444.123565,11917.315666
938.653625,-383.047749,444.123565,11991.336260
938.653944,-612.876398,370.102971,11843.295072
938.654263,-153.219100,444.123565,11769.274478
938.654582,0.000000,148.041188,11695.253884
938.654901,153.219100,-0.000000,11843.295072
938.655220,842.705048,370.102971,11547.212695
938.655539,1149.143247,888.247130,11251.130318
938.655858,1532.190996,1628.453072,10288.862594
938.656177,1838.629195,1776.494261,9252.574275
938.656496,2528.115143,1776.494261,8734.430116
938.656815,2145.067394,1850.514855,8142.265362
938.657134,1991.848295,1110.308913,7698.141797
938.657453,1455.581446,296.082377,7772.162391
938.657772,229.828649,-296.082377,8512.368333
938.658091,-153.219100,-518.144159,8734.430116
938.658410,-842.705048,-1110.308913,8586.388927
938.658729,-1838.629195,-1554.432478,8734.430116
938.659048,-2374.896044,-1480.411884,8808.450710
938.659367,-2528.115143,-1628.453072,8808.450710
938.659686,-2451.505594,-1998.556043,8660.409521
938.660005,-2145.067394,-1776.494261,8586.388927
938.660324,-1762.019645,-1850.514855,8660.409521
938.660643,-1302.362347,-1702.473667,8660.409521
938.660962,-536.266849,-1554.432478,8364.327145
938.661281,0.000000,-1628.453072,7624.121203
938.661600,612.876398,-666.185348,7254.018232
938.661919,689.485948,-666.185348,6735.874072
938.662238,1302.362347,-444.123565,6069.688724
938.662557,1762.019645,-1036.288319,5847.626942
938.662876,1225.752797,-1554.432478,5847.626942
938.663195,612.876398,-2442.679609,6439.791695
938.663514,153.219100,-3108.864956,7105.977043
938.663833,-383.047749,-3034.844362,7624.121203
938.664152,-536.266849,-2960.823768,8216.285956
938.664470,-689.485948,-2590.720797,8438.347739
938.664789,-995.924147,-2368.659014,8364.327145
938.665108,-612.876398,-2146.597232,8438.347739
938.665427,-612.876398,-1554.432478,8660.409521
938.665746,0.000000,-1480.411884,8290.306550
938.666065,229.828649,-1036.288319,8438.347739
938.666384,919.314598,-814.226536,9030.512492
938.666703,1455.581446,-222.061783,8956.491898
938.667022,2068.457845,-0.000000,8586.388927
938.667341,2834.553343,1110.308913,8142.265362
938.667660,3140.991542,1628.453072,7698.141797
938.667979,3217.601092,1924.535449,7328.038826
938.668298,2757.943793,1776.494261,7328.038826
938.668617,2298.286494,1332.370696,7920.203579
938.668936,1838.629195,962.267725,8512.368333
938.669255,1072.533697,518.144159,9104.533087
938.669574,229.828649,222.061783,9622.677246
938.669893,0.000000,296.082377,10362.883188
938.670212,-1072.533697,518.144159,10807.006753
938.670531,-1915.238745,148.041188,10881.027347
938.670850,-1685.410096,666.185348,10955.047942
938.671169,-1532.190996,1036.288319,11177.109724
938.671488,-1302.362347,1110.308913,11177.109724
938.671807,-1225.752797,1554.432478,11029.068536
938.672126,-689.485948,1850.514855,11251.130318
938.672445,-229.828649,2368.659014,11251.130318
938.672764,0.000000,2516.700203,10658.965565
938.673083,459.657299,2886.803174,10510.924376
938.673402,536.266849,3034.844362,10140.821405
938.673721,919.314598,3034.844362,9770.718434
938.674040,536.266849,2220.617826,9770.718434
938.674359,153.219100,1776.494261,10214.842000
938.674678,76.609550,1184.329507,10436.903782
938.674997,-229.828649,370.102971,11029.068536
938.675316,-766.095498,296.082377,11473.192101
938.675635,-1455.581446,370.102971,11695.253884
938.675954,-1225.752797,148.041188,11621.233289
938.676273,-1378.971896,296.082377,11695.253884
938.676592,-1302.362347,518.144159,11473.192101
938.676911,-842.705048,370.102971,11103.089130
938.677230,-459.657299,666.185348,10807.006753
938.677549,0.000000,740.205942,10881.027347
938.677868,1225.752797,888.247130,10584.944971
938.678187,1532.190996,814.226536,10288.862594
938.678506,1991.848295,888.247130,9696.697840
938.678825,2681.334243,814.226536,9030.512492
938.679144,2757.943793,1110.308913,8438.347739
938.679463,3294.210641,666.185348,7846.182985
938.679782,2834.553343,-0.000000,7920.203579
938.680101,2604.724693,-592.164754,7846.182985
938.680420,2374.896044,-1258.350101,8438.347739
938.680739,1378.971896,-1850.514855,8808.450710
938.681058,995.924147,-1628.453072,8512.368333
938.681377,153.219100,-1776.494261,8808.450710
938.681696,-306.438199,-2072.576638,8956.491898
938.682014,-842.705048,-2368.659014,9104.533087
938.682333,-842.705048,-2368.659014,8808.450710
938.682652,-689.485948,-2294.638420,8734.430116
938.682971,-459.657299,-2146.597232,8586.388927
938.683290,-153.219100,-1998.556043,8660.409521
938.683609,-229.828649,-2368.659014,8586.388927
938.683928,0.000000,-1406.391290,7994.224174
938.684247,459.657299,-444.123565,7550.100608
938.684566,919.314598,-74.020594,6957.935855
938.684885,1225.752797,-0.000000,6735.874072
938.685204,995.924147,-74.020594,6513.812290
938.685523,459.657299,-666.185348,6661.853478
938.685842,229.828649,-1258.350101,6735.874072
938.686161,-153.219100,-1776.494261,7328.038826
938.686480,-306.438199,-2146.597232,7920.203579
938.686799,-995.924147,-1776.494261,8364.327145
938.687118,-1225.752797,-1332.370696,8438.347739
938.687437,-1302.362347,-1184.329507,8734.430116
938.687756,-1378.971896,-814.226536,8882.471304
938.688075,-1532.190996,-666.185348,8512.368333
938.688394,-1149.143247,-0.000000,8882.471304
938.688713,-383.047749,-0.000000,9030.512492
938.689032,0.000000,518.144159,9474.636058
938.689351,1455.581446,1184.329507,9474.636058
938.689670,1149.143247,1184.329507,9326.594869
938.689989,1532.190996,1776.494261,8586.388927
938.690308,2221.676944,2294.638420,8364.327145
938.690627,2451.505594,2368.659014,8142.265362
938.690946,2681.334243,1850.514855,8290.306550
938.691265,2451.505594,1776.494261,8586.388927
938.691584,1991.848295,1332.370696,9104.533087
938.691903,1302.362347,888.247130,9548.656652
938.692222,842.705048,592.164754,10288.862594
938.692541,76.609550,222.061783,10584.944971
938.692860,-383.047749,296.082377,11177.109724
938.693179,-229.828649,666.185348,11177.109724
938.693498,-766.095498,296.082377,11917.315666
938.693817,-459.657299,740.205942,11695.253884
938.694136,0.000000,1110.308913,11769.274478
938.694455,306.438199,1554.432478,11547.212695
938.694773,766.095498,1924.535449,11399.171507
938.695092,1378.971896,2146.597232,11177.109724
938.695411,1532.190996,2442.679609,10584.944971
938.695730,1762.019645,2960.823768,10066.800811
938.696049,1608.800546,2590.720797,9696.697840
938.696368,2068.457845,2664.741391,9326.594869
938.696687,1532.190996,2220.617826,9474.636058
938.697006,1378.971896,1554.432478,9622.677246
938.697325,919.314598,962.267725,10140.821405
938.697644,0.000000,370.102971,10510.924376
938.697962,-229.828649,222.061783,10658.965565
938.698281,-995.924147,444.123565,10510.924376
938.698600,-1149.143247,370.102971,10510.924376
938.698919,-1378.971896,444.123565,10436.903782
938.699238,-766.095498,962.267725,10066.800811
938.699557,-536.266849,592.164754,9992.780217
938.699876,-383.047749,518.144159,9844.739029
938.700195,0.000000,592.164754,9844.739029
938.700514,536.266849,666.185348,9548.656652
938.700833,919.314598,962.267725,9178.553681
938.701152,1532.190996,1036.288319,8882.471304
938.701471,1685.410096,1480.411884,8216.285956
938.701790,1685.410096,1406.391290,7550.100608
938.702109,1915.238745,962.267725,7624.121203
938.702428,1608.800546,296.082377,7624.121203
938.702746,1685.410096,-148.041188,7772.162391
938.703065,1149.143247,-1110.308913,8068.244768
938.703384,689.485948,-1554.432478,8512.368333
938.703703,383.047749,-1776.494261,8734.430116
938.704022,0.000000,-1702.473667,8364.327145
938.704341,-459.657299,-2072.576638,8808.450710
938.704660,0.000000,-1628.453072,8290.306550
938.704979,0.000000,-1554.432478,8364.327145
938.705298,383.047749,-1406.391290,8290.306550
938.705617,842.705048,-1406.391290,8660.409521
938.705936,842.705048,-1184.329507,8290.306550
938.706255,1378.971896,-666.185348,8586.388927
938.706574,1838.629195,-74.020594,8290.306550
938.706893,2145.067394,296.082377,7846.182985
938.707212,2451.505594,592.164754,7328.038826
938.707530,2681.334243,592.164754,7105.977043
938.707849,2451.505594,592.164754,6883.915261
938.708168,2451.505594,370.102971,7031.956449
938.708487,2221.676944,-222.061783,7624.121203
938.708806,1608.800546,-370.102971,8290.306550
938.709125,1225.752797,-518.144159,8364.327145
938.709444,995.924147,-444.123565,8512.368333
938.709763,153.219100,-0.000000,8808.450710
938.710082,0.000000,-0.000000,8808.450710
938.710401,153.219100,222.061783,8734.430116
938.710720,0.000000,814.226536,8808.450710
938.711039,0.000000,1110.308913,9178.553681
938.711358,229.828649,1332.370696,9548.656652
938.711677,229.828649,1480.411884,9770.718434
938.711996,766.095498,1554.432478,9844.739029
938.712314,995.924147,2294.638420,9696.697840
938.712633,995.924147,2368.659014,9326.594869
938.712952,1302.362347,2960.823768,8882.471304
938.713271,1225.752797,3182.885551,8882.471304
938.713590,1378.971896,2442.679609,8660.409521
938.713909,1072.533697,2442.679609,9030.512492
938.714228,459.657299,2146.597232,9474.636058
938.714547,-153.219100,1850.514855,10140.821405
938.714866,-766.095498,1850.514855,10732.986159
938.715185,-995.924147,1258.350101,11103.089130
938.715504,-1608.800546,1184.329507,11103.089130
938.715823,-1685.410096,1184.329507,11103.089130
938.716142,-2068.457845,1036.288319,11473.192101
938.716461,-1378.971896,1110.308913,11843.295072
938.716780,-1608.800546,1184.329507,11843.295072
938.717098,-1302.362347,1406.391290,11843.295072
938.717417,-612.876398,1628.453072,11769.274478
938.717736,-153.219100,1776.494261,11621.233289
938.718055,306.438199,1998.556043,11103.089130
938.718374,1225.752797,2368.659014,10362.883188
938.718693,1149.143247,2442.679609,9696.697840
938.719012,2145.067394,2294.638420,9252.574275
938.719331,2145.067394,1776.494261,9252.574275
938.719650,1991.848295,1258.350101,9178.553681
938.719969,1915.238745,370.102971,9696.697840
938.720288,1455.581446,-148.041188,10214.842000
938.720607,1149.143247,-148.041188,10214.842000
938.720926,995.924147,-222.061783,10436.903782
938.721245,612.876398,-0.000000,10140.821405
938.721564,229.828649,-0.000000,9770.718434
938.721882,536.266849,-0.000000,9474.636058
938.722201,459.657299,-0.000000,9252.574275
938.722520,1302.362347,-444.123565,9030.512492
938.722839,612.876398,-74.020594,9252.574275
938.723158,1302.362347,-0.000000,9326.594869
938.723477,1838.629195,370.102971,9178.553681
938.723796,1915.238745,814.226536,8290.306550
938.724115,2068.457845,1184.329507,7476.080014
938.724434,2068.457845,1258.350101,7179.997637
938.724753,2604.724693,962.267725,6809.894666
938.725072,1991.848295,888.247130,6291.750507
938.725391,1072.533697,-222.061783,7105.977043
938.725710,842.705048,-592.164754,7550.100608
938.726029,0.000000,-444.123565,7402.059420
938.726348,-842.705048,-1332.370696,8068.244768
938.726666,-1378.971896,-888.247130,8290.306550
938.726985,-1915.238745,-1036.288319,8142.265362
938.727304,-1915.238745,-962.267725,7772.162391
938.727623,-1991.848295,-592.164754,8586.388927
938.727942,-1915.238745,-740.205942,8808.450710
938.728261,-1532.190996,-592.164754,8586.388927
938.728580,-919.314598,-518.144159,8734.430116
938.728899,-229.828649,-148.041188,8734.430116
938.729218,0.000000,814.226536,8438.347739
938.729537,919.314598,888.247130,7846.182985
938.729856,919.314598,1258.350101,8142.265362
938.730175,1762.019645,888.247130,7031.956449
938.730494,2068.457845,962.267725,7105.977043
938.730813,2145.067394,518.144159,7550.100608
938.731132,1608.800546,-296.082377,8142.265362
938.731450,1072.533697,-1110.308913,8808.450710
938.731769,995.924147,-1110.308913,9326.594869
938.732088,0.000000,-1258.350101,9844.739029
938.732407,-229.828649,-962.267725,9696.697840
938.732726,-383.047749,-740.205942,10140.821405
938.733045,-306.438199,-296.082377,10362.883188
938.733364,-306.438199,-74.020594,10288.862594
938.733683,153.219100,-0.000000,10362.883188
938.734002,459.657299,444.123565,10436.903782
938.734321,1685.410096,370.102971,10584.944971
938.734640,1532.190996,1406.391290,10584.944971
938.734959,1915.238745,1850.514855,10214.842000
938.735278,2528.115143,2590.720797,9844.739029
938.735597,2681.334243,2738.761985,9030.512492
938.735916,3370.820191,2664.741391,8734.430116
938.736234,2987.772442,2442.679609,8734.430116
938.736553,2528.115143,2442.679609,8882.471304
938.736872,2145.067394,1924.535449,9326.594869
938.737191,1149.143247,1702.473667,9844.739029
938.737510,229.828649,1184.329507,10362.883188
938.737829,-383.047749,1110.308913,10807.006753
938.738148,-995.924147,1258.350101,10436.903782
938.738467,-1302.362347,1184.329507,10881.027347
938.738786,-1685.410096,962.267725,11029.068536
938.739105,-1915.238745,666.185348,11029.068536
938.739424,-1838.629195,962.267725,11103.089130
938.739743,-1302.362347,1258.350101,11177.109724
938.740062,-995.924147,1628.453072,11473.192101
938.740381,-1072.533697,1924.535449,11399.171507
938.740700,-459.657299,2146.597232,10436.903782
938.741018,153.219100,2442.679609,9770.718434
938.741337,536.266849,2368.659014,9178.553681
938.741656,612.876398,2220.617826,8882.471304
938.741975,1225.752797,1480.411884,8660.409521
938.742294,689.485948,740.205942,8882.471304
938.742613,153.219100,-0.000000,9400.615463
938.742932,0.000000,-518.144159,9696.697840
938.743251,-306.438199,-740.205942,9548.656652
938.743570,-842.705048,-1258.350101,9622.677246
938.743889,-1149.143247,-740.205942,9918.759623
938.744208,-1532.190996,-1036.288319,9844.739029
938.744527,-1302.362347,-666.185348,9770.718434
938.744846,-766.095498,-592.164754,9770.718434
938.745165,-306.438199,-666.185348,9770.718434
938.745484,-153.219100,-592.164754,9844.739029
938.745802,536.266849,-518.144159,9770.718434
938.746121,919.314598,-222.061783,9474.636058
938.746440,2068.457845,74.020594,9104.533087
938.746759,2068.457845,518.144159,7994.224174
938.747078,2757.943793,666.185348,7402.059420
938.747397,3064.381992,296.082377,6809.894666
938.747716,2911.162892,-148.041188,6735.874072
938.748035,2528.115143,-444.123565,7031.956449
938.748354,1991.848295,-962.267725,7105.977043
938.748673,1225.752797,-1776.494261,7402.059420
938.748992,306.438199,-1924.535449,7772.162391
938.749311,0.000000,-1924.535449,8512.368333
938.749630,-842.705048,-2072.576638,8142.265362
938.749949,-1378.971896,-1998.556043,8364.327145
938.750268,-1378.971896,-1924.535449,8882.471304
938.750586,-1072.533697,-1776.494261,8808.450710
938.750905,-919.314598,-1776.494261,9104.533087
938.751224,-766.095498,-1184.329507,9474.636058
938.751543,-383.047749,-666.185348,9104.533087
938.751862,0.000000,-0.000000,8734.430116
938.752181,612.876398,518.144159,8216.285956
938.752500,1302.362347,888.247130,7624.121203
938.752819,1149.143247,1184.329507,6957.935855
938.753138,1608.800546,1110.308913,6809.894666
938.753457,1532.190996,740.205942,7105.977043
938.753776,1455.581446,-148.041188,7105.977043
938.754095,689.485948,-666.185348,8068.244768
938.754414,76.609550,-740.205942,9030.512492
938.754733,-459.657299,-666.185348,9400.615463
938.755052,-842.705048,-370.102971,9696.697840
938.755370,-842.705048,-222.061783,9770.718434
938.755689,-1302.362347,-74.020594,10066.800811
938.756008,-1072.533697,-0.000000,10436.903782
938.756327,-612.876398,370.102971,10214.842000
938.756646,-229.828649,666.185348,10362.883188
938.756965,766.095498,1110.308913,10584.944971
938.757284,1072.533697,1480.411884,10362.883188
938.757603,1302.362347,1924.535449,10140.821405
938.757922,1915.238745,2146.597232,9474.636058
938.758241,2221.676944,2368.659014,9400.615463
938.758560,2528.115143,2146.597232,9252.574275
938.758879,2451.505594,1776.494261,8808.450710
938.759198,2068.457845,1184.329507,9252.574275
938.759517,1532.190996,518.144159,9474.636058
938.759836,612.876398,-0.000000,10066.800811
938.760154,383.047749,-148.041188,10658.965565
938.760473,-383.047749,-0.000000,10732.986159
938.760792,-1072.533697,-74.020594,10732.986159
938.761111,-1225.752797,-222.061783,11103.089130
938.761430,-1149.143247,-0.000000,11103.089130
938.761749,-919.314598,-0.000000,11177.109724
938.762068,-383.047749,222.061783,11177.109724
938.762387,76.609550,444.123565,10881.027347
938.762706,459.657299,888.247130,10955.047942
938.763025,1072.533697,1110.308913,10288.862594
938.763344,1302.362347,1258.350101,9696.697840
938.763663,1762.019645,1702.473667,9400.615463
938.763982,1762.019645,1924.535449,8660.409521
938.764301,2068.457845,2072.576638,8364.327145
938.764620,1915.238745,1110.308913,8512.368333
938.764938,1608.800546,740.205942,8586.388927
938.765257,919.314598,-74.020594,9030.512492
938.765576,383.047749,-518.144159,9400.615463
938.765895,0.000000,-740.205942,9474.636058
938.766214,-383.047749,-888.247130,9474.636058
938.766533,-995.924147,-814.226536,9474.636058
938.766852,-1072.533697,-740.205942,9326.594869
938.767171,-1149.143247,-592.164754,9400.615463
938.767490,-766.095498,-370.102971,9326.594869
938.767809,-306.438199,-222.061783,9474.636058
938.768128,0.000000,-222.061783,9326.594869
938.768447,306.438199,-0.000000,9104.533087
938.768766,689.485948,148.041188,8808.450710
938.769085,1378.971896,296.082377,8364.327145
938.769404,1838.629195,888.247130,7402.059420
938.769722,1838.629195,518.144159,7328.038826
938.770041,2374.896044,518.144159,6957.935855
938.770360,1991.848295,148.041188,7179.997637
938.770679,1838.629195,-370.102971,7624.121203
938.770998,919.314598,-888.247130,8068.244768
938.771317,306.438199,-888.247130,8660.409521
938.771636,-229.828649,-1110.308913,8364.327145
938.771955,-536.266849,-1258.350101,8956.491898
938.772274,-689.485948,-1776.494261,9030.512492
938.772593,-1072.533697,-1406.391290,9104.533087
938.772912,-1225.752797,-1258.350101,9400.615463
938.773231,-842.705048,-1258.350101,9474.636058
938.773550,0.000000,-1036.288319,9548.656652
938.773869,0.000000,-444.123565,9918.759623
938.774188,536.266849,74.020594,9474.636058
938.774506,1149.143247,592.164754,9104.533087
938.774825,1532.190996,962.267725,8438.347739
938.775144,1838.629195,1184.329507,7994.224174
938.775463,2221.676944,1184.329507,7772.162391
938.775782,2068.457845,814.226536,7402.059420
938.776101,1915.238745,222.061783,8216.285956
938.776420,1302.362347,-370.102971,8660.409521
938.776739,536.266849,-666.185348,9252.574275
938.777058,0.000000,-1110.308913,9918.759623
938.777377,-612.876398,-962.267725,10362.883188
938.777696,-995.924147,-666.185348,10362.883188
938.778015,-1302.362347,-666.185348,10140.821405
938.778334,-1225.752797,222.061783,10288.862594
938.778653,-1072.533697,296.082377,10140.821405
938.778972,-766.095498,740.205942,9992.780217
938.779290,0.000000,666.185348,10214.842000
938.779609,0.000000,1110.308913,10584.944971
938.779928,383.047749,1036.288319,10140.821405
938.780247,1685.410096,1924.535449,9918.759623
938.780566,1685.410096,2294.638420,9252.574275
938.780885,2068.457845,2664.741391,8734.430116
938.781204,2145.067394,2590.720797,8364.327145
938.781523,2298.286494,2368.659014,8142.265362
938.781842,1991.848295,1776.494261,8438.347739
938.782161,1455.581446,1184.329507,9178.553681
938.782480,383.047749,518.144159,9844.739029
938.782799,0.000000,296.082377,10214.842000
938.783118,-842.705048,222.061783,10140.821405
938.783437,-1072.533697,148.041188,10584.944971
938.783756,-1225.752797,222.061783,10436.903782
938.784074,-995.924147,222.061783,10584.944971
938.784393,-1378.971896,518.144159,10362.883188
938.784712,-995.924147,666.185348,10214.842000
938.785031,-766.095498,666.185348,10362.883188
938.785350,0.000000,740.205942,10436.903782
938.785669,612.876398,1110.308913,10214.842000
938.785988,689.485948,1406.391290,9548.656652
938.786307,1378.971896,1628.453072,8956.491898
938.786626,1915.238745,2072.576638,8438.347739
938.786945,1762.019645,1924.535449,8142.265362
938.787264,1532.190996,370.102971,7994.224174
938.787583,1608.800546,296.082377,8142.265362
938.787902,1225.752797,-0.000000,8512.368333
938.788221,919.314598,-592.164754,9326.594869
938.788540,536.266849,-962.267725,9178.553681
938.788858,383.047749,-592.164754,9770.718434
938.789177,76.609550,-518.144159,9548.656652
938.789496,-229.828649,-592.164754,9474.636058
938.789815,306.438199,-74.020594,9252.574275
938.790134,459.657299,148.041188,9326.594869
938.790453,842.705048,148.041188,9474.636058
938.790772,1302.362347,518.144159,9326.594869
938.791091,1838.629195,666.185348,9326.594869
938.791410,2374.896044,740.205942,9030.512492
938.791729,2681.334243,1258.350101,8512.368333
938.792048,2451.505594,1554.432478,7624.121203
938.792367,2987.772442,1850.514855,7254.018232
938.792686,2451.505594,1258.350101,6957.935855
938.793005,2374.896044,814.226536,7105.977043
938.793324,2145.067394,370.102971,7402.059420
938.793642,995.924147,-0.000000,8068.244768
938.793961,76.609550,-444.123565,8512.368333
938.794280,-842.705048,-518.144159,9178.553681
938.794599,-1302.362347,-518.144159,9400.615463
938.794918,-1838.629195,-518.144159,9548.656652
938.795237,-1991.848295,-444.123565,9770.718434
938.795556,-2374.896044,-592.164754,10066.800811
938.795875,-1685.410096,-296.082377,9918.759623
938.796194,-1225.752797,-0.000000,10066.800811
938.796513,-766.095498,222.061783,9770.718434
938.796832,0.000000,888.247130,9918.759623
938.797150,229.828649,1332.370696,9326.594869
938.797469,766.095498,1776.494261,8882.471304
938.797788,536.266849,1998.556043,8882.471304
938.798107,1378.971896,1554.432478,7920.203579
938.798426,1608.800546,1480.411884,8216.285956
938.798745,1608.800546,666.185348,8216.285956
938.799064,1378.971896,296.082377,8734.430116
938.799383,1072.533697,-666.185348,9548.656652
938.799702,459.657299,-296.082377,9770.718434
938.800021,76.609550,-74.020594,10066.800811
938.800340,0.000000,-0.000000,10436.903782
938.800658,-153.219100,-74.020594,10066.800811
938.800977,-306.438199,-0.000000,10362.883188
938.801296,0.000000,444.123565,10584.944971
938.801615,536.266849,740.205942,10362.883188
938.801934,766.095498,962.267725,10436.903782
938.802253,1378.971896,1184.329507,10436.903782
938.802572,1455.581446,1628.453072,10658.965565
938.802891,1991.848295,1924.535449,9770.718434
938.803210,2604.724693,2294.638420,9326.594869
938.803529,2451.505594,2146.597232,8734.430116
938.803848,2604.724693,1998.556043,8512.368333
938.804166,2221.676944,1554.432478,8512.368333
938.804485,1915.238745,962.267725,8438.347739
938.804804,842.705048,518.144159,9178.553681
938.805123,383.047749,-0.000000,9400.615463
938.805442,-536.266849,-296.082377,9844.739029
938.805761,-1072.533697,-0.000000,9696.697840
938.806080,-2068.457845,-148.041188,10140.821405
938.806399,-2068.457845,-148.041188,9992.780217
938.806718,-2221.676944,-148.041188,10140.821405
938.807037,-1838.629195,-0.000000,10288.862594
938.807356,-1225.752797,370.102971,9844.739029
938.807674,-1149.143247,592.164754,9548.656652
938.807993,-459.657299,1184.329507,9474.636058
938.808312,306.438199,1776.494261,8956.491898
938.808631,536.266849,1850.514855,8586.388927
938.808950,1149.143247,1924.535449,7994.224174
938.809269,1455.581446,2072.576638,7254.018232
938.809588,1991.848295,1554.432478,7328.038826
938.809907,1532.190996,1184.329507,7328.038826
938.810226,1225.752797,296.082377,7920.203579
938.810545,459.657299,-222.061783,8660.409521
938.810864,306.438199,-518.144159,9030.512492
938.811182,0.000000,-666.185348,9326.594869
938.811501,-383.047749,-592.164754,9474.636058
938.811820,-689.485948,-296.082377,9474.636058
938.812139,-383.047749,-0.000000,9400.615463
938.812458,0.000000,-74.020594,9178.553681
938.812777,842.705048,370.102971,9474.636058
938.813096,995.924147,518.144159,9104.533087
938.813415,1455.581446,518.144159,9326.594869
938.813734,2068.457845,666.185348,9474.636058
938.814053,2987.772442,888.247130,9252.574275
938.814372,3370.820191,592.164754,8882.471304
938.814690,3370.820191,1258.350101,8068.244768
938.815009,2987.772442,1036.288319,7994.224174
938.815328,2987.772442,740.205942,8068.244768
938.815647,2528.115143,370.102971,8142.265362
938.815966,1838.629195,-370.102971,8512.368333
938.816285,1072.533697,-814.226536,9178.553681
938.816604,153.219100,-962.267725,9548.656652
938.816923,-383.047749,-1110.308913,9474.636058
938.817242,-1149.143247,-1036.288319,9992.780217
938.817561,-1302.362347,-1110.308913,10066.800811
938.817880,-1378.971896,-666.185348,10066.800811
938.818198,-1532.190996,-444.123565,9992.780217
938.818517,-1302.362347,-74.020594,10140.821405
938.818836,-842.705048,-0.000000,10214.842000
938.819155,-306.438199,666.185348,10066.800811
938.819474,0.000000,962.267725,9696.697840
938.819793,229.828649,1480.411884,9474.636058
938.820112,536.266849,1554.432478,9104.533087
938.820431,612.876398,1998.556043,8512.368333
938.820750,1149.143247,2368.659014,8290.306550
938.821069,995.924147,1702.473667,8364.327145
938.821388,842.705048,1036.288319,8660.409521
938.821706,383.047749,148.041188,9178.553681
938.822025,0.000000,-74.020594,9474.636058
938.822344,-383.047749,-0.000000,9622.677246
938.822663,-612.876398,-0.000000,9696.697840
938.822982,-1072.533697,148.041188,9844.739029
938.823301,-612.876398,296.082377,10066.800811
938.823620,-995.924147,370.102971,9844.739029
938.823939,-689.485948,370.102971,10066.800811
938.824258,0.000000,740.205942,10066.800811
938.824577,229.828649,666.185348,9918.759623
938.824896,689.485948,740.205942,10214.842000
938.825214,1149.143247,1258.350101,9844.739029
938.825533,1838.629195,1702.473667,9474.636058
938.825852,2068.457845,2146.597232,8882.471304
938.826171,2681.334243,1998.556043,8364.327145
938.826490,2604.724693,1554.432478,8068.244768
938.826809,2298.286494,1036.288319,8068.244768
938.827128,2298.286494,740.205942,8364.327145
938.827447,1532.190996,-0.000000,8734.430116
938.827766,919.314598,-222.061783,9252.574275
938.828085,306.438199,-296.082377,9326.594869
938.828404,0.000000,-444.123565,9622.677246
938.828722,-919.314598,-592.164754,9622.677246
938.829041,-1149.143247,-666.185348,9844.739029
938.829360,-766.095498,-444.123565,10066.800811
938.829679,-995.924147,-592.164754,10214.842000
938.829998,-766.095498,-74.020594,10066.800811
938.830317,-536.266849,-148.041188,9918.759623
938.830636,0.000000,370.102971,9992.780217
938.830955,383.047749,592.164754,9844.739029
938.831274,766.095498,740.205942,9178.553681
938.831593,919.314598,1554.432478,8586.388927
938.831912,1302.362347,1480.411884,7994.224174
938.832230,1532.190996,962.267725,7994.224174
938.832549,1532.190996,444.123565,7772.162391
938.832868,995.924147,-74.020594,8068.244768
938.833187,536.266849,-814.226536,8586.388927
938.833506,-153.219100,-962.267725,8956.491898
938.833825,-919.314598,-1258.350101,9326.594869
938.834144,-1149.143247,-1332.370696,9548.656652
938.834463,-1378.971896,-740.205942,9474.636058
938.834782,-1455.581446,-814.226536,9696.697840
938.835101,-1378.971896,-444.123565,9548.656652
938.835420,-1072.533697,-222.061783,9474.636058
938.835738,-536.266849,-74.020594,9622.677246
938.836057,0.000000,296.082377,9770.718434
938.836376,153.219100,666.185348,9548.656652
938.836695,842.705048,740.205942,9104.533087
938.837014,1378.971896,1184.329507,8660.409521
938.837333,1685.410096,1406.391290,8216.285956
938.837652,2145.067394,1554.432478,7698.141797
938.837971,2374.896044,1480.411884,7772.162391
938.838290,2068.457845,888.247130,7772.162391
938.838609,1608.800546,296.082377,8142.265362
938.838928,995.924147,-296.082377,8882.471304
938.839246,229.828649,-666.185348,9400.615463
938.839565,0.000000,-814.226536,9474.636058
938.839884,-612.876398,-888.247130,9474.636058
938.840203,-766.095498,-1036.288319,9696.697840
938.840522,-1225.752797,-666.185348,9992.780217
938.840841,-1072.533697,-592.164754,9992.780217
938.841160,-612.876398,-222.061783,10066.800811
938.841479,-383.047749,148.041188,10362.883188
938.841798,229.828649,-0.000000,10140.821405
938.842117,306.438199,444.123565,10066.800811
938.842436,842.705048,1036.288319,9696.697840
938.842754,1302.362347,1184.329507,9178.553681
938.843073,1685.410096,1554.432478,8586.388927
938.843392,1991.848295,1628.453072,8142.265362
938.843711,1608.800546,1184.329507,7624.121203
938.844030,1762.019645,740.205942,8216.285956
938.844349,995.924147,-0.000000,8660.409521
938.844668,536.266849,-370.102971,9252.574275
938.844987,0.000000,-888.247130,9696.697840
938.845306,-536.266849,-592.164754,9992.780217
938.845625,-766.095498,-518.144159,10066.800811
938.845944,-842.705048,-518.144159,10140.821405
938.846263,-842.705048,-0.000000,9844.739029
938.846581,-919.314598,296.082377,10066.800811
938.846900,-459.657299,148.041188,9844.739029
938.847219,153.219100,666.185348,9696.697840
938.847538,612.876398,518.144159,10362.883188
938.847857,1149.143247,666.185348,9918.759623
938.848176,1532.190996,1406.391290,9474.636058
938.848495,1838.629195,1850.514855,8586.388927
938.848814,2145.067394,2220.617826,8068.244768
938.849133,2374.896044,1998.556043,7698.141797
938.849452,1915.238745,1406.391290,7846.182985
938.849771,1762.019645,962.267725,8142.265362
938.850089,919.314598,148.041188,8660.409521
938.850408,306.438199,-444.123565,9030.512492
938.850727,-229.828649,-518.144159,9474.636058
938.851046,-1225.752797,-666.185348,9770.718434
938.851365,-1378.971896,-592.164754,9918.759623
938.851684,-1532.190996,-592.164754,10214.842000
938.852003,-1455.581446,-296.082377,9992.780217
938.852322,-766.095498,-296.082377,9918.759623
938.852641,-919.314598,-74.020594,9992.780217
938.852960,0.000000,-0.000000,10066.800811
938.853279,153.219100,370.102971,9696.697840
938.853597,536.266849,814.226536,9696.697840
938.853916,919.314598,1184.329507,9178.553681
938.854235,1225.752797,1332.370696,8734.430116
938.854554,1838.629195,1332.370696,7772.162391
938.854873,2221.676944,1036.288319,7698.141797
938.855192,2145.067394,592.164754,8142.265362
938.855511,1225.752797,-0.000000,8364.327145
938.855830,995.924147,-518.144159,8586.388927
938.856149,536.266849,-666.185348,9178.553681
938.856468,306.438199,-1036.288319,9474.636058
938.856787,-306.438199,-740.205942,9548.656652
938.857105,-689.485948,-518.144159,9548.656652
938.857424,-689.485948,-592.164754,9770.718434
938.857743,-459.657299,-444.123565,9474.636058
938.858062,-229.828649,-74.020594,9696.697840
938.858381,76.609550,-74.020594,9770.718434
938.858700,536.266849,222.061783,9548.656652
938.859019,919.314598,666.185348,9770.718434
938.859338,1455.581446,740.205942,9770.718434
938.859657,1685.410096,1258.350101,8956.491898
938.859976,2145.067394,1628.453072,8364.327145
938.860295,2298.286494,1480.411884,8068.244768
938.860613,2298.286494,1332.370696,7920.203579
938.860932,2145.067394,666.185348,8068.244768
938.861251,1225.752797,-74.020594,8438.347739
938.861570,842.705048,-148.041188,8956.491898
938.861889,0.000000,-444.123565,9252.574275
938.862208,-536.266849,-444.123565,9548.656652
938.862527,-1378.971896,-518.144159,9918.759623
938.862846,-1762.019645,-518.144159,9844.739029
938.863165,-1608.800546,-444.123565,10140.821405
938.863484,-1838.629195,-296.082377,10288.862594
938.863803,-919.314598,-296.082377,10288.862594
938.864121,-995.924147,-0.000000,10362.883188
938.864440,-536.266849,592.164754,10436.903782
938.864759,0.000000,962.267725,10362.883188
938.865078,459.657299,1332.370696,9844.739029
938.865397,1225.752797,1776.494261,9252.574275
938.865716,2068.457845,2072.576638,8512.368333
938.866035,2145.067394,1776.494261,8068.244768
938.866354,2221.676944,1554.432478,7846.182985
938.866673,1991.848295,888.247130,8142.265362
938.866992,1532.190996,-0.000000,8586.388927
938.867311,1225.752797,-370.102971,9178.553681
938.867629,766.095498,-740.205942,9326.594869
938.867948,306.438199,-444.123565,10066.800811
938.868267,0.000000,-444.123565,9696.697840
938.868586,-229.828649,-370.102971,9770.718434
938.868905,0.000000,-0.000000,9474.636058
938.869224,0.000000,-0.000000,9548.656652
938.869543,306.438199,222.061783,9474.636058
938.869862,689.485948,370.102971,9622.677246
938.870181,1149.143247,518.144159,10066.800811
938.870500,1532.190996,1110.308913,9622.677246
938.870819,1685.410096,1332.370696,9104.533087
938.871137,2221.676944,1628.453072,8586.388927
938.871456,2374.896044,1776.494261,7920.203579
938.871775,2451.505594,1554.432478,7550.100608
938.872094,2298.286494,1480.411884,7698.141797
938.872413,1838.629195,592.164754,8364.327145
938.872732,1072.533697,148.041188,8734.430116
938.873051,229.828649,-222.061783,9104.533087
938.873370,-306.438199,-74.020594,9474.636058
938.873689,-689.485948,-0.000000,9622.677246
938.874008,-1149.143247,-0.000000,9474.636058
938.874327,-1149.143247,222.061783,9548.656652
938.874645,-766.095498,296.082377,9474.636058
938.874964,-766.095498,222.061783,9696.697840
938.875283,0.000000,592.164754,9548.656652
938.875602,229.828649,740.205942,9696.697840
938.875921,536.266849,962.267725,9548.656652
938.876240,1225.752797,1184.329507,9474.636058
938.876559,1225.752797,1924.535449,9104.533087
938.876878,1608.800546,1776.494261,8512.368333
938.877197,1762.019645,1702.473667,8290.306550
938.877516,2298.286494,1406.391290,8364.327145
938.877835,1915.238745,740.205942,8586.388927
938.878153,1532.190996,444.123565,8734.430116
938.878472,766.095498,-222.061783,8882.471304
938.878791,536.266849,-296.082377,9548.656652
938.879110,0.000000,-814.226536,9548.656652
938.879429,-383.047749,-296.082377,9844.739029
938.879748,-536.266849,-296.082377,9770.718434
938.880067,-612.876398,-518.144159,10066.800811
938.880386,-612.876398,-666.185348,10288.862594
938.880705,-306.438199,-518.144159,10066.800811
938.881024,76.609550,-0.000000,10214.842000
938.881343,536.266849,222.061783,10066.800811
938.881661,919.314598,518.144159,9918.759623
938.881980,1302.362347,1036.288319,9622.677246
938.882299,1608.800546,1332.370696,9104.533087
938.882618,1991.848295,1332.370696,8068.244768
938.882937,2068.457845,1332.370696,7920.203579
938.883256,2068.457845,444.123565,7846.182985
938.883575,1685.410096,222.061783,8216.285956
938.883894,1225.752797,-370.102971,8586.388927
938.884213,689.485948,-592.164754,9104.533087
938.884532,76.609550,-370.102971,9104.533087
938.884851,-536.266849,-370.102971,9474.636058
938.885169,-1225.752797,-148.041188,9622.677246
938.885488,-1378.971896,222.061783,9474.636058
938.885807,-1302.362347,444.123565,9474.636058
938.886126,-919.314598,666.185348,9696.697840
938.886445,-612.876398,1332.370696,9770.718434
938.886764,-383.047749,1110.308913,9696.697840
938.887083,76.609550,1258.350101,9474.636058
938.887402,612.876398,1554.432478,9622.677246
938.887721,842.705048,1850.514855,8956.491898
938.888040,1378.971896,1776.494261,7846.182985
938.888359,1762.019645,2294.638420,7846.182985
938.888677,2145.067394,1924.535449,7772.162391
938.888996,1915.238745,1258.350101,7846.182985
938.889315,1608.800546,518.144159,7994.224174
938.889634,766.095498,-296.082377,8512.368333
938.889953,306.438199,-740.205942,9252.574275
938.890272,-459.657299,-962.267725,9548.656652
938.890591,-612.876398,-888.247130,9918.759623
938.890910,-766.095498,-1036.288319,10362.883188
938.891229,-919.314598,-444.123565,10214.842000
938.891548,-919.314598,-296.082377,10362.883188
938.891867,-766.095498,-148.041188,10288.862594
938.892185,-306.438199,-0.000000,10066.800811
938.892504,-153.219100,-148.041188,10658.965565
938.892823,689.485948,444.123565,10288.862594
938.893142,1225.752797,962.267725,9992.780217
938.893461,1838.629195,1554.432478,9474.636058
938.893780,2298.286494,1998.556043,8808.450710
938.894099,2451.505594,2294.638420,8216.285956
938.894418,2528.115143,2146.597232,7846.182985
938.894737,2298.286494,1480.411884,8142.265362
938.895056,1915.238745,962.267725,8364.327145
938.895375,1072.533697,740.205942,8956.491898
938.895693,689.485948,-148.041188,9104.533087
938.896012,0.000000,-0.000000,9622.677246
938.896331,-536.266849,-0.000000,9622.677246
938.896650,-995.924147,-148.041188,9696.697840
938.896969,-766.095498,-148.041188,9770.718434
938.897287,-842.705048,-296.082377,10140.821405
938.897606,-689.485948,518.144159,9548.656652
938.897925,-536.266849,444.123565,9548.656652
938.898244,0.000000,1036.288319,9770.718434
938.898562,689.485948,1036.288319,9622.677246
938.898881,1072.533697,1480.411884,9326.594869
938.899200,1302.362347,1776.494261,9030.512492
938.899519,1608.800546,1702.473667,8364.327145
938.899838,2145.067394,1702.473667,7994.224174
938.900156,2145.067394,1702.473667,7994.224174
938.900475,2145.067394,1258.350101,7994.224174
938.900794,1072.533697,222.061783,8142.265362
938.901113,1072.533697,-444.123565,8956.491898
938.901432,153.219100,-1110.308913,9474.636058
938.901750,-459.657299,-1184.329507,9918.759623
938.902069,-1149.143247,-814.226536,10066.800811
938.902388,-1149.143247,-666.185348,10140.821405
938.902707,-1149.143247,-296.082377,9770.718434
938.903025,-842.705048,-296.082377,9844.739029
938.903344,-229.828649,-444.123565,9622.677246
938.903663,0.000000,-0.000000,9844.739029
938.903982,0.000000,74.020594,9844.739029
938.904301,306.438199,666.185348,9918.759623
938.904619,919.314598,1036.288319,9548.656652
938.904938,1608.800546,1554.432478,9030.512492
938.905257,1838.629195,1776.494261,8290.306550
938.905576,2374.896044,1850.514855,7920.203579
938.905895,1762.019645,1628.453072,8142.265362
938.906213,1762.019645,1184.329507,8512.368333
938.906532,1225.752797,370.102971,8438.347739
938.906851,612.876398,-0.000000,9104.533087
938.907170,0.000000,-370.102971,9030.512492
938.907488,-153.219100,-518.144159,9326.594869
938.907807,-612.876398,-518.144159,9474.636058
938.908126,-1225.752797,-296.082377,9696.697840
938.908445,-1149.143247,-666.185348,9770.718434
938.908764,-995.924147,-666.185348,9844.739029
938.909082,-919.314598,-148.041188,9992.780217
938.909401,-229.828649,-0.000000,9844.739029
938.909720,-383.047749,296.082377,9696.697840
938.910039,0.000000,-0.000000,9622.677246
938.910358,383.047749,814.226536,9400.615463
938.910676,842.705048,740.205942,9252.574275
938.910995,1302.362347,962.267725,8660.409521
938.911314,1378.971896,1332.370696,8068.244768
938.911633,1685.410096,666.185348,7994.224174
938.911952,1302.362347,518.144159,8512.368333
938.912270,1302.362347,-222.061783,8660.409521
938.912589,536.266849,-592.164754,9178.553681
938.912908,153.219100,-666.185348,9474.636058
938.913227,-383.047749,-592.164754,9770.718434
938.913545,-459.657299,-444.123565,9992.780217
938.913864,-536.266849,-148.041188,9844.739029
938.914183,-536.266849,-222.061783,9770.718434
938.914502,-383.047749,-74.020594,9696.697840
938.914821,0.000000,148.041188,9622.677246
938.915139,0.000000,444.123565,9622.677246
938.915458,536.266849,740.205942,9992.780217
938.915777,1072.533697,1110.308913,9770.718434
938.916096,1608.800546,1480.411884,9326.594869
938.916415,1915.238745,1776.494261,8660.409521
938.916733,1915.238745,2072.576638,8216.285956
938.917052,1838.629195,1702.473667,7920.203579
938.917371,1762.019645,1554.432478,8290.306550
938.917690,1378.971896,814.226536,8216.285956
938.918008,536.266849,222.061783,8586.388927
938.918327,153.219100,-148.041188,9104.533087
938.918646,-383.047749,-0.000000,9400.615463
938.918965,-1302.362347,-74.020594,9474.636058
938.919284,-1608.800546,-74.020594,9622.677246
938.919602,-1838.629195,-148.041188,9992.780217
938.919921,-1378.971896,-74.020594,9844.739029
938.920240,-1915.238745,-222.061783,10362.883188
938.920559,-1225.752797,-0.000000,10362.883188
938.920878,-689.485948,148.041188,10362.883188
938.921196,0.000000,296.082377,9992.780217
938.921515,459.657299,666.185348,9844.739029
938.921834,919.314598,1480.411884,9474.636058
938.922153,1608.800546,1702.473667,8956.491898
938.922471,2145.067394,1554.432478,8216.285956
938.922790,2374.896044,1258.350101,7846.182985
938.923109,2451.505594,518.144159,7994.224174
938.923428,1685.410096,-370.102971,8512.368333
938.923747,1378.971896,-888.247130,9104.533087
938.924065,995.924147,-962.267725,9622.677246
938.924384,153.219100,-1036.288319,10288.862594
938.924703,-229.828649,-888.247130,9844.739029
938.925022,-153.219100,-814.226536,9992.780217
938.925341,-383.047749,-740.205942,9770.718434
938.925659,76.609550,-518.144159,9770.718434
938.925978,306.438199,-296.082377,9696.697840
938.926297,459.657299,296.082377,9770.718434
938.926616,842.705048,148.041188,9844.739029
938.926935,1608.800546,814.226536,9696.697840
938.927253,1915.238745,1110.308913,9030.512492
938.927572,2221.676944,1702.473667,8512.368333
938.927891,2298.286494,1998.556043,7994.224174
938.928210,2374.896044,2146.597232,7476.080014
938.928528,2528.115143,1628.453072,7402.059420
938.928847,2068.457845,962.267725,7624.121203
938.929166,1378.971896,222.061783,8068.244768
938.929485,459.657299,-222.061783,8660.409521
938.929804,0.000000,-370.102971,8956.491898
938.930122,-1072.533697,-592.164754,9400.615463
938.930441,-1455.581446,-666.185348,9696.697840
938.930760,-1915.238745,-518.144159,9696.697840
938.931079,-1915.238745,-592.164754,10066.800811
938.931398,-1991.848295,-444.123565,9992.780217
938.931716,-1608.800546,-74.020594,10214.842000
938.932035,-1991.848295,-222.061783,10288.862594
938.932354,-1072.533697,-0.000000,10140.821405
938.932673,-459.657299,222.061783,10362.883188
938.932991,153.219100,888.247130,9622.677246
938.933310,1225.752797,1332.370696,9326.594869
938.933629,919.314598,1258.350101,8438.347739
938.933948,1455.581446,1036.288319,8142.265362
938.934267,1608.800546,592.164754,8068.244768
938.934585,1532.190996,148.041188,8364.327145
938.934904,1149.143247,-592.164754,8956.491898
938.935223,536.266849,-962.267725,9400.615463
938.935542,229.828649,-666.185348,9696.697840
938.935861,-153.219100,-592.164754,9696.697840
938.936179,0.000000,-592.164754,9696.697840
938.936498,0.000000,-444.123565,10066.800811
938.936817,0.000000,-148.041188,9844.739029
938.937136,153.219100,-296.082377,9474.636058
938.937454,536.266849,-0.000000,9844.739029
938.937773,1532.190996,222.061783,9992.780217
938.938092,1608.800546,962.267725,9992.780217
938.938411,2145.067394,1332.370696,9548.656652
938.938730,2451.505594,2072.576638,8660.409521
938.939048,2757.943793,2442.679609,7550.100608
938.939367,3140.991542,2368.659014,7476.080014
938.939686,3140.991542,1406.391290,7698.141797
938.940005,2834.553343,1036.288319,7994.224174
938.940324,1915.238745,962.267725,7994.224174
938.940642,1838.629195,-0.000000,8956.491898
938.940961,306.438199,148.041188,8956.491898
938.941280,76.609550,-0.000000,9326.594869
938.941599,-842.705048,-592.164754,9178.553681
938.941918,-1915.238745,-74.020594,9474.636058
938.942236,-1225.752797,-74.020594,10436.903782
938.942555,-1532.190996,-74.020594,9474.636058
938.942874,-1532.190996,-592.164754,10510.924376
938.943193,-1378.971896,-1110.308913,11029.068536
938.943511,-1225.752797,-0.000000,10140.821405
938.943830,-612.876398,-0.000000,10362.883188
938.944149,0.000000,296.082377,9844.739029
938.944468,0.000000,1110.308913,9252.574275
938.944787,459.657299,962.267725,9252.574275
938.945105,459.657299,1554.432478,8660.409521
938.945424,536.266849,1036.288319,7846.182985
938.945743,842.705048,666.185348,8142.265362
938.946062,459.657299,-222.061783,8660.409521
938.946381,0.000000,-814.226536,9474.636058
938.946699,0.000000,-1406.391290,9992.780217
938.947018,-612.876398,-1036.288319,10584.944971
938.947337,-459.657299,-740.205942,10288.862594
938.947656,-459.657299,-0.000000,9548.656652
938.947974,-153.219100,592.164754,9844.739029
938.948293,229.828649,592.164754,9622.677246
938.948612,689.485948,592.164754,9178.553681
938.948931,919.314598,518.144159,9104.533087
938.949250,1608.800546,666.185348,9400.615463
938.949568,1838.629195,666.185348,9844.739029
938.949887,2068.457845,518.144159,9104.533087
938.950206,2528.115143,1480.411884,8660.409521
938.950525,2911.162892,1850.514855,7846.182985
938.950844,3140.991542,1702.473667,7698.141797
938.951162,2681.334243,962.267725,7772.162391
938.951481,2451.505594,296.082377,7920.203579
938.951800,1915.238745,74.020594,8364.327145
938.952119,1455.581446,-74.020594,8734.430116
938.952437,766.095498,-666.185348,9030.512492
938.952756,229.828649,-888.247130,9400.615463
938.953075,-383.047749,-444.123565,9252.574275
938.953394,-383.047749,-74.020594,8956.491898
938.953713,-383.047749,-74.020594,9474.636058
938.954031,-536.266849,-148.041188,9400.615463
938.954350,-306.438199,296.082377,9474.636058
938.954669,0.000000,592.164754,9474.636058
938.954988,536.266849,888.247130,9696.697840
938.955307,153.219100,1036.288319,9622.677246
938.955625,229.828649,1628.453072,9474.636058
938.955944,459.657299,1554.432478,9252.574275
938.956263,612.876398,1850.514855,8438.347739
938.956582,995.924147,1628.453072,8364.327145
938.956901,919.314598,1332.370696,8364.327145
938.957219,612.876398,888.247130,8364.327145
938.957538,306.438199,296.082377,9030.512492
938.957857,-76.609550,-0.000000,9770.718434
938.958176,-306.438199,-296.082377,9696.697840
938.958494,-612.876398,-444.123565,9844.739029
938.958813,-766.095498,-0.000000,9844.739029
938.959132,-689.485948,-0.000000,10066.800811
938.959451,-766.095498,296.082377,9992.780217
938.959770,-306.438199,370.102971,9622.677246
938.960088,-306.438199,222.061783,9548.656652
938.960407,383.047749,222.061783,9992.780217
938.960726,306.438199,666.185348,10584.944971
938.961045,995.924147,888.247130,10362.883188
938.961364,1149.143247,1258.350101,9622.677246
938.961682,1762.019645,1406.391290,9178.553681
938.962001,2451.505594,1332.370696,8734.430116
938.962320,2374.896044,1480.411884,8586.388927
938.962639,1915.238745,888.247130,8512.368333
938.962957,1991.848295,148.041188,8660.409521
938.963276,1302.362347,148.041188,9104.533087
938.963595,1608.800546,-148.041188,9104.533087
938.963914,459.657299,-518.144159,9400.615463
938.964233,0.000000,-296.082377,9696.697840
938.964551,-842.705048,-222.061783,9770.718434
938.964870,-842.705048,-444.123565,9844.739029
938.965189,-612.876398,-370.102971,10140.821405
938.965508,-459.657299,-296.082377,10362.883188
938.965827,-229.828649,-222.061783,10140.821405
938.966145,-229.828649,-0.000000,9696.697840
938.966464,383.047749,-0.000000,9992.780217
938.966783,1072.533697,666.185348,9400.615463
938.967102,1685.410096,1184.329507,8956.491898
938.967420,1991.848295,1554.432478,8364.327145
938.967739,2221.676944,1998.556043,7402.059420
938.968058,2145.067394,2146.597232,7476.080014
938.968377,2221.676944,1184.329507,7402.059420
938.968696,1685.410096,444.123565,7624.121203
938.969014,1149.143247,-370.102971,8956.491898
938.969333,383.047749,-740.205942,9622.677246
938.969652,0.000000,-222.061783,9474.636058
938.969971,-383.047749,-74.020594,9474.636058
938.970290,-612.876398,222.061783,9474.636058
938.970608,-919.314598,370.102971,9400.615463
938.970927,-842.705048,666.185348,9474.636058
938.971246,-995.924147,148.041188,9104.533087
938.971565,-229.828649,444.123565,9400.615463
938.971884,-229.828649,296.082377,9474.636058
938.972202,0.000000,592.164754,9918.759623
938.972521,306.438199,592.164754,9474.636058
938.972840,842.705048,1110.308913,8956.491898
938.973159,1378.971896,1258.350101,8512.368333
938.973477,1685.410096,1628.453072,7772.162391
938.973796,1608.800546,1406.391290,7994.224174
938.974115,1302.362347,518.144159,8364.327145
938.974434,689.485948,-0.000000,8364.327145
938.974753,153.219100,-370.102971,8956.491898
938.975071,-459.657299,-592.164754,9400.615463
938.975390,-306.438199,-740.205942,9844.739029
938.975709,-1072.533697,-444.123565,9696.697840
938.976028,-1302.362347,-296.082377,9918.759623
938.976347,-1072.533697,-222.061783,9918.759623
938.976665,-995.924147,-148.041188,10140.821405
938.976984,153.219100,-0.000000,10066.800811
938.977303,153.219100,296.082377,9770.718434
938.977622,766.095498,740.205942,9770.718434
938.977940,1149.143247,1036.288319,9770.718434
938.978259,1455.581446,962.267725,9252.574275
938.978578,1608.800546,1776.494261,9030.512492
938.978897,1915.238745,1702.473667,8512.368333
938.979216,2298.286494,1628.453072,7994.224174
938.979534,2374.896044,1332.370696,7920.203579
938.979853,2298.286494,518.144159,8438.347739
938.980172,1302.362347,222.061783,8734.430116
938.980491,995.924147,-148.041188,9474.636058
938.980810,153.219100,-518.144159,9918.759623
938.981128,-229.828649,-518.144159,9992.780217
938.981447,-1149.143247,-148.041188,10066.800811
938.981766,-612.876398,-148.041188,9992.780217
938.982085,-612.876398,296.082377,10066.800811
938.982403,-383.047749,518.144159,9918.759623
938.982722,-153.219100,518.144159,9918.759623
938.983041,229.828649,1036.288319,9918.759623
938.983360,689.485948,1332.370696,9844.739029
938.983679,766.095498,1184.329507,9696.697840
938.983997,1302.362347,1702.473667,9252.574275
938.984316,1685.410096,1998.556043,8438.347739
938.984635,2145.067394,2146.597232,7994.224174
938.984954,1838.629195,1702.473667,7846.182985
938.985273,1302.362347,1184.329507,8142.265362
938.985591,842.705048,592.164754,8512.368333
938.985910,0.000000,-74.020594,8882.471304
938.986229,229.828649,-444.123565,9770.718434
938.986548,-842.705048,-222.061783,9918.759623
938.986866,-1378.971896,-0.000000,9992.780217
938.987185,-1762.019645,-0.000000,9992.780217
938.987504,-1838.629195,1036.288319,9696.697840
938.987823,-1149.143247,296.082377,9622.677246
938.988142,-919.314598,-0.000000,9770.718434
938.988460,-612.876398,148.041188,10214.842000
938.988779,0.000000,222.061783,9992.780217
938.989098,612.876398,814.226536,8956.491898
938.989417,1302.362347,444.123565,9918.759623
938.989736,1762.019645,1036.288319,9104.533087
938.990054,1762.019645,1702.473667,8364.327145
938.990373,2374.896044,592.164754,8142.265362
938.990692,1991.848295,740.205942,8068.244768
938.991011,2451.505594,-0.000000,8512.368333
938.991330,1685.410096,666.185348,7476.080014
938.991648,995.924147,-296.082377,9104.533087
938.991967,536.266849,-1258.350101,9030.512492
938.992286,76.609550,-1776.494261,9918.759623
938.992605,-459.657299,-1480.411884,9992.780217
938.992923,-612.876398,-888.247130,10214.842000
938.993242,-995.924147,-740.205942,9548.656652
938.993561,76.609550,-1332.370696,10732.986159
938.993880,0.000000,-444.123565,9696.697840
938.994199,153.219100,-0.000000,9622.677246
938.994517,689.485948,-0.000000,9770.718434
938.994836,1225.752797,296.082377,9696.697840
938.995155,1991.848295,888.247130,9104.533087
938.995474,1838.629195,1850.514855,7994.224174
938.995792,919.314598,1480.411884,7698.141797
938.996111,2145.067394,740.205942,7698.141797
938.996430,2298.286494,296.082377,7624.121203
938.996749,1378.971896,222.061783,7920.203579
938.997067,383.047749,222.061783,7994.224174
938.997386,-306.438199,-148.041188,9178.553681
938.997705,-612.876398,-740.205942,9400.615463
938.998024,-1302.362347,-222.061783,9474.636058
938.998342,-2145.067394,-0.000000,9400.615463
938.998661,-2221.676944,-0.000000,9252.574275
938.998980,-2068.457845,222.061783,9548.656652
938.999299,-1838.629195,518.144159,9622.677246
938.999618,-1762.019645,962.267725,9474.636058
938.999936,-1455.581446,740.205942,9918.759623
939.000255,-612.876398,592.164754,10214.842000
939.000574,0.000000,1184.329507,9918.759623
939.000893,689.485948,1850.514855,9178.553681
939.001211,1149.143247,1924.535449,8882.471304
939.001530,1455.581446,1850.514855,8290.306550
939.001849,1991.848295,1406.391290,7920.203579
939.002168,2068.457845,1184.329507,8068.244768
939.002486,1072.533697,518.144159,8586.388927
939.002805,1225.752797,-444.123565,8734.430116
939.003124,995.924147,-814.226536,9400.615463
939.003443,459.657299,-740.205942,9918.759623
939.003761,0.000000,-740.205942,9992.780217
939.004080,-689.485948,-1184.329507,10732.986159
939.004399,0.000000,-814.226536,10436.903782
939.004718,153.219100,-592.164754,10288.862594
939.005036,229.828649,-518.144159,10288.862594
939.005355,536.266849,-518.144159,10436.903782
939.005674,842.705048,-370.102971,10881.027347
939.005993,1225.752797,74.020594,10140.821405
939.006312,1915.238745,962.267725,9844.739029
939.006630,2068.457845,1184.329507,9474.636058
939.006949,2604.724693,1628.453072,8364.327145
939.007268,2451.505594,1776.494261,7994.224174
939.007587,2451.505594,1776.494261,7698.141797
939.007905,1838.629195,1406.391290,7920.203579
939.008224,1302.362347,518.144159,8290.306550
939.008543,689.485948,-0.000000,8882.471304
939.008862,0.000000,-444.123565,9474.636058
939.009180,-689.485948,-444.123565,9548.656652
939.009499,-1302.362347,-222.061783,9400.615463
939.009818,-1685.410096,-74.020594,9474.636058
939.010137,-1608.800546,-148.041188,9770.718434
939.010455,-1838.629195,148.041188,9548.656652
939.010774,-1608.800546,592.164754,9548.656652
939.011093,-1149.143247,814.226536,9622.677246
939.011412,-689.485948,962.267725,9474.636058
939.011730,-459.657299,518.144159,9844.739029
939.012049,76.609550,1554.432478,9326.594869
939.012368,842.705048,1776.494261,8734.430116
939.012687,1072.533697,1776.494261,8438.347739
939.013005,1378.971896,1554.432478,7920.203579
939.013324,1225.752797,1036.288319,7698.141797
939.013643,1378.971896,518.144159,7846.182985
939.013962,1072.533697,-148.041188,8660.409521
939.014281,383.047749,-962.267725,9030.512492
939.014599,383.047749,-962.267725,9992.780217
939.014918,-536.266849,-962.267725,9918.759623
939.015237,-689.485948,-666.185348,9770.718434
939.015556,-1225.752797,-1258.350101,9770.718434
939.015874,-612.876398,-740.205942,9770.718434
939.016193,-229.828649,-1184.329507,10362.883188
939.016512,0.000000,-518.144159,9474.636058
939.016831,842.705048,-222.061783,9844.739029
939.017149,1149.143247,-0.000000,10140.821405
939.017468,1532.190996,444.123565,9992.780217
939.017787,2374.896044,740.205942,9474.636058
939.018106,2528.115143,962.267725,8808.450710
939.018424,3140.991542,1776.494261,8216.285956
939.018743,3370.820191,1406.391290,7402.059420
939.019062,3217.601092,1036.288319,7624.121203
939.019381,2528.115143,518.144159,7994.224174
939.019699,2221.676944,-0.000000,8290.306550
939.020018,1532.190996,-370.102971,8586.388927
939.020337,766.095498,-222.061783,8882.471304
939.020656,76.609550,-0.000000,9326.594869
939.020975,-612.876398,-370.102971,9400.615463
939.021293,-689.485948,-74.020594,9474.636058
939.021612,-1225.752797,-444.123565,9474.636058
939.021931,-1149.143247,-0.000000,9770.718434
939.022250,-995.924147,222.061783,9918.759623
939.022568,-766.095498,370.102971,9992.780217
939.022887,-459.657299,666.185348,10066.800811
939.023206,-153.219100,1036.288319,9918.759623
939.023525,689.485948,1332.370696,9548.656652
939.023843,842.705048,1776.494261,8734.430116
939.024162,1149.143247,2220.617826,8142.265362
939.024481,1149.143247,1924.535449,7846.182985
939.024800,842.705048,1406.391290,7550.100608
939.025118,842.705048,296.082377,7920.203579
939.025437,153.219100,-222.061783,8882.471304
939.025756,0.000000,-592.164754,9474.636058
939.026075,-766.095498,-888.247130,9696.697840
939.026393,-1378.971896,-740.205942,10140.821405
939.026712,-1072.533697,-740.205942,10436.903782
939.027031,-1378.971896,-370.102971,10362.883188
939.027350,-995.924147,-148.041188,10288.862594
939.027669,-612.876398,-0.000000,9992.780217
939.027987,-153.219100,518.144159,10214.842000
939.028306,612.876398,296.082377,9992.780217
939.028625,766.095498,740.205942,9918.759623
939.028944,1149.143247,1036.288319,9918.759623
939.029262,1838.629195,1628.453072,9474.636058
939.029581,2145.067394,1480.411884,8956.491898
939.029900,2911.162892,1554.432478,8438.347739
939.030219,2834.553343,1628.453072,7846.182985
939.030537,2451.505594,1036.288319,8068.244768
939.030856,2068.457845,296.082377,8586.388927
939.031175,2451.505594,-296.082377,9178.553681
939.031494,1225.752797,-296.082377,9474.636058
939.031812,229.828649,-370.102971,9326.594869
939.032131,0.000000,-296.082377,9918.759623
939.032450,-536.266849,-592.164754,9770.718434
939.032769,-459.657299,-592.164754,9844.739029
939.033087,-842.705048,-370.102971,9622.677246
939.033406,-536.266849,-222.061783,9548.656652
939.033725,-153.219100,-74.020594,9918.759623
939.034044,153.219100,-0.000000,9992.780217
939.034362,459.657299,296.082377,9844.739029
939.034681,1149.143247,296.082377,9474.636058
939.035000,1225.752797,666.185348,9178.553681
939.035319,1915.238745,1332.370696,8660.409521
939.035638,2068.457845,1776.494261,7698.141797
939.035956,2374.896044,1702.473667,7179.997637
939.036275,1991.848295,1258.350101,7179.997637
939.036594,1455.581446,814.226536,7550.100608
939.036913,1072.533697,-0.000000,8216.285956
939.037231,229.828649,-518.144159,9030.512492
939.037550,-459.657299,-666.185348,9548.656652
939.037869,-1149.143247,-888.247130,9696.697840
939.038188,-1532.190996,-518.144159,9622.677246
939.038506,-1225.752797,-0.000000,9770.718434
939.038825,-995.924147,296.082377,9770.718434
939.039144,-1149.143247,592.164754,9696.697840
939.039463,-459.657299,888.247130,9770.718434
939.039781,0.000000,814.226536,9844.739029
939.040100,612.876398,814.226536,9474.636058
939.040419,842.705048,1110.308913,9400.615463
939.040738,1225.752797,1480.411884,8808.450710
939.041056,1838.629195,2072.576638,8142.265362
939.041375,1838.629195,1924.535449,7772.162391
939.041694,1915.238745,1332.370696,7550.100608
939.042013,1608.800546,740.205942,7994.224174
939.042332,1302.362347,-0.000000,8364.327145
939.042650,689.485948,-370.102971,8734.430116
939.042969,153.219100,-814.226536,9104.533087
939.043288,-229.828649,-666.185348,9696.697840
939.043607,-306.438199,-444.123565,9770.718434
939.043925,-1302.362347,-444.123565,9770.718434
939.044244,-919.314598,-148.041188,10214.842000
939.044563,-612.876398,-74.020594,10140.821405
939.044882,153.219100,-148.041188,10288.862594
939.045200,306.438199,222.061783,10066.800811
939.045519,1072.533697,592.164754,9844.739029
939.045838,1685.410096,1184.329507,9622.677246
939.046157,1991.848295,1406.391290,9474.636058
939.046475,2681.334243,1406.391290,8956.491898
939.046794,2834.553343,1850.514855,8216.285956
939.047113,3140.991542,1776.494261,8216.285956
939.047432,3064.381992,1480.411884,7920.203579
939.047750,2757.943793,962.267725,8290.306550
939.048069,2145.067394,-0.000000,8660.409521
939.048388,1378.971896,-148.041188,9474.636058
939.048707,383.047749,-592.164754,9918.759623
939.049025,-153.219100,-518.144159,10214.842000
939.049344,-459.657299,-740.205942,10436.903782
939.049663,-1225.752797,-444.123565,10140.821405
939.049982,-766.095498,-0.000000,9992.780217
939.050301,-842.705048,148.041188,9918.759623
939.050619,-612.876398,148.041188,9992.780217
939.050938,-306.438199,592.164754,10066.800811
939.051257,-229.828649,592.164754,10066.800811
939.051576,0.000000,1110.308913,9844.739029
939.051894,76.609550,1258.350101,9622.677246
939.052213,153.219100,1850.514855,9104.533087
939.052532,612.876398,1850.514855,8660.409521
939.052851,459.657299,1850.514855,8438.347739
939.053169,536.266849,1554.432478,8586.388927
939.053488,229.828649,814.226536,9030.512492
939.053807,0.000000,222.061783,9474.636058
939.054126,-612.876398,-222.061783,9400.615463
939.054444,-1072.533697,-370.102971,9474.636058
939.054763,-1455.581446,-296.082377,9622.677246
939.055082,-1455.581446,-444.123565,10362.883188
939.055401,-1072.533697,-74.020594,9918.759623
939.055719,-1072.533697,-0.000000,9770.718434
939.056038,-536.266849,222.061783,9770.718434
939.056357,0.000000,296.082377,9400.615463
939.056676,229.828649,296.082377,9326.594869
939.056995,1225.752797,592.164754,9474.636058
939.057313,1378.971896,740.205942,9326.594869
939.057632,1838.629195,1110.308913,8734.430116
939.057951,2221.676944,1258.350101,8438.347739
939.058270,2834.553343,888.247130,7846.182985
939.058588,2451.505594,814.226536,7624.121203
939.058907,2221.676944,296.082377,7846.182985
939.059226,1915.238745,-222.061783,7994.224174
939.059545,1225.752797,-148.041188,8438.347739
939.059863,1149.143247,-518.144159,9030.512492
939.060182,689.485948,-222.061783,9252.574275
939.060501,0.000000,-814.226536,9548.656652
939.060820,0.000000,-444.123565,9622.677246
939.061138,76.609550,-518.144159,9474.636058
939.061457,153.219100,-370.102971,9548.656652
939.061776,229.828649,-0.000000,9030.512492
939.062095,536.266849,444.123565,9400.615463
939.062413,919.314598,666.185348,9326.594869
939.062732,1225.752797,1110.308913,9104.533087
939.063051,1532.190996,1184.329507,8956.491898
939.063370,1685.410096,1554.432478,8438.347739
939.063688,1378.971896,1554.432478,8290.306550
939.064007,1302.362347,1406.391290,7920.203579
939.064326,689.485948,888.247130,7994.224174
939.064645,612.876398,888.247130,8290.306550
939.064964,153.219100,296.082377,8808.450710
939.065282,0.000000,-0.000000,9326.594869
939.065601,-919.314598,-0.000000,9474.636058
939.065920,-1378.971896,-222.061783,9696.697840
939.066239,-2221.676944,222.061783,9548.656652
939.066557,-2221.676944,-74.020594,9770.718434
939.066876,-1991.848295,222.061783,9992.780217
939.067195,-2068.457845,296.082377,10066.800811
939.067514,-1991.848295,296.082377,10362.883188
939.067832,-1302.362347,370.102971,10658.965565
939.068151,-766.095498,666.185348,10362.883188
939.068470,-383.047749,740.205942,10362.883188
939.068789,459.657299,1184.329507,9918.759623
939.069107,1072.533697,1924.535449,9326.594869
939.069426,1302.362347,1998.556043,8660.409521
939.069745,2145.067394,1924.535449,8364.327145
939.070064,2068.457845,1258.350101,8142.265362
939.070382,1455.581446,666.185348,8956.491898
939.070701,1378.971896,-0.000000,8956.491898
939.071020,995.924147,-444.123565,9548.656652
939.071339,459.657299,-592.164754,9992.780217
939.071658,0.000000,-592.164754,10140.821405
939.071976,-459.657299,-444.123565,9992.780217
939.072295,76.609550,-518.144159,10510.924376
939.072614,0.000000,-0.000000,10214.842000
939.072933,612.876398,-0.000000,10066.800811
939.073251,536.266849,-0.000000,10066.800811
939.073570,919.314598,222.061783,10066.800811
939.073889,1302.362347,444.123565,10066.800811
939.074208,1915.238745,962.267725,9326.594869
939.074526,2221.676944,1406.391290,8956.491898
939.074845,2528.115143,1850.514855,8586.388927
939.075164,2987.772442,1998.556043,7550.100608
939.075483,2911.162892,1406.391290,7105.977043
939.075801,2681.334243,888.247130,7402.059420
939.076120,1532.190996,296.082377,7624.121203
939.076439,1225.752797,-0.000000,8142.265362
939.076758,153.219100,-74.020594,8660.409521
939.077076,-536.266849,-74.020594,9326.594869
939.077395,-1225.752797,-296.082377,9400.615463
939.077714,-1991.848295,-518.144159,9548.656652
939.078033,-2298.286494,-296.082377,9844.739029
939.078351,-2298.286494,-74.020594,9696.697840
939.078670,-1838.629195,-74.020594,9844.739029
939.078989,-1532.190996,444.123565,9770.718434
939.079308,-842.705048,518.144159,9770.718434
939.079627,-153.219100,814.226536,9770.718434
939.079945,229.828649,1184.329507,9252.574275
939.080264,612.876398,1332.370696,8586.388927
939.080583,536.266849,1480.411884,7920.203579
939.080902,1532.190996,1628.453072,7772.162391
939.081220,1685.410096,1258.350101,7179.997637
939.081539,1072.533697,518.144159,7254.018232
939.081858,689.485948,-222.061783,8216.285956
939.082177,76.609550,-888.247130,9030.512492
939.082495,-919.314598,-1258.350101,9918.759623
939.082814,-1302.362347,-1554.432478,10362.883188
939.083133,-1762.019645,-1406.391290,10584.944971
939.083452,-1762.019645,-962.267725,10658.965565
939.083770,-1225.752797,-1036.288319,10584.944971
939.084089,-919.314598,-74.020594,10584.944971
939.084408,-766.095498,-0.000000,10214.842000
939.084727,76.609550,74.020594,10288.862594
939.085045,229.828649,518.144159,9622.677246
939.085364,919.314598,814.226536,9622.677246
939.085683,1762.019645,592.164754,9400.615463
939.086002,2068.457845,888.247130,8956.491898
939.086321,2681.334243,1110.308913,9030.512492
939.086639,2451.505594,1702.473667,7698.141797
939.086958,2451.505594,1406.391290,7846.182985
939.087277,2451.505594,370.102971,8364.327145
939.087596,1225.752797,222.061783,8586.388927
939.087914,1072.533697,-1110.308913,9400.615463
939.088233,0.000000,-814.226536,9474.636058
939.088552,-306.438199,-814.226536,10140.821405
939.088871,-459.657299,-666.185348,9770.718434
939.089189,-919.314598,-0.000000,10066.800811
939.089508,-1149.143247,444.123565,9696.697840
939.089827,-766.095498,-0.000000,9548.656652
939.090146,-229.828649,666.185348,9474.636058
939.090464,536.266849,740.205942,9696.697840
939.090783,536.266849,1702.473667,9252.574275
939.091102,612.876398,1480.411884,9326.594869
939.091421,1378.971896,1036.288319,9400.615463
939.091739,1608.800546,1702.473667,8734.430116
939.092058,1302.362347,1628.453072,7994.224174
939.092377,1149.143247,1480.411884,8290.306550
939.092696,1378.971896,888.247130,8290.306550
939.093014,1149.143247,444.123565,8290.306550
939.093333,842.705048,-0.000000,8734.430116
939.093652,0.000000,-148.041188,9474.636058
939.093971,0.000000,-518.144159,9400.615463
939.094290,-383.047749,-148.041188,9770.718434
939.094608,-612.876398,-0.000000,9400.615463
939.094927,-536.266849,296.082377,9474.636058
939.095246,-612.876398,-0.000000,9252.574275
939.095565,0.000000,-0.000000,9474.636058
939.095883,76.609550,222.061783,9548.656652
939.096202,229.828649,962.267725,9548.656652
939.096521,1072.533697,1110.308913,9548.656652
939.096840,1378.971896,1406.391290,9622.677246
939.097159,1608.800546,1480.411884,9030.512492
939.097478,1838.629195,1850.514855,8808.450710
939.097797,2068.457845,1554.432478,8364.327145
939.098116,1685.410096,888.247130,8142.265362
939.098434,2221.676944,814.226536,8216.285956
939.098753,1532.190996,370.102971,8364.327145
939.099072,919.314598,-370.102971,8808.450710
939.099391,689.485948,-444.123565,9326.594869
939.099710,153.219100,-518.144159,9252.574275
939.100029,-459.657299,-592.164754,9400.615463
939.100348,-306.438199,-666.185348,9548.656652
939.100667,-995.924147,-740.205942,9844.739029
939.100986,-766.095498,-888.247130,9992.780217
939.101305,-383.047749,-444.123565,9770.718434
939.101624,0.000000,-444.123565,10066.800811
939.101942,-153.219100,-296.082377,10510.924376
939.102261,536.266849,-222.061783,10436.903782
939.102580,842.705048,444.123565,9844.739029
939.102899,1608.800546,962.267725,9178.553681
939.103218,1608.800546,1406.391290,8586.388927
939.103537,2221.676944,1258.350101,8142.265362
939.103856,1915.238745,888.247130,7550.100608
939.104175,1302.362347,74.020594,8068.244768
939.104494,1072.533697,-370.102971,8734.430116
939.104813,612.876398,-1332.370696,9400.615463
939.105132,0.000000,-1258.350101,9548.656652
939.105450,-766.095498,-1184.329507,9918.759623
939.105769,-1225.752797,-814.226536,9770.718434
939.106088,-1378.971896,-370.102971,9918.759623
939.106407,-1149.143247,-74.020594,9770.718434
939.106726,-842.705048,444.123565,9622.677246
939.107045,-536.266849,518.144159,9770.718434
939.107364,0.000000,666.185348,9474.636058
939.107683,689.485948,1036.288319,9548.656652
939.108002,842.705048,1702.473667,9400.615463
939.108321,689.485948,1554.432478,8882.471304
939.108640,1608.800546,2146.597232,8734.430116
939.108958,2221.676944,2442.679609,7698.141797
939.109277,2604.724693,2368.659014,7328.038826
939.109596,2451.505594,1924.535449,7476.080014
939.109915,1762.019645,1184.329507,7846.182985
939.110234,1532.190996,740.205942,8290.306550
939.110553,459.657299,296.082377,8956.491898
939.110872,229.828649,-222.061783,9104.533087
939.111191,-689.485948,-296.082377,9844.739029
939.111510,-842.705048,-296.082377,9474.636058
939.111829,-1532.190996,-518.144159,9918.759623
939.112148,-1072.533697,-296.082377,10362.883188
939.112466,-842.705048,-0.000000,9918.759623
939.112785,-536.266849,370.102971,9770.718434
939.113104,0.000000,222.061783,9918.759623
939.113423,459.657299,-0.000000,10140.821405
939.113742,459.657299,370.102971,10807.006753
939.114061,1608.800546,518.144159,9918.759623
939.114380,1762.019645,814.226536,9696.697840
939.114699,2374.896044,962.267725,9104.533087
939.115018,2451.505594,1036.288319,8364.327145
939.115337,2451.505594,592.164754,8438.347739
939.115656,1838.629195,-74.020594,8660.409521
939.115974,1608.800546,-666.185348,9252.574275
939.116293,919.314598,-1110.308913,9474.636058
939.116612,306.438199,-962.267725,9770.718434
939.116931,-306.438199,-1184.329507,9918.759623
939.117250,-689.485948,-888.247130,10214.842000
939.117569,-306.438199,-592.164754,9918.759623
939.117888,-612.876398,-814.226536,9844.739029
939.118207,-383.047749,-74.020594,9622.677246
939.118526,76.609550,518.144159,9770.718434
939.118845,229.828649,962.267725,9918.759623
939.119163,689.485948,1628.453072,9696.697840
939.119482,1072.533697,1776.494261,9400.615463
939.119801,1072.533697,1924.535449,9030.512492
939.120120,1455.581446,1998.556043,7994.224174
939.120439,1762.019645,2072.576638,7698.141797
939.120758,2221.676944,2294.638420,7698.141797
939.121077,1378.971896,1480.411884,7846.182985
939.121396,842.705048,666.185348,8142.265362
939.121715,383.047749,444.123565,8512.368333
939.122034,0.000000,-0.000000,8808.450710
939.122353,-766.095498,-0.000000,8956.491898
939.122671,-1302.362347,-0.000000,9104.533087
939.122990,-1225.752797,-74.020594,9400.615463
939.123309,-1532.190996,-0.000000,9548.656652
939.123628,-1762.019645,-148.041188,9844.739029
939.123947,-1302.362347,-0.000000,9696.697840
939.124266,-842.705048,-0.000000,9918.759623
939.124585,-459.657299,-0.000000,10066.800811
939.124904,459.657299,592.164754,9992.780217
939.125223,766.095498,666.185348,9696.697840
939.125542,1608.800546,1332.370696,9178.553681
939.125861,2451.505594,1110.308913,8216.285956
939.126179,2528.115143,1554.432478,7698.141797
939.126498,2528.115143,1110.308913,7846.182985
939.126817,2451.505594,222.061783,7772.162391
939.127136,1915.238745,-518.144159,8290.306550
939.127455,1225.752797,-1110.308913,9474.636058
939.127774,995.924147,-1258.350101,9844.739029
939.128093,536.266849,-1184.329507,10140.821405
939.128412,306.438199,-592.164754,10140.821405
939.128731,459.657299,-296.082377,9992.780217
939.129050,76.609550,-0.000000,10066.800811
939.129369,383.047749,444.123565,10066.800811
939.129687,383.047749,296.082377,9844.739029
939.130006,689.485948,444.123565,9918.759623
939.130325,1225.752797,222.061783,10214.842000
939.130644,1302.362347,888.247130,10066.800811
939.130963,1991.848295,1258.350101,9252.574275
939.131282,2068.457845,1850.514855,8882.471304
939.131601,1915.238745,2072.576638,8364.327145
939.131920,2145.067394,1776.494261,7994.224174
939.132239,1991.848295,1628.453072,7920.203579
939.132558,1302.362347,1036.288319,8216.285956
939.132877,689.485948,592.164754,8438.347739
939.133195,0.000000,-222.061783,9178.553681
939.133514,-1302.362347,-148.041188,9548.656652
939.133833,-1838.629195,-444.123565,9918.759623
939.134152,-2374.896044,-666.185348,10140.821405
939.134471,-2911.162892,-222.061783,10214.842000
939.134790,-2834.553343,-444.123565,9918.759623
939.135109,-2451.505594,-0.000000,10140.821405
939.135428,-2068.457845,-148.041188,10584.944971
939.135747,-1532.190996,296.082377,10436.903782
939.136066,-612.876398,962.267725,9918.759623
939.136385,-383.047749,888.247130,9844.739029
939.136703,689.485948,1998.556043,9178.553681
939.137022,1072.533697,1776.494261,8660.409521
939.137341,1149.143247,1702.473667,7920.203579
939.137660,1762.019645,1406.391290,7772.162391
939.137979,1685.410096,962.267725,7772.162391
939.138298,1838.629195,444.123565,7846.182985
939.138617,1225.752797,-0.000000,8660.409521
939.138936,842.705048,-666.185348,9474.636058
939.139255,306.438199,-888.247130,9474.636058
939.139574,-229.828649,-1110.308913,10140.821405
939.139893,0.000000,-444.123565,9992.780217
939.140211,76.609550,-148.041188,9770.718434
939.140530,689.485948,-0.000000,9844.739029
939.140849,1149.143247,-0.000000,9400.615463
939.141168,1455.581446,222.061783,9178.553681
939.141487,1838.629195,518.144159,9252.574275
939.141806,2298.286494,814.226536,9400.615463
939.142125,2604.724693,1110.308913,8734.430116
939.142444,2911.162892,1554.432478,8438.347739
939.142763,2987.772442,1628.453072,8068.244768
939.143082,2834.553343,1332.370696,8142.265362
939.143401,2451.505594,1110.308913,7846.182985
939.143719,1762.019645,444.123565,8364.327145
939.144038,1072.533697,-518.144159,8512.368333
939.144357,459.657299,-518.144159,9104.533087
939.144676,-383.047749,-740.205942,9474.636058
939.144995,-1302.362347,-666.185348,9474.636058
939.145314,-1532.190996,-1480.411884,9474.636058
939.145633,-2068.457845,-962.267725,9622.677246
939.145952,-2221.676944,-740.205942,9992.780217
939.146271,-1915.238745,-0.000000,10066.800811
939.146590,-1838.629195,-0.000000,9844.739029
939.146909,-1072.533697,-0.000000,10140.821405
939.147227,-842.705048,666.185348,9844.739029
939.147546,-612.876398,962.267725,9918.759623
939.147865,0.000000,1332.370696,9474.636058
939.148184,76.609550,1628.453072,8734.430116
939.148503,229.828649,1776.494261,8216.285956
939.148822,536.266849,1776.494261,8068.244768
939.149141,459.657299,1480.411884,8290.306550
939.149460,229.828649,888.247130,8586.388927
939.149779,229.828649,148.041188,8808.450710
939.150098,0.000000,-148.041188,9474.636058
939.150417,0.000000,-518.144159,9918.759623
939.150735,-306.438199,-74.020594,9918.759623
939.151054,-459.657299,-148.041188,10066.800811
939.151373,0.000000,-0.000000,9696.697840
939.151692,0.000000,370.102971,9696.697840
939.152011,536.266849,518.144159,9474.636058
939.152330,842.705048,666.185348,9474.636058
939.152649,1378.971896,518.144159,9400.615463
939.152968,1991.848295,444.123565,9770.718434
939.153287,2221.676944,740.205942,9622.677246
939.153606,2528.115143,888.247130,9474.636058
939.153925,2834.553343,1184.329507,8956.491898
939.154243,2911.162892,1628.453072,8512.368333
939.154562,2911.162892,1332.370696,8216.285956
939.154881,2911.162892,814.226536,8364.327145
939.155200,2145.067394,-0.000000,8808.450710
939.155519,1915.238745,-148.041188,8808.450710
939.155838,1072.533697,-1332.370696,9104.533087
939.156157,153.219100,-592.164754,9548.656652
939.156476,-153.219100,-444.123565,9696.697840
939.156795,-995.924147,-148.041188,9474.636058
939.157114,-1455.581446,-148.041188,9622.677246
939.157432,-1225.752797,-0.000000,9474.636058
939.157751,-1072.533697,222.061783,9696.697840
939.158070,-1072.533697,296.082377,9770.718434
939.158389,-842.705048,518.144159,9918.759623
939.158708,-689.485948,296.082377,9696.697840
939.159027,-229.828649,888.247130,9918.759623
939.159346,0.000000,1554.432478,8882.471304
939.159665,76.609550,1776.494261,8512.368333
939.159984,459.657299,1776.494261,8068.244768
939.160303,0.000000,1406.391290,7624.121203
939.160622,0.000000,814.226536,7994.224174
939.160940,-306.438199,222.061783,8068.244768
939.161259,-153.219100,-222.061783,9030.512492
939.161578,-612.876398,-518.144159,9474.636058
939.161897,-1072.533697,-1184.329507,9474.636058
939.162216,-1455.581446,-740.205942,9992.780217
939.162535,-1149.143247,-148.041188,9918.759623
939.162854,-919.314598,-0.000000,9622.677246
939.163173,-536.266849,-74.020594,9548.656652
939.163492,-229.828649,-148.041188,9622.677246
939.163811,383.047749,148.041188,9622.677246
939.164130,1072.533697,444.123565,9918.759623
939.164448,1302.362347,592.164754,9992.780217
939.164767,1762.019645,444.123565,9622.677246
939.165086,2145.067394,1036.288319,9104.533087
939.165405,2911.162892,1332.370696,8438.347739
939.165724,2987.772442,1554.432478,8068.244768
939.166043,3217.601092,1184.329507,7920.203579
939.166362,2681.334243,444.123565,7920.203579
939.166681,2451.505594,-0.000000,8364.327145
939.167000,1608.800546,-666.185348,9178.553681
939.167319,995.924147,-740.205942,9548.656652
939.167638,76.609550,-888.247130,9844.739029
939.167956,0.000000,-814.226536,9992.780217
939.168275,-1302.362347,-814.226536,10214.842000
939.168594,-1149.143247,-370.102971,9992.780217
939.168913,-1149.143247,-296.082377,9918.759623
939.169232,-995.924147,-148.041188,9918.759623
939.169551,-229.828649,-0.000000,9918.759623
939.169870,-536.266849,296.082377,9918.759623
939.170189,0.000000,592.164754,9696.697840
939.170508,153.219100,1110.308913,9178.553681
939.170827,383.047749,1480.411884,8660.409521
939.171146,612.876398,1850.514855,7994.224174
939.171464,919.314598,1924.535449,7624.121203
939.171783,842.705048,1480.411884,7772.162391
939.172102,612.876398,1110.308913,7772.162391
939.172421,306.438199,222.061783,8660.409521
939.172740,0.000000,-0.000000,9178.553681
939.173059,-689.485948,-444.123565,9474.636058
939.173378,-1072.533697,-296.082377,9548.656652
939.173697,-1072.533697,-148.041188,9696.697840
939.174016,-1072.533697,222.061783,9918.759623
939.174335,-919.314598,370.102971,9548.656652
939.174654,-459.657299,370.102971,9770.718434
939.174972,0.000000,592.164754,9548.656652
939.175291,229.828649,888.247130,9474.636058
939.175610,919.314598,592.164754,9696.697840
939.175929,1302.362347,888.247130,9548.656652
939.176248,1838.629195,1110.308913,9474.636058
939.176567,2451.505594,1258.350101,8882.471304
939.176886,2681.334243,1628.453072,8586.388927
939.177205,3140.991542,1332.370696,8290.306550
939.177524,2451.505594,740.205942,8216.285956
939.177843,2528.115143,518.144159,8586.388927
939.178162,1915.238745,148.041188,8660.409521
939.178480,1302.362347,148.041188,9104.533087
939.178799,612.876398,-296.082377,9474.636058
939.179118,0.000000,-518.144159,9844.739029
939.179437,-842.705048,-888.247130,10732.986159
939.179756,-919.314598,-148.041188,9992.780217
939.180075,-919.314598,296.082377,9918.759623
939.180394,-536.266849,-0.000000,9992.780217
939.180713,-536.266849,-444.123565,10732.986159
939.181032,-536.266849,-518.144159,10510.924376
939.181351,229.828649,-0.000000,10807.006753
939.181670,306.438199,666.185348,10510.924376
939.181988,919.314598,1628.453072,9400.615463
939.182307,1072.533697,1776.494261,8586.388927
939.182626,1225.752797,1776.494261,8512.368333
939.182945,1378.971896,1480.411884,7402.059420
939.183264,1455.581446,814.226536,7105.977043
939.183583,1149.143247,-0.000000,8290.306550
939.183902,612.876398,-370.102971,8734.430116
939.184221,0.000000,-592.164754,9178.553681
939.184540,-1149.143247,-1258.350101,10214.842000
939.184859,-1455.581446,-1036.288319,10436.903782
939.185178,-1149.143247,-592.164754,9696.697840
939.185496,-1072.533697,-518.144159,9696.697840
939.185815,-842.705048,-0.000000,9844.739029
939.186134,-536.266849,444.123565,9548.656652
939.186453,-153.219100,740.205942,9400.615463
939.186772,306.438199,814.226536,9918.759623
939.187091,766.095498,1036.288319,9252.574275
939.187410,1762.019645,962.267725,8956.491898
939.187729,1915.238745,1184.329507,8808.450710
939.188048,2145.067394,1702.473667,8290.306550
939.188367,2451.505594,1850.514855,7698.141797
939.188686,2604.724693,1332.370696,7994.224174
939.189004,2451.505594,814.226536,7846.182985
939.189323,1608.800546,666.185348,8290.306550
939.189642,1302.362347,222.061783,8586.388927
939.189961,536.266849,-0.000000,9104.533087
939.190280,0.000000,-592.164754,9252.574275
939.190599,-842.705048,-666.185348,9474.636058
939.190918,-1149.143247,-592.164754,9918.759623
939.191237,-1149.143247,-370.102971,9696.697840
939.191556,-1072.533697,-222.061783,9622.677246
939.191875,-536.266849,-74.020594,9622.677246
939.192194,-383.047749,-0.000000,9770.718434
939.192512,76.609550,148.041188,9918.759623
939.192831,689.485948,518.144159,9474.636058
939.193150,1072.533697,962.267725,8956.491898
939.193469,1838.629195,1110.308913,8290.306550
939.193788,1378.971896,1332.370696,8068.244768
939.194107,1838.629195,1554.432478,7772.162391
939.194426,1838.629195,1184.329507,7698.141797
939.194745,1378.971896,666.185348,7772.162391
939.195064,1685.410096,222.061783,8290.306550
939.195383,689.485948,-296.082377,9030.512492
939.195701,153.219100,-370.102971,9400.615463
939.196020,0.000000,-592.164754,9548.656652
939.196339,-229.828649,-0.000000,10066.800811
939.196658,0.000000,-296.082377,9844.739029
939.196977,-689.485948,-296.082377,9622.677246
939.197296,-153.219100,222.061783,10066.800811
939.197615,0.000000,-0.000000,9770.718434
939.197934,383.047749,222.061783,10066.800811
939.198253,766.095498,740.205942,10140.821405
939.198572,995.924147,962.267725,9992.780217
939.198890,1302.362347,1258.350101,9622.677246
939.199209,1608.800546,1554.432478,9178.553681
939.199528,1915.238745,1702.473667,8882.471304
939.199847,2451.505594,1406.391290,8660.409521
939.200166,2374.896044,1184.329507,8438.347739
939.200485,1838.629195,444.123565,8734.430116
939.200803,1455.581446,-0.000000,8956.491898
939.201122,536.266849,-740.205942,9622.677246
939.201441,0.000000,-370.102971,9770.718434
939.201760,-536.266849,-296.082377,9770.718434
939.202079,-1072.533697,-296.082377,9918.759623
939.202397,-1685.410096,-370.102971,10066.800811
939.202716,-1608.800546,-296.082377,10584.944971
939.203035,-1378.971896,-222.061783,9918.759623
939.203354,-1149.143247,222.061783,10362.883188
939.203673,-1072.533697,444.123565,10288.862594
939.203992,-459.657299,814.226536,10510.924376
939.204310,76.609550,962.267725,10140.821405
939.204629,459.657299,1628.453072,9400.615463
939.204948,995.924147,2146.597232,8734.430116
939.205267,1762.019645,2368.659014,8216.285956
939.205586,1915.238745,2072.576638,7772.162391
939.205905,2221.676944,1628.453072,7402.059420
939.206223,1378.971896,888.247130,7920.203579
939.206542,1302.362347,518.144159,8438.347739
939.206861,1072.533697,-74.020594,9178.553681
939.207180,536.266849,-74.020594,9326.594869
939.207499,0.000000,-222.061783,9474.636058
939.207818,-536.266849,-518.144159,9770.718434
939.208136,-306.438199,-444.123565,9918.759623
939.208455,0.000000,-148.041188,9548.656652
939.208774,76.609550,-74.020594,9548.656652
939.209093,612.876398,-0.000000,9622.677246
939.209412,1072.533697,592.164754,9696.697840
939.209730,1838.629195,814.226536,9548.656652
939.210049,2298.286494,740.205942,9400.615463
939.210368,2528.115143,1036.288319,8586.388927
939.210687,2987.772442,1480.411884,8068.244768
939.211006,3370.820191,1184.329507,7550.100608
939.211325,3217.601092,1110.308913,7254.018232
939.211643,2834.553343,592.164754,7772.162391
939.211962,2451.505594,-0.000000,8290.306550
939.212281,1455.581446,-370.102971,8660.409521
939.212600,766.095498,-666.185348,9252.574275
939.212919,0.000000,-814.226536,9474.636058
939.213238,-1072.533697,-888.247130,9474.636058
939.213556,-1685.410096,-814.226536,9844.739029
939.213875,-1608.800546,-740.205942,10066.800811
939.214194,-1915.238745,-592.164754,9992.780217
939.214513,-1378.971896,-296.082377,10288.862594
939.214832,-1302.362347,-74.020594,9918.759623
939.215150,-995.924147,222.061783,9918.759623
939.215469,-612.876398,814.226536,9622.677246
939.215788,-229.828649,1332.370696,9178.553681
939.216107,306.438199,1702.473667,8808.450710
939.216426,842.705048,2368.659014,8216.285956
939.216745,995.924147,1776.494261,7698.141797
939.217063,766.095498,1332.370696,7920.203579
939.217382,766.095498,370.102971,8142.265362
939.217701,0.000000,-222.061783,8808.450710
939.218020,-383.047749,-740.205942,9400.615463
939.218339,-919.314598,-1184.329507,9918.759623
939.218658,-1072.533697,-814.226536,10288.862594
939.218976,-1455.581446,-740.205942,10362.883188
939.219295,-1072.533697,-740.205942,10140.821405
939.219614,-766.095498,-74.020594,9918.759623
939.219933,-612.876398,-0.000000,9992.780217
939.220252,229.828649,-0.000000,9548.656652
939.220571,1455.581446,-0.000000,9770.718434
939.220889,1685.410096,444.123565,9622.677246
939.221208,2221.676944,1110.308913,9548.656652
939.221527,2604.724693,1554.432478,9178.553681
939.221846,3217.601092,1702.473667,8438.347739
939.222165,3524.039291,1924.535449,7994.224174
939.222483,3600.648841,1998.556043,7772.162391
939.222802,3064.381992,1258.350101,7846.182985
939.223121,2604.724693,962.267725,8290.306550
939.223440,2451.505594,222.061783,8956.491898
939.223759,1378.971896,-296.082377,9326.594869
939.224078,459.657299,-148.041188,9474.636058
939.224396,-383.047749,-444.123565,9622.677246
939.224715,-842.705048,-370.102971,9918.759623
939.225034,-1072.533697,-296.082377,9844.739029
939.225353,-995.924147,-222.061783,9844.739029
939.225672,-1225.752797,222.061783,9474.636058
939.225991,-689.485948,444.123565,9918.759623
939.226309,-383.047749,592.164754,9696.697840
939.226628,-229.828649,592.164754,9622.677246
939.226947,153.219100,1110.308913,9548.656652
939.227266,229.828649,1480.411884,9104.533087
939.227585,459.657299,1628.453072,8586.388927
939.227903,766.095498,1850.514855,8364.327145
939.228222,995.924147,1628.453072,7994.224174
939.228541,229.828649,1036.288319,7994.224174
939.228860,-383.047749,296.082377,8586.388927
939.229179,-612.876398,-444.123565,9030.512492
939.229498,-919.314598,-888.247130,9770.718434
939.229816,-1378.971896,-888.247130,9992.780217
939.230135,-1762.019645,-666.185348,10214.842000
939.230454,-1991.848295,-666.185348,10288.862594
939.230773,-1532.190996,-444.123565,10214.842000
939.231092,-1072.533697,-296.082377,9696.697840
939.231411,-689.485948,148.041188,9696.697840
939.231729,-229.828649,222.061783,9770.718434
939.232048,536.266849,518.144159,9622.677246
939.232367,689.485948,666.185348,9844.739029
939.232686,1838.629195,814.226536,9400.615463
939.233005,2374.896044,1406.391290,8956.491898
939.233323,2911.162892,1332.370696,8364.327145
939.233642,2911.162892,1554.432478,8068.244768
939.233961,2834.553343,1184.329507,8216.285956
939.234280,2604.724693,444.123565,8142.265362
939.234599,2221.676944,-74.020594,8586.388927
939.234918,1455.581446,-592.164754,9030.512492
939.235236,536.266849,-592.164754,9104.533087
939.235555,0.000000,-518.144159,9622.677246
939.235874,0.000000,-444.123565,9474.636058
939.236193,-766.095498,-518.144159,9770.718434
939.236512,-536.266849,-296.082377,10214.842000
939.236831,-689.485948,-148.041188,10140.821405
939.237149,-229.828649,-0.000000,9622.677246
939.237468,153.219100,444.123565,9474.636058
939.237787,689.485948,592.164754,9622.677246
939.238106,919.314598,1036.288319,9400.615463
939.238425,1302.362347,1258.350101,8882.471304
939.238744,1378.971896,1480.411884,8364.327145
939.239062,1762.019645,1850.514855,7772.162391
939.239381,1838.629195,1924.535449,7476.080014
939.239700,1455.581446,1258.350101,7402.059420
939.240019,536.266849,740.205942,8068.244768
939.240338,383.047749,-0.000000,8512.368333
939.240656,-536.266849,-222.061783,9030.512492
939.240975,-1072.533697,-296.082377,9622.677246
939.241294,-1532.190996,-444.123565,9918.759623
939.241613,-1302.362347,-740.205942,9696.697840
939.241932,-1762.019645,-222.061783,9918.759623
939.242251,-1455.581446,222.061783,10066.800811
939.242569,-919.314598,518.144159,9918.759623
939.242888,-842.705048,740.205942,9696.697840
939.243207,0.000000,1036.288319,9770.718434
939.243526,383.047749,1184.329507,9696.697840
939.243845,919.314598,1702.473667,9474.636058
939.244164,1302.362347,1702.473667,9178.553681
939.244482,1838.629195,1628.453072,9104.533087
939.244801,2451.505594,1554.432478,8438.347739
939.245120,2145.067394,1332.370696,8290.306550
939.245439,2221.676944,814.226536,8586.388927
939.245758,1455.581446,-0.000000,9030.512492
939.246076,1149.143247,-592.164754,9474.636058
939.246395,459.657299,-444.123565,9696.697840
939.246714,0.000000,-592.164754,9844.739029
939.247033,-459.657299,-666.185348,9992.780217
939.247352,-766.095498,-592.164754,9918.759623
939.247671,-1225.752797,-888.247130,10066.800811
939.247989,-689.485948,-296.082377,10288.862594
939.248308,-383.047749,-444.123565,9992.780217
939.248627,0.000000,-222.061783,10140.821405
939.248946,459.657299,-0.000000,10140.821405
939.249265,459.657299,666.185348,10066.800811
939.249584,1072.533697,888.247130,9696.697840
939.249902,1378.971896,1184.329507,9178.553681
939.250221,1225.752797,1554.432478,8512.368333
939.250540,1455.581446,962.267725,8660.409521
939.250859,1838.629195,888.247130,7772.162391
939.251178,1302.362347,296.082377,7920.203579
939.251497,612.876398,-0.000000,8142.265362
939.251815,153.219100,-148.041188,8956.491898
939.252134,-153.219100,-740.205942,8882.471304
939.252453,-153.219100,-444.123565,9474.636058
939.252772,-383.047749,-148.041188,9252.574275
939.253091,-536.266849,-74.020594,9030.512492
939.253409,-536.266849,370.102971,9030.512492
939.253728,-153.219100,518.144159,8882.471304
939.254047,0.000000,370.102971,9030.512492
939.254366,-153.219100,518.144159,8882.471304
939.254685,459.657299,518.144159,9178.553681
939.255004,689.485948,592.164754,9252.574275
939.255322,536.266849,1036.288319,8660.409521
939.255641,1225.752797,1332.370696,8586.388927
939.255960,1225.752797,1554.432478,8216.285956
939.256279,1532.190996,1258.350101,7920.203579
939.256598,1915.238745,1184.329507,8068.244768
939.256917,1072.533697,740.205942,8290.306550
939.257235,536.266849,148.041188,8512.368333
939.257554,76.609550,-0.000000,8956.491898
939.257873,-306.438199,-444.123565,9178.553681
939.258192,-689.485948,-740.205942,9622.677246
939.258511,-919.314598,-370.102971,9622.677246
939.258829,-995.924147,-222.061783,9770.718434
939.259148,-689.485948,-148.041188,9918.759623
939.259467,-612.876398,-0.000000,9844.739029
939.259786,-229.828649,148.041188,9696.697840
939.260105,153.219100,296.082377,9696.697840
939.260424,842.705048,518.144159,9992.780217
939.260742,766.095498,814.226536,9844.739029
939.261061,1072.533697,740.205942,9844.739029
939.261380,1302.362347,1184.329507,9178.553681
939.261699,1762.019645,1554.432478,8808.450710
939.262018,1991.848295,1332.370696,8438.347739
939.262337,1915.238745,1184.329507,8364.327145
939.262655,1762.019645,148.041188,8734.430116
939.262974,995.924147,-148.041188,9104.533087
939.263293,995.924147,-518.144159,9474.636058
939.263612,229.828649,-740.205942,10066.800811
939.263931,0.000000,-518.144159,10510.924376
939.264250,-383.047749,-444.123565,10288.862594
939.264568,-153.219100,-0.000000,9992.780217
939.264887,-229.828649,296.082377,9696.697840
939.265206,0.000000,370.102971,9696.697840
939.265525,536.266849,888.247130,9696.697840
939.265844,689.485948,592.164754,9622.677246
939.266162,995.924147,666.185348,9918.759623
939.266481,1225.752797,962.267725,9844.739029
939.266800,1455.581446,1554.432478,9400.615463
939.267119,1532.190996,1850.514855,9030.512492
939.267438,1762.019645,1776.494261,8734.430116
939.267757,2145.067394,1850.514855,8142.265362
939.268075,1762.019645,1332.370696,8142.265362
939.268394,1225.752797,814.226536,8290.306550
939.268713,842.705048,296.082377,8882.471304
939.269032,76.609550,222.061783,9252.574275
939.269351,-612.876398,148.041188,9548.656652
939.269670,-1072.533697,-74.020594,9622.677246
939.269988,-1455.581446,-148.041188,9844.739029
939.270307,-1608.800546,-370.102971,9992.780217
939.270626,-1532.190996,-444.123565,9844.739029
939.270945,-995.924147,-0.000000,9770.718434
939.271264,-995.924147,-0.000000,9770.718434
939.271582,-383.047749,296.082377,9844.739029
939.271901,76.609550,740.205942,9992.780217
939.272220,689.485948,814.226536,9474.636058
939.272539,1149.143247,1258.350101,8882.471304
939.272858,1685.410096,1406.391290,8216.285956
939.273177,1838.629195,1184.329507,7698.141797
939.273495,2374.896044,592.164754,7624.121203
939.273814,2068.457845,148.041188,7624.121203
939.274133,1838.629195,-592.164754,8290.306550
939.274452,1225.752797,-740.205942,8512.368333
939.274771,1225.752797,-1110.308913,9030.512492
939.275090,383.047749,-1406.391290,9696.697840
939.275408,0.000000,-1406.391290,9770.718434
939.275727,-536.266849,-1110.308913,9918.759623
939.276046,-306.438199,-740.205942,9696.697840
939.276365,0.000000,-740.205942,9622.677246
939.276684,153.219100,-296.082377,9474.636058
939.277002,536.266849,-0.000000,9696.697840
939.277321,842.705048,148.041188,9474.636058
939.277640,1455.581446,296.082377,9178.553681
939.277959,1762.019645,1036.288319,9178.553681
939.278278,2374.896044,1332.370696,8216.285956
939.278597,2604.724693,1776.494261,7698.141797
939.278915,2451.505594,1702.473667,7624.121203
939.279234,2298.286494,962.267725,7476.080014
939.279553,1838.629195,592.164754,7994.224174
939.279872,1149.143247,370.102971,8290.306550
939.280191,612.876398,-74.020594,8808.450710
939.280510,0.000000,-222.061783,9252.574275
939.280828,-842.705048,-0.000000,9326.594869
939.281147,-1455.581446,-74.020594,9474.636058
939.281466,-1838.629195,-0.000000,9548.656652
939.281785,-1378.971896,148.041188,9844.739029
939.282104,-1608.800546,222.061783,9770.718434
939.282423,-1072.533697,444.123565,9918.759623
939.282741,-1072.533697,592.164754,9992.780217
939.283060,-153.219100,666.185348,9918.759623
939.283379,306.438199,1036.288319,9844.739029
939.283698,383.047749,1258.350101,9474.636058
939.284017,919.314598,1258.350101,9178.553681
939.284335,995.924147,1480.411884,8586.388927
939.284654,1302.362347,1332.370696,8364.327145
939.284973,1455.581446,888.247130,8216.285956
939.285292,995.924147,444.123565,8512.368333
939.285611,919.314598,-370.102971,9326.594869
939.285930,229.828649,-296.082377,9770.718434
939.286248,76.609550,-296.082377,10288.862594
939.286567,-383.047749,-444.123565,10658.965565
939.286886,0.000000,-814.226536,10288.862594
939.287205,0.000000,-0.000000,10214.842000
939.287524,76.609550,222.061783,10066.800811
939.287843,536.266849,370.102971,9622.677246
939.288161,995.924147,666.185348,9770.718434
939.288480,1378.971896,814.226536,9844.739029
939.288799,1685.410096,962.267725,9844.739029
939.289118,2374.896044,1776.494261,9622.677246
939.289437,2604.724693,1628.453072,9252.574275
939.289755,2374.896044,1850.514855,8808.450710
939.290074,2681.334243,1998.556043,8290.306550
939.290393,2528.115143,1554.432478,8068.244768
939.290712,2068.457845,962.267725,8142.265362
939.291031,1149.143247,-0.000000,8512.368333
939.291350,766.095498,-148.041188,8956.491898
939.291668,0.000000,-592.164754,9104.533087
939.291987,-536.266849,-444.123565,9326.594869
939.292306,-1302.362347,-370.102971,9474.636058
939.292625,-1225.752797,-370.102971,9474.636058
939.292944,-1915.238745,-0.000000,9622.677246
939.293263,-1762.019645,-0.000000,9474.636058
939.293581,-1685.410096,-74.020594,9844.739029
939.293900,-1378.971896,148.041188,9696.697840
939.294219,-612.876398,370.102971,9918.759623
939.294538,-383.047749,518.144159,9844.739029
939.294857,76.609550,1036.288319,9400.615463
939.295176,689.485948,1184.329507,8956.491898
939.295494,1378.971896,1480.411884,8216.285956
939.295813,1455.581446,1332.370696,7772.162391
939.296132,1838.629195,1036.288319,7772.162391
939.296451,1685.410096,814.226536,7772.162391
939.296770,1378.971896,222.061783,8068.244768
939.297088,842.705048,-518.144159,8734.430116
939.297407,536.266849,-740.205942,9622.677246
939.297726,76.609550,-962.267725,9548.656652
939.298045,-76.609550,-592.164754,9696.697840
939.298364,-383.047749,-370.102971,9770.718434
939.298683,0.000000,-444.123565,9992.780217
939.299002,153.219100,-222.061783,9770.718434
939.299321,0.000000,74.020594,9918.759623
939.299640,689.485948,370.102971,9770.718434
939.299959,1072.533697,518.144159,9844.739029
939.300278,1608.800546,740.205942,9696.697840
939.300597,1762.019645,962.267725,9474.636058
939.300916,1991.848295,1406.391290,8882.471304
939.301235,2298.286494,1480.411884,8438.347739
939.301554,2451.505594,1480.411884,8068.244768
939.301873,1991.848295,962.267725,7920.203579
939.302192,1915.238745,518.144159,7994.224174
939.302511,919.314598,-0.000000,8734.430116
939.302830,612.876398,-296.082377,9178.553681
939.303149,-229.828649,-518.144159,9326.594869
939.303467,-1378.971896,-888.247130,9474.636058
939.303786,-1455.581446,-740.205942,9918.759623
939.304105,-1991.848295,-740.205942,9992.780217
939.304424,-1762.019645,-296.082377,9992.780217
939.304743,-1378.971896,-370.102971,9992.780217
939.305062,-1149.143247,-74.020594,10436.903782
939.305381,-766.095498,-0.000000,10288.862594
939.305700,-459.657299,592.164754,9844.739029
939.306019,229.828649,888.247130,9696.697840
939.306338,842.705048,1628.453072,9400.615463
939.306657,995.924147,1850.514855,8290.306550
939.306976,1302.362347,1998.556043,7846.182985
939.307295,1685.410096,1924.535449,7698.141797
939.307614,1685.410096,1406.391290,7698.141797
939.307933,1532.190996,888.247130,8142.265362
939.308252,1302.362347,-0.000000,8660.409521
939.308571,612.876398,-0.000000,9326.594869
939.308890,76.609550,-444.123565,9696.697840
939.309209,-383.047749,-518.144159,9844.739029
939.309527,-306.438199,-370.102971,9918.759623
939.309846,-383.047749,-0.000000,9918.759623
939.310165,-229.828649,-0.000000,9844.739029
939.310484,0.000000,-0.000000,9770.718434
939.310803,612.876398,222.061783,10066.800811
939.311122,612.876398,592.164754,9622.677246
939.311441,919.314598,370.102971,9696.697840
939.311760,1532.190996,1184.329507,9474.636058
939.312079,1455.581446,1332.370696,9178.553681
939.312398,1838.629195,1406.391290,8734.430116
939.312717,2068.457845,1480.411884,8142.265362
939.313036,2374.896044,1184.329507,8068.244768
939.313355,1991.848295,888.247130,8142.265362
939.313674,1532.190996,370.102971,8438.347739
939.313993,1149.143247,-0.000000,9030.512492
939.314312,76.609550,-222.061783,9326.594869
939.314631,-459.657299,-370.102971,9474.636058
939.314950,-1149.143247,-444.123565,9548.656652
939.315269,-1225.752797,-666.185348,9992.780217
939.315588,-1685.410096,-370.102971,9770.718434
939.315906,-1455.581446,-222.061783,9770.718434
939.316225,-1302.362347,-74.020594,10066.800811
939.316544,-842.705048,-74.020594,10214.842000
939.316863,-383.047749,148.041188,10214.842000
939.317182,0.000000,370.102971,9770.718434
939.317501,229.828649,962.267725,9696.697840
939.317820,1072.533697,1480.411884,9326.594869
939.318139,1225.752797,1850.514855,8364.327145
939.318458,1455.581446,1554.432478,7846.182985
939.318777,1991.848295,1258.350101,7402.059420
939.319096,1762.019645,962.267725,7772.162391
939.319415,1378.971896,148.041188,8216.285956
939.319734,1149.143247,-296.082377,9104.533087
939.320053,383.047749,-444.123565,9474.636058
939.320372,0.000000,-888.247130,9918.759623
939.320691,-229.828649,-814.226536,9992.780217
939.321010,-306.438199,-296.082377,9992.780217
939.321329,-689.485948,-148.041188,9696.697840
939.321648,76.609550,296.082377,9548.656652
939.321967,0.000000,444.123565,9918.759623
939.322285,459.657299,666.185348,9696.697840
939.322604,995.924147,518.144159,9622.677246
939.322923,1532.190996,814.226536,9622.677246
939.323242,1915.238745,1184.329507,9178.553681
939.323561,2145.067394,1480.411884,8808.450710
939.323880,2451.505594,1628.453072,8142.265362
939.324199,2528.115143,1628.453072,8068.244768
939.324518,2298.286494,1332.370696,7994.224174
939.324837,1532.190996,740.205942,7920.203579
939.325156,1378.971896,444.123565,8512.368333
939.325475,612.876398,-74.020594,9104.533087
939.325794,-919.314598,-296.082377,9696.697840
939.326113,-919.314598,-666.185348,9844.739029
939.326432,-1762.019645,-222.061783,9918.759623
939.326751,-1762.019645,-370.102971,9844.739029
939.327070,-1762.019645,-296.082377,10066.800811
939.327389,-919.314598,-370.102971,10214.842000
939.327708,-1302.362347,-0.000000,10140.821405
939.328027,-1072.533697,370.102971,10140.821405
939.328346,-306.438199,518.144159,9992.780217
939.328664,0.000000,888.247130,9696.697840
939.328983,459.657299,1332.370696,9622.677246
939.329302,919.314598,1628.453072,9030.512492
939.329621,1608.800546,1924.535449,8216.285956
939.329940,1608.800546,1628.453072,7920.203579
939.330259,1149.143247,888.247130,7698.141797
939.330578,1302.362347,-0.000000,7920.203579
939.330897,766.095498,-148.041188,8882.471304
939.331216,536.266849,-518.144159,9252.574275
939.331535,0.000000,-740.205942,9696.697840
939.331854,-383.047749,-666.185348,10140.821405
939.332173,-689.485948,-444.123565,9918.759623
939.332492,-766.095498,-296.082377,9844.739029
939.332811,-459.657299,-296.082377,9918.759623
939.333130,0.000000,-0.000000,9770.718434
939.333449,612.876398,-0.000000,9622.677246
939.333768,383.047749,296.082377,9844.739029
939.334087,1149.143247,518.144159,9696.697840
939.334406,1532.190996,814.226536,9622.677246
939.334724,1762.019645,1406.391290,8956.491898
939.335043,2298.286494,1554.432478,8660.409521
939.335362,2298.286494,1776.494261,7994.224174
939.335681,2451.505594,1406.391290,7846.182985
939.336000,2451.505594,1184.329507,8068.244768
939.336319,1685.410096,370.102971,8290.306550
939.336638,995.924147,-222.061783,8660.409521
939.336957,229.828649,-370.102971,8956.491898
939.337276,-612.876398,-296.082377,9622.677246
939.337595,-1072.533697,-592.164754,9548.656652
939.337914,-1838.629195,-592.164754,9844.739029
939.338233,-1915.238745,-444.123565,9844.739029
939.338552,-2068.457845,-666.185348,10140.821405
939.338871,-1608.800546,-148.041188,9992.780217
939.339190,-1072.533697,-222.061783,9770.718434
939.339509,-612.876398,-0.000000,9992.780217
939.339828,0.000000,296.082377,9992.780217
939.340147,536.266849,888.247130,9622.677246
939.340466,1225.752797,962.267725,8808.450710
939.340785,2221.676944,1924.535449,7994.224174
939.341103,2681.334243,1850.514855,7550.100608
939.341422,2374.896044,1406.391290,7105.977043
939.341741,2221.676944,814.226536,7105.977043
939.342060,1915.238745,296.082377,7846.182985
939.342379,1455.581446,-370.102971,8512.368333
939.342698,612.876398,-888.247130,9030.512492
939.343017,0.000000,-962.267725,9474.636058
939.343336,-383.047749,-444.123565,9918.759623
939.343655,0.000000,-518.144159,9844.739029
939.343974,-1072.533697,-148.041188,9770.718434
939.344293,-612.876398,-0.000000,9696.697840
939.344612,-536.266849,296.082377,9548.656652
939.344931,-229.828649,370.102971,9548.656652
939.345250,76.609550,518.144159,9622.677246
939.345569,383.047749,888.247130,9548.656652
939.345888,766.095498,1554.432478,9400.615463
939.346207,1378.971896,1628.453072,8808.450710
939.346526,1685.410096,1628.453072,8512.368333
939.346845,1608.800546,1702.473667,8364.327145
939.347164,1762.019645,1554.432478,8290.306550
939.347482,1225.752797,666.185348,8142.265362
939.347801,842.705048,370.102971,8660.409521
939.348120,306.438199,-74.020594,9030.512492
939.348439,-229.828649,-370.102971,9252.574275
939.348758,-842.705048,-962.267725,9770.718434
939.349077,-1225.752797,-888.247130,9918.759623
939.349396,-1838.629195,-666.185348,9918.759623
939.349715,-1225.752797,-370.102971,9844.739029
939.350034,-1302.362347,-0.000000,10288.862594
939.350353,-766.095498,148.041188,9918.759623
939.350672,-306.438199,444.123565,10140.821405
939.350991,0.000000,666.185348,9992.780217
939.351310,1378.971896,1110.308913,10066.800811
939.351629,1225.752797,1480.411884,9474.636058
939.351948,1608.800546,1850.514855,9030.512492
939.352267,2221.676944,1998.556043,8660.409521
939.352586,2451.505594,1924.535449,8290.306550
939.352905,2834.553343,1480.411884,8438.347739
939.353224,2221.676944,1036.288319,8290.306550
939.353543,2068.457845,370.102971,8882.471304
939.353861,1378.971896,-222.061783,9474.636058
939.354180,766.095498,-592.164754,9770.718434
939.354499,459.657299,-592.164754,9844.739029
939.354818,0.000000,-518.144159,10140.821405
939.355137,-229.828649,-370.102971,10140.821405
939.355456,-229.828649,-296.082377,9918.759623
939.355775,76.609550,-74.020594,10066.800811
939.356094,-229.828649,296.082377,10140.821405
939.356413,459.657299,518.144159,9992.780217
939.356732,689.485948,814.226536,9992.780217
939.357051,1072.533697,1258.350101,9474.636058
939.357370,1762.019645,1332.370696,9030.512492
939.357689,1608.800546,1776.494261,8660.409521
939.358008,1532.190996,1628.453072,8290.306550
939.358327,1608.800546,1110.308913,8216.285956
939.358646,1532.190996,518.144159,8216.285956
939.358965,1378.971896,518.144159,8512.368333
939.359284,919.314598,296.082377,8956.491898
939.359603,229.828649,-222.061783,8734.430116
939.359921,-383.047749,-222.061783,8882.471304
939.360240,-919.314598,-222.061783,9178.553681
939.360559,-1225.752797,-370.102971,9104.533087
939.360878,-1455.581446,-444.123565,9326.594869
939.361197,-1455.581446,-444.123565,9326.594869
939.361516,-1378.971896,-518.144159,9696.697840
939.361835,-1149.143247,-222.061783,9696.697840
939.362154,-536.266849,-0.000000,9622.677246
939.362473,0.000000,592.164754,9696.697840
939.362792,459.657299,1036.288319,9474.636058
939.363111,612.876398,1332.370696,8808.450710
939.363430,1455.581446,1628.453072,8586.388927
939.363749,1838.629195,1850.514855,7994.224174
939.364068,1991.848295,1480.411884,7846.182985
939.364387,1991.848295,814.226536,7994.224174
939.364706,1838.629195,-0.000000,8364.327145
939.365025,1225.752797,-370.102971,9326.594869
939.365344,1378.971896,-592.164754,9400.615463
939.365663,459.657299,-370.102971,9474.636058
939.365982,306.438199,-222.061783,9622.677246
939.366300,-229.828649,-222.061783,9844.739029
939.366619,0.000000,-444.123565,9696.697840
939.366938,76.609550,-444.123565,9770.718434
939.367257,153.219100,-444.123565,9992.780217
939.367576,153.219100,-518.144159,10288.862594
939.367895,153.219100,-444.123565,10436.903782
939.368214,766.095498,222.061783,10362.883188
939.368533,919.314598,666.185348,9844.739029
939.368852,1532.190996,962.267725,9178.553681
939.369171,1915.238745,1480.411884,8660.409521
939.369490,2451.505594,1332.370696,8142.265362
939.369809,1762.019645,888.247130,8364.327145
939.370128,1608.800546,592.164754,8438.347739
939.370447,995.924147,148.041188,8660.409521
939.370766,1072.533697,-74.020594,9400.615463
939.371085,-459.657299,-370.102971,9400.615463
939.371404,-689.485948,-0.000000,9696.697840
939.371723,-1225.752797,-74.020594,9770.718434
939.372042,-1455.581446,-222.061783,9918.759623
939.372361,-1532.190996,-222.061783,10214.842000
939.372679,-1225.752797,-222.061783,9770.718434
939.372998,-995.924147,148.041188,9844.739029
939.373317,-383.047749,740.205942,9992.780217
939.373636,459.657299,1184.329507,9770.718434
939.373955,612.876398,1776.494261,9474.636058
939.374274,1378.971896,1702.473667,8808.450710
939.374593,1991.848295,1850.514855,8290.306550
