#time,accel_x,accel_y,accel_z
1099.500871,612.876398,518.144159,9252.574275
1099.501190,689.485948,444.123565,9178.553681
1099.501509,842.705048,592.164754,9252.574275
1099.501828,766.095498,444.123565,9178.553681
1099.502147,842.705048,148.041188,9326.594869
1099.502466,459.657299,444.123565,9252.574275
1099.502785,842.705048,592.164754,9178.553681
1099.503104,459.657299,296.082377,9400.615463
1099.503423,612.876398,296.082377,9252.574275
1099.503742,383.047749,296.082377,9252.574275
1099.504061,459.657299,222.061783,9252.574275
1099.504380,536.266849,370.102971,9326.594869
1099.504699,612.876398,148.041188,9178.553681
1099.505018,459.657299,-74.020594,9252.574275
1099.505337,76.609550,148.041188,9030.512492
1099.505656,76.609550,-0.000000,9326.594869
1099.505975,383.047749,-0.000000,9104.533087
1099.506294,306.438199,148.041188,9326.594869
1099.506613,306.438199,148.041188,9326.594869
1099.506932,229.828649,518.144159,9252.574275
1099.507251,306.438199,740.205942,9400.615463
1099.507570,229.828649,592.164754,9326.594869
1099.507889,383.047749,740.205942,9474.636058
1099.508208,536.266849,370.102971,9326.594869
1099.508527,536.266849,518.144159,9326.594869
1099.508846,229.828649,222.061783,9474.636058
1099.509165,459.657299,592.164754,9400.615463
1099.509484,919.314598,296.082377,9474.636058
1099.509803,766.095498,370.102971,9178.553681
1099.510122,766.095498,444.123565,9178.553681
1099.510441,689.485948,666.185348,9104.533087
1099.510760,689.485948,592.164754,9326.594869
1099.511079,459.657299,592.164754,9178.553681
1099.511398,536.266849,518.144159,9178.553681
1099.511717,689.485948,444.123565,9326.594869
1099.512036,383.047749,370.102971,9178.553681
1099.512355,1302.362347,222.061783,9030.512492
1099.512674,383.047749,370.102971,9326.594869
1099.512993,383.047749,-0.000000,9030.512492
1099.513312,459.657299,-0.000000,9326.594869
1099.513631,306.438199,-0.000000,9178.553681
1099.513950,383.047749,-0.000000,9178.553681
1099.514269,306.438199,-0.000000,9326.594869
1099.514588,459.657299,-0.000000,9252.574275
1099.514907,153.219100,222.061783,9326.594869
1099.515226,306.438199,370.102971,9178.553681
1099.515545,229.828649,-0.000000,9400.615463
1099.515864,229.828649,518.144159,9400.615463
1099.516183,153.219100,592.164754,9326.594869
1099.516502,383.047749,444.123565,9252.574275
1099.516821,153.219100,592.164754,9326.594869
1099.517140,76.609550,592.164754,9400.615463
1099.517459,229.828649,370.102971,9400.615463
1099.517778,689.485948,666.185348,9474.636058
1099.518097,689.485948,518.144159,9400.615463
1099.518416,-76.609550,222.061783,8956.491898
1099.518735,766.095498,444.123565,9326.594869
1099.519054,842.705048,592.164754,8956.491898
1099.519373,689.485948,444.123565,9252.574275
1099.519692,459.657299,518.144159,9178.553681
1099.520011,766.095498,296.082377,9178.553681
1099.520330,536.266849,370.102971,9178.553681
1099.520649,536.266849,518.144159,9252.574275
1099.520968,536.266849,370.102971,9104.533087
1099.521287,459.657299,-0.000000,9252.574275
1099.521606,689.485948,-0.000000,8882.471304
1099.521925,383.047749,-0.000000,9178.553681
1099.522244,229.828649,-444.123565,8882.471304
1099.522563,0.000000,-592.164754,9326.594869
1099.522882,0.000000,-740.205942,9030.512492
1099.523201,-229.828649,-1110.308913,8660.409521
1099.523520,-383.047749,-740.205942,9252.574275
1099.523839,-306.438199,-666.185348,8808.450710
1099.524158,-459.657299,-518.144159,8512.368333
1099.524477,-1455.581446,-740.205942,8882.471304
1099.524796,-612.876398,-740.205942,8734.430116
1099.525115,-1455.581446,-1184.329507,8660.409521
1099.525434,-1455.581446,-1184.329507,8660.409521
1099.525753,-1991.848295,-1554.432478,9030.512492
1099.526072,-2221.676944,-1258.350101,8956.491898
1099.526391,-1608.800546,-962.267725,8956.491898
1099.526710,-1838.629195,-740.205942,8586.388927
1099.527029,-1685.410096,-666.185348,8142.265362
1099.527348,-1608.800546,-444.123565,7772.162391
1099.527667,-1685.410096,-444.123565,7698.141797
1099.527986,-1838.629195,-1258.350101,7550.100608
1099.528305,-1838.629195,-1406.391290,7920.203579
1099.528624,-1915.238745,-1628.453072,8364.327145
1099.528943,-2145.067394,-1776.494261,8586.388927
1099.529262,-1455.581446,-1702.473667,8512.368333
1099.529581,-2068.457845,-1406.391290,8734.430116
1099.529900,-1762.019645,-1110.308913,8290.306550
1099.530219,-2221.676944,-1036.288319,7846.182985
1099.530538,-2757.943793,-1184.329507,8068.244768
1099.530857,-2834.553343,-2442.679609,7920.203579
1099.531176,-2834.553343,-2738.761985,8142.265362
1099.531495,-3524.039291,-4145.153275,9474.636058
1099.531814,-3830.477490,-4737.318029,10362.883188
1099.532133,-3753.867940,-4367.215058,10436.903782
1099.532452,-3983.696590,-4367.215058,11251.130318
1099.532771,-3830.477490,-3997.112087,11103.089130
1099.533090,-3600.648841,-3182.885551,11399.171507
1099.533409,-3064.381992,-2664.741391,11251.130318
1099.533728,-2987.772442,-2368.659014,10584.944971
1099.534047,-2451.505594,-2368.659014,10362.883188
1099.534366,-2374.896044,-2886.803174,10584.944971
1099.534685,-2145.067394,-2812.782580,10288.862594
1099.535004,-2298.286494,-3775.050304,9992.780217
1099.535323,-2451.505594,-4145.153275,10362.883188
1099.535642,-2221.676944,-4293.194464,10362.883188
1099.535961,-3064.381992,-4367.215058,10955.047942
1099.536280,-3447.429741,-4145.153275,11547.212695
1099.536599,-3830.477490,-4219.173869,12213.398043
1099.536918,-3907.087040,-3627.009116,12287.418637
1099.537237,-4596.572988,-3330.926739,12065.356855
1099.537556,-4903.011187,-3108.864956,11843.295072
1099.537875,-4903.011187,-3108.864956,11547.212695
1099.538194,-5056.230287,-3108.864956,11399.171507
1099.538513,-4443.353888,-3701.029710,11399.171507
1099.538832,-3983.696590,-3849.070898,11695.253884
1099.539151,-3064.381992,-3330.926739,11991.336260
1099.539470,-2068.457845,-2368.659014,11547.212695
1099.539789,-612.876398,-814.226536,10288.862594
1099.540108,-306.438199,592.164754,8364.327145
1099.540427,612.876398,1628.453072,6735.874072
1099.540746,1072.533697,1702.473667,5699.585753
1099.541065,536.266849,962.267725,5181.441594
1099.541384,536.266849,-666.185348,5773.606348
1099.541703,-383.047749,-1924.535449,7105.977043
1099.542022,-689.485948,-3034.844362,8512.368333
1099.542341,-1302.362347,-3923.091493,9622.677246
1099.542660,-1685.410096,-2738.761985,9844.739029
1099.542979,-1455.581446,-1480.411884,9696.697840
1099.543298,-612.876398,-0.000000,8956.491898
1099.543617,-153.219100,1554.432478,8364.327145
1099.543936,153.219100,2368.659014,7846.182985
1099.544255,153.219100,2294.638420,6217.729913
1099.544574,459.657299,2146.597232,5773.606348
1099.544893,612.876398,888.247130,5329.482782
1099.545212,229.828649,-0.000000,5255.462188
1099.545531,383.047749,-814.226536,5773.606348
1099.545850,-76.609550,-1628.453072,7550.100608
1099.546169,-306.438199,-1998.556043,9104.533087
1099.546488,-1072.533697,-1924.535449,9992.780217
1099.546807,-1225.752797,-814.226536,10955.047942
1099.547126,-1685.410096,-296.082377,10658.965565
1099.547445,-1685.410096,74.020594,9918.759623
1099.547764,-1762.019645,444.123565,9548.656652
1099.548083,-2068.457845,-370.102971,8882.471304
1099.548402,-2451.505594,-1554.432478,8364.327145
1099.548721,-2604.724693,-2146.597232,7994.224174
1099.549040,-3140.991542,-2812.782580,8290.306550
1099.549359,-3294.210641,-4441.235652,9104.533087
1099.549678,-3217.601092,-5403.503377,10658.965565
1099.549997,-3677.258390,-4811.338623,11473.192101
1099.550316,-3677.258390,-3701.029710,11251.130318
1099.550635,-3600.648841,-2220.617826,11103.089130
1099.550954,-3830.477490,-1406.391290,11251.130318
1099.551273,-4290.134789,-1258.350101,11325.150913
1099.551592,-4366.744339,-2072.576638,10955.047942
1099.551911,-4519.963438,-3034.844362,10362.883188
1099.552230,-4519.963438,-3627.009116,10436.903782
1099.552549,-4136.915689,-4515.256246,11399.171507
1099.552868,-3064.381992,-4811.338623,12953.603985
1099.553187,-2451.505594,-5033.400406,13027.624579
1099.553506,-1225.752797,-3849.070898,12731.542202
1099.553825,76.609550,-2220.617826,11917.315666
1099.554144,1225.752797,-370.102971,10140.821405
1099.554463,2068.457845,1628.453072,8660.409521
1099.554782,2528.115143,1924.535449,6587.832884
1099.555101,1991.848295,1110.308913,5625.565159
1099.555420,1762.019645,-814.226536,6365.771101
1099.555739,919.314598,-2812.782580,8068.244768
1099.556058,383.047749,-4367.215058,8734.430116
1099.556377,0.000000,-4293.194464,9992.780217
1099.556696,-536.266849,-4293.194464,10881.027347
1099.557015,-919.314598,-3404.947333,11251.130318
1099.557334,-1532.190996,-2294.638420,10732.986159
1099.557653,-2068.457845,-592.164754,9030.512492
1099.557972,-1915.238745,222.061783,8068.244768
1099.558291,-2374.896044,-0.000000,7550.100608
1099.558610,-2068.457845,-740.205942,8438.347739
1099.558929,-2298.286494,-1776.494261,7846.182985
1099.559248,-2834.553343,-2590.720797,9030.512492
1099.559567,-2451.505594,-3256.906145,10066.800811
1099.559886,-2145.067394,-1850.514855,9844.739029
1099.560205,-1455.581446,-740.205942,9400.615463
1099.560524,-689.485948,-296.082377,9104.533087
1099.560843,-766.095498,518.144159,8734.430116
1099.561162,0.000000,888.247130,7624.121203
1099.561481,-766.095498,814.226536,6735.874072
1099.561800,-689.485948,-222.061783,5699.585753
1099.562119,-2374.896044,-1924.535449,5181.441594
1099.562438,-3064.381992,-3330.926739,5181.441594
1099.562757,-4213.525239,-4737.318029,6143.709319
1099.563076,-4979.620737,-6365.771101,9400.615463
1099.563395,-5132.839837,-5033.400406,11251.130318
1099.563714,-5439.278036,-3997.112087,11695.253884
1099.564033,-4979.620737,-3034.844362,12879.583391
1099.564352,-3600.648841,-1850.514855,13915.871710
1099.564671,-2757.943793,-148.041188,12065.356855
1099.564990,-1378.971896,1110.308913,10807.006753
1099.565309,-536.266849,1332.370696,9474.636058
1099.565628,536.266849,888.247130,7994.224174
1099.565947,842.705048,-0.000000,6513.812290
1099.566266,0.000000,-2220.617826,5921.647536
1099.566584,153.219100,-4293.194464,6069.688724
1099.566903,-1532.190996,-5477.523971,6587.832884
1099.567222,-2145.067394,-6217.729913,7994.224174
1099.567541,-3677.258390,-7105.977043,9400.615463
1099.567860,-5362.668486,-7476.080014,11177.109724
1099.568179,-5515.887586,-6809.894666,14434.015869
1099.568497,-5515.887586,-5773.606348,15396.283594
1099.568816,-4826.401637,-4737.318029,14878.139434
1099.569135,-2681.334243,-2886.803174,15618.345376
1099.569454,-1532.190996,-888.247130,13989.892304
1099.569773,995.924147,1110.308913,9770.718434
1099.570092,2528.115143,2072.576638,7550.100608
1099.570410,3830.477490,2442.679609,5625.565159
1099.570729,3983.696590,2664.741391,2072.576638
1099.571048,4443.353888,1702.473667,1628.453072
1099.571367,2987.772442,-74.020594,2738.761985
1099.571686,919.314598,-3627.009116,4367.215058
1099.572005,-2374.896044,-5329.482782,7031.956449
1099.572324,-4903.011187,-6291.750507,11695.253884
1099.572642,-6741.640382,-6661.853478,14211.954086
1099.572961,-7507.735880,-4811.338623,16136.489536
1099.573280,-7584.345430,-2590.720797,16728.654289
1099.573599,-6205.373534,222.061783,15914.427753
1099.573918,-3677.258390,2590.720797,14804.118840
1099.574237,-689.485948,5181.441594,10362.883188
1099.574555,2298.286494,5033.400406,6735.874072
1099.574874,4443.353888,4145.153275,4515.256246
1099.575193,7354.516781,2072.576638,2886.803174
1099.575512,7201.297681,-222.061783,0.000000
1099.575831,6971.469032,-1628.453072,1036.288319
1099.576150,6435.202183,-2220.617826,2960.823768
1099.576468,4826.401637,-1258.350101,2812.782580
1099.576787,3370.820191,-888.247130,6069.688724
1099.577106,919.314598,-0.000000,10732.986159
1099.577425,-995.924147,666.185348,12879.583391
1099.577744,-2451.505594,962.267725,14359.995275
1099.578063,-2298.286494,1628.453072,16062.468941
1099.578382,-1762.019645,518.144159,16358.551318
1099.578700,-383.047749,444.123565,14211.954086
1099.579019,1149.143247,-74.020594,11769.274478
1099.579338,3064.381992,962.267725,8586.388927
1099.579657,5056.230287,1776.494261,4959.379811
1099.579976,6588.421283,2072.576638,2886.803174
1099.580295,6205.373534,3330.926739,1776.494261
1099.580613,5439.278036,3108.864956,1258.350101
1099.580932,3370.820191,3552.988522,2664.741391
1099.581251,1225.752797,1850.514855,7105.977043
1099.581570,-1378.971896,1332.370696,10510.924376
1099.581889,-3064.381992,370.102971,13767.830521
1099.582208,-4826.401637,-518.144159,15988.448347
1099.582526,-5286.058936,-1998.556043,18949.272115
1099.582845,-5822.325785,-2072.576638,19171.333898
1099.583164,-4443.353888,-888.247130,17764.942608
1099.583483,-2911.162892,740.205942,14137.933492
1099.583802,-995.924147,1850.514855,10807.006753
1099.584121,919.314598,1998.556043,7550.100608
1099.584440,1685.410096,2146.597232,3923.091493
1099.584758,2681.334243,1702.473667,2960.823768
1099.585077,2145.067394,1406.391290,1998.556043
1099.585396,1225.752797,222.061783,3849.070898
1099.585715,0.000000,-1406.391290,6957.935855
1099.586034,-1762.019645,-2294.638420,10807.006753
1099.586353,-3217.601092,-3182.885551,14508.036463
1099.586671,-4290.134789,-2442.679609,16506.592507
1099.586990,-4826.401637,-1406.391290,17468.860231
1099.587309,-3753.867940,-1036.288319,17246.798449
1099.587628,-2681.334243,666.185348,16136.489536
1099.587947,-842.705048,1036.288319,12879.583391
1099.588266,919.314598,2294.638420,8364.327145
1099.588584,2911.162892,1406.391290,4811.338623
1099.588903,4519.963438,814.226536,3182.885551
1099.589222,4749.792088,-296.082377,1702.473667
1099.589541,5209.449386,-1184.329507,2368.659014
1099.589860,4213.525239,-1036.288319,3997.112087
1099.590179,3370.820191,-1110.308913,7476.080014
1099.590498,3140.991542,296.082377,9400.615463
1099.590816,2374.896044,1332.370696,11547.212695
1099.591135,1685.410096,1628.453072,12879.583391
1099.591454,919.314598,2294.638420,12287.418637
1099.591773,306.438199,1702.473667,11917.315666
1099.592092,536.266849,1332.370696,10288.862594
1099.592411,1378.971896,518.144159,8068.244768
1099.592729,1915.238745,-814.226536,5921.647536
1099.593048,2911.162892,-3034.844362,5255.462188
1099.593367,2757.943793,-2812.782580,4663.297435
1099.593686,3370.820191,-2738.761985,4515.256246
1099.594005,3217.601092,-1332.370696,5329.482782
1099.594324,3524.039291,444.123565,6513.812290
1099.594642,2145.067394,1184.329507,7550.100608
1099.594961,1608.800546,2294.638420,8882.471304
1099.595280,76.609550,2294.638420,10066.800811
1099.595599,-766.095498,2442.679609,11029.068536
1099.595918,-1455.581446,2368.659014,9770.718434
1099.596237,-2221.676944,1702.473667,10732.986159
1099.596556,-2451.505594,148.041188,10066.800811
1099.596874,-2451.505594,-1110.308913,8956.491898
1099.597193,-1762.019645,-1850.514855,8512.368333
1099.597512,-1532.190996,-1998.556043,7698.141797
1099.597831,-766.095498,-1184.329507,7105.977043
1099.598150,-1149.143247,-592.164754,7031.956449
1099.598469,-459.657299,518.144159,8142.265362
1099.598787,-842.705048,666.185348,8512.368333
1099.599106,-766.095498,2072.576638,9844.739029
1099.599425,-536.266849,2368.659014,11399.171507
1099.599744,-689.485948,3404.947333,11695.253884
1099.600063,-306.438199,3108.864956,12361.439231
1099.600382,153.219100,2516.700203,13249.686362
1099.600700,0.000000,2220.617826,11473.192101
1099.601019,1225.752797,1702.473667,10214.842000
1099.601338,1149.143247,1554.432478,9252.574275
1099.601657,1838.629195,814.226536,7846.182985
1099.601976,1455.581446,-814.226536,6291.750507
1099.602295,459.657299,-1036.288319,6587.832884
1099.602613,-536.266849,-2812.782580,8586.388927
1099.602932,-1532.190996,-3034.844362,9548.656652
1099.603251,-2451.505594,-2294.638420,12065.356855
1099.603570,-2145.067394,-1998.556043,14656.077652
1099.603889,-1915.238745,-0.000000,15914.427753
1099.604208,-689.485948,1036.288319,16062.468941
1099.604527,842.705048,2072.576638,16284.530724
1099.604845,2451.505594,4589.276840,12953.603985
1099.605164,4060.306139,5625.565159,9400.615463
1099.605483,5439.278036,4737.318029,5403.503377
1099.605802,5669.106685,3330.926739,2960.823768
1099.606121,4213.525239,1702.473667,888.247130
1099.606440,2757.943793,370.102971,518.144159
1099.606758,1149.143247,-1850.514855,2960.823768
1099.607077,-1072.533697,-2664.741391,6587.832884
1099.607396,-2528.115143,-3256.906145,10510.924376
1099.607715,-4366.744339,-3775.050304,15026.180623
1099.608034,-4826.401637,-3627.009116,19097.313304
1099.608353,-3524.039291,-1184.329507,20059.581028
1099.608671,-1532.190996,2812.782580,19245.354492
1099.608990,1225.752797,5551.544565,15988.448347
1099.609309,4060.306139,7254.018232,11251.130318
1099.609628,5975.544884,8734.430116,4737.318029
1099.609947,8273.831378,8290.306550,0.000000
1099.610266,8733.488677,5551.544565,-4367.215058
1099.610585,8733.488677,3404.947333,-4737.318029
1099.610903,6894.859482,-148.041188,-2886.803174
1099.611222,3830.477490,-2516.700203,1184.329507
1099.611541,612.876398,-4441.235652,5403.503377
1099.611860,-2068.457845,-4663.297435,11103.089130
1099.612179,-3753.867940,-4737.318029,16580.613101
1099.612498,-5362.668486,-2960.823768,19689.478057
1099.612816,-4596.572988,-1480.411884,20429.683999
1099.613135,-5439.278036,2516.700203,19763.498651
1099.613454,-2528.115143,4145.153275,17838.963202
1099.613773,229.828649,4441.235652,11843.295072
1099.614092,3447.429741,6069.688724,7698.141797
1099.614411,5822.325785,5625.565159,2590.720797
1099.614729,7124.688131,4441.235652,-3182.885551
1099.615048,7890.783629,2516.700203,-3552.988522
1099.615367,7967.393179,370.102971,-1998.556043
1099.615686,4903.011187,-2442.679609,148.041188
1099.616005,1302.362347,-3256.906145,4589.276840
1099.616324,-2145.067394,-3849.070898,11695.253884
1099.616643,-4903.011187,-2738.761985,15248.242405
1099.616961,-6435.202183,-3182.885551,18357.107362
1099.617280,-8963.317327,-2368.659014,21688.034101
1099.617599,-9116.536426,592.164754,23316.487173
1099.617918,-6665.030833,-296.082377,20651.745782
1099.618237,-4443.353888,5477.523971,15840.407159
1099.618556,-383.047749,3108.864956,12065.356855
1099.618874,3217.601092,5551.544565,6217.729913
1099.619193,6052.154434,3034.844362,-814.226536
1099.619512,7507.735880,2664.741391,-2294.638420
1099.619831,7660.954980,962.267725,-2516.700203
1099.620150,5975.544884,-1110.308913,-740.205942
1099.620469,4596.572988,-1036.288319,2442.679609
1099.620787,306.438199,-1184.329507,8068.244768
1099.621106,-2451.505594,-2072.576638,13397.727550
1099.621425,-6052.154434,-2146.597232,16802.674883
1099.621744,-5592.497135,-2368.659014,22576.281231
1099.622063,-7124.688131,-222.061783,22280.198854
1099.622382,-5975.544884,888.247130,22280.198854
1099.622701,-2604.724693,2960.823768,19911.539840
1099.623019,1149.143247,6365.771101,10510.924376
1099.623338,4749.792088,6143.709319,5107.421000
1099.623657,7354.516781,5255.462188,-2960.823768
1099.623976,8580.269578,4145.153275,-5255.462188
1099.624295,8886.707777,2220.617826,-6069.688724
1099.624614,7354.516781,-740.205942,-3552.988522
1099.624932,4443.353888,-2738.761985,1406.391290
1099.625251,766.095498,-2738.761985,7920.203579
1099.625570,-2221.676944,-4219.173869,14952.160028
1099.625889,-4366.744339,-3330.926739,20059.581028
1099.626208,-5132.839837,-1480.411884,23168.445985
1099.626527,-5975.544884,888.247130,21836.075289
1099.626845,-3140.991542,3108.864956,21391.951724
1099.627164,-1225.752797,8364.327145,14285.974681
1099.627483,2145.067394,5699.585753,9178.553681
1099.627802,4060.306139,5625.565159,1258.350101
1099.628121,6818.249932,3849.070898,-3701.029710
1099.628440,7124.688131,1258.350101,-6217.729913
1099.628759,6741.640382,-1554.432478,-3701.029710
1099.629077,4673.182538,-6957.935855,2146.597232
1099.629396,2374.896044,-5625.565159,5995.668130
1099.629715,612.876398,-4737.318029,12213.398043
1099.630034,-3294.210641,-1776.494261,14730.098246
1099.630353,-2528.115143,-1628.453072,20947.828159
1099.630672,-3983.696590,2146.597232,19245.354492
1099.630990,-2451.505594,6365.771101,19319.375086
1099.631309,-2757.943793,7624.121203,16210.510130
1099.631628,0.000000,6661.853478,12657.521608
1099.631947,1225.752797,4737.318029,7328.038826
1099.632266,1838.629195,4367.215058,518.144159
1099.632585,4443.353888,-1480.411884,-1702.473667
1099.632903,4213.525239,-3108.864956,-2590.720797
1099.633222,4366.744339,-4885.359217,-518.144159
1099.633541,2221.676944,-5625.565159,2072.576638
1099.633860,-306.438199,-5699.585753,7476.080014
1099.634179,-2604.724693,-3923.091493,13101.645173
1099.634498,-5209.449386,-1924.535449,17764.942608
1099.634817,-6894.859482,-592.164754,20355.663405
1099.635135,-5286.058936,2146.597232,22280.198854
1099.635454,-5898.935335,5773.606348,19097.313304
1099.635773,-3830.477490,7031.956449,16506.592507
1099.636092,-1991.848295,7179.997637,11843.295072
1099.636411,1532.190996,5773.606348,5403.503377
1099.636730,3677.258390,3552.988522,74.020594
1099.637048,5439.278036,1332.370696,-3552.988522
1099.637367,6128.763984,-1924.535449,-3182.885551
1099.637686,4903.011187,-5403.503377,-2072.576638
1099.638005,2911.162892,-5921.647536,1924.535449
1099.638324,-766.095498,-5625.565159,7328.038826
1099.638643,-2911.162892,-5921.647536,14285.974681
1099.638961,-5209.449386,-4885.359217,19615.457463
1099.639280,-5975.544884,-2442.679609,24426.796086
1099.639599,-5286.058936,666.185348,23760.610738
1099.639918,-4749.792088,7031.956449,21465.972318
1099.640237,153.219100,10140.821405,17246.798449
1099.640556,5056.230287,11991.336260,9918.759623
1099.640875,9269.755526,10881.027347,4219.173869
1099.641193,10418.898773,7698.141797,-4663.297435
1099.641512,11644.651570,3108.864956,-7772.162391
1099.641831,10112.460574,-2516.700203,-8068.244768
1099.642150,6894.859482,-7105.977043,-3775.050304
1099.642469,2911.162892,-10288.862594,2442.679609
1099.642788,-4136.915689,-9992.780217,7624.121203
1099.643106,-6358.592633,-10658.965565,17098.757260
1099.643425,-7660.954980,-8142.265362,24870.919651
1099.643744,-8733.488677,-2072.576638,27091.537477
1099.644063,-6052.154434,2072.576638,28275.866984
1099.644382,-4519.963438,9548.656652,24796.899057
1099.644701,-919.314598,12583.501014,17024.736666
1099.645019,4903.011187,14211.954086,7550.100608
1099.645338,7967.393179,13175.665768,-1554.432478
1099.645657,10418.898773,7031.956449,-9400.615463
1099.645976,11261.603821,2220.617826,-12731.542202
1099.646295,8963.317327,-4515.256246,-8290.306550
1099.646614,4749.792088,-11991.336260,-3330.926739
1099.646933,-306.438199,-12805.562797,2294.638420
1099.647251,-5745.716235,-13545.768739,9918.759623
1099.647570,-9729.412825,-14730.098246,20947.828159
1099.647889,-10878.556072,-9030.512492,26795.455100
1099.648208,-9959.241474,-3775.050304,30940.608376
1099.648527,-9039.926876,3701.029710,29608.237680
1099.648846,-5132.839837,10140.821405,26573.393318
1099.649164,0.000000,17838.963202,16136.489536
1099.649483,5209.449386,16062.468941,9548.656652
1099.649802,10112.460574,15174.221811,-2368.659014
1099.650121,12180.918418,8586.388927,-12953.603985
1099.650440,11721.261119,-0.000000,-13619.789333
1099.650759,9652.803275,-5625.565159,-8586.388927
1099.651077,5439.278036,-13619.789333,-1702.473667
1099.651396,612.876398,-14285.974681,296.082377
1099.651715,-4290.134789,-13545.768739,8660.409521
1099.652034,-10035.851024,-14211.954086,18431.127956
1099.652353,-10801.946522,-14878.139434,29534.217086
1099.652672,-13253.452115,-3330.926739,29090.093521
1099.652991,-11644.651570,5403.503377,27831.743419
1099.653309,-7967.393179,11769.274478,27535.661042
1099.653628,-3217.601092,16654.633695,20725.766376
1099.653947,3983.696590,16580.613101,9992.780217
1099.654266,8580.269578,18505.148550,-222.061783
1099.654585,11721.261119,9400.615463,-9178.553681
1099.654904,13330.061665,3034.844362,-15544.324782
1099.655222,11491.432470,-5847.626942,-9992.780217
1099.655541,5592.497135,-12065.356855,-3478.967927
1099.655860,842.705048,-15174.221811,-1776.494261
1099.656179,-2757.943793,-11325.150913,5551.544565
1099.656498,-7660.954980,-18579.169144,16358.551318
1099.656817,-11031.775171,-12731.542202,26573.393318
1099.657135,-13176.842566,-5403.503377,28719.990550
1099.657454,-13023.623466,3627.009116,28571.949361
1099.657773,-8273.831378,17024.736666,29312.155303
1099.658092,-1455.581446,21762.054695,21762.054695
1099.658411,3983.696590,18949.272115,15470.304188
1099.658730,12563.966167,19615.457463,2368.659014
1099.659049,17237.148705,14952.160028,-12805.562797
1099.659367,16700.881856,3330.926739,-18505.148550
1099.659686,13942.938064,-8438.347739,-11917.315666
1099.660005,8044.002729,-14878.139434,-4959.379811
1099.660324,2298.286494,-15396.283594,-2294.638420
1099.660643,-3524.039291,-12657.521608,3627.009116
1099.660962,-6971.469032,-14211.954086,19689.478057
1099.661280,-8810.098227,-14359.995275,27831.743419
1099.661599,-12257.527968,-4145.153275,32346.999665
1099.661918,-13483.280765,2368.659014,32939.164419
1099.662237,-9422.974625,10955.047942,28127.825796
1099.662556,-4060.306139,20503.704593,20799.786970
1099.662875,4596.572988,20281.642811,15026.180623
1099.663193,9116.536426,16580.613101,962.267725
1099.663512,17160.539155,14137.933492,-12583.501014
1099.663831,16700.881856,5551.544565,-18949.272115
1099.664150,14709.033562,-7698.141797,-10955.047942
1099.664468,7354.516781,-16210.510130,-4367.215058
1099.664787,536.266849,-18949.272115,-962.267725
1099.665106,-5209.449386,-15100.201217,2294.638420
1099.665425,-8044.002729,-18579.169144,13767.830521
1099.665743,-12104.308868,-19467.416275,29534.217086
1099.666062,-13330.061665,-13175.665768,35529.885216
1099.666381,-15015.471761,1184.329507,33235.246796
1099.666700,-13636.499864,17616.901420,27535.661042
1099.667019,-4060.306139,16432.571912,28868.031738
1099.667337,1762.019645,25685.146187,14359.995275
1099.667656,8273.831378,22872.363608,1258.350101
1099.667975,14938.862211,13915.871710,-7994.224174
1099.668294,16164.615008,4589.276840,-17542.880825
1099.668612,15475.129060,-6143.709319,-13841.851115
1099.668931,10189.070123,-15026.180623,-6439.791695
1099.669250,1225.752797,-19023.292709,-2072.576638
1099.669569,-2987.772442,-17098.757260,3478.967927
1099.669887,-7431.126331,-16654.633695,9326.594869
1099.670206,-9806.022374,-19911.539840,27831.743419
1099.670525,-13253.452115,-12953.603985,35974.008781
1099.670844,-13559.890315,1184.329507,33531.329173
1099.671162,-12947.013916,15026.180623,23612.569550
1099.671481,-5286.058936,17987.004391,29534.217086
1099.671800,1532.190996,22428.240043,18505.148550
1099.672119,9346.365076,24500.816680,1332.370696
1099.672437,16547.662757,15248.242405,-9252.574275
1099.672756,18692.730151,11621.233289,-17616.901420
1099.673075,17313.758255,-5995.668130,-14434.015869
1099.673394,13406.671215,-11843.295072,-9548.656652
1099.673712,3907.087040,-19541.436869,-3330.926739
1099.674031,-3753.867940,-14359.995275,0.000000
1099.674350,-7584.345430,-17690.922014,8586.388927
1099.674669,-11797.870669,-18949.272115,24944.940245
1099.674987,-11261.603821,-14211.954086,38342.667796
1099.675306,-13942.938064,592.164754,34641.638086
1099.675625,-12793.794817,15544.324782,26055.249158
1099.675944,-6281.983084,17690.922014,31236.690752
1099.676262,1915.238745,23390.507767,20133.601622
1099.676581,6358.592633,33901.432144,-1110.308913
1099.676900,16394.443657,16136.489536,-7772.162391
1099.677219,18769.339701,14137.933492,-15544.324782
1099.677537,16930.710506,2146.597232,-18949.272115
1099.677856,14938.862211,-10140.821405,-11695.253884
1099.678175,4366.744339,-17912.983796,-6735.874072
1099.678494,-3447.429741,-20133.601622,2146.597232
1099.678812,-6511.811733,-14656.077652,3923.091493
1099.679131,-11184.994271,-19689.478057,19985.560434
1099.679450,-12027.699319,-19541.436869,39082.873738
1099.679769,-16547.662757,-5921.647536,37158.338288
1099.680087,-13176.842566,8068.244768,31014.628970
1099.680406,-9806.022374,22428.240043,29756.278868
1099.680725,1378.971896,23908.651927,28349.887579
1099.681044,5822.325785,28127.825796,1850.514855
1099.681362,16471.053207,25759.166782,-8142.265362
1099.681681,20607.968896,14952.160028,-17616.901420
1099.682000,17620.196454,2220.617826,-20059.581028
1099.682319,18539.511052,-13767.830521,-10362.883188
1099.682637,6894.859482,-18579.169144,-6143.709319
1099.682956,-4979.620737,-21688.034101,-2368.659014
1099.683275,-5286.058936,-17764.942608,9252.574275
1099.683594,-10725.336972,-21539.992912,19097.313304
1099.683912,-11414.822920,-20873.807564,36492.152941
1099.684231,-16854.100956,-10436.903782,38860.811955
1099.684550,-15704.957709,-370.102971,36788.235317
1099.684869,-12563.966167,21095.869347,29608.237680
1099.685187,-1991.848295,23686.590144,30792.567187
1099.685506,3294.210641,25833.187376,6735.874072
1099.685825,14096.157163,25907.207970,-5329.482782
1099.686144,22676.426741,21762.054695,-12657.521608
1099.686462,16394.443657,5625.565159,-22946.384202
1099.686781,20071.702048,-12879.583391,-8512.368333
1099.687100,12487.356617,-19023.292709,-7550.100608
1099.687419,-2298.286494,-15618.345376,-9474.636058
1099.687737,-4749.792088,-19689.478057,5921.647536
1099.688056,-8120.612279,-24204.734303,16358.551318
1099.688375,-10572.117872,-25167.002028,30200.402434
1099.688694,-16241.224558,-9104.533087,37898.544230
1099.689012,-15015.471761,-666.185348,36714.214723
1099.689331,-16471.053207,14508.036463,24870.919651
1099.689650,-5669.106685,21243.910535,33161.226202
1099.689969,-1915.238745,17320.819043,18505.148550
1099.690287,6665.030833,33309.267390,-8216.285956
1099.690606,20454.749797,21836.075289,-13323.706956
1099.690925,21297.454844,12657.521608,-14952.160028
1099.691244,16930.710506,-5551.544565,-15766.386565
1099.691562,19612.044749,-11547.212695,-9104.533087
1099.691881,2834.553343,-18949.272115,-12509.480420
1099.692200,-5592.497135,-13767.830521,-3256.906145
1099.692519,-5592.497135,-22354.219448,14656.077652
1099.692837,-9806.022374,-26203.290347,25241.022622
1099.693156,-13253.452115,-13767.830521,35085.761651
1099.693475,-16471.053207,-2368.659014,37972.564825
1099.693794,-18999.168350,9178.553681,27017.516883
1099.694113,-8197.221829,18061.024985,34567.617491
1099.694431,-1762.019645,24278.754898,21688.034101
1099.694750,2068.457845,32124.937883,-4145.153275
1099.695069,16854.100956,25241.022622,-10732.986159
1099.695388,20761.187996,20799.786970,-16506.592507
1099.695706,19688.654299,4959.379811,-18727.210333
1099.696025,19228.997000,-7402.059420,-19541.436869
1099.696344,6435.202183,-17764.942608,-9918.759623
1099.696663,-2145.067394,-19097.313304,3256.906145
1099.696981,-4749.792088,-24130.713709,5921.647536
1099.697300,-10801.946522,-20873.807564,15248.242405
1099.697619,-11721.261119,-24796.899057,37750.503042
1099.697938,-15934.786358,-7698.141797,41673.594535
1099.698256,-16700.881856,1924.535449,31680.814318
1099.698575,-14862.252661,23464.528361,28201.846390
1099.698894,-1532.190996,23464.528361,31162.670158
1099.699213,2068.457845,30348.443622,9474.636058
1099.699531,10265.679673,27387.619854,-8290.306550
1099.699850,20531.359346,25018.960840,-12583.501014
1099.700169,20378.140247,9252.574275,-19023.292709
1099.700488,21680.502593,-7402.059420,-15026.180623
1099.700806,16547.662757,-14434.015869,-6587.832884
1099.701125,153.219100,-18727.210333,-4589.276840
1099.701444,-2451.505594,-22354.219448,3034.844362
1099.701763,-5439.278036,-18209.066173,9770.718434
1099.702081,-11721.261119,-27757.722825,36048.029375
1099.702400,-13789.718964,-15840.407159,43894.212361
1099.702719,-13866.328514,1406.391290,36122.049970
1099.703038,-15858.176809,19541.436869,25018.960840
1099.703356,-6818.249932,20651.745782,33679.370361
1099.703675,-536.266849,21688.034101,20355.663405
1099.703994,8503.660028,34197.514520,-1776.494261
1099.704313,17160.539155,25833.187376,-10436.903782
1099.704631,19765.263848,11325.150913,-18283.086767
1099.704950,20224.921147,-1332.370696,-12139.377449
1099.705269,18386.291952,-15914.427753,-7031.956449
1099.705588,3524.039291,-19319.375086,-3849.070898
1099.705906,-2528.115143,-18135.045579,814.226536
1099.706225,-3524.039291,-18209.066173,4219.173869
1099.706544,-9729.412825,-23020.404796,26351.331535
1099.706863,-12640.575717,-19541.436869,40489.265027
1099.707181,-16164.615008,-5255.462188,39601.017897
1099.707500,-19228.997000,9696.697840,21391.951724
1099.707819,-14479.204912,22132.157666,27831.743419
1099.708138,-4060.306139,17690.922014,32865.143825
1099.708456,2911.162892,30274.423028,666.185348
1099.708775,11414.822920,27979.784608,-14211.954086
1099.709094,20071.702048,17468.860231,-13693.809927
1099.709413,18922.558801,888.247130,-17838.963202
1099.709731,19152.387450,-10362.883188,-12657.521608
1099.710050,6818.249932,-15840.407159,-6661.853478
1099.710369,-4826.401637,-25167.002028,-962.267725
1099.710688,-5056.230287,-21095.869347,592.164754
1099.711006,-8810.098227,-19985.560434,14211.954086
1099.711325,-10725.336972,-23538.548956,37972.564825
1099.711644,-14938.862211,-12435.459826,35825.967593
1099.711963,-17237.148705,5255.462188,31310.711347
1099.712281,-14479.204912,21836.075289,29608.237680
1099.712600,-4596.572988,23760.610738,26943.496289
1099.712919,2221.676944,28571.949361,11769.274478
1099.713238,12257.527968,33531.329173,-7698.141797
1099.713556,18845.949251,26203.290347,-14211.954086
1099.713875,19841.873398,6439.791695,-20799.786970
1099.714194,21603.893044,-5107.421000,-15248.242405
1099.714513,14096.157163,-16358.551318,-7328.038826
1099.714831,-612.876398,-21614.013506,-5847.626942
1099.715150,-4903.011187,-22058.137072,1628.453072
1099.715469,-7277.907231,-21243.910535,10214.842000
1099.715788,-11184.994271,-25685.146187,27165.558071
1099.716106,-13866.328514,-16728.654289,41895.656317
1099.716425,-15781.567259,-4663.297435,39082.873738
1099.716744,-20148.311597,13545.768739,26943.496289
1099.717063,-6052.154434,22798.343014,34789.679274
1099.717381,459.657299,26943.496289,21984.116477
1099.717700,7584.345430,31458.752535,-8956.491898
1099.718019,17773.415554,28497.928767,-14804.118840
1099.718338,22523.207641,17690.922014,-16506.592507
1099.718656,23519.131789,814.226536,-15174.221811
1099.718975,20301.530697,-14137.933492,-7254.018232
1099.719294,6894.859482,-18653.189738,-7254.018232
1099.719613,-3370.820191,-25092.981434,-1036.288319
1099.719931,-4826.401637,-27165.558071,4367.215058
1099.720250,-8656.879127,-28053.805202,21614.013506
1099.720569,-13789.718964,-24574.837274,38194.626607
1099.720888,-16547.662757,-7624.121203,40711.326810
1099.721206,-16700.881856,9326.594869,27683.702231
1099.721525,-15398.519510,20133.601622,24944.940245
1099.721844,-2374.896044,21762.054695,35307.823433
1099.722163,3217.601092,31384.731941,6143.709319
1099.722482,13100.233016,31236.690752,-13841.851115
1099.722800,21297.454844,22576.281231,-19541.436869
1099.723119,21220.845295,6587.832884,-15396.283594
1099.723438,20454.749797,-8068.244768,-14582.057057
1099.723757,10648.727422,-16432.571912,-10658.965565
1099.724075,-4903.011187,-25389.063811,-4737.318029
1099.724394,-6435.202183,-24500.816680,1924.535449
1099.724713,-9269.755526,-17468.860231,14285.974681
1099.725032,-10342.289223,-26499.372724,35677.926404
1099.725350,-16317.834107,-16284.530724,42191.738694
1099.725669,-18845.949251,3404.947333,33013.185013
1099.725988,-20837.797546,18431.127956,24870.919651
1099.726307,-5669.106685,26499.372724,39156.894332
1099.726625,-1991.848295,25018.960840,16728.654289
1099.726944,7507.735880,36122.049970,-7254.018232
1099.727263,16854.100956,32198.958477,-14359.995275
1099.727582,24591.665486,13841.851115,-17912.983796
1099.727900,19688.654299,-740.205942,-20355.663405
1099.728219,17160.539155,-14285.974681,-8586.388927
1099.728538,766.095498,-21539.992912,-7105.977043
1099.728857,-9116.536426,-23612.569550,-5773.606348
1099.729175,-4443.353888,-23686.590144,11251.130318
1099.729494,-11184.994271,-29312.155303,26795.455100
1099.729813,-10801.946522,-20725.766376,44190.294737
1099.730132,-17850.025103,-7179.997637,38786.791361
1099.730450,-20454.749797,10288.862594,26425.352129
1099.730769,-11644.651570,24870.919651,31384.731941
1099.731088,0.000000,23686.590144,34049.473332
1099.731407,6894.859482,31828.855506,-3182.885551
1099.731725,16854.100956,34345.555709,-19319.375086
1099.732044,22369.988542,23316.487173,-14730.098246
1099.732363,21910.331243,2442.679609,-14211.954086
1099.732682,21067.626195,-14878.139434,-16284.530724
1099.733000,10495.508323,-21391.951724,-6809.894666
1099.733319,-5056.230287,-24056.693115,-2368.659014
1099.733638,-4979.620737,-27017.516883,2960.823768
1099.733957,-8273.831378,-26203.290347,16950.716072
1099.734275,-9729.412825,-24796.899057,42709.882853
1099.734594,-15398.519510,-11251.130318,43894.212361
1099.734913,-16547.662757,4737.318029,29312.155303
1099.735232,-18233.072852,19319.375086,23612.569550
1099.735550,-3677.258390,24944.940245,35455.864622
1099.735869,1915.238745,24796.899057,18357.107362
1099.736188,9882.631924,33827.411549,-14878.139434
1099.736507,22216.769442,25685.146187,-14285.974681
1099.736825,20301.530697,11695.253884,-18875.251521
1099.737144,24055.398637,-13471.748144,-14952.160028
1099.737463,16241.224558,-14285.974681,-11325.150913
1099.737782,1915.238745,-22132.157666,-5699.585753
1099.738100,-3600.648841,-27979.784608,4071.132681
1099.738419,-5286.058936,-23094.425390,9474.636058
1099.738738,-9576.193725,-27091.537477,34789.679274
1099.739057,-12947.013916,-19689.478057,44782.459491
1099.739375,-15321.909960,-592.164754,33827.411549
1099.739694,-18616.120601,17542.880825,21688.034101
1099.740013,-13176.842566,20059.581028,31458.752535
1099.740332,689.485948,26795.455100,30200.402434
1099.740650,5209.449386,27905.764013,-2442.679609
1099.740969,15245.300410,34493.596897,-9992.780217
1099.741288,20454.749797,18135.045579,-19763.498651
1099.741607,19075.777900,-1110.308913,-14211.954086
1099.741925,20224.921147,-12583.501014,-10510.924376
1099.742244,1838.629195,-18431.127956,-7994.224174
1099.742563,-5362.668486,-25092.981434,-5403.503377
1099.742882,-4519.963438,-21836.075289,8216.285956
1099.743200,-10418.898773,-24352.775492,23242.466579
1099.743519,-9806.022374,-25685.146187,43376.068201
1099.743838,-22753.036291,-5551.544565,35381.844028
1099.744157,-15168.690860,7624.121203,29904.320057
1099.744475,-19305.606550,20947.828159,27091.537477
1099.744794,-306.438199,24648.857869,31384.731941
1099.745113,-383.047749,31236.690752,5107.421000
1099.745432,12257.527968,33901.432144,-8882.471304
1099.745750,18999.168350,25685.146187,-19615.457463
1099.746069,19458.825649,7105.977043,-17542.880825
1099.746388,22216.769442,-8808.450710,-16802.674883
1099.746707,12487.356617,-13545.768739,-8142.265362
1099.747025,-3370.820191,-19245.354492,-8216.285956
1099.747344,-5898.935335,-29904.320057,3478.967927
1099.747663,-9959.241474,-22354.219448,7179.997637
1099.747982,-13253.452115,-26203.290347,33827.411549
1099.748300,-16394.443657,-15248.242405,43079.985824
1099.748619,-16394.443657,-3552.988522,37972.564825
1099.748938,-18845.949251,20429.683999,23612.569550
1099.749257,-9729.412825,25537.104999,32865.143825
1099.749575,2068.457845,22724.322419,28053.805202
1099.749894,7660.954980,35974.008781,-5403.503377
1099.750213,19612.044749,33161.226202,-13767.830521
1099.750532,20607.968896,15692.365970,-21391.951724
1099.750851,23136.084040,-6069.688724,-10584.944971
1099.751169,21910.331243,-11547.212695,-13397.727550
1099.751488,6435.202183,-20059.581028,-7698.141797
1099.751807,-3140.991542,-22502.260637,1036.288319
1099.752126,-2528.115143,-25092.981434,5773.606348
1099.752444,-8120.612279,-27017.516883,21317.931130
1099.752763,-15092.081311,-22724.322419,43154.006419
1099.753082,-16011.395908,-9104.533087,39897.100274
1099.753401,-19152.387450,1924.535449,31162.670158
1099.753719,-11568.042020,20947.828159,29534.217086
1099.754038,-1225.752797,24352.775492,32495.040854
1099.754357,4366.744339,27239.578666,3923.091493
1099.754676,14709.033562,35529.885216,-11029.068536
1099.754994,22753.036291,23242.466579,-14137.933492
1099.755313,21220.845295,5773.606348,-18283.086767
1099.755632,22063.550342,-16284.530724,-12361.439231
1099.755951,18386.291952,-11251.130318,-4589.276840
1099.756269,-383.047749,-23760.610738,-10881.027347
1099.756588,-2911.162892,-24204.734303,7105.977043
1099.756907,-7890.783629,-29904.320057,17616.901420
1099.757226,-10418.898773,-27461.640448,34271.535115
1099.757544,-16700.881856,-14211.954086,43228.027013
1099.757863,-17773.415554,-4811.338623,35751.946999
1099.758182,-18616.120601,23168.445985,21021.848753
1099.758501,-5745.716235,16506.592507,33383.287984
1099.758819,0.000000,26425.352129,19541.436869
1099.759138,7124.688131,31902.876100,-7105.977043
1099.759457,16394.443657,30052.361245,-16506.592507
1099.759776,18079.853753,16580.613101,-20651.745782
1099.760094,17773.415554,-4737.318029,-10732.986159
1099.760413,18309.682402,-15396.283594,-11769.274478
1099.760732,-229.828649,-13471.748144,-13175.665768
1099.761051,-7277.907231,-25018.960840,-888.247130
1099.761369,-7507.735880,-23612.569550,8216.285956
1099.761688,-12487.356617,-30274.423028,26573.393318
1099.762007,-16547.662757,-27165.558071,43228.027013
1099.762326,-19612.044749,-6143.709319,40563.285622
1099.762644,-21833.721693,6143.709319,22576.281231
1099.762963,-13483.280765,23834.631332,31458.752535
1099.763282,-3600.648841,22058.137072,27091.537477
1099.763601,6971.469032,38490.708984,962.267725
1099.763919,16624.272307,39230.914926,-25389.063811
1099.764238,20761.187996,28201.846390,-12953.603985
1099.764557,20148.311597,7476.080014,-18579.169144
1099.764876,22676.426741,-11695.253884,-15840.407159
1099.765194,12257.527968,-14656.077652,-11103.089130
1099.765513,-2068.457845,-23538.548956,592.164754
1099.765832,-7354.516781,-29904.320057,1406.391290
1099.766150,-6588.421283,-31976.896694,14359.995275
1099.766469,-9806.022374,-27313.599260,36122.049970
1099.766788,-15934.786358,-11325.150913,50408.024650
1099.767106,-15168.690860,-1702.473667,33235.246796
1099.767425,-17007.320056,19319.375086,30422.464216
1099.767744,-4596.572988,26055.249158,29830.299463
1099.768062,4290.134789,26351.331535,22354.219448
1099.768381,10189.070123,36048.029375,-14285.974681
1099.768700,18692.730151,30644.525999,-15248.242405
1099.769018,22063.550342,14063.912898,-20429.683999
1099.769337,24438.446386,-3034.844362,-15914.427753
1099.769656,20301.530697,-17024.736666,-6809.894666
1099.769974,3217.601092,-18357.107362,-2146.597232
1099.770293,-4136.915689,-25018.960840,1998.556043
1099.770612,-4443.353888,-24944.940245,8290.306550
1099.770931,-7507.735880,-29534.217086,30274.423028
1099.771249,-14019.547613,-20947.828159,43376.068201
1099.771568,-15475.129060,-444.123565,38934.832549
1099.771887,-19458.825649,5033.400406,24278.754898
1099.772205,-8580.269578,25907.207970,32717.102636
1099.772524,-689.485948,29164.114115,27683.702231
1099.772843,4903.011187,31828.855506,444.123565
1099.773161,12717.185267,34493.596897,-14211.954086
1099.773480,23978.789087,21317.931130,-18135.045579
1099.773799,19918.482948,4737.318029,-18875.251521
1099.774117,22063.550342,-16062.468941,-9548.656652
1099.774436,9729.412825,-17912.983796,-4589.276840
1099.774755,-4136.915689,-22650.301825,-6217.729913
1099.775073,-4903.011187,-23908.651927,5403.503377
1099.775392,-8120.612279,-28942.052332,25759.166782
1099.775711,-16011.395908,-26277.310941,33827.411549
1099.776029,-15628.348159,-13693.809927,48187.406824
1099.776348,-15858.176809,6439.791695,29682.258274
1099.776667,-16011.395908,24722.878463,20429.683999
1099.776985,-5592.497135,23242.466579,32124.937883
1099.777304,3140.991542,28645.969955,17172.777854
1099.777623,7814.174080,36122.049970,-17098.757260
1099.777941,18539.511052,33087.205607,-16580.613101
1099.778260,18462.901502,8512.368333,-21539.992912
1099.778579,22523.207641,-9474.636058,-12361.439231
1099.778897,16011.395908,-9918.759623,-12731.542202
1099.779216,-919.314598,-19911.539840,-3552.988522
1099.779535,-7431.126331,-30940.608376,6883.915261
1099.779853,-7277.907231,-29090.093521,4737.318029
1099.780172,-9806.022374,-27313.599260,27165.558071
1099.780491,-14709.033562,-25463.084405,46929.056723
1099.780809,-19152.387450,-7624.121203,37454.420665
1099.781128,-19612.044749,12879.583391,23464.528361
1099.781447,-12027.699319,23612.569550,29756.278868
1099.781765,-459.657299,22576.281231,29460.196492
1099.782084,5056.230287,35011.741057,-1924.535449
1099.782403,15015.471761,36418.132346,-14137.933492
1099.782721,21067.626195,22058.137072,-19245.354492
1099.783040,21067.626195,2886.803174,-16284.530724
1099.783359,22063.550342,-14211.954086,-8808.450710
1099.783677,10265.679673,-18357.107362,-5181.441594
1099.783996,-3140.991542,-26055.249158,-3849.070898
1099.784315,-4749.792088,-30718.546593,4293.194464
1099.784633,-7584.345430,-28497.928767,17024.736666
1099.784952,-14172.766713,-21984.116477,36122.049970
1099.785271,-15551.738609,-9844.739029,40267.203245
1099.785589,-16241.224558,3923.091493,37380.400071
1099.785908,-13253.452115,22872.363608,24796.899057
1099.786227,-4366.744339,24352.775492,30274.423028
1099.786546,4826.401637,28571.949361,19467.416275
1099.786864,9422.974625,33013.185013,-7920.203579
1099.787183,18386.291952,28201.846390,-19911.539840
1099.787502,21220.845295,11547.212695,-20429.683999
1099.787820,24591.665486,-9696.697840,-11177.109724
1099.788139,19688.654299,-13027.624579,-8290.306550
1099.788458,1455.581446,-17394.839637,-8364.327145
1099.788776,-3830.477490,-27017.516883,-814.226536
1099.789095,-4749.792088,-23908.651927,13101.645173
1099.789414,-9422.974625,-26425.352129,30422.464216
1099.789732,-14785.643111,-21836.075289,40045.141462
1099.790051,-15245.300410,-3034.844362,40341.223839
1099.790370,-18539.511052,10362.883188,26203.290347
1099.790688,-11261.603821,23168.445985,31088.649564
1099.791007,-383.047749,21317.931130,29682.258274
1099.791326,4979.620737,35751.946999,-3182.885551
1099.791644,17620.196454,35529.885216,-14730.098246
1099.791963,24361.836836,23760.610738,-15840.407159
1099.792282,19918.482948,3627.009116,-20651.745782
1099.792600,21297.454844,-12583.501014,-12657.521608
1099.792919,7354.516781,-13249.686362,-6883.915261
1099.793238,-4519.963438,-23686.590144,-6365.771101
1099.793556,-6052.154434,-32050.917289,6661.853478
1099.793875,-10189.070123,-30718.546593,19319.375086
1099.794194,-12257.527968,-26351.331535,38638.750172
1099.794512,-19305.606550,-12731.542202,41303.491564
1099.794831,-14402.595362,3552.988522,32050.917289
1099.795150,-21067.626195,21836.075289,27831.743419
1099.795468,-3830.477490,25241.022622,35159.782245
1099.795787,3447.429741,26277.310941,16062.468941
1099.796106,7124.688131,35233.802839,-10436.903782
1099.796424,17160.539155,30422.464216,-16210.510130
1099.796743,20914.407095,16358.551318,-25092.981434
1099.797062,21757.112143,-7994.224174,-14211.954086
1099.797380,16394.443657,-15766.386565,-9474.636058
1099.797699,-919.314598,-17542.880825,-7550.100608
1099.798018,-8963.317327,-24352.775492,592.164754
1099.798336,-5592.497135,-26129.269753,11103.089130
1099.798655,-11108.384721,-29238.134709,29386.175897
1099.798974,-14555.814462,-17616.901420,42117.718100
1099.799292,-17696.806004,-7846.182985,37972.564825
1099.799611,-20148.311597,10214.842000,24500.816680
1099.799930,-12257.527968,19319.375086,30718.546593
1099.800248,-2528.115143,28497.928767,33235.246796
1099.800567,6205.373534,28423.908173,-1998.556043
1099.800886,14479.204912,34123.493926,-18135.045579
1099.801205,21450.673944,26055.249158,-16580.613101
1099.801523,21374.064394,4663.297435,-13397.727550
1099.801842,20301.530697,-12213.398043,-15618.345376
1099.802161,10572.117872,-15396.283594,-4293.194464
1099.802479,-229.828649,-25092.981434,-2664.741391
1099.802798,-3907.087040,-23242.466579,5699.585753
1099.803117,-8886.707777,-27979.784608,18579.169144
1099.803435,-8503.660028,-30940.608376,39378.956114
1099.803754,-15475.129060,-10140.821405,42931.944636
1099.804073,-12334.137518,5181.441594,29978.340651
1099.804391,-15398.519510,19837.519246,26795.455100
1099.804710,-2298.286494,23020.404796,34863.699868
1099.805029,4519.963438,27239.578666,17098.757260
1099.805347,10878.556072,35307.823433,-6587.832884
1099.805666,18769.339701,27017.516883,-14285.974681
1099.805985,21450.673944,16654.633695,-27757.722825
1099.806303,21450.673944,-4367.215058,-15322.262999
1099.806622,21220.845295,-15248.242405,-4367.215058
1099.806941,1149.143247,-17542.880825,-8660.409521
1099.807259,-5439.278036,-23686.590144,-4589.276840
1099.807578,-5439.278036,-26943.496289,15396.283594
1099.807897,-10495.508323,-31532.773129,29312.155303
1099.808215,-13176.842566,-20947.828159,37380.400071
1099.808534,-17696.806004,-6291.750507,42117.718100
1099.808853,-14862.252661,15026.180623,24870.919651
1099.809171,-12180.918418,24204.734303,24944.940245
1099.809490,536.266849,31310.711347,31606.793723
1099.809809,7967.393179,29460.196492,9622.677246
1099.810127,17083.929605,39230.914926,-13545.768739
1099.810446,18922.558801,25907.207970,-27757.722825
1099.810765,20837.797546,3256.906145,-13989.892304
1099.811083,18462.901502,-13841.851115,-15692.365970
1099.811402,7277.907231,-19985.560434,-9548.656652
1099.811721,-4213.525239,-25463.084405,-3849.070898
1099.812039,-7354.516781,-22206.178260,2072.576638
1099.812358,-13023.623466,-30126.381839,16950.716072
1099.812677,-13330.061665,-31014.628970,37750.503042
1099.812995,-17237.148705,-13619.789333,47521.221476
1099.813314,-17313.758255,1480.411884,33235.246796
1099.813633,-20454.749797,19985.560434,24426.796086
1099.813951,-8273.831378,24796.899057,37380.400071
1099.814270,995.924147,30792.567187,16802.674883
1099.814589,7507.735880,37084.317694,-10436.903782
1099.814907,13559.890315,29460.196492,-13397.727550
1099.815226,20071.702048,17098.757260,-19245.354492
1099.815545,20148.311597,-2368.659014,-17764.942608
1099.815863,17696.806004,-17838.963202,-5995.668130
1099.816182,2298.286494,-20429.683999,-4145.153275
1099.816501,-6358.592633,-29830.299463,962.267725
1099.816820,-6588.421283,-27165.558071,9696.697840
1099.817138,-9882.631924,-30200.402434,26869.475695
1099.817457,-10955.165621,-23612.569550,42709.882853
1099.817776,-18079.853753,444.123565,33975.452738
1099.818094,-15704.957709,7031.956449,32198.958477
1099.818413,-16241.224558,20947.828159,26351.331535
1099.818732,-1608.800546,23760.610738,27091.537477
1099.819050,7277.907231,36492.152941,1110.308913
1099.819369,11491.432470,30792.567187,-19245.354492
1099.819688,19612.044749,18875.251521,-16210.510130
1099.820006,20607.968896,10881.027347,-14137.933492
1099.820325,21297.454844,-12805.562797,-13323.706956
1099.820644,12257.527968,-19171.333898,-2886.803174
1099.820962,1455.581446,-17394.839637,-2960.823768
1099.821281,-3983.696590,-27683.702231,1184.329507
1099.821600,-9422.974625,-29904.320057,15766.386565
1099.821918,-7507.735880,-27165.558071,40711.326810
1099.822237,-16624.272307,-15544.324782,40267.203245
1099.822556,-12257.527968,2516.700203,30496.484810
1099.822874,-18922.558801,18505.148550,30866.587781
1099.823193,-3600.648841,25907.207970,31310.711347
1099.823512,3983.696590,33827.411549,14137.933492
1099.823830,9806.022374,35825.967593,-7624.121203
1099.824149,17543.586904,27683.702231,-16062.468941
1099.824468,23748.960438,23982.672521,-25685.146187
1099.824786,22753.036291,-1776.494261,-16210.510130
1099.825105,18156.463303,-20799.786970,-3404.947333
1099.825424,2374.896044,-21465.972318,-7994.224174
1099.825742,-4903.011187,-25537.104999,-3182.885551
1099.826061,-8656.879127,-28349.887579,13693.809927
1099.826380,-10418.898773,-35011.741057,32198.958477
1099.826698,-15551.738609,-23242.466579,35677.926404
1099.827017,-16164.615008,-2368.659014,39749.059085
1099.827336,-17926.634653,11917.315666,28423.908173
1099.827654,-11491.432470,23464.528361,24796.899057
1099.827973,-3983.696590,30126.381839,22354.219448
1099.828292,5898.935335,32421.020260,1924.535449
1099.828610,10572.117872,35603.905810,-18949.272115
1099.828929,17620.196454,27757.722825,-22132.157666
1099.829248,19612.044749,7105.977043,-18801.230927
1099.829566,18003.244203,-15914.427753,-9178.553681
1099.829885,7277.907231,-18505.148550,-6883.915261
1099.830204,-2987.772442,-25241.022622,-4071.132681
1099.830522,-5209.449386,-30940.608376,7031.956449
1099.830841,-11338.213370,-31014.628970,17024.736666
1099.831160,-7737.564530,-24500.816680,41155.450375
1099.831479,-15321.909960,-14804.118840,41303.491564
1099.831797,-14862.252661,1554.432478,29756.278868
1099.832116,-18233.072852,18801.230927,27535.661042
1099.832435,-7277.907231,27905.764013,28201.846390
1099.832753,5592.497135,30940.608376,14434.015869
1099.833072,8197.221829,37972.564825,-9918.759623
1099.833391,15551.738609,26351.331535,-12065.356855
1099.833709,21144.235745,16432.571912,-25463.084405
1099.834028,22063.550342,-5551.544565,-18135.045579
1099.834347,18462.901502,-18505.148550,-1184.329507
1099.834665,1991.848295,-25389.063811,0.000000
1099.834984,-7814.174080,-28423.908173,-7846.182985
1099.835303,-6205.373534,-27683.702231,15692.365970
1099.835621,-11338.213370,-28571.949361,33161.226202
1099.835940,-12257.527968,-24278.754898,37972.564825
1099.836259,-16317.834107,-2664.741391,35603.905810
1099.836577,-16394.443657,12065.356855,29978.340651
1099.836896,-11644.651570,22058.137072,34049.473332
1099.837215,-1915.238745,25759.166782,23390.507767
1099.837533,6435.202183,35011.741057,5921.647536
1099.837852,14709.033562,33753.390955,-11991.336260
1099.838171,23136.084040,25611.125593,-17987.004391
1099.838489,21680.502593,9696.697840,-22280.198854
1099.838808,20531.359346,-9918.759623,-10955.047942
1099.839127,11797.870669,-22946.384202,-1998.556043
1099.839445,-1149.143247,-18949.272115,-7402.059420
1099.839764,-5286.058936,-26203.290347,888.247130
1099.840083,-10342.289223,-30940.608376,18653.189738
1099.840401,-10725.336972,-29756.278868,39230.914926
1099.840720,-16624.272307,-16358.551318,42265.759288
1099.841039,-15628.348159,1850.514855,35529.885216
1099.841357,-19841.873398,19541.436869,31606.793723
1099.841676,-7277.907231,26795.455100,31088.649564
1099.841995,2221.676944,31088.649564,22206.178260
1099.842313,9269.755526,36640.194129,-5403.503377
1099.842632,16777.491406,33679.370361,-19023.292709
1099.842951,23748.960438,24352.775492,-25833.187376
1099.843269,22063.550342,-1554.432478,-17838.963202
1099.843588,20531.359346,-19467.416275,-5699.585753
1099.843907,4443.353888,-24056.693115,-6513.812290
1099.844225,-8273.831378,-27165.558071,-9548.656652
1099.844544,-5132.839837,-33457.308578,14063.912898
1099.844863,-9346.365076,-35529.885216,25981.228564
1099.845181,-14096.157163,-21243.910535,37972.564825
1099.845500,-15398.519510,-8660.409521,42635.862259
1099.845819,-18616.120601,11399.171507,29164.114115
1099.846137,-14402.595362,22354.219448,29238.134709
1099.846456,-4136.915689,30200.402434,23908.651927
1099.846775,3217.601092,29534.217086,7846.182985
1099.847094,9116.536426,34493.596897,-12879.583391
1099.847412,20071.702048,25167.002028,-14211.954086
1099.847731,18003.244203,8438.347739,-21391.951724
1099.848050,17926.634653,-15544.324782,-12139.377449
1099.848368,14709.033562,-21095.869347,2664.741391
1099.848687,-1455.581446,-23094.425390,-4441.235652
1099.849006,-5822.325785,-27091.537477,1258.350101
1099.849324,-8580.269578,-32272.979071,19319.375086
1099.849643,-7277.907231,-24500.816680,34345.555709
1099.849962,-13713.109414,-13767.830521,38194.626607
1099.850280,-12870.404366,3997.112087,29460.196492
1099.850599,-20531.359346,13841.851115,24056.693115
1099.850918,-8273.831378,20873.807564,33383.287984
1099.851236,2068.457845,33087.205607,19467.416275
1099.851555,7431.126331,33679.370361,-3108.864956
1099.851874,13330.061665,29904.320057,-19097.313304
1099.852192,21603.893044,22946.384202,-19393.395680
1099.852511,20454.749797,-814.226536,-15322.262999
1099.852830,16930.710506,-14211.954086,-10732.986159
1099.853148,3830.477490,-18135.045579,-4071.132681
1099.853467,-2451.505594,-23020.404796,-4737.318029
1099.853786,-5669.106685,-27831.743419,5255.462188
1099.854104,-10035.851024,-32124.937883,23538.548956
1099.854423,-11797.870669,-27609.681637,34419.576303
1099.854742,-15934.786358,-9104.533087,36492.152941
1099.855060,-16394.443657,5329.482782,30792.567187
1099.855379,-15858.176809,20577.725188,24796.899057
1099.855698,-2298.286494,28423.908173,28127.825796
1099.856016,5592.497135,34567.617491,5033.400406
1099.856335,12487.356617,37158.338288,-9178.553681
1099.856654,21220.845295,26943.496289,-15174.221811
1099.856972,21144.235745,15100.201217,-27905.764013
1099.857291,19458.825649,-11399.171507,-14359.995275
1099.857610,14172.766713,-19985.560434,-1036.288319
1099.857928,229.828649,-23464.528361,-3775.050304
1099.858247,-7201.297681,-29756.278868,-1480.411884
1099.858566,-7660.954980,-33457.308578,20725.766376
1099.858884,-8886.707777,-26721.434506,35751.946999
1099.859203,-13023.623466,-18801.230927,35233.802839
1099.859522,-14709.033562,-74.020594,37454.420665
1099.859840,-16624.272307,15840.407159,32124.937883
1099.860159,-8120.612279,30496.484810,24574.837274
1099.860478,-612.876398,32643.082042,20355.663405
1099.860796,7967.393179,32272.979071,4071.132681
1099.861115,14096.157163,35233.802839,-19467.416275
1099.861434,21374.064394,24574.837274,-27387.619854
1099.861753,22063.550342,-2368.659014,-12509.480420
1099.862071,18079.853753,-17764.942608,-8216.285956
1099.862390,5592.497135,-20577.725188,-4663.297435
1099.862709,-2987.772442,-24500.816680,-2294.638420
1099.863027,-4213.525239,-25611.125593,8882.471304
1099.863346,-10878.556072,-31976.896694,27387.619854
1099.863665,-12027.699319,-26795.455100,40415.244433
1099.863983,-14862.252661,-8512.368333,41969.676911
1099.864302,-15015.471761,9104.533087,28423.908173
1099.864621,-16317.834107,20577.725188,30200.402434
1099.864939,-4979.620737,27313.599260,25389.063811
1099.865258,4213.525239,30570.505405,10066.800811
1099.865577,9346.365076,35011.741057,-7772.162391
1099.865895,17773.415554,26203.290347,-16654.633695
1099.866214,18309.682402,13397.727550,-26055.249158
1099.866533,19612.044749,-9104.533087,-13915.871710
1099.866851,17007.320056,-20799.786970,0.000000
1099.867170,766.095498,-17320.819043,-6143.709319
1099.867486,-7354.516781,-27535.661042,444.123565
1099.867804,-6511.811733,-32198.958477,16210.510130
1099.868123,-11338.213370,-28423.908173,33161.226202
1099.868442,-15704.957709,-20059.581028,41747.615129
1099.868761,-15781.567259,-3997.112087,34345.555709
1099.869080,-17083.929605,13175.665768,33161.226202
1099.869399,-9806.022374,28571.949361,28497.928767
1099.869717,-612.876398,25092.981434,23242.466579
1099.870036,7890.783629,38342.667796,3627.009116
1099.870355,15092.081311,37898.544230,-16876.695478
1099.870674,20148.311597,21836.075289,-24204.734303
1099.870993,18539.511052,2664.741391,-21539.992912
1099.871312,20761.187996,-15174.221811,-5921.647536
1099.871630,6894.859482,-18653.189738,-9844.739029
1099.871949,-3294.210641,-22576.281231,-7476.080014
1099.872268,-5515.887586,-30866.587781,8364.327145
1099.872587,-10112.460574,-36492.152941,19467.416275
1099.872906,-12257.527968,-28868.031738,40563.285622
1099.873225,-14325.985813,-14434.015869,42487.821071
1099.873543,-16624.272307,2516.700203,30792.567187
1099.873862,-16088.005458,18801.230927,29090.093521
1099.874181,-3600.648841,29756.278868,26055.249158
1099.874500,6281.983084,35011.741057,14434.015869
1099.874819,10725.336972,38860.811955,-15396.283594
1099.875138,18616.120601,30866.587781,-18209.066173
1099.875457,22140.159892,16210.510130,-22206.178260
1099.875775,19612.044749,-3552.988522,-20133.601622
1099.876094,18079.853753,-20133.601622,-5847.626942
1099.876413,3447.429741,-23316.487173,-3701.029710
1099.876732,-5515.887586,-26277.310941,-3923.091493
1099.877051,-8044.002729,-31902.876100,16506.592507
1099.877370,-9652.803275,-35085.761651,33161.226202
1099.877688,-10495.508323,-20799.786970,41969.676911
1099.878007,-16547.662757,-1332.370696,34641.638086
1099.878326,-18462.901502,11991.336260,30792.567187
1099.878645,-11031.775171,29164.114115,29238.134709
1099.878964,306.438199,25907.207970,27535.661042
1099.879283,5822.325785,38268.647201,-2738.761985
1099.879601,12257.527968,33753.390955,-16654.633695
1099.879920,21144.235745,22798.343014,-20059.581028
1099.880239,18462.901502,7846.182985,-20207.622217
1099.880558,20148.311597,-16580.613101,-4663.297435
1099.880877,8273.831378,-24426.796086,-1110.308913
1099.881196,-2834.553343,-22502.260637,-3849.070898
1099.881514,-3753.867940,-28868.031738,10436.903782
1099.881833,-8733.488677,-35899.988187,20281.642811
1099.882152,-7967.393179,-25463.084405,38564.729578
1099.882471,-12870.404366,-11177.109724,40489.265027
1099.882790,-13636.499864,5995.668130,36344.111752
1099.883109,-15475.129060,19541.436869,24204.734303
1099.883428,-7124.688131,32643.082042,27165.558071
1099.883746,4519.963438,33309.267390,17690.922014
1099.884065,10418.898773,34789.679274,-4145.153275
1099.884384,18922.558801,33087.205607,-16432.571912
1099.884703,19841.873398,19911.539840,-30644.525999
1099.885022,21067.626195,-6439.791695,-15026.180623
1099.885341,16164.615008,-18283.086767,-2516.700203
1099.885659,459.657299,-25018.960840,-4293.194464
1099.885978,-7507.735880,-24352.775492,-5107.421000
1099.886297,-9882.631924,-30422.464216,13027.624579
1099.886616,-10035.851024,-35974.008781,30718.546593
1099.886935,-12257.527968,-25685.146187,41081.429781
1099.887254,-16164.615008,-888.247130,34345.555709
1099.887572,-17083.929605,14285.974681,29682.258274
1099.887891,-13636.499864,26203.290347,29386.175897
1099.888210,306.438199,31014.628970,25092.981434
1099.888529,5132.839837,36714.214723,3034.844362
1099.888848,10495.508323,37380.400071,-13545.768739
1099.889167,20148.311597,26129.269753,-20947.828159
1099.889486,19458.825649,11029.068536,-20355.663405
1099.889804,18539.511052,-13767.830521,-10288.862594
1099.890123,9882.631924,-22354.219448,1776.494261
1099.890442,-6052.154434,-27387.619854,-8068.244768
1099.890761,-10801.946522,-30940.608376,-518.144159
1099.891080,-9422.974625,-34567.617491,28349.887579
1099.891399,-10495.508323,-29534.217086,34715.658680
1099.891717,-14325.985813,-18357.107362,38342.667796
1099.892036,-15398.519510,5107.421000,36492.152941
1099.892355,-19841.873398,15692.365970,30644.525999
1099.892674,-8350.440928,29608.237680,25685.146187
1099.892993,3677.258390,30348.443622,20651.745782
1099.893312,8580.269578,42265.759288,-7772.162391
1099.893630,14709.033562,31014.628970,-22132.157666
1099.893949,21910.331243,22354.219448,-22650.301825
1099.894268,21450.673944,-444.123565,-20355.663405
1099.894587,20531.359346,-17987.004391,-6217.729913
1099.894906,5592.497135,-25537.104999,-2664.741391
1099.895225,-3677.258390,-25092.981434,-3849.070898
1099.895543,-5439.278036,-32643.082042,13397.727550
1099.895862,-6281.983084,-38046.585419,33457.308578
1099.896181,-10189.070123,-23168.445985,38712.770767
1099.896500,-14096.157163,-4219.173869,37010.297100
1099.896819,-16241.224558,7328.038826,28423.908173
1099.897138,-11338.213370,24352.775492,24500.816680
1099.897457,-4136.915689,26203.290347,25092.981434
1099.897775,7967.393179,33383.287984,4441.235652
1099.898094,6971.469032,33309.267390,-16136.489536
1099.898413,21910.331243,26203.290347,-16802.674883
1099.898732,20224.921147,13249.686362,-17838.963202
1099.899051,19995.092498,-11473.192101,-12065.356855
1099.899370,14402.595362,-17394.839637,-3627.009116
1099.899688,2451.505594,-21984.116477,-4737.318029
1099.900007,-4060.306139,-24574.837274,148.041188
1099.900326,-8886.707777,-32346.999665,20429.683999
1099.900645,-7967.393179,-33161.226202,36566.173535
1099.900964,-13789.718964,-18727.210333,38934.832549
1099.901283,-14785.643111,-962.267725,35159.782245
1099.901601,-18462.901502,16358.551318,32939.164419
1099.901920,-9806.022374,22428.240043,30792.567187
1099.902239,1225.752797,30126.381839,18505.148550
1099.902558,8733.488677,34789.679274,-1554.432478
1099.902877,12563.966167,35381.844028,-16136.489536
1099.903196,21144.235745,26055.249158,-25833.187376
1099.903514,19305.606550,6883.915261,-20651.745782
1099.903833,18156.463303,-18061.024985,-5773.606348
1099.904152,3753.867940,-22872.363608,-3478.967927
1099.904471,-6358.592633,-22650.301825,-7105.977043
1099.904790,-7124.688131,-32495.040854,6809.894666
1099.905109,-14172.766713,-36196.070564,32939.164419
1099.905428,-9806.022374,-29756.278868,39304.935520
1099.905746,-20378.140247,-11769.274478,37158.338288
1099.906065,-17926.634653,4441.235652,36344.111752
1099.906384,-15245.300410,20873.807564,34419.576303
1099.906703,-5669.106685,31976.896694,16654.633695
1099.907022,2911.162892,31014.628970,16506.592507
1099.907341,8120.612279,40933.388593,-8142.265362
1099.907659,14632.424012,30348.443622,-23020.404796
1099.907978,17466.977354,18357.107362,-27091.537477
1099.908297,21297.454844,-9770.718434,-9104.533087
1099.908616,14249.376263,-19985.560434,-9326.594869
1099.908935,2451.505594,-20947.828159,-4219.173869
1099.909254,-6665.030833,-27905.764013,-2146.597232
1099.909572,-8350.440928,-34197.514520,19615.457463
1099.909891,-8810.098227,-32272.979071,30718.546593
1099.910210,-8580.269578,-22650.301825,46188.850781
1099.910529,-16854.100956,-6143.709319,35233.802839
1099.910848,-13330.061665,10807.006753,32272.979071
1099.911167,-12257.527968,29386.175897,24796.899057
1099.911485,1685.410096,33161.226202,27683.702231
1099.911804,8197.221829,34049.473332,3404.947333
1099.912123,12717.185267,35455.864622,-17394.839637
1099.912442,21910.331243,24944.940245,-19319.375086
1099.912761,21067.626195,10436.903782,-19171.333898
1099.913080,23212.693589,-12805.562797,-11399.171507
1099.913399,13866.328514,-18579.169144,-3108.864956
1099.913717,2374.896044,-25981.228564,-74.020594
1099.914036,-3524.039291,-26499.372724,5995.668130
1099.914355,-8580.269578,-31976.896694,23242.466579
1099.914674,-6358.592633,-33531.329173,42191.738694
1099.914993,-15015.471761,-15100.201217,39452.976709
1099.915312,-12257.527968,2738.761985,34197.514520
1099.915630,-15475.129060,18061.024985,28127.825796
1099.915949,-5822.325785,35455.864622,30200.402434
1099.916268,4673.182538,21391.951724,18801.230927
1099.916587,9422.974625,41081.429781,-5107.421000
1099.916906,18309.682402,30052.361245,-16432.571912
1099.917225,18692.730151,21243.910535,-25907.207970
1099.917543,19458.825649,-4441.235652,-20873.807564
1099.917862,14325.985813,-18209.066173,-3034.844362
1099.918181,3983.696590,-22502.260637,-4441.235652
1099.918500,-5592.497135,-26647.413912,-6217.729913
1099.918819,-10801.946522,-25907.207970,13471.748144
1099.919138,-9499.584175,-34197.514520,34419.576303
1099.919456,-14785.643111,-28201.846390,40933.388593
1099.919775,-16700.881856,-8438.347739,41451.532752
1099.920094,-18386.291952,5847.626942,34863.699868
1099.920413,-16624.272307,24648.857869,21762.054695
1099.920732,-2068.457845,28423.908173,23686.590144
1099.921051,7048.078582,36492.152941,6957.935855
1099.921370,9039.926876,36270.091158,-17098.757260
1099.921688,17696.806004,30792.567187,-19541.436869
1099.922007,19918.482948,16506.592507,-26055.249158
1099.922326,17773.415554,-11547.212695,-14582.057057
1099.922645,12257.527968,-21391.951724,1480.411884
1099.922964,-2068.457845,-27461.640448,-7105.977043
1099.923283,-10418.898773,-30792.567187,-2960.823768
1099.923601,-8886.707777,-36640.194129,18801.230927
1099.923920,-9652.803275,-34049.473332,36196.070564
1099.924239,-14709.033562,-24796.899057,35825.967593
1099.924558,-18462.901502,-0.000000,40933.388593
1099.924877,-20148.311597,14211.954086,37824.523636
1099.925196,-11031.775171,25833.187376,30200.402434
1099.925514,5056.230287,33901.432144,23760.610738
1099.925833,8886.707777,37010.297100,592.164754
1099.926152,10495.508323,33013.185013,-21391.951724
1099.926471,19918.482948,22946.384202,-21021.848753
1099.926790,21067.626195,1184.329507,-15470.304188
1099.927109,19841.873398,-18653.189738,-6143.709319
1099.927427,7660.954980,-20355.663405,1036.288319
1099.927746,0.000000,-28497.928767,-592.164754
1099.928065,-5056.230287,-25537.104999,5699.585753
1099.928384,-6741.640382,-29830.299463,26351.331535
1099.928703,-6358.592633,-28127.825796,43154.006419
1099.929022,-14249.376263,-9622.677246,34641.638086
1099.929341,-12487.356617,3182.885551,33309.267390
1099.929659,-12257.527968,17912.983796,32939.164419
1099.929978,-3830.477490,28942.052332,24056.693115
1099.930297,8120.612279,31828.855506,14285.974681
1099.930616,11951.089769,38120.606013,-11325.150913
1099.930935,18616.120601,30200.402434,-18431.127956
1099.931254,22293.378992,23168.445985,-28201.846390
1099.931572,22140.159892,-888.247130,-17764.942608
1099.931891,14709.033562,-19615.457463,-5107.421000
1099.932210,3217.601092,-23094.425390,-1036.288319
1099.932529,-3753.867940,-21836.075289,-5107.421000
1099.932848,-9882.631924,-34863.699868,7476.080014
1099.933167,-12257.527968,-35529.885216,38564.729578
1099.933485,-10801.946522,-28053.805202,45744.727216
1099.933804,-16930.710506,-1554.432478,33087.205607
1099.934123,-13942.938064,12213.398043,33679.370361
1099.934442,-13253.452115,28349.887579,28349.887579
1099.934761,1838.629195,26721.434506,25241.022622
1099.935080,6281.983084,41155.450375,-1110.308913
1099.935398,10955.165621,38638.750172,-17987.004391
1099.935717,16930.710506,23982.672521,-23464.528361
1099.936036,19382.216099,14730.098246,-24352.775492
1099.936355,19612.044749,-15026.180623,-10140.821405
1099.936674,6511.811733,-22946.384202,-1480.411884
1099.936993,-4826.401637,-27165.558071,-8660.409521
1099.937312,-11031.775171,-26055.249158,444.123565
1099.937630,-10189.070123,-39526.997303,23908.651927
1099.937949,-14249.376263,-30866.587781,37824.523636
1099.938268,-17696.806004,-21614.013506,42265.759288
1099.938587,-17466.977354,-1480.411884,40711.326810
1099.938906,-19075.777900,15840.407159,32717.102636
1099.939225,-9652.803275,28942.052332,23982.672521
1099.939543,306.438199,34271.535115,15174.221811
1099.939862,5286.058936,31828.855506,-4071.132681
1099.940181,12180.918418,39304.935520,-20281.642811
1099.940500,18692.730151,25685.146187,-28868.031738
1099.940819,20224.921147,592.164754,-19097.313304
1099.941138,17543.586904,-17764.942608,-4367.215058
1099.941456,7354.516781,-24204.734303,-3849.070898
1099.941775,-4519.963438,-29238.134709,-7031.956449
1099.942094,-5209.449386,-30866.587781,11991.336260
1099.942413,-10725.336972,-31236.690752,28423.908173
1099.942732,-9269.755526,-30792.567187,44412.356520
1099.943051,-14479.204912,-10066.800811,43005.965230
1099.943369,-13636.499864,7179.997637,33457.308578
1099.943688,-13406.671215,18875.251521,28497.928767
1099.944007,-1685.410096,31162.670158,22872.363608
1099.944326,9729.412825,31828.855506,16654.633695
1099.944645,10495.508323,38416.688390,-15100.201217
1099.944964,18539.511052,27313.599260,-22650.301825
1099.945283,19841.873398,16802.674883,-25167.002028
1099.945601,23289.303139,-8956.491898,-12805.562797
1099.945920,18922.558801,-18949.272115,-5921.647536
1099.946239,2757.943793,-22354.219448,-4737.318029
1099.946558,-2757.943793,-26721.434506,-148.041188
1099.946877,-7124.688131,-31680.814318,19097.313304
1099.947196,-8044.002729,-34715.658680,36862.255912
1099.947514,-11644.651570,-24352.775492,46262.871375
1099.947833,-12257.527968,-2590.720797,36270.091158
1099.948152,-15934.786358,15766.386565,30496.484810
1099.948471,-9346.365076,24352.775492,27535.661042
1099.948790,2911.162892,31532.773129,17616.901420
1099.949109,8580.269578,39378.956114,-2368.659014
1099.949427,10725.336972,34197.514520,-19615.457463
1099.949746,19535.435199,27683.702231,-23464.528361
1099.950065,19688.654299,10732.986159,-25092.981434
1099.950384,18769.339701,-13323.706956,-11325.150913
1099.950703,5286.058936,-22872.363608,-296.082377
1099.951022,-3600.648841,-26869.475695,-1702.473667
1099.951341,-9039.926876,-31902.876100,666.185348
1099.951659,-12180.918418,-35455.864622,24352.775492
1099.951978,-11031.775171,-35529.885216,43968.232955
1099.952297,-15551.738609,-17172.777854,40489.265027
1099.952616,-15858.176809,7846.182985,32717.102636
1099.952935,-14555.814462,24056.693115,29164.114115
1099.953254,-8044.002729,29238.134709,20651.745782
1099.953572,5209.449386,37158.338288,11843.295072
1099.953891,8810.098227,40045.141462,-10955.047942
1099.954210,13789.718964,35825.967593,-20133.601622
1099.954529,18616.120601,19245.354492,-27313.599260
1099.954848,18233.072852,-4589.276840,-20133.601622
1099.955167,13176.842566,-21243.910535,-4589.276840
1099.955485,1685.410096,-28719.990550,2368.659014
1099.955804,-7890.783629,-29682.258274,-2294.638420
1099.956123,-9346.365076,-34641.638086,15692.365970
1099.956442,-8810.098227,-35307.823433,39082.873738
1099.956761,-9116.536426,-26203.290347,43228.027013
1099.957080,-15628.348159,-4589.276840,36122.049970
1099.957398,-13253.452115,14878.139434,33457.308578
1099.957717,-13559.890315,23908.651927,25907.207970
1099.958036,2068.457845,30274.423028,19837.519246
1099.958355,7584.345430,37602.461854,962.267725
1099.958674,10112.460574,31014.628970,-10362.883188
1099.958993,18999.168350,25611.125593,-24796.899057
1099.959312,20148.311597,10807.006753,-25537.104999
1099.959630,18386.291952,-14508.036463,-8956.491898
1099.959949,9576.193725,-25315.043216,3701.029710
1099.960268,0.000000,-28868.031738,-5921.647536
1099.960587,-7967.393179,-26351.331535,3404.947333
1099.960906,-8120.612279,-31902.876100,24870.919651
1099.961225,-8503.660028,-34271.535115,42931.944636
1099.961543,-12793.794817,-16358.551318,35085.761651
1099.961862,-9652.803275,3627.009116,42635.862259
1099.962181,-15475.129060,22798.343014,30940.608376
1099.962500,-4596.572988,23464.528361,21243.910535
1099.962819,7201.297681,29904.320057,11991.336260
1099.963138,13483.280765,43079.985824,-2960.823768
1099.963456,13253.452115,31162.670158,-22872.363608
1099.963775,20224.921147,22058.137072,-30126.381839
1099.964094,20684.578446,-0.000000,-16876.695478
1099.964413,15245.300410,-16210.510130,-7031.956449
1099.964732,2374.896044,-25463.084405,-1332.370696
1099.965051,-5286.058936,-28645.969955,-1850.514855
1099.965369,-11568.042020,-32050.917289,12065.356855
1099.965688,-10572.117872,-28423.908173,33753.390955
1099.966007,-12104.308868,-28942.052332,41821.635723
1099.966326,-12257.527968,-8142.265362,42191.738694
1099.966645,-16164.615008,11769.274478,30348.443622
1099.966963,-12793.794817,27313.599260,25537.104999
1099.967282,-1991.848295,28868.031738,23834.631332
1099.967601,6205.373534,37528.441259,8512.368333
1099.967920,8503.660028,41969.676911,-20577.725188
1099.968239,16547.662757,29682.258274,-22872.363608
1099.968557,21220.845295,14285.974681,-21614.013506
1099.968876,17696.806004,-9770.718434,-17246.798449
1099.969195,8733.488677,-22724.322419,-3404.947333
1099.969514,-2451.505594,-26203.290347,1110.308913
1099.969832,-6128.763984,-32495.040854,5403.503377
1099.970151,-11721.261119,-33013.185013,16950.716072
1099.970470,-10265.679673,-35381.844028,42339.779882
1099.970789,-13176.842566,-24944.940245,43005.965230
1099.971108,-14709.033562,1554.432478,40785.347404
1099.971426,-15168.690860,11991.336260,37676.482448
1099.971745,-8427.050478,33679.370361,23464.528361
1099.972064,3524.039291,31606.793723,17098.757260
1099.972383,9959.241474,40193.182651,-518.144159
1099.972701,9806.022374,32939.164419,-18135.045579
1099.973020,18845.949251,20429.683999,-26277.310941
1099.973339,19995.092498,3849.070898,-19615.457463
1099.973658,17237.148705,-19171.333898,-2368.659014
1099.973977,4979.620737,-26277.310941,2738.761985
1099.974295,-1225.752797,-26795.455100,-2442.679609
1099.974614,-2987.772442,-29830.299463,11917.315666
1099.974933,-10265.679673,-31976.896694,30348.443622
1099.975252,-7354.516781,-26499.372724,44782.459491
1099.975570,-13559.890315,-10881.027347,35159.782245
1099.975889,-11874.480219,8734.430116,29978.340651
1099.976208,-10955.165621,19097.313304,31236.690752
1099.976527,-4290.134789,32124.937883,23760.610738
1099.976845,6281.983084,35159.782245,9326.594869
1099.977164,10189.070123,35751.946999,-11843.295072
1099.977483,17696.806004,29756.278868,-17987.004391
1099.977802,19612.044749,21910.095883,-28719.990550
1099.978121,17850.025103,-5255.462188,-18135.045579
1099.978439,12334.137518,-20281.642811,-2812.782580
1099.978758,1072.533697,-22502.260637,-2590.720797
1099.979077,-6052.154434,-26203.290347,-5181.441594
1099.979396,-10342.289223,-34863.699868,14211.954086
1099.979714,-13023.623466,-36418.132346,37380.400071
1099.980033,-12487.356617,-28497.928767,41451.532752
1099.980352,-14479.204912,-4293.194464,38860.811955
1099.980671,-12793.794817,15100.201217,35529.885216
1099.980990,-12104.308868,28423.908173,24204.734303
1099.981308,766.095498,23612.569550,16580.613101
1099.981627,11644.651570,41007.409187,2072.576638
1099.981946,12257.527968,45078.541868,-20651.745782
1099.982265,17237.148705,26277.310941,-28645.969955
1099.982583,19765.263848,11547.212695,-23168.445985
1099.982902,18845.949251,-11029.068536,-9918.759623
1099.983221,6588.421283,-21169.889941,-3404.947333
1099.983540,-3677.258390,-28645.969955,-2516.700203
1099.983858,-8503.660028,-32346.999665,1850.514855
1099.984177,-12487.356617,-35529.885216,22502.260637
1099.984496,-9269.755526,-30274.423028,44856.480085
1099.984815,-16700.881856,-22280.198854,39897.100274
1099.985134,-12947.013916,5551.544565,40267.203245
1099.985452,-14172.766713,24500.816680,30348.443622
1099.985771,-6971.469032,28794.011144,25907.207970
1099.986090,5898.935335,36196.070564,15026.180623
1099.986409,8733.488677,42487.821071,-5551.544565
1099.986727,12104.308868,35455.864622,-21539.992912
1099.987046,18999.168350,19911.539840,-27313.599260
1099.987365,23365.912689,1924.535449,-17542.880825
1099.987684,19305.606550,-19097.313304,-7105.977043
1099.988003,5975.544884,-22502.260637,592.164754
1099.988321,-4519.963438,-33457.308578,-2368.659014
1099.988640,-7354.516781,-29904.320057,11177.109724
1099.988959,-11338.213370,-34715.658680,35159.782245
1099.989278,-9346.365076,-30422.464216,45892.768404
1099.989596,-12640.575717,-7476.080014,41969.676911
1099.989915,-15321.909960,12583.501014,32643.082042
1099.990234,-9959.241474,14211.954086,31088.649564
1099.990553,-1149.143247,31088.649564,17320.819043
1099.990872,10342.289223,35825.967593,8438.347739
1099.991190,10035.851024,37676.482448,-18209.066173
1099.991509,18769.339701,25981.228564,-20577.725188
1099.991828,18845.949251,15396.283594,-24870.919651
1099.992147,20301.530697,-8438.347739,-16876.695478
1099.992465,13023.623466,-18949.272115,-2960.823768
1099.992784,1532.190996,-23612.569550,-3034.844362
1099.993103,-5975.544884,-28423.908173,-2294.638420
1099.993422,-12334.137518,-30792.567187,16136.489536
1099.993740,-10572.117872,-37602.461854,43968.232955
1099.994059,-13330.061665,-22576.281231,45004.521274
1099.994378,-14938.862211,-2294.638420,36492.152941
1099.994697,-16164.615008,14656.077652,32421.020260
1099.995016,-10418.898773,22946.384202,31606.793723
1099.995334,-306.438199,34197.514520,17024.736666
1099.995653,6818.249932,39675.038491,-1554.432478
1099.995972,12027.699319,38712.770767,-16136.489536
1099.996291,18003.244203,26425.352129,-26055.249158
1099.996609,20531.359346,10436.903782,-22058.137072
1099.996928,16547.662757,-15470.304188,-7031.956449
1099.997247,4366.744339,-22058.137072,-4589.276840
1099.997566,-4749.792088,-26351.331535,-7624.121203
1099.997885,-10495.508323,-32198.958477,2368.659014
1099.998203,-11644.651570,-40193.182651,28942.052332
1099.998522,-12640.575717,-33087.205607,45522.665433
1099.998841,-19075.777900,-17616.901420,40711.326810
1099.999160,-15858.176809,1776.494261,34789.679274
1099.999478,-18462.901502,21836.075289,31162.670158
1099.999797,-8350.440928,32717.102636,23686.590144
1100.000116,-229.828649,31680.814318,11843.295072
1100.000435,9346.365076,43746.171172,-7624.121203
1100.000754,14402.595362,36862.255912,-21021.848753
1100.001072,21680.502593,23390.507767,-28275.866984
1100.001391,22829.645840,-370.102971,-18135.045579
1100.001710,16930.710506,-18653.189738,-5255.462188
1100.002029,5132.839837,-25167.002028,888.247130
1100.002347,-2987.772442,-30644.525999,-4737.318029
1100.002666,-5132.839837,-34493.596897,11473.192101
1100.002985,-5592.497135,-35529.885216,37454.420665
1100.003304,-4979.620737,-27387.619854,49519.777520
1100.003622,-14172.766713,-9474.636058,37084.317694
1100.003941,-9959.241474,11843.295072,31754.834912
1100.004260,-11184.994271,24204.734303,30940.608376
1100.004579,612.876398,32124.937883,15618.345376
1100.004898,9346.365076,34567.617491,8068.244768
1100.005216,11874.480219,35677.926404,-14508.036463
1100.005535,21144.235745,24648.857869,-24722.878463
1100.005854,21680.502593,13545.768739,-31162.670158
1100.006173,20837.797546,-9696.697840,-10510.924376
1100.006491,13100.233016,-21317.931130,1702.473667
1100.006810,2221.676944,-25241.022622,-6883.915261
1100.007129,-7277.907231,-25389.063811,2812.782580
1100.007448,-9652.803275,-37158.338288,26721.434506
1100.007767,-11338.213370,-33605.349767,39230.914926
1100.008085,-13100.233016,-20503.704593,42709.882853
1100.008404,-10572.117872,888.247130,36492.152941
1100.008723,-13330.061665,16062.468941,33901.432144
1100.009042,-8427.050478,26055.249158,21391.951724
1100.009360,2221.676944,32050.917289,14952.160028
1100.009679,9193.145976,42635.862259,2738.761985
1100.009998,11721.261119,35751.946999,-22798.343014
1100.010317,16088.005458,27239.578666,-28201.846390
1100.010636,19995.092498,2664.741391,-14211.954086
1100.010954,12717.185267,-15988.448347,-6735.874072
1100.011273,2757.943793,-20207.622217,-5403.503377
1100.011592,-5592.497135,-28942.052332,2590.720797
1100.011911,-9346.365076,-31680.814318,11325.150913
1100.012229,-11797.870669,-37084.317694,30940.608376
1100.012548,-12334.137518,-31532.773129,47447.200882
1100.012867,-14709.033562,-14508.036463,42265.759288
1100.013186,-14938.862211,9104.533087,29312.155303
1100.013504,-14172.766713,23686.590144,23686.590144
1100.013823,-3983.696590,32272.979071,24278.754898
1100.014142,1991.848295,35455.864622,5625.565159
1100.014461,7431.126331,39304.935520,-8660.409521
1100.014780,16471.053207,35159.782245,-17542.880825
1100.015098,19841.873398,20133.601622,-29312.155303
1100.015417,17850.025103,-3552.988522,-21021.848753
1100.015736,12640.575717,-20133.601622,444.123565
1100.016055,689.485948,-28127.825796,2368.659014
1100.016373,-5669.106685,-33457.308578,-814.226536
1100.016692,-8044.002729,-34863.699868,15692.365970
1100.017011,-10495.508323,-31976.896694,33531.329173
1100.017330,-10418.898773,-24648.857869,42709.882853
1100.017649,-14938.862211,-7179.997637,42635.862259
1100.017967,-11108.384721,10140.821405,34937.720462
1100.018286,-12563.966167,23612.569550,22576.281231
1100.018605,1072.533697,33013.185013,23242.466579
1100.018924,7354.516781,32421.020260,13989.892304
1100.019242,12793.794817,38342.667796,-11251.130318
1100.019561,18309.682402,26721.434506,-27831.743419
1100.019880,21833.721693,13841.851115,-23538.548956
1100.020199,21450.673944,-14285.974681,-7920.203579
1100.020517,11491.432470,-19763.498651,-2812.782580
1100.020836,1378.971896,-26499.372724,-1776.494261
1100.021155,0.000000,-27091.537477,3923.091493
1100.021474,-10418.898773,-32421.020260,16284.530724
1100.021793,-8963.317327,-32124.937883,43968.232955
1100.022111,-11184.994271,-23686.590144,48557.509795
1100.022430,-13406.671215,1332.370696,31236.690752
1100.022749,-14938.862211,14730.098246,30718.546593
1100.023068,-8503.660028,28423.908173,26943.496289
1100.023386,766.095498,29978.340651,14359.995275
1100.023705,10495.508323,37528.441259,-4145.153275
1100.024024,12640.575717,36788.235317,-18135.045579
1100.024343,20301.530697,23908.651927,-28201.846390
1100.024662,21297.454844,8142.265362,-28127.825796
1100.024980,17160.539155,-14730.098246,-7550.100608
1100.025299,7737.564530,-19245.354492,0.000000
1100.025618,-2911.162892,-27609.681637,-9104.533087
1100.025937,-11414.822920,-29312.155303,0.000000
1100.026255,-11261.603821,-33161.226202,35085.761651
1100.026574,-14019.547613,-35085.761651,46336.891969
1100.026893,-17773.415554,-19097.313304,39823.079680
1100.027212,-16471.053207,5403.503377,35825.967593
1100.027531,-17237.148705,18949.272115,30792.567187
1100.027849,-9882.631924,29978.340651,19911.539840
1100.028168,1532.190996,32939.164419,12805.562797
1100.028487,10342.289223,39156.894332,-1184.329507
1100.028806,13559.890315,39156.894332,-22354.219448
1100.029124,17313.758255,27165.558071,-32569.061448
1100.029443,20607.968896,-814.226536,-16062.468941
1100.029762,15781.567259,-17616.901420,-2220.617826
1100.030081,2604.724693,-24500.816680,-5181.441594
1100.030399,-7890.783629,-28942.052332,-4219.173869
1100.030718,-9576.193725,-35751.946999,15470.304188
1100.031037,-10265.679673,-37972.564825,34493.596897
1100.031356,-11184.994271,-28571.949361,46781.015534
1100.031675,-17390.367805,-11547.212695,39749.059085
1100.031993,-14709.033562,8512.368333,30792.567187
1100.032312,-13636.499864,25907.207970,27461.640448
1100.032631,-3064.381992,30126.381839,25463.084405
1100.032950,7431.126331,35307.823433,3701.029710
1100.033268,6511.811733,44042.253549,-15248.242405
1100.033587,19765.263848,28571.949361,-20059.581028
1100.033906,18922.558801,15840.407159,-31088.649564
1100.034225,20914.407095,-10288.862594,-15100.201217
1100.034544,15858.176809,-18801.230927,-1998.556043
1100.034862,4213.525239,-22132.157666,-7105.977043
1100.035181,-2298.286494,-29312.155303,1850.514855
1100.035500,-6128.763984,-36788.235317,21465.972318
1100.035819,-9806.022374,-31532.773129,38046.585419
1100.036137,-9729.412825,-22206.178260,49075.653955
1100.036456,-12257.527968,-5477.523971,37454.420665
1100.036775,-11338.213370,15174.221811,30126.381839
1100.037094,-8427.050478,32865.143825,22058.137072
1100.037413,1455.581446,35899.988187,17987.004391
1100.037731,8273.831378,29830.299463,1702.473667
1100.038050,12257.527968,43968.232955,-21984.116477
1100.038369,21603.893044,29164.114115,-34937.720462
1100.038688,19995.092498,8734.430116,-23908.651927
1100.039006,20914.407095,-16802.674883,-2590.720797
1100.039325,5592.497135,-17394.839637,-2368.659014
1100.039644,-3064.381992,-26055.249158,-5255.462188
1100.039963,-5975.544884,-29164.114115,7179.997637
1100.040281,-11414.822920,-40045.141462,35085.761651
1100.040600,-9499.584175,-37454.420665,50704.107027
1100.040919,-14938.862211,-15322.262999,41007.409187
1100.041238,-12027.699319,4071.132681,30126.381839
1100.041557,-14096.157163,22576.281231,24648.857869
1100.041875,-6205.373534,36122.049970,16802.674883
1100.042194,4979.620737,30718.546593,12509.480420
1100.042513,10189.070123,39971.120868,-3108.864956
1100.042832,14325.985813,37380.400071,-23316.487173
1100.043150,16241.224558,23686.590144,-32717.102636
1100.043469,19382.216099,-5699.585753,-11547.212695
1100.043788,12717.185267,-20059.581028,-1554.432478
1100.044107,153.219100,-26055.249158,-5255.462188
1100.044426,-8656.879127,-30200.402434,-3552.988522
1100.044744,-9652.803275,-40859.367998,21317.931130
1100.045063,-13713.109414,-38712.770767,37528.441259
1100.045382,-12104.308868,-28645.969955,45374.624245
1100.045701,-13330.061665,-8290.306550,43820.191766
1100.046019,-12793.794817,11029.068536,28942.052332
1100.046338,-13866.328514,29016.072926,21317.931130
1100.046657,-2451.505594,29978.340651,24870.919651
1100.046976,4213.525239,32495.040854,13841.851115
1100.047295,12717.185267,42931.944636,-7402.059420
1100.047613,16011.395908,33161.226202,-31606.793723
1100.047932,21680.502593,15026.180623,-27905.764013
1100.048251,19765.263848,-8290.306550,-13249.686362
1100.048570,12257.527968,-20059.581028,-2812.782580
1100.048888,-2374.896044,-31384.731941,-8068.244768
1100.049207,-4826.401637,-28794.011144,2664.741391
1100.049526,-9499.584175,-42191.738694,24500.816680
1100.049845,-14709.033562,-37232.358883,37380.400071
1100.050163,-11491.432470,-24574.837274,48483.489201
1100.050482,-13713.109414,-3404.947333,39378.956114
1100.050801,-12717.185267,18505.148550,22946.384202
1100.051120,-8963.317327,28868.031738,20651.745782
1100.051439,1838.629195,29312.155303,19911.539840
1100.051757,8350.440928,35974.008781,3330.926739
1100.052076,13253.452115,42561.841665,-25685.146187
1100.052395,18845.949251,26055.249158,-31458.752535
1100.052714,24285.227287,2738.761985,-17764.942608
1100.053032,20531.359346,-15248.242405,-8512.368333
1100.053351,6435.202183,-19393.395680,-7846.182985
1100.053670,-2528.115143,-30422.464216,-2146.597232
1100.053989,-6281.983084,-34049.473332,9548.656652
1100.054308,-10495.508323,-39823.079680,27979.784608
1100.054626,-11338.213370,-32421.020260,47521.221476
1100.054945,-14555.814462,-17098.757260,41229.470969
1100.055264,-14019.547613,6143.709319,27387.619854
1100.055583,-9959.241474,25611.125593,28349.887579
1100.055901,-5898.935335,36048.029375,21836.075289
1100.056220,5439.278036,31162.670158,12139.377449
1100.056539,8350.440928,44412.356520,-12805.562797
1100.056858,18233.072852,37824.523636,-22428.240043
1100.057176,20761.187996,23390.507767,-29904.320057
1100.057495,19305.606550,-592.164754,-22650.301825
1100.057814,13866.328514,-13841.851115,-3701.029710
1100.058133,4903.011187,-23982.672521,-2368.659014
1100.058452,-8044.002729,-27535.661042,-7550.100608
1100.058770,-9193.145976,-34715.658680,17912.983796
1100.059089,-13023.623466,-42635.862259,39749.059085
1100.059408,-11414.822920,-29756.278868,49149.674549
1100.059727,-17160.539155,-9770.718434,39823.079680
1100.060045,-12257.527968,11769.274478,33383.287984
1100.060364,-10112.460574,25537.104999,26351.331535
1100.060683,-2681.334243,26573.393318,23390.507767
1100.061002,8273.831378,43228.027013,3330.926739
1100.061321,11721.261119,40785.347404,-20281.642811
1100.061639,21297.454844,33753.390955,-26721.434506
1100.061958,18769.339701,18579.169144,-32421.020260
1100.062277,18692.730151,-15988.448347,-11843.295072
1100.062596,9346.365076,-21910.095883,962.267725
1100.062914,-2451.505594,-29460.196492,-6661.853478
1100.063233,-11261.603821,-31976.896694,5699.585753
1100.063552,-11414.822920,-44708.438897,30940.608376
1100.063871,-9806.022374,-34567.617491,44042.253549
1100.064190,-17390.367805,-19541.436869,39971.120868
1100.064508,-12487.356617,-4441.235652,40119.162056
1100.064827,-18616.120601,16802.674883,33753.390955
1100.065146,-10189.070123,24870.919651,19319.375086
1100.065465,-842.705048,41747.615129,23686.590144
1100.065783,4136.915689,37380.400071,1184.329507
1100.066102,11951.089769,36270.091158,-14730.098246
1100.066421,17466.977354,29386.175897,-31606.793723
1100.066740,20301.530697,6587.832884,-22354.219448
1100.067058,18003.244203,-15248.242405,-8734.430116
1100.067377,7507.735880,-21169.889941,-1110.308913
1100.067696,-4290.134789,-28127.825796,-8956.491898
1100.068015,-8197.221829,-29016.072926,3552.988522
1100.068334,-10112.460574,-34715.658680,31088.649564
1100.068652,-11108.384721,-34493.596897,44338.335926
1100.068971,-14862.252661,-18653.189738,37898.544230
1100.069290,-13789.718964,2368.659014,33383.287984
1100.069609,-16700.881856,16728.654289,32717.102636
1100.069927,-6894.859482,32643.082042,18283.086767
1100.070246,2604.724693,29534.217086,16950.716072
1100.070565,9499.584175,40563.285622,-2072.576638
1100.070884,17390.367805,37232.358883,-25389.063811
1100.071202,21067.626195,29164.114115,-32421.020260
1100.071521,22140.159892,-1036.288319,-16580.613101
1100.071840,18922.558801,-19689.478057,-3182.885551
1100.072159,6741.640382,-19911.539840,-8808.450710
1100.072477,-3064.381992,-27091.537477,-3404.947333
1100.072796,-5745.716235,-39008.853143,15544.324782
1100.073115,-11797.870669,-39526.997303,26721.434506
1100.073434,-7967.393179,-30126.381839,50185.962868
1100.073752,-13866.328514,-11695.253884,41377.512158
1100.074071,-12257.527968,9326.594869,28942.052332
1100.074390,-8963.317327,20429.683999,24944.940245
1100.074709,-2451.505594,39749.059085,20651.745782
1100.075027,5209.449386,24278.754898,9326.594869
1100.075346,11644.651570,44708.438897,-16950.716072
1100.075665,17466.977354,32569.061448,-28423.908173
1100.075984,19918.482948,20059.581028,-32939.164419
1100.076302,19688.654299,-9252.574275,-14508.036463
1100.076621,12640.575717,-13323.706956,-2516.700203
1100.076940,3140.991542,-29386.175897,-8438.347739
1100.077259,-6665.030833,-28423.908173,-2516.700203
1100.077577,-9959.241474,-37306.379477,22354.219448
1100.077896,-13253.452115,-39008.853143,43746.171172
1100.078215,-11568.042020,-26055.249158,47521.221476
1100.078534,-15551.738609,-3404.947333,39230.914926
1100.078852,-10648.727422,20799.786970,30792.567187
1100.079171,-10801.946522,29978.340651,22650.301825
1100.079490,459.657299,31310.711347,19763.498651
1100.079809,5132.839837,37306.379477,3923.091493
1100.080127,10035.851024,42635.862259,-20133.601622
1100.080446,15704.957709,26499.372724,-29312.155303
1100.080765,17926.634653,9770.718434,-25537.104999
1100.081084,15628.348159,-15100.201217,-5477.523971
1100.081402,6128.763984,-26203.290347,-74.020594
1100.081721,-3753.867940,-25315.043216,-7179.997637
1100.082040,-4060.306139,-35974.008781,8734.430116
1100.082359,-11568.042020,-35899.988187,28645.969955
1100.082677,-8044.002729,-30126.381839,46410.912563
1100.082996,-13330.061665,-17172.777854,44190.294737
1100.083315,-9499.584175,8956.491898,32346.999665
1100.083634,-15015.471761,24130.713709,28423.908173
1100.083952,-4060.306139,26351.331535,20355.663405
1100.084271,3294.210641,32272.979071,4885.359217
1100.084590,10189.070123,42117.718100,-2294.638420
1100.084909,11031.775171,36122.049970,-22946.384202
1100.085227,17466.977354,20725.766376,-31976.896694
1100.085546,18769.339701,-666.185348,-19615.457463
1100.085865,14402.595362,-17246.798449,-222.061783
1100.086184,2145.067394,-24278.754898,1554.432478
1100.086502,-6971.469032,-28794.011144,-5403.503377
1100.086821,-7354.516781,-40193.182651,17172.777854
1100.087140,-9346.365076,-37232.358883,39601.017897
1100.087459,-8963.317327,-34123.493926,50185.962868
1100.087777,-18233.072852,-13915.871710,43079.985824
1100.088096,-8273.831378,13989.892304,38120.606013
1100.088415,-11414.822920,30496.484810,24056.693115
1100.088734,76.609550,32050.917289,16580.613101
1100.089052,4979.620737,32791.123231,2590.720797
1100.089371,12334.137518,42857.924042,-8956.491898
1100.089690,17083.929605,33383.287984,-32198.958477
1100.090009,19995.092498,18875.251521,-33679.370361
1100.090327,21220.845295,-9474.636058,-14952.160028
1100.090646,12487.356617,-19097.313304,1628.453072
1100.090965,-1455.581446,-28349.887579,-5625.565159
1100.091284,-7737.564530,-32939.164419,-592.164754
1100.091602,-10572.117872,-37380.400071,21762.054695
1100.091921,-9652.803275,-38712.770767,43820.191766
1100.092240,-10725.336972,-27387.619854,52184.518911
1100.092559,-14249.376263,148.041188,39601.017897
1100.092877,-12717.185267,19319.375086,30718.546593
1100.093196,-8044.002729,34271.535115,17468.860231
1100.093515,2604.724693,31310.711347,26721.434506
1100.093834,8733.488677,40785.347404,7254.018232
1100.094152,11797.870669,38934.832549,-21539.992912
1100.094471,18616.120601,30570.505405,-31162.670158
1100.094790,23672.350888,7328.038826,-21465.972318
1100.095109,19458.825649,-15544.324782,-4441.235652
1100.095428,6128.763984,-20947.828159,-5107.421000
1100.095746,-3677.258390,-25685.146187,-6957.935855
1100.096065,-6205.373534,-40637.306216,9622.677246
1100.096384,-8656.879127,-39304.935520,27683.702231
1100.096703,-11031.775171,-34937.720462,46706.994940
1100.097021,-12793.794817,-18283.086767,45004.521274
1100.097340,-14402.595362,7846.182985,28423.908173
1100.097659,-10725.336972,23020.404796,26721.434506
1100.097978,-2145.067394,27017.516883,24204.734303
1100.098296,5286.058936,36344.111752,5699.585753
1100.098615,7890.783629,35974.008781,-10807.006753
1100.098934,13023.623466,36492.152941,-22946.384202
1100.099253,18386.291952,20355.663405,-30718.546593
1100.099571,17926.634653,-1776.494261,-22576.281231
1100.099890,13330.061665,-18209.066173,-370.102971
1100.100209,3294.210641,-24352.775492,222.061783
1100.100528,-5439.278036,-30496.484810,-5625.565159
1100.100846,-9116.536426,-37084.317694,15248.242405
1100.101165,-12487.356617,-35159.782245,37306.379477
1100.101484,-9652.803275,-31828.855506,51666.374752
1100.101803,-14402.595362,-11843.295072,41377.512158
1100.102121,-12257.527968,12213.398043,33975.452738
1100.102440,-9652.803275,19023.292709,26499.372724
1100.102759,766.095498,36788.235317,21762.054695
1100.103078,7124.688131,30126.381839,5477.523971
1100.103396,11261.603821,48705.550984,-14434.015869
1100.103715,15934.786358,33975.452738,-33605.349767
1100.104034,19918.482948,15322.262999,-21984.116477
1100.104353,17620.196454,-8660.409521,-9770.718434
1100.104671,6818.249932,-20503.704593,-3108.864956
1100.104990,-1149.143247,-27683.702231,-4811.338623
1100.105309,-6588.421283,-28719.990550,-1480.411884
1100.105628,-12180.918418,-40045.141462,31754.834912
1100.105946,-15321.909960,-38342.667796,43968.232955
1100.106265,-11491.432470,-24574.837274,49667.818708
1100.106584,-14555.814462,296.082377,38268.647201
1100.106903,-10648.727422,22724.322419,38860.811955
1100.107221,-8886.707777,28423.908173,26869.475695
1100.107540,1608.800546,39452.976709,17912.983796
1100.107859,9652.803275,41303.491564,0.000000
1100.108178,11338.213370,42487.821071,-18357.107362
1100.108496,16930.710506,24574.837274,-31976.896694
1100.108815,21833.721693,9548.656652,-21762.054695
1100.109134,18156.463303,-14285.974681,-4737.318029
1100.109453,6281.983084,-22502.260637,2442.679609
1100.109771,-4213.525239,-30792.567187,-5403.503377
1100.110090,-6511.811733,-31902.876100,10214.842000
1100.110409,-9576.193725,-40785.347404,32272.979071
1100.110728,-9729.412825,-32198.958477,47743.283259
1100.111046,-15245.300410,-17394.839637,40193.182651
1100.111365,-13253.452115,7772.162391,31458.752535
1100.111684,-8350.440928,18801.230927,31828.855506
1100.112003,-2374.896044,35307.823433,18579.169144
1100.112321,7431.126331,34345.555709,6735.874072
1100.112640,10955.165621,40489.265027,-6957.935855
1100.112959,16394.443657,37824.523636,-24574.837274
1100.113278,19382.216099,20133.601622,-32346.999665
1100.113596,20531.359346,-592.164754,-15766.386565
1100.113915,13559.890315,-17838.963202,-2886.803174
1100.114234,4979.620737,-22872.363608,-5255.462188
1100.114553,-5975.544884,-25759.166782,-7402.059420
1100.114871,-9193.145976,-34271.535115,18949.272115
1100.115190,-12104.308868,-38934.832549,39971.120868
1100.115509,-11184.994271,-28794.011144,49519.777520
1100.115828,-13330.061665,-10584.944971,38416.688390
1100.116146,-10342.289223,13619.789333,30792.567187
1100.116465,-11031.775171,24870.919651,23168.445985
1100.116784,-306.438199,28423.908173,20651.745782
1100.117103,8273.831378,36270.091158,12583.501014
1100.117421,11568.042020,43228.027013,-23168.445985
1100.117740,15475.129060,33087.205607,-31014.628970
1100.118059,20071.702048,18283.086767,-28201.846390
1100.118378,20991.016645,-8808.450710,-11251.130318
1100.118696,6665.030833,-16580.613101,-6957.935855
1100.119015,-919.314598,-27239.578666,-5921.647536
1100.119334,-9346.365076,-27313.599260,-740.205942
1100.119653,-11874.480219,-42339.779882,22502.260637
1100.119971,-17620.196454,-41747.615129,46188.850781
1100.120290,-14479.204912,-26499.372724,46781.015534
1100.120609,-15475.129060,-1332.370696,36640.194129
1100.120928,-11184.994271,17320.819043,32569.061448
1100.121246,-11797.870669,26647.413912,21317.931130
1100.121565,1455.581446,23686.590144,14359.995275
1100.121884,8044.002729,48557.509795,-1110.308913
1100.122203,11721.261119,45966.788998,-25833.187376
1100.122521,14479.204912,23316.487173,-25463.084405
1100.122840,20531.359346,7920.203579,-21391.951724
1100.123159,16164.615008,-12583.501014,-8882.471304
1100.123478,9269.755526,-26425.352129,-518.144159
1100.123796,-4443.353888,-27313.599260,-8142.265362
1100.124115,-6052.154434,-36566.173535,5847.626942
1100.124434,-12334.137518,-39526.997303,31532.773129
1100.124753,-12180.918418,-32050.917289,52850.704259
1100.125071,-15858.176809,-22058.137072,44930.500679
1100.125390,-10112.460574,8808.450710,34197.514520
1100.125709,-8810.098227,22280.198854,32272.979071
1100.126028,-3140.991542,30570.505405,21317.931130
1100.126346,5898.935335,35529.885216,11621.233289
1100.126665,11568.042020,40045.141462,-2738.761985
1100.126984,15015.471761,35085.761651,-20355.663405
1100.127303,16241.224558,26499.372724,-30052.361245
1100.127621,21757.112143,-2072.576638,-19689.478057
1100.127940,16394.443657,-16358.551318,1776.494261
1100.128259,6281.983084,-24722.878463,-5699.585753
1100.128578,-3753.867940,-23390.507767,-2516.700203
1100.128896,-6511.811733,-32272.979071,13915.871710
1100.129215,-9806.022374,-36418.132346,36196.070564
1100.129534,-9576.193725,-29460.196492,50926.168810
1100.129853,-12027.699319,-7550.100608,46410.912563
1100.130171,-10648.727422,10510.924376,26351.331535
1100.130490,-5822.325785,25537.104999,29756.278868
1100.130809,1225.752797,26425.352129,22058.137072
1100.131128,10342.289223,36566.173535,7328.038826
1100.131447,10955.165621,40859.367998,-22576.281231
1100.131765,15551.738609,33753.390955,-27757.722825
1100.132084,17237.148705,16432.571912,-28275.866984
1100.132403,18233.072852,-10362.883188,-13471.748144
1100.132722,6971.469032,-20577.725188,1776.494261
1100.133040,-842.705048,-22872.363608,-8734.430116
1100.133359,-11414.822920,-28719.990550,-2886.803174
1100.133678,-12410.747068,-36270.091158,27535.661042
1100.133997,-8810.098227,-40341.223839,52036.477723
1100.134315,-16930.710506,-24500.816680,45892.768404
1100.134634,-11414.822920,-2220.617826,40859.367998
1100.134953,-13559.890315,19319.375086,30792.567187
1100.135272,-7277.907231,33753.390955,17246.798449
1100.135590,3217.601092,29608.237680,21688.034101
1100.135909,6435.202183,41377.512158,-5921.647536
1100.136228,11797.870669,41451.532752,-23612.569550
1100.136547,15551.738609,31384.731941,-30200.402434
1100.136865,20454.749797,7994.224174,-27017.516883
1100.137184,16088.005458,-13693.809927,-12657.521608
1100.137503,4213.525239,-22872.363608,-2812.782580
1100.137822,-6741.640382,-28794.011144,-7179.997637
1100.138140,-11261.603821,-31236.690752,3552.988522
1100.138459,-13023.623466,-40193.182651,36714.214723
1100.138778,-12334.137518,-35751.946999,49815.859897
1100.139097,-16164.615008,-23390.507767,46484.933158
1100.139415,-14019.547613,8142.265362,41451.532752
1100.139734,-11951.089769,14434.015869,30718.546593
1100.140053,-6052.154434,35159.782245,26869.475695
1100.140372,2757.943793,26573.393318,12657.521608
1100.140690,6894.859482,39082.873738,-1406.391290
1100.141009,12870.404366,42857.924042,-28497.928767
1100.141328,15781.567259,22428.240043,-25537.104999
1100.141647,22523.207641,1258.350101,-21465.972318
1100.141965,14172.766713,-16802.674883,0.000000
1100.142284,4290.134789,-27461.640448,-3404.947333
1100.142603,-4903.011187,-30274.423028,-2738.761985
1100.142922,-8580.269578,-41377.512158,11399.171507
1100.143240,-9806.022374,-39675.038491,45152.562462
1100.143559,-6971.469032,-30718.546593,51962.457128
1100.143878,-9959.241474,-12287.418637,39378.956114
1100.144197,-8656.879127,12583.501014,33531.329173
1100.144515,-3064.381992,26943.496289,23982.672521
1100.144834,1762.019645,29682.258274,18727.210333
1100.145153,12410.747068,43894.212361,3034.844362
1100.145472,12257.527968,35751.946999,-18505.148550
1100.145790,17543.586904,33309.267390,-32643.082042
1100.146109,22216.769442,18579.169144,-24870.919651
1100.146428,18233.072852,-4811.338623,-17098.757260
1100.146747,12104.308868,-18431.127956,-4219.173869
1100.147065,536.266849,-25833.187376,-5699.585753
1100.147384,-8197.221829,-23464.528361,-1850.514855
1100.147703,-11184.994271,-39082.873738,28719.990550
1100.148022,-9039.926876,-40045.141462,50334.004056
1100.148340,-13713.109414,-25092.981434,50259.983462
1100.148659,-8656.879127,3552.988522,38638.750172
1100.148978,-6281.983084,17098.757260,29904.320057
1100.149297,-4673.182538,36936.276506,22428.240043
1100.149615,4979.620737,29386.175897,17394.839637
1100.149934,9193.145976,40637.306216,-5329.482782
1100.150253,14479.204912,45744.727216,-26573.393318
1100.150572,17696.806004,28794.011144,-31606.793723
1100.150890,18845.949251,11251.130318,-28571.949361
1100.151209,14632.424012,-13323.706956,-11547.212695
1100.151528,1225.752797,-24574.837274,-2072.576638
1100.151847,-6741.640382,-29090.093521,-8660.409521
1100.152165,-14402.595362,-36862.255912,4515.256246
1100.152484,-16088.005458,-41969.676911,37898.544230
1100.152803,-15015.471761,-35529.885216,48853.592172
1100.153122,-19535.435199,-21095.869347,46558.953752
1100.153440,-16624.272307,7254.018232,41155.450375
1100.153759,-14325.985813,19763.498651,28127.825796
1100.154078,-8427.050478,34123.493926,20799.786970
1100.154397,1225.752797,37972.564825,9548.656652
1100.154715,3370.820191,42635.862259,-4367.215058
1100.155034,11951.089769,46558.953752,-31754.834912
1100.155353,14096.157163,26129.269753,-25018.960840
1100.155672,18999.168350,1628.453072,-14730.098246
1100.155990,12180.918418,-21317.931130,888.247130
1100.156309,3294.210641,-28645.969955,-4071.132681
1100.156628,995.924147,-31162.670158,9474.636058
1100.156947,-3217.601092,-35825.967593,26055.249158
1100.157265,-1915.238745,-35233.802839,47299.159694
1100.157584,2451.505594,-24500.816680,53516.889607
1100.157903,-766.095498,5477.523971,29460.196492
1100.158222,-2145.067394,22946.384202,24056.693115
1100.158540,3983.696590,40193.182651,12139.377449
1100.158859,9269.755526,32272.979071,7624.121203
1100.159178,13942.938064,42709.882853,-12361.439231
1100.159497,12257.527968,36862.255912,-21095.869347
1100.159815,13253.452115,22428.240043,-33013.185013
1100.160134,15781.567259,1110.308913,-21095.869347
1100.160453,13636.499864,-19837.519246,3330.926739
1100.160772,4596.572988,-31384.731941,8438.347739
1100.161090,-612.876398,-26943.496289,9030.512492
1100.161409,-153.219100,-26277.310941,26795.455100
1100.161728,0.000000,-23612.569550,38860.811955
1100.162047,-2451.505594,-10807.006753,46855.036129
1100.162365,2298.286494,7476.080014,32495.040854
1100.162684,1838.629195,27165.558071,12139.377449
1100.163003,1455.581446,32791.123231,3256.906145
1100.163322,3983.696590,31162.670158,1850.514855
1100.163640,4290.134789,30496.484810,-11843.295072
1100.163959,4903.011187,23242.466579,-19467.416275
1100.164278,8273.831378,14508.036463,-14582.057057
1100.164597,5056.230287,-1776.494261,-10066.800811
1100.164915,7201.297681,-15618.345376,5403.503377
1100.165234,459.657299,-23686.590144,16580.613101
1100.165553,-689.485948,-21317.931130,21836.075289
1100.165872,0.000000,-14582.057057,22280.198854
1100.166190,-153.219100,-2294.638420,24130.713709
1100.166509,-1455.581446,-74.020594,27757.722825
1100.166828,-2221.676944,8438.347739,19393.395680
1100.167147,-995.924147,16358.551318,8586.388927
1100.167466,-1149.143247,17690.922014,-1258.350101
1100.167784,-1455.581446,10214.842000,3775.050304
1100.168103,-2911.162892,9178.553681,-2738.761985
1100.168422,-689.485948,5847.626942,2146.597232
1100.168741,3140.991542,1850.514855,6513.812290
1100.169059,3600.648841,-2516.700203,9252.574275
1100.169378,7048.078582,-2442.679609,13619.789333
1100.169697,5822.325785,-8956.491898,20207.622217
1100.170016,7660.954980,-6439.791695,15026.180623
1100.170334,9039.926876,814.226536,8660.409521
1100.170653,5975.544884,3034.844362,5403.503377
1100.170972,1838.629195,1628.453072,7476.080014
1100.171291,-766.095498,-518.144159,8364.327145
1100.171609,-2604.724693,666.185348,9844.739029
1100.171928,-4060.306139,2886.803174,5477.523971
1100.172247,-4443.353888,1554.432478,5995.668130
1100.172566,-4443.353888,-2294.638420,14211.954086
1100.172885,-3294.210641,-518.144159,20651.745782
1100.173203,-229.828649,4959.379811,19245.354492
1100.173522,3370.820191,8216.285956,12879.583391
1100.173841,8810.098227,5773.606348,10955.047942
1100.174160,10648.727422,-518.144159,12287.418637
1100.174479,10801.946522,-1998.556043,8882.471304
1100.174797,11491.432470,-1036.288319,740.205942
1100.175116,12027.699319,-0.000000,-3182.885551
1100.175435,8503.660028,1036.288319,888.247130
1100.175754,4443.353888,740.205942,7402.059420
1100.176072,1915.238745,2072.576638,8068.244768
1100.176391,-229.828649,6365.771101,8586.388927
1100.176710,-995.924147,10288.862594,7772.162391
1100.177029,-2374.896044,8364.327145,8290.306550
1100.177348,-3600.648841,4811.338623,9918.759623
1100.177666,-3753.867940,370.102971,16432.571912
1100.177985,-3217.601092,-2886.803174,17690.922014
1100.178304,-919.314598,-7179.997637,15544.324782
1100.178623,2068.457845,-8882.471304,13989.892304
1100.178942,5286.058936,-7031.956449,14211.954086
1100.179260,7201.297681,1036.288319,8290.306550
1100.179579,8963.317327,9844.739029,0.000000
1100.179898,8963.317327,16062.468941,-1480.411884
1100.180217,8427.050478,19097.313304,296.082377
1100.180535,5592.497135,17690.922014,-1850.514855
1100.180854,3217.601092,12213.398043,-1184.329507
1100.181173,76.609550,4219.173869,3775.050304
1100.181492,-919.314598,-4885.359217,8882.471304
1100.181811,-3830.477490,-10214.842000,13767.830521
1100.182129,-4749.792088,-12435.459826,20873.807564
1100.182448,-4596.572988,-8438.347739,23908.651927
1100.182767,-3064.381992,-1184.329507,18653.189738
1100.183086,842.705048,3478.967927,16284.530724
1100.183405,4366.744339,9770.718434,10881.027347
1100.183723,7277.907231,14656.077652,4737.318029
1100.184042,7890.783629,14063.912898,-814.226536
1100.184361,8503.660028,10584.944971,-1554.432478
1100.184680,8580.269578,6365.771101,2590.720797
1100.184998,7277.907231,888.247130,4737.318029
1100.185317,5822.325785,-3404.947333,6069.688724
1100.185636,4673.182538,-4071.132681,8734.430116
1100.185955,2298.286494,-888.247130,9622.677246
1100.186274,1378.971896,1036.288319,11103.089130
1100.186592,-229.828649,3627.009116,14878.139434
1100.186911,-1762.019645,5477.523971,18579.169144
1100.187230,-2834.553343,5329.482782,14359.995275
1100.187549,-2604.724693,2368.659014,17912.983796
1100.187868,-842.705048,-1258.350101,17394.839637
1100.188186,1685.410096,-2220.617826,12953.603985
1100.188505,3294.210641,-2590.720797,10140.821405
1100.188824,4903.011187,-296.082377,6957.935855
1100.189143,6435.202183,3775.050304,4071.132681
1100.189461,6435.202183,7105.977043,3923.091493
1100.189780,6511.811733,8808.450710,3034.844362
1100.190099,5515.887586,8882.471304,2590.720797
1100.190418,3753.867940,7179.997637,5921.647536
1100.190737,2145.067394,3478.967927,9030.512492
1100.191055,612.876398,-740.205942,12287.418637
1100.191374,-1455.581446,-3108.864956,16728.654289
1100.191693,-3064.381992,-3997.112087,16802.674883
1100.192012,-3677.258390,-3404.947333,15692.365970
1100.192331,-3217.601092,-1776.494261,14952.160028
1100.192649,-1838.629195,1480.411884,11991.336260
1100.192968,0.000000,4515.256246,8808.450710
1100.193287,1762.019645,6143.709319,7624.121203
1100.193606,3217.601092,8216.285956,5033.400406
1100.193925,5669.106685,8586.388927,4737.318029
1100.194243,6281.983084,5921.647536,5033.400406
1100.194562,7124.688131,3849.070898,3478.967927
1100.194881,7737.564530,2146.597232,3701.029710
1100.195200,7507.735880,-370.102971,5477.523971
1100.195518,6588.421283,-1628.453072,7624.121203
1100.195837,4596.572988,-1332.370696,10140.821405
1100.196156,2604.724693,814.226536,12139.377449
1100.196475,1915.238745,2294.638420,13397.727550
1100.196794,689.485948,4219.173869,12953.603985
1100.197112,1302.362347,3627.009116,12139.377449
1100.197431,1685.410096,5403.503377,9252.574275
1100.197750,2911.162892,5181.441594,8438.347739
1100.198069,3447.429741,3330.926739,7328.038826
1100.198388,4443.353888,2738.761985,5255.462188
1100.198706,5132.839837,1480.411884,6587.832884
1100.199025,5209.449386,1184.329507,6143.709319
1100.199344,5592.497135,888.247130,6513.812290
1100.199663,5745.716235,592.164754,8068.244768
1100.199981,4136.915689,2072.576638,8586.388927
1100.200300,3370.820191,3552.988522,9326.594869
1100.200619,1915.238745,3627.009116,10066.800811
1100.200938,229.828649,3478.967927,11177.109724
1100.201257,-842.705048,2590.720797,10288.862594
1100.201575,-2298.286494,2072.576638,10510.924376
1100.201894,-2834.553343,1036.288319,9992.780217
1100.202213,-2681.334243,444.123565,10436.903782
1100.202532,-2221.676944,-222.061783,10510.924376
1100.202851,-1608.800546,222.061783,10510.924376
1100.203169,-689.485948,1110.308913,10584.944971
1100.203488,536.266849,2738.761985,10066.800811
1100.203807,2374.896044,3182.885551,8956.491898
1100.204126,3677.258390,2886.803174,8660.409521
1100.204444,3753.867940,2886.803174,8660.409521
1100.204763,3753.867940,2072.576638,7624.121203
1100.205082,3140.991542,888.247130,8068.244768
1100.205401,1915.238745,296.082377,9474.636058
1100.205720,689.485948,1110.308913,10288.862594
1100.206038,76.609550,1924.535449,11029.068536
1100.206357,-229.828649,2590.720797,10362.883188
1100.206676,0.000000,3108.864956,10732.986159
1100.206995,689.485948,2368.659014,11251.130318
1100.207314,1762.019645,1628.453072,11917.315666
1100.207632,1991.848295,1850.514855,10214.842000
1100.207951,1072.533697,3182.885551,7994.224174
1100.208270,4596.572988,1036.288319,10510.924376
1100.208589,4290.134789,1036.288319,8290.306550
1100.208907,5286.058936,-222.061783,9474.636058
1100.209226,4290.134789,-74.020594,9030.512492
1100.209545,2911.162892,3627.009116,8956.491898
1100.209864,3064.381992,2368.659014,9178.553681
1100.210183,1762.019645,3552.988522,9252.574275
1100.210501,1378.971896,3108.864956,10510.924376
1100.210820,919.314598,4145.153275,9104.533087
1100.211139,1685.410096,5403.503377,8438.347739
1100.211458,2221.676944,3849.070898,9178.553681
1100.211777,2298.286494,1554.432478,10362.883188
1100.212095,1915.238745,888.247130,9844.739029
1100.212414,1378.971896,814.226536,10807.006753
1100.212733,459.657299,1036.288319,10732.986159
1100.213052,995.924147,2146.597232,11325.150913
1100.213370,2221.676944,2516.700203,10584.944971
1100.213689,3217.601092,3775.050304,9326.594869
1100.214008,4060.306139,3849.070898,9474.636058
1100.214327,4290.134789,4071.132681,8882.471304
1100.214646,4979.620737,3108.864956,8882.471304
1100.214964,4979.620737,2368.659014,9178.553681
1100.215283,4290.134789,2886.803174,8956.491898
1100.215602,3907.087040,2516.700203,8438.347739
1100.215921,3830.477490,1850.514855,8438.347739
1100.216240,3753.867940,814.226536,10140.821405
1100.216558,3140.991542,1258.350101,9992.780217
1100.216877,3064.381992,1776.494261,9622.677246
1100.217196,2604.724693,1480.411884,10140.821405
1100.217515,1838.629195,1480.411884,10807.006753
1100.217833,1608.800546,1776.494261,11029.068536
1100.218152,1991.848295,2738.761985,9474.636058
1100.218471,1838.629195,3552.988522,7698.141797
1100.218790,1685.410096,3478.967927,7105.977043
1100.219109,1838.629195,3627.009116,7031.956449
1100.219427,1149.143247,3256.906145,7254.018232
1100.219746,229.828649,1924.535449,8068.244768
1100.220065,0.000000,1776.494261,9104.533087
1100.220384,995.924147,1850.514855,9474.636058
1100.220703,2604.724693,2146.597232,9474.636058
1100.221021,3677.258390,2812.782580,8882.471304
1100.221340,4596.572988,3627.009116,7920.203579
1100.221659,5286.058936,4515.256246,6439.791695
1100.221978,6052.154434,5255.462188,5181.441594
1100.222296,6588.421283,5033.400406,5107.421000
1100.222615,6358.592633,4737.318029,4885.359217
1100.222934,6511.811733,4367.215058,5107.421000
1100.223253,6665.030833,3997.112087,5033.400406
1100.223572,6435.202183,3701.029710,6365.771101
1100.223890,6665.030833,3330.926739,6809.894666
1100.224209,6511.811733,5107.421000,7105.977043
1100.224528,6052.154434,5921.647536,6883.915261
1100.224847,5362.668486,5699.585753,6957.935855
1100.225166,5209.449386,4811.338623,7772.162391
1100.225484,5515.887586,3849.070898,8734.430116
1100.225803,4979.620737,3256.906145,9400.615463
1100.226122,4673.182538,2960.823768,10288.862594
1100.226441,4596.572988,3182.885551,9770.718434
1100.226759,4519.963438,3775.050304,10288.862594
1100.227078,4749.792088,4367.215058,9400.615463
1100.227397,4673.182538,4515.256246,8734.430116
1100.227716,4290.134789,4441.235652,8364.327145
1100.228035,3753.867940,3849.070898,8364.327145
1100.228353,2757.943793,3552.988522,9252.574275
1100.228672,2145.067394,2664.741391,9178.553681
1100.228991,766.095498,1036.288319,10214.842000
1100.229310,-153.219100,-0.000000,11325.150913
1100.229629,-1455.581446,-814.226536,12953.603985
1100.229947,-1915.238745,-666.185348,13545.768739
1100.230266,-2298.286494,-148.041188,14211.954086
1100.230585,-2681.334243,666.185348,14359.995275
1100.230904,-2528.115143,1628.453072,13619.789333
1100.231223,-1991.848295,2738.761985,12509.480420
1100.231541,-1378.971896,2960.823768,11103.089130
1100.231860,-1225.752797,2590.720797,10658.965565
1100.232179,-536.266849,2294.638420,9918.759623
1100.232498,383.047749,1258.350101,9770.718434
1100.232816,1149.143247,518.144159,10214.842000
1100.233135,1608.800546,-222.061783,10807.006753
1100.233454,1991.848295,-518.144159,11621.233289
1100.233773,2221.676944,444.123565,11177.109724
1100.234092,2528.115143,1258.350101,11473.192101
1100.234410,2757.943793,2516.700203,10658.965565
1100.234729,2757.943793,4589.276840,9252.574275
1100.235048,3447.429741,4441.235652,8512.368333
1100.235367,3217.601092,3108.864956,7920.203579
1100.235686,3217.601092,1702.473667,8438.347739
1100.236004,3294.210641,-74.020594,8290.306550
1100.236323,2911.162892,-148.041188,8216.285956
1100.236642,3140.991542,-1110.308913,8956.491898
1100.236961,3217.601092,-370.102971,10066.800811
1100.237279,3830.477490,962.267725,10584.944971
1100.237598,4060.306139,3034.844362,8808.450710
1100.237917,4596.572988,5107.421000,7402.059420
1100.238236,4290.134789,6069.688724,6883.915261
1100.238555,4673.182538,6069.688724,5995.668130
1100.238873,3983.696590,4367.215058,6217.729913
1100.239192,2911.162892,1480.411884,7105.977043
1100.239511,2374.896044,-444.123565,8142.265362
1100.239830,2068.457845,-1480.411884,8956.491898
1100.240149,2528.115143,-1406.391290,9474.636058
1100.240467,2757.943793,-74.020594,9252.574275
1100.240786,3140.991542,2368.659014,7772.162391
1100.241105,2987.772442,4589.276840,7105.977043
1100.241424,2834.553343,5551.544565,6439.791695
1100.241742,2528.115143,4959.379811,5773.606348
1100.242061,1762.019645,4589.276840,5477.523971
1100.242380,1762.019645,2738.761985,5773.606348
1100.242699,2374.896044,1332.370696,7179.997637
1100.243018,2451.505594,-222.061783,8290.306550
1100.243336,2374.896044,-1406.391290,9474.636058
1100.243655,2298.286494,-296.082377,9252.574275
1100.243974,2451.505594,2072.576638,9104.533087
1100.244293,2834.553343,4589.276840,7920.203579
1100.244612,2528.115143,4515.256246,7254.018232
1100.244930,2451.505594,4367.215058,8290.306550
1100.245249,2221.676944,5477.523971,7476.080014
1100.245568,1685.410096,5181.441594,6957.935855
1100.245887,1455.581446,3108.864956,7698.141797
1100.246205,-76.609550,1850.514855,8438.347739
1100.246524,612.876398,-592.164754,9992.780217
1100.246843,0.000000,-1184.329507,10214.842000
1100.247162,153.219100,-1776.494261,12361.439231
1100.247481,689.485948,-1554.432478,13323.706956
1100.247799,1915.238745,1184.329507,13471.748144
1100.248118,3600.648841,2220.617826,13323.706956
1100.248437,4519.963438,3849.070898,11843.295072
1100.248756,5286.058936,3997.112087,9992.780217
1100.249075,6435.202183,3627.009116,8882.471304
1100.249393,6052.154434,4219.173869,6809.894666
1100.249712,5822.325785,3849.070898,6661.853478
1100.250031,4290.134789,3923.091493,6809.894666
1100.250350,3907.087040,2812.782580,7031.956449
1100.250668,2681.334243,2220.617826,7846.182985
1100.250987,1455.581446,1480.411884,10066.800811
1100.251306,0.000000,740.205942,12657.521608
1100.251625,-153.219100,444.123565,14804.118840
1100.251944,-306.438199,370.102971,16580.613101
1100.252262,-1072.533697,1036.288319,16136.489536
1100.252581,459.657299,1480.411884,15766.386565
1100.252900,2221.676944,3330.926739,14063.912898
1100.253219,3677.258390,5107.421000,10362.883188
1100.253538,4826.401637,6809.894666,6291.750507
1100.253856,5898.935335,8068.244768,3997.112087
1100.254175,6205.373534,9474.636058,1998.556043
1100.254494,4826.401637,8438.347739,1332.370696
1100.254813,3600.648841,5995.668130,2368.659014
1100.255131,2298.286494,4293.194464,5107.421000
1100.255450,995.924147,1998.556043,7846.182985
1100.255769,-612.876398,-962.267725,11843.295072
1100.256088,-1302.362347,-3182.885551,15988.448347
1100.256407,-1838.629195,-3627.009116,18061.024985
