#time,accel_x,accel_y,accel_z
1819.853071,4519.963438,6217.729913,11325.150913
1819.853388,4519.963438,5551.544565,11177.109724
1819.853706,3753.867940,4515.256246,12435.459826
1819.854023,2757.943793,3404.947333,13397.727550
1819.854340,2298.286494,3701.029710,14137.933492
1819.854658,1149.143247,3997.112087,13767.830521
1819.854975,689.485948,3182.885551,15618.345376
1819.855292,229.828649,2442.679609,14582.057057
1819.855610,0.000000,1554.432478,14878.139434
1819.855927,229.828649,1184.329507,14878.139434
1819.856245,612.876398,296.082377,14656.077652
1819.856562,1149.143247,-74.020594,14285.974681
1819.856879,1149.143247,-370.102971,13989.892304
1819.857197,1302.362347,-0.000000,12879.583391
1819.857514,306.438199,592.164754,12509.480420
1819.857831,612.876398,740.205942,12065.356855
1819.858149,0.000000,1480.411884,10436.903782
1819.858466,0.000000,1850.514855,10066.800811
1819.858783,-383.047749,1480.411884,9474.636058
1819.859101,-306.438199,962.267725,9104.533087
1819.859418,0.000000,-0.000000,8364.327145
1819.859736,0.000000,-888.247130,7920.203579
1819.860053,-536.266849,-1554.432478,7698.141797
1819.860370,-766.095498,-1998.556043,8290.306550
1819.860688,-995.924147,-1406.391290,8216.285956
1819.861005,-1455.581446,-1406.391290,7772.162391
1819.861322,-1532.190996,-1036.288319,8438.347739
1819.861640,-1762.019645,-962.267725,8142.265362
1819.861957,-1838.629195,-740.205942,7105.977043
1819.862275,-1608.800546,-370.102971,7031.956449
1819.862592,-995.924147,-814.226536,6809.894666
1819.862909,-459.657299,-888.247130,5329.482782
1819.863227,383.047749,-1036.288319,4885.359217
1819.863544,1072.533697,-1480.411884,4811.338623
1819.863861,842.705048,-1776.494261,4737.318029
1819.864179,1225.752797,-2442.679609,4589.276840
1819.864496,229.828649,-2960.823768,4885.359217
1819.864813,-229.828649,-3701.029710,5625.565159
1819.865131,-1072.533697,-3849.070898,5995.668130
1819.865448,-1455.581446,-4515.256246,6365.771101
1819.865766,-1991.848295,-4663.297435,7105.977043
1819.866083,-1608.800546,-4515.256246,7476.080014
1819.866400,-1302.362347,-3775.050304,7105.977043
1819.866718,-1072.533697,-3330.926739,7179.997637
1819.867035,-1608.800546,-2886.803174,7846.182985
1819.867352,-1072.533697,-2146.597232,8216.285956
1819.867670,-612.876398,-1258.350101,8142.265362
1819.867987,-995.924147,-0.000000,8216.285956
1819.868305,-459.657299,962.267725,7994.224174
1819.868622,-306.438199,1998.556043,8290.306550
1819.868939,0.000000,2442.679609,7624.121203
1819.869257,383.047749,2664.741391,7624.121203
1819.869574,383.047749,2812.782580,8290.306550
1819.869891,612.876398,3034.844362,7994.224174
1819.870209,919.314598,3627.009116,7698.141797
1819.870526,1225.752797,3775.050304,8142.265362
1819.870843,1608.800546,3404.947333,8660.409521
1819.871161,1302.362347,3330.926739,8660.409521
1819.871478,1149.143247,3775.050304,9104.533087
1819.871796,995.924147,3997.112087,9326.594869
1819.872113,1072.533697,4367.215058,9696.697840
1819.872430,919.314598,4293.194464,10066.800811
1819.872748,536.266849,4071.132681,10214.842000
1819.873065,689.485948,4071.132681,10584.944971
1819.873382,919.314598,3627.009116,10510.924376
1819.873700,995.924147,3627.009116,11029.068536
1819.874017,1685.410096,3330.926739,11177.109724
1819.874334,1225.752797,2738.761985,11473.192101
1819.874652,1149.143247,2146.597232,11695.253884
1819.874969,689.485948,2220.617826,11843.295072
1819.875287,536.266849,1850.514855,11695.253884
1819.875604,459.657299,2368.659014,12435.459826
1819.875921,-229.828649,2072.576638,12879.583391
1819.876239,-306.438199,1776.494261,12731.542202
1819.876556,-766.095498,1480.411884,13323.706956
1819.876873,-766.095498,962.267725,13767.830521
1819.877191,-995.924147,1110.308913,13767.830521
1819.877508,-689.485948,888.247130,13915.871710
1819.877826,-383.047749,740.205942,14211.954086
1819.878143,-229.828649,1258.350101,14063.912898
1819.878460,229.828649,1628.453072,13693.809927
1819.878778,383.047749,1850.514855,13027.624579
1819.879095,842.705048,2146.597232,12731.542202
1819.879412,1378.971896,2368.659014,12065.356855
1819.879730,1762.019645,2516.700203,11251.130318
1819.880047,1838.629195,2442.679609,10510.924376
1819.880364,1915.238745,2294.638420,9770.718434
1819.880682,1838.629195,1702.473667,9400.615463
1819.880999,1608.800546,1480.411884,8882.471304
1819.881317,1455.581446,666.185348,8290.306550
1819.881634,1149.143247,592.164754,8586.388927
1819.881951,995.924147,444.123565,8438.347739
1819.882269,383.047749,-148.041188,8364.327145
1819.882586,459.657299,-0.000000,8142.265362
1819.882903,229.828649,370.102971,7846.182985
1819.883221,0.000000,296.082377,7031.956449
1819.883538,306.438199,370.102971,6661.853478
1819.883856,383.047749,296.082377,6439.791695
1819.884173,459.657299,222.061783,6513.812290
1819.884491,459.657299,592.164754,6661.853478
1819.884809,536.266849,296.082377,6365.771101
1819.885126,842.705048,-0.000000,6513.812290
1819.885444,612.876398,-222.061783,6735.874072
1819.885761,306.438199,-814.226536,7105.977043
1819.886079,0.000000,-888.247130,6883.915261
1819.886397,-153.219100,-962.267725,7105.977043
1819.886714,-459.657299,-1332.370696,7476.080014
1819.887032,-612.876398,-1480.411884,7846.182985
1819.887350,-995.924147,-1776.494261,8290.306550
1819.887667,-1302.362347,-2072.576638,8512.368333
1819.887985,-842.705048,-1776.494261,8512.368333
1819.888302,-1072.533697,-1850.514855,8734.430116
1819.888620,-689.485948,-1998.556043,8808.450710
1819.888938,-459.657299,-1850.514855,9030.512492
1819.889255,-153.219100,-1776.494261,8734.430116
1819.889573,-76.609550,-1702.473667,8956.491898
1819.889891,0.000000,-1554.432478,8956.491898
1819.890208,153.219100,-962.267725,8882.471304
1819.890526,536.266849,-962.267725,8956.491898
1819.890843,459.657299,-740.205942,9178.553681
1819.891161,536.266849,-740.205942,9178.553681
1819.891479,842.705048,-592.164754,9252.574275
1819.891796,1149.143247,-74.020594,9622.677246
1819.892114,1225.752797,-74.020594,9474.636058
1819.892432,1455.581446,-0.000000,9326.594869
1819.892749,1532.190996,666.185348,9252.574275
1819.893067,1455.581446,1110.308913,9474.636058
1819.893384,1915.238745,1110.308913,9252.574275
1819.893702,1532.190996,2072.576638,9326.594869
1819.894020,1685.410096,2516.700203,9400.615463
1819.894337,1685.410096,2516.700203,9622.677246
1819.894655,1455.581446,2516.700203,9696.697840
1819.894972,1302.362347,2886.803174,9992.780217
1819.895290,1838.629195,3108.864956,9696.697840
1819.895608,1532.190996,2886.803174,10288.862594
1819.895925,1762.019645,2812.782580,10362.883188
1819.896243,1608.800546,2812.782580,10584.944971
1819.896561,1225.752797,2516.700203,10658.965565
1819.896878,1225.752797,2664.741391,10955.047942
1819.897196,995.924147,2368.659014,11251.130318
1819.897513,766.095498,2368.659014,11399.171507
1819.897831,612.876398,1850.514855,11769.274478
1819.898149,306.438199,1628.453072,11843.295072
1819.898466,0.000000,1184.329507,12139.377449
1819.898784,0.000000,962.267725,11843.295072
1819.899102,153.219100,814.226536,11843.295072
1819.899419,536.266849,296.082377,11843.295072
1819.899737,153.219100,592.164754,11843.295072
1819.900054,76.609550,518.144159,11251.130318
1819.900372,229.828649,962.267725,11325.150913
1819.900690,0.000000,1036.288319,10658.965565
1819.901007,0.000000,592.164754,11029.068536
1819.901325,-689.485948,222.061783,10362.883188
1819.901643,-536.266849,888.247130,10214.842000
1819.901960,-612.876398,740.205942,9474.636058
1819.902278,-306.438199,1406.391290,9548.656652
1819.902595,-229.828649,814.226536,9326.594869
1819.902913,-383.047749,1258.350101,9030.512492
1819.903231,-229.828649,814.226536,8586.388927
1819.903548,0.000000,962.267725,8438.347739
1819.903866,229.828649,1480.411884,8142.265362
1819.904184,153.219100,1258.350101,8512.368333
1819.904501,-459.657299,888.247130,8216.285956
1819.904819,0.000000,1184.329507,8216.285956
1819.905136,76.609550,1184.329507,7920.203579
1819.905454,612.876398,518.144159,7550.100608
1819.905772,383.047749,666.185348,7550.100608
1819.906089,459.657299,518.144159,7328.038826
1819.906407,766.095498,148.041188,7105.977043
1819.906724,995.924147,-74.020594,7328.038826
1819.907042,1302.362347,-888.247130,7402.059420
1819.907360,1455.581446,-444.123565,7402.059420
1819.907677,1225.752797,-1480.411884,7624.121203
1819.907995,1378.971896,-1924.535449,7920.203579
1819.908313,1608.800546,-2294.638420,8364.327145
1819.908630,1762.019645,-2516.700203,8216.285956
1819.908948,1685.410096,-2664.741391,8586.388927
1819.909265,1991.848295,-3182.885551,8734.430116
1819.909583,1915.238745,-3330.926739,8808.450710
1819.909901,2298.286494,-3034.844362,9252.574275
1819.910218,2221.676944,-3256.906145,9178.553681
1819.910536,2298.286494,-3404.947333,9474.636058
1819.910854,2145.067394,-3478.967927,9474.636058
1819.911171,2298.286494,-3108.864956,9696.697840
1819.911489,1915.238745,-3034.844362,9844.739029
1819.911806,1915.238745,-2886.803174,9696.697840
1819.912124,1762.019645,-2368.659014,9918.759623
1819.912442,1532.190996,-2368.659014,9770.718434
1819.912759,1455.581446,-2146.597232,9918.759623
1819.913077,1302.362347,-1776.494261,9770.718434
1819.913395,1455.581446,-1628.453072,9474.636058
1819.913712,1455.581446,-1332.370696,9548.656652
1819.914030,1225.752797,-1036.288319,9474.636058
1819.914347,1302.362347,-740.205942,9770.718434
1819.914665,1455.581446,-444.123565,9474.636058
1819.914983,995.924147,-148.041188,9474.636058
1819.915300,919.314598,-0.000000,9696.697840
1819.915618,842.705048,-0.000000,9548.656652
1819.915935,536.266849,-0.000000,9474.636058
1819.916253,995.924147,370.102971,9326.594869
1819.916571,1225.752797,518.144159,9252.574275
1819.916888,1302.362347,296.082377,9178.553681
1819.917206,1302.362347,222.061783,8882.471304
1819.917524,1455.581446,444.123565,9252.574275
1819.917841,1455.581446,518.144159,9474.636058
1819.918159,995.924147,740.205942,9696.697840
1819.918476,842.705048,814.226536,9844.739029
1819.918794,995.924147,1184.329507,9770.718434
1819.919112,383.047749,962.267725,10288.862594
1819.919429,689.485948,962.267725,10140.821405
1819.919747,536.266849,1258.350101,10288.862594
1819.920065,536.266849,1702.473667,10436.903782
1819.920382,536.266849,1702.473667,10214.842000
1819.920700,459.657299,1998.556043,10140.821405
1819.921017,995.924147,1924.535449,10066.800811
1819.921335,1072.533697,1924.535449,10066.800811
1819.921653,919.314598,1924.535449,10140.821405
1819.921970,919.314598,2146.597232,10214.842000
1819.922288,766.095498,2220.617826,10140.821405
1819.922606,383.047749,2072.576638,10214.842000
1819.922923,383.047749,1998.556043,10066.800811
1819.923241,306.438199,1850.514855,9918.759623
1819.923558,306.438199,1628.453072,9918.759623
1819.923876,153.219100,1554.432478,10140.821405
1819.924194,0.000000,1258.350101,9622.677246
1819.924511,0.000000,1184.329507,9770.718434
1819.924829,-153.219100,1110.308913,9696.697840
1819.925146,-229.828649,888.247130,9622.677246
1819.925464,-612.876398,370.102971,9696.697840
1819.925782,-766.095498,370.102971,9400.615463
1819.926099,-459.657299,444.123565,9252.574275
1819.926417,-766.095498,370.102971,9326.594869
1819.926735,-383.047749,-0.000000,9178.553681
1819.927052,-306.438199,-0.000000,8882.471304
1819.927370,-612.876398,-222.061783,8808.450710
1819.927687,0.000000,-74.020594,8586.388927
1819.928005,153.219100,-148.041188,8734.430116
1819.928323,-229.828649,-296.082377,9104.533087
1819.928640,76.609550,-666.185348,8882.471304
1819.928958,229.828649,-962.267725,8956.491898
1819.929276,536.266849,-962.267725,9030.512492
1819.929593,842.705048,-1258.350101,9104.533087
1819.929911,766.095498,-1332.370696,9104.533087
1819.930228,689.485948,-1332.370696,9326.594869
1819.930546,1685.410096,-1332.370696,9030.512492
1819.930864,1532.190996,-1480.411884,9400.615463
1819.931181,1762.019645,-1628.453072,9178.553681
1819.931499,1915.238745,-2146.597232,9104.533087
1819.931817,2145.067394,-1776.494261,9030.512492
1819.932134,2221.676944,-1702.473667,9178.553681
1819.932452,2298.286494,-1998.556043,9326.594869
1819.932769,2374.896044,-1850.514855,9252.574275
1819.933087,2145.067394,-1924.535449,9400.615463
1819.933405,1991.848295,-1776.494261,9326.594869
1819.933722,2298.286494,-1628.453072,9104.533087
1819.934040,2451.505594,-1998.556043,9252.574275
1819.934357,2374.896044,-1776.494261,9104.533087
1819.934675,2451.505594,-1702.473667,8956.491898
1819.934993,2451.505594,-1554.432478,9104.533087
1819.935310,2374.896044,-1406.391290,9030.512492
1819.935628,2374.896044,-1036.288319,8956.491898
1819.935946,2298.286494,-1036.288319,9030.512492
1819.936263,2528.115143,-370.102971,9326.594869
1819.936581,2374.896044,-518.144159,8660.409521
1819.936898,2221.676944,-0.000000,8586.388927
1819.937216,1915.238745,-0.000000,8734.430116
1819.937534,1838.629195,-0.000000,8808.450710
1819.937851,1608.800546,222.061783,8882.471304
1819.938169,1302.362347,444.123565,9178.553681
1819.938487,1149.143247,518.144159,9178.553681
1819.938804,842.705048,666.185348,9104.533087
1819.939122,306.438199,518.144159,9326.594869
1819.939439,0.000000,666.185348,9326.594869
1819.939757,0.000000,814.226536,9400.615463
1819.940075,0.000000,1110.308913,9548.656652
1819.940392,0.000000,1184.329507,9548.656652
1819.940710,-306.438199,666.185348,9696.697840
1819.941028,-229.828649,1332.370696,9992.780217
1819.941345,-306.438199,1258.350101,9918.759623
1819.941663,-153.219100,1036.288319,9918.759623
1819.941980,306.438199,740.205942,9770.718434
1819.942298,0.000000,1036.288319,9918.759623
1819.942616,0.000000,1036.288319,9992.780217
1819.942933,536.266849,962.267725,9770.718434
1819.943251,306.438199,1036.288319,9844.739029
1819.943568,459.657299,1036.288319,9918.759623
1819.943886,536.266849,1184.329507,9992.780217
1819.944204,306.438199,1258.350101,9992.780217
1819.944521,459.657299,1480.411884,9918.759623
1819.944839,459.657299,1332.370696,9918.759623
1819.945157,306.438199,1258.350101,9844.739029
1819.945474,766.095498,1332.370696,9548.656652
1819.945792,383.047749,1480.411884,9696.697840
1819.946109,612.876398,1702.473667,9548.656652
1819.946427,536.266849,1554.432478,9770.718434
1819.946745,689.485948,1332.370696,9622.677246
1819.947062,383.047749,1924.535449,9474.636058
1819.947380,383.047749,1776.494261,9548.656652
1819.947698,306.438199,1998.556043,9474.636058
1819.948015,-153.219100,1554.432478,9622.677246
1819.948333,612.876398,1480.411884,9474.636058
1819.948650,536.266849,1480.411884,9400.615463
1819.948968,612.876398,1036.288319,9326.594869
1819.949286,612.876398,1110.308913,9326.594869
1819.949603,766.095498,962.267725,9474.636058
1819.949921,612.876398,814.226536,9326.594869
1819.950239,459.657299,592.164754,9400.615463
1819.950556,766.095498,370.102971,9474.636058
1819.950874,612.876398,-0.000000,9474.636058
1819.951191,153.219100,-222.061783,9770.718434
1819.951509,612.876398,-444.123565,9548.656652
1819.951827,459.657299,-592.164754,9474.636058
1819.952144,536.266849,-518.144159,9474.636058
1819.952462,612.876398,-666.185348,9548.656652
1819.952779,229.828649,-1036.288319,9474.636058
1819.953097,536.266849,-740.205942,9474.636058
1819.953415,689.485948,-1036.288319,9326.594869
1819.953732,766.095498,-888.247130,9400.615463
1819.954050,689.485948,-1110.308913,9474.636058
1819.954368,612.876398,-1036.288319,9474.636058
1819.954685,612.876398,-814.226536,9474.636058
1819.955003,689.485948,-666.185348,9474.636058
1819.955320,919.314598,-888.247130,9252.574275
1819.955638,1455.581446,-370.102971,9474.636058
1819.955956,995.924147,-518.144159,9400.615463
1819.956273,995.924147,-296.082377,9252.574275
1819.956591,1302.362347,-296.082377,9178.553681
1819.956909,1302.362347,-0.000000,9178.553681
1819.957226,1378.971896,222.061783,9104.533087
1819.957544,1378.971896,148.041188,9030.512492
1819.957861,1302.362347,370.102971,8956.491898
1819.958179,1302.362347,518.144159,8808.450710
1819.958497,995.924147,296.082377,8734.430116
1819.958814,1378.971896,444.123565,9104.533087
1819.959132,919.314598,592.164754,8660.409521
1819.959450,842.705048,296.082377,8956.491898
1819.959767,612.876398,518.144159,8882.471304
1819.960085,612.876398,444.123565,8956.491898
1819.960402,842.705048,592.164754,9104.533087
1819.960720,612.876398,592.164754,9104.533087
1819.961038,459.657299,740.205942,8956.491898
1819.961355,229.828649,740.205942,9104.533087
1819.961673,306.438199,592.164754,8956.491898
1819.961990,306.438199,1110.308913,9326.594869
1819.962308,383.047749,1036.288319,9252.574275
1819.962626,0.000000,888.247130,9548.656652
1819.962943,306.438199,1110.308913,9622.677246
1819.963261,153.219100,1110.308913,9622.677246
1819.963579,459.657299,1258.350101,9770.718434
1819.963896,383.047749,1628.453072,9770.718434
1819.964214,306.438199,1480.411884,9622.677246
1819.964531,383.047749,1776.494261,9770.718434
1819.964849,383.047749,1924.535449,9696.697840
1819.965167,459.657299,1998.556043,9622.677246
1819.965484,459.657299,1924.535449,9918.759623
1819.965802,229.828649,1480.411884,9622.677246
1819.966120,153.219100,1850.514855,9696.697840
1819.966437,153.219100,1702.473667,9622.677246
1819.966755,383.047749,1850.514855,9696.697840
1819.967072,536.266849,1702.473667,9696.697840
1819.967390,383.047749,1406.391290,9770.718434
1819.967708,229.828649,1554.432478,9992.780217
1819.968025,0.000000,1332.370696,10140.821405
1819.968343,459.657299,1406.391290,10362.883188
1819.968661,76.609550,1110.308913,10140.821405
1819.968978,153.219100,1184.329507,10066.800811
1819.969296,229.828649,888.247130,10066.800811
1819.969613,306.438199,740.205942,9992.780217
1819.969931,459.657299,814.226536,10288.862594
1819.970249,383.047749,592.164754,9918.759623
1819.970566,536.266849,444.123565,9770.718434
1819.970884,766.095498,444.123565,10140.821405
1819.971201,536.266849,-148.041188,9992.780217
1819.971519,612.876398,370.102971,9770.718434
1819.971837,536.266849,-0.000000,9844.739029
1819.972154,842.705048,-0.000000,9844.739029
1819.972472,459.657299,222.061783,9770.718434
1819.972790,919.314598,-74.020594,9474.636058
1819.973107,612.876398,-0.000000,9770.718434
1819.973425,766.095498,-0.000000,9548.656652
1819.973742,766.095498,-0.000000,9548.656652
1819.974060,1225.752797,-0.000000,9400.615463
1819.974378,1302.362347,-370.102971,9474.636058
1819.974695,995.924147,-0.000000,9178.553681
1819.975013,919.314598,-74.020594,9104.533087
1819.975331,1072.533697,-0.000000,9104.533087
1819.975648,995.924147,-148.041188,8956.491898
1819.975966,1149.143247,-0.000000,8956.491898
1819.976283,1149.143247,-148.041188,9104.533087
1819.976601,919.314598,-222.061783,8882.471304
1819.976919,995.924147,-222.061783,8734.430116
1819.977236,383.047749,-592.164754,8660.409521
1819.977554,1532.190996,-592.164754,8660.409521
1819.977872,1302.362347,-222.061783,8586.388927
1819.978189,995.924147,-518.144159,8068.244768
1819.978507,1149.143247,-370.102971,8142.265362
1819.978824,1378.971896,-148.041188,8142.265362
1819.979142,1072.533697,-0.000000,8142.265362
1819.979460,1072.533697,-518.144159,7994.224174
1819.979777,1072.533697,-222.061783,8142.265362
1819.980095,919.314598,-370.102971,8290.306550
1819.980412,995.924147,-518.144159,8290.306550
1819.980730,842.705048,-740.205942,8586.388927
1819.981048,919.314598,-592.164754,8512.368333
1819.981365,919.314598,-592.164754,8586.388927
1819.981683,689.485948,-592.164754,8660.409521
1819.982001,536.266849,-444.123565,9104.533087
1819.982318,459.657299,-370.102971,9326.594869
1819.982636,306.438199,-296.082377,9400.615463
1819.982953,229.828649,-444.123565,9400.615463
1819.983271,459.657299,-370.102971,9622.677246
1819.983589,153.219100,-740.205942,9474.636058
1819.983906,153.219100,-296.082377,9474.636058
1819.984224,306.438199,-444.123565,9844.739029
1819.984542,229.828649,-296.082377,9474.636058
1819.984859,459.657299,-222.061783,9622.677246
1819.985177,306.438199,-148.041188,9548.656652
1819.985490,612.876398,-0.000000,9844.739029
1819.985808,536.266849,-0.000000,9474.636058
1819.986125,459.657299,222.061783,9622.677246
1819.986443,612.876398,-0.000000,9992.780217
1819.986760,383.047749,370.102971,9474.636058
1819.987078,229.828649,518.144159,9622.677246
1819.987395,536.266849,370.102971,10214.842000
1819.987712,306.438199,222.061783,9992.780217
1819.988030,766.095498,222.061783,10066.800811
1819.988347,536.266849,592.164754,9918.759623
1819.988665,306.438199,814.226536,9844.739029
1819.988982,459.657299,1036.288319,9770.718434
1819.989299,536.266849,1184.329507,9844.739029
1819.989617,383.047749,1110.308913,9918.759623
1819.989934,612.876398,1110.308913,9696.697840
1819.990252,229.828649,888.247130,9918.759623
1819.990569,153.219100,1258.350101,9918.759623
1819.990887,306.438199,1628.453072,10066.800811
1819.991204,459.657299,1036.288319,10288.862594
1819.991521,689.485948,1406.391290,10066.800811
1819.991839,689.485948,1258.350101,9992.780217
1819.992156,842.705048,1258.350101,10066.800811
1819.992474,1225.752797,740.205942,9844.739029
1819.992791,1225.752797,1110.308913,10066.800811
1819.993109,995.924147,1036.288319,9918.759623
1819.993426,1302.362347,1258.350101,10140.821405
1819.993743,919.314598,888.247130,9992.780217
1819.994061,1302.362347,666.185348,10288.862594
1819.994378,766.095498,740.205942,10066.800811
1819.994696,1149.143247,592.164754,10214.842000
1819.995013,995.924147,222.061783,10214.842000
1819.995330,842.705048,148.041188,10140.821405
1819.995648,919.314598,296.082377,10066.800811
1819.995965,995.924147,-0.000000,9992.780217
1819.996283,766.095498,222.061783,9770.718434
1819.996600,612.876398,-0.000000,9844.739029
1819.996918,919.314598,-148.041188,10140.821405
1819.997235,612.876398,-0.000000,9622.677246
1819.997552,612.876398,-0.000000,9474.636058
1819.997870,536.266849,-74.020594,9400.615463
1819.998187,612.876398,-74.020594,9326.594869
1819.998505,536.266849,-74.020594,9178.553681
1819.998822,536.266849,-444.123565,9030.512492
1819.999139,919.314598,-296.082377,8956.491898
1819.999457,842.705048,-222.061783,8660.409521
1819.999774,919.314598,-296.082377,8808.450710
1820.000092,536.266849,-370.102971,8438.347739
1820.000409,842.705048,-148.041188,8586.388927
1820.000727,766.095498,-296.082377,8586.388927
1820.001044,919.314598,-444.123565,8586.388927
1820.001361,1072.533697,-444.123565,8438.347739
1820.001679,842.705048,-444.123565,8438.347739
1820.001996,1072.533697,-814.226536,8290.306550
1820.002314,995.924147,-814.226536,8216.285956
1820.002631,1149.143247,-962.267725,8364.327145
1820.002948,1072.533697,-814.226536,8364.327145
1820.003266,919.314598,-888.247130,8364.327145
1820.003583,995.924147,-740.205942,8512.368333
1820.003901,1149.143247,-740.205942,8734.430116
1820.004218,842.705048,-962.267725,9030.512492
1820.004536,1149.143247,-1110.308913,8808.450710
1820.004853,1225.752797,-1036.288319,8882.471304
1820.005170,1149.143247,-888.247130,9104.533087
1820.005488,1302.362347,-888.247130,8882.471304
1820.005805,1608.800546,-740.205942,9030.512492
1820.006123,2068.457845,-592.164754,8956.491898
1820.006440,1915.238745,-518.144159,8956.491898
1820.006758,1915.238745,-444.123565,9030.512492
1820.007075,1915.238745,-444.123565,9178.553681
1820.007392,1762.019645,-370.102971,9104.533087
1820.007710,1915.238745,-740.205942,9548.656652
1820.008027,1608.800546,-222.061783,9474.636058
1820.008345,1532.190996,-444.123565,9474.636058
1820.008662,1302.362347,-370.102971,9474.636058
1820.008979,1685.410096,-148.041188,9548.656652
1820.009297,1532.190996,-222.061783,9844.739029
1820.009614,1302.362347,-370.102971,9770.718434
1820.009932,1302.362347,-0.000000,9696.697840
1820.010249,1072.533697,-74.020594,9622.677246
1820.010567,766.095498,-0.000000,9770.718434
1820.010884,689.485948,148.041188,9918.759623
1820.011201,689.485948,148.041188,9770.718434
1820.011519,536.266849,148.041188,9918.759623
1820.011836,459.657299,148.041188,9918.759623
1820.012154,383.047749,148.041188,9992.780217
1820.012471,766.095498,370.102971,9844.739029
1820.012788,459.657299,296.082377,9918.759623
1820.013106,842.705048,296.082377,9770.718434
1820.013423,612.876398,148.041188,9770.718434
1820.013741,919.314598,296.082377,9548.656652
1820.014058,766.095498,444.123565,9696.697840
1820.014376,536.266849,370.102971,9844.739029
1820.014693,612.876398,592.164754,9844.739029
1820.015010,612.876398,740.205942,9992.780217
1820.015328,0.000000,148.041188,9992.780217
1820.015645,612.876398,444.123565,9696.697840
1820.015963,995.924147,814.226536,9622.677246
1820.016280,842.705048,518.144159,9548.656652
1820.016598,766.095498,740.205942,9622.677246
1820.016915,995.924147,370.102971,9474.636058
1820.017232,612.876398,740.205942,9400.615463
1820.017550,459.657299,666.185348,9474.636058
1820.017867,766.095498,666.185348,9474.636058
1820.018185,689.485948,888.247130,9326.594869
1820.018502,689.485948,592.164754,9474.636058
1820.018819,689.485948,740.205942,9326.594869
1820.019137,842.705048,814.226536,9030.512492
1820.019454,766.095498,592.164754,9178.553681
1820.019772,1149.143247,592.164754,9326.594869
1820.020089,919.314598,370.102971,8956.491898
1820.020407,842.705048,814.226536,9030.512492
1820.020724,995.924147,740.205942,8956.491898
1820.021041,919.314598,814.226536,8808.450710
1820.021359,995.924147,740.205942,8660.409521
1820.021676,536.266849,740.205942,8882.471304
1820.021994,689.485948,518.144159,9178.553681
1820.022311,842.705048,444.123565,9030.512492
1820.022628,536.266849,518.144159,9104.533087
1820.022946,1072.533697,222.061783,9104.533087
1820.023263,383.047749,-0.000000,9030.512492
1820.023581,459.657299,-0.000000,9178.553681
1820.023898,459.657299,-0.000000,9252.574275
1820.024216,689.485948,-0.000000,9326.594869
1820.024533,459.657299,-0.000000,9252.574275
1820.024850,306.438199,-0.000000,9474.636058
1820.025168,76.609550,-0.000000,9474.636058
1820.025485,306.438199,-0.000000,9474.636058
1820.025803,689.485948,-74.020594,9548.656652
1820.026120,383.047749,-0.000000,9474.636058
1820.026438,536.266849,-0.000000,9622.677246
1820.026755,612.876398,148.041188,9474.636058
1820.027072,612.876398,-0.000000,9622.677246
1820.027390,842.705048,222.061783,9622.677246
1820.027707,689.485948,-0.000000,9474.636058
1820.028025,842.705048,296.082377,9474.636058
1820.028342,612.876398,-0.000000,9696.697840
1820.028659,229.828649,-0.000000,9918.759623
1820.028977,842.705048,296.082377,9770.718434
1820.029294,919.314598,296.082377,9770.718434
1820.029612,1072.533697,222.061783,9696.697840
1820.029929,995.924147,518.144159,9770.718434
1820.030247,995.924147,370.102971,9548.656652
1820.030564,1302.362347,370.102971,9474.636058
1820.030881,1225.752797,444.123565,9326.594869
1820.031199,1149.143247,518.144159,9474.636058
1820.031516,1225.752797,592.164754,9252.574275
1820.031834,1149.143247,444.123565,9474.636058
1820.032151,689.485948,518.144159,9622.677246
1820.032468,995.924147,370.102971,9474.636058
1820.032786,766.095498,666.185348,9696.697840
1820.033103,612.876398,740.205942,9770.718434
1820.033421,766.095498,518.144159,9622.677246
1820.033738,995.924147,592.164754,9622.677246
1820.034056,1072.533697,592.164754,9548.656652
1820.034373,995.924147,666.185348,9474.636058
1820.034690,919.314598,444.123565,9252.574275
1820.035008,1455.581446,296.082377,9474.636058
1820.035325,842.705048,518.144159,9326.594869
1820.035643,919.314598,666.185348,9178.553681
1820.035960,842.705048,592.164754,9326.594869
1820.036278,1149.143247,370.102971,9400.615463
1820.036595,689.485948,296.082377,9400.615463
1820.036912,842.705048,148.041188,9178.553681
1820.037230,919.314598,-0.000000,9178.553681
1820.037547,766.095498,-0.000000,9104.533087
1820.037865,689.485948,-0.000000,9178.553681
1820.038182,536.266849,-0.000000,9474.636058
1820.038499,842.705048,-0.000000,9252.574275
1820.038817,612.876398,148.041188,9474.636058
1820.039134,459.657299,-0.000000,9326.594869
1820.039452,612.876398,148.041188,9400.615463
1820.039769,536.266849,-0.000000,9178.553681
1820.040087,459.657299,-0.000000,9104.533087
1820.040404,459.657299,-0.000000,9104.533087
1820.040721,612.876398,148.041188,9030.512492
1820.041039,689.485948,148.041188,9252.574275
1820.041356,612.876398,-0.000000,9030.512492
1820.041674,536.266849,-0.000000,8882.471304
1820.041991,842.705048,370.102971,9104.533087
1820.042308,536.266849,296.082377,9030.512492
1820.042626,919.314598,-0.000000,9104.533087
1820.042943,536.266849,222.061783,9030.512492
1820.043261,459.657299,222.061783,9178.553681
1820.043578,306.438199,296.082377,9104.533087
1820.043896,689.485948,-0.000000,9326.594869
1820.044213,0.000000,-0.000000,9474.636058
1820.044530,536.266849,-0.000000,9178.553681
1820.044848,229.828649,222.061783,9030.512492
1820.045165,459.657299,148.041188,9326.594869
1820.045483,459.657299,222.061783,9326.594869
1820.045800,306.438199,-0.000000,9400.615463
1820.046118,536.266849,148.041188,9474.636058
1820.046435,459.657299,222.061783,9474.636058
1820.046752,536.266849,296.082377,9548.656652
1820.047070,689.485948,-0.000000,9696.697840
1820.047387,536.266849,-0.000000,9770.718434
1820.047705,612.876398,370.102971,9696.697840
1820.048022,842.705048,666.185348,9622.677246
1820.048339,995.924147,518.144159,9696.697840
1820.048657,1072.533697,444.123565,9474.636058
1820.048974,1225.752797,592.164754,9548.656652
1820.049292,842.705048,888.247130,9474.636058
1820.049609,919.314598,740.205942,9400.615463
1820.049927,1149.143247,814.226536,9400.615463
1820.050244,919.314598,888.247130,9474.636058
1820.050561,995.924147,888.247130,9622.677246
1820.050879,766.095498,740.205942,9548.656652
1820.051196,766.095498,666.185348,9474.636058
1820.051514,536.266849,888.247130,9548.656652
1820.051831,842.705048,518.144159,9918.759623
1820.052148,612.876398,518.144159,9548.656652
1820.052466,459.657299,592.164754,9548.656652
1820.052783,383.047749,666.185348,9548.656652
1820.053101,306.438199,740.205942,9548.656652
1820.053418,76.609550,444.123565,9622.677246
1820.053736,76.609550,666.185348,9696.697840
1820.054053,0.000000,296.082377,9770.718434
1820.054370,229.828649,370.102971,9548.656652
1820.054688,0.000000,370.102971,9918.759623
1820.055005,153.219100,296.082377,9696.697840
1820.055323,153.219100,370.102971,9622.677246
1820.055640,0.000000,518.144159,9770.718434
1820.055958,459.657299,296.082377,9622.677246
1820.056275,306.438199,-74.020594,9844.739029
1820.056592,306.438199,444.123565,9918.759623
1820.056910,0.000000,444.123565,9622.677246
1820.057227,306.438199,222.061783,9548.656652
1820.057545,229.828649,148.041188,9548.656652
1820.057862,842.705048,296.082377,9548.656652
1820.058179,536.266849,-0.000000,9474.636058
1820.058497,459.657299,296.082377,9474.636058
1820.058814,842.705048,296.082377,9622.677246
1820.059132,766.095498,222.061783,9326.594869
1820.059449,919.314598,222.061783,9474.636058
1820.059767,383.047749,296.082377,9252.574275
1820.060084,689.485948,222.061783,9400.615463
1820.060401,612.876398,296.082377,9252.574275
1820.060719,612.876398,296.082377,9400.615463
1820.061036,919.314598,-0.000000,9326.594869
1820.061354,766.095498,222.061783,9326.594869
1820.061671,612.876398,222.061783,9178.553681
1820.061988,766.095498,-0.000000,9252.574275
1820.062306,1149.143247,222.061783,9252.574275
1820.062623,689.485948,148.041188,8956.491898
1820.062941,1149.143247,370.102971,9178.553681
1820.063258,1378.971896,296.082377,8734.430116
1820.063576,1149.143247,74.020594,8956.491898
1820.063893,1149.143247,296.082377,9030.512492
1820.064210,1149.143247,222.061783,9030.512492
1820.064528,1149.143247,-0.000000,8882.471304
1820.064845,1072.533697,-0.000000,9030.512492
1820.065163,842.705048,148.041188,9178.553681
1820.065480,1149.143247,-74.020594,8882.471304
1820.065797,536.266849,-222.061783,9030.512492
1820.066115,689.485948,-74.020594,9474.636058
1820.066432,995.924147,-296.082377,9400.615463
1820.066750,383.047749,-370.102971,9548.656652
1820.067067,459.657299,-222.061783,9474.636058
1820.067385,536.266849,-74.020594,9474.636058
1820.067702,612.876398,-74.020594,9474.636058
1820.068019,459.657299,-148.041188,9474.636058
1820.068337,689.485948,-370.102971,9696.697840
1820.068654,689.485948,-222.061783,9474.636058
1820.068972,842.705048,-0.000000,9770.718434
1820.069289,1149.143247,-74.020594,9622.677246
1820.069607,995.924147,-296.082377,9696.697840
1820.069924,1455.581446,-0.000000,9474.636058
1820.070241,1072.533697,-74.020594,9474.636058
1820.070559,919.314598,-0.000000,9548.656652
1820.070876,919.314598,-0.000000,9474.636058
1820.071194,766.095498,148.041188,9622.677246
1820.071511,842.705048,-0.000000,9474.636058
1820.071828,919.314598,-222.061783,9474.636058
1820.072146,766.095498,-74.020594,9474.636058
1820.072463,766.095498,-0.000000,9622.677246
1820.072781,842.705048,-74.020594,9696.697840
1820.073098,536.266849,-148.041188,9696.697840
1820.073416,459.657299,-0.000000,9400.615463
1820.073733,919.314598,370.102971,9252.574275
1820.074050,766.095498,296.082377,9252.574275
1820.074368,995.924147,-222.061783,9400.615463
1820.074685,612.876398,296.082377,9178.553681
1820.075003,612.876398,222.061783,9178.553681
1820.075320,612.876398,222.061783,9326.594869
1820.075637,842.705048,370.102971,9400.615463
1820.075955,689.485948,148.041188,9400.615463
1820.076272,1072.533697,592.164754,9474.636058
1820.076590,766.095498,-0.000000,9252.574275
1820.076907,995.924147,444.123565,9252.574275
1820.077225,1072.533697,370.102971,9178.553681
1820.077542,1302.362347,296.082377,9326.594869
1820.077859,1149.143247,-0.000000,8882.471304
1820.078177,1455.581446,148.041188,9104.533087
1820.078494,1378.971896,296.082377,9400.615463
1820.078812,995.924147,222.061783,9400.615463
1820.079129,1302.362347,-74.020594,9326.594869
1820.079447,1149.143247,-0.000000,9474.636058
1820.079764,1302.362347,-0.000000,9326.594869
1820.080081,1149.143247,-148.041188,9548.656652
1820.080399,919.314598,-74.020594,9474.636058
1820.080716,919.314598,-296.082377,9770.718434
1820.081034,689.485948,-222.061783,9622.677246
1820.081351,689.485948,-222.061783,9400.615463
1820.081668,689.485948,-0.000000,9696.697840
1820.081986,459.657299,-74.020594,9622.677246
1820.082303,153.219100,-296.082377,9178.553681
1820.082621,459.657299,-0.000000,9326.594869
1820.082938,383.047749,-296.082377,9474.636058
1820.083256,536.266849,-74.020594,9474.636058
1820.083573,919.314598,-148.041188,9548.656652
1820.083890,459.657299,-0.000000,9548.656652
1820.084208,612.876398,-0.000000,9178.553681
1820.084525,612.876398,-0.000000,9178.553681
1820.084843,689.485948,222.061783,9400.615463
1820.085160,842.705048,-0.000000,9400.615463
1820.085477,612.876398,-148.041188,9252.574275
1820.085795,612.876398,222.061783,9400.615463
1820.086112,689.485948,222.061783,9252.574275
1820.086430,536.266849,-0.000000,9400.615463
1820.086747,612.876398,-0.000000,9178.553681
1820.087065,766.095498,148.041188,9030.512492
1820.087382,766.095498,148.041188,9178.553681
1820.087699,689.485948,296.082377,9252.574275
1820.088017,536.266849,-0.000000,9178.553681
1820.088334,459.657299,148.041188,9178.553681
1820.088651,383.047749,222.061783,9474.636058
1820.088969,766.095498,222.061783,9326.594869
1820.089286,306.438199,-0.000000,9548.656652
1820.089604,229.828649,296.082377,9474.636058
1820.089921,1225.752797,-0.000000,9622.677246
1820.090238,842.705048,222.061783,9474.636058
1820.090556,995.924147,222.061783,9178.553681
1820.090873,1225.752797,-0.000000,9326.594869
1820.091190,1685.410096,296.082377,9252.574275
1820.091508,1225.752797,370.102971,9400.615463
1820.091825,1149.143247,222.061783,9178.553681
1820.092143,1072.533697,148.041188,9400.615463
1820.092460,1225.752797,74.020594,9474.636058
1820.092777,1072.533697,148.041188,9548.656652
1820.093095,1072.533697,-0.000000,9622.677246
1820.093412,995.924147,-0.000000,9622.677246
1820.093729,995.924147,-0.000000,9622.677246
1820.094047,995.924147,-0.000000,9548.656652
1820.094364,1072.533697,-74.020594,9696.697840
1820.094682,919.314598,-74.020594,9770.718434
1820.094999,689.485948,-148.041188,9844.739029
1820.095316,689.485948,-0.000000,9770.718434
1820.095634,766.095498,-0.000000,9696.697840
1820.095951,459.657299,-74.020594,10066.800811
1820.096268,919.314598,296.082377,9474.636058
1820.096586,919.314598,222.061783,9548.656652
1820.096903,842.705048,148.041188,9548.656652
1820.097221,919.314598,-0.000000,9548.656652
1820.097538,1149.143247,-0.000000,9474.636058
1820.097855,842.705048,-0.000000,9474.636058
1820.098173,1149.143247,-0.000000,9252.574275
1820.098490,1225.752797,-0.000000,9474.636058
1820.098807,919.314598,-0.000000,9400.615463
1820.099125,919.314598,370.102971,9474.636058
1820.099442,919.314598,296.082377,9326.594869
1820.099760,842.705048,370.102971,9400.615463
1820.100077,766.095498,148.041188,9326.594869
1820.100394,1225.752797,296.082377,9844.739029
1820.100712,1225.752797,148.041188,9474.636058
1820.101029,766.095498,148.041188,9252.574275
1820.101346,919.314598,-0.000000,9326.594869
1820.101664,842.705048,296.082377,9400.615463
1820.101981,1149.143247,222.061783,9178.553681
1820.102299,842.705048,370.102971,9178.553681
1820.102616,766.095498,444.123565,9252.574275
1820.102933,689.485948,370.102971,9400.615463
1820.103251,689.485948,370.102971,9326.594869
1820.103568,766.095498,370.102971,9252.574275
1820.103885,459.657299,-0.000000,9474.636058
1820.104203,842.705048,296.082377,9252.574275
1820.104520,1072.533697,222.061783,9474.636058
1820.104838,1072.533697,-0.000000,9474.636058
1820.105155,995.924147,370.102971,9474.636058
1820.105472,1302.362347,148.041188,9178.553681
1820.105790,1072.533697,370.102971,9178.553681
1820.106107,1225.752797,370.102971,9104.533087
1820.106424,1455.581446,444.123565,9252.574275
1820.106742,1225.752797,296.082377,9104.533087
1820.107059,995.924147,444.123565,9326.594869
1820.107377,1149.143247,222.061783,9326.594869
1820.107694,995.924147,222.061783,9622.677246
1820.108011,1225.752797,-0.000000,9326.594869
1820.108329,842.705048,-0.000000,9326.594869
1820.108646,995.924147,296.082377,9400.615463
1820.108963,842.705048,222.061783,9474.636058
1820.109281,995.924147,-0.000000,9326.594869
1820.109598,612.876398,148.041188,9474.636058
1820.109916,459.657299,148.041188,9474.636058
1820.110233,306.438199,-0.000000,9474.636058
1820.110550,306.438199,-0.000000,9400.615463
1820.110868,919.314598,-0.000000,9474.636058
1820.111185,612.876398,222.061783,9474.636058
1820.111502,459.657299,148.041188,9622.677246
1820.111820,536.266849,-0.000000,9474.636058
1820.112137,536.266849,296.082377,9474.636058
1820.112455,383.047749,444.123565,9548.656652
1820.112772,689.485948,296.082377,9400.615463
1820.113089,536.266849,444.123565,9252.574275
1820.113407,459.657299,592.164754,9474.636058
1820.113724,383.047749,444.123565,9252.574275
1820.114041,459.657299,518.144159,9178.553681
1820.114359,766.095498,444.123565,9474.636058
1820.114676,153.219100,296.082377,9400.615463
1820.114994,383.047749,370.102971,9400.615463
1820.115311,459.657299,444.123565,9400.615463
1820.115628,383.047749,296.082377,8956.491898
1820.115946,459.657299,592.164754,9326.594869
1820.116263,536.266849,666.185348,9326.594869
1820.116580,459.657299,518.144159,9252.574275
1820.116898,459.657299,666.185348,9326.594869
1820.117215,612.876398,814.226536,9770.718434
1820.117532,536.266849,592.164754,9548.656652
1820.117850,383.047749,740.205942,9770.718434
1820.118167,612.876398,518.144159,9474.636058
1820.118485,536.266849,444.123565,9474.636058
1820.118802,842.705048,444.123565,9474.636058
1820.119119,766.095498,666.185348,9474.636058
1820.119437,766.095498,518.144159,9474.636058
1820.119754,842.705048,888.247130,9474.636058
1820.120071,995.924147,518.144159,9474.636058
1820.120389,919.314598,666.185348,9548.656652
1820.120706,919.314598,666.185348,9474.636058
1820.121024,842.705048,592.164754,9696.697840
1820.121341,612.876398,444.123565,9548.656652
1820.121658,689.485948,-0.000000,9696.697840
1820.121976,689.485948,444.123565,9622.677246
1820.122293,459.657299,222.061783,9548.656652
1820.122610,459.657299,148.041188,9548.656652
1820.122928,153.219100,148.041188,9474.636058
1820.123245,229.828649,-74.020594,9400.615463
1820.123563,306.438199,-0.000000,9548.656652
1820.123880,0.000000,370.102971,9622.677246
1820.124197,306.438199,222.061783,9474.636058
1820.124515,0.000000,148.041188,9696.697840
1820.124832,0.000000,296.082377,9474.636058
1820.125149,0.000000,370.102971,9474.636058
1820.125467,229.828649,370.102971,9474.636058
1820.125784,383.047749,370.102971,9326.594869
1820.126102,612.876398,296.082377,9474.636058
1820.126419,459.657299,444.123565,9400.615463
1820.126736,612.876398,592.164754,9178.553681
1820.127054,306.438199,444.123565,8956.491898
1820.127371,612.876398,888.247130,9178.553681
1820.127688,229.828649,518.144159,9252.574275
1820.128006,536.266849,666.185348,9104.533087
1820.128323,612.876398,518.144159,9030.512492
1820.128641,612.876398,740.205942,9400.615463
1820.128958,689.485948,666.185348,9252.574275
1820.129275,689.485948,444.123565,9252.574275
1820.129593,766.095498,592.164754,9326.594869
1820.129910,919.314598,814.226536,9252.574275
1820.130227,842.705048,222.061783,9474.636058
1820.130545,766.095498,740.205942,9400.615463
1820.130862,1072.533697,444.123565,9326.594869
1820.131180,612.876398,370.102971,9474.636058
1820.131497,536.266849,370.102971,9548.656652
1820.131814,459.657299,222.061783,9474.636058
1820.132132,842.705048,296.082377,9474.636058
1820.132449,842.705048,444.123565,9622.677246
1820.132766,842.705048,370.102971,9474.636058
1820.133084,1149.143247,370.102971,9474.636058
1820.133401,1072.533697,-0.000000,9474.636058
1820.133719,459.657299,-0.000000,9548.656652
1820.134036,995.924147,-0.000000,9474.636058
1820.134353,1072.533697,-0.000000,9622.677246
1820.134671,1149.143247,296.082377,9622.677246
1820.134988,1149.143247,-0.000000,9474.636058
1820.135305,1378.971896,296.082377,9770.718434
1820.135623,1225.752797,-0.000000,9548.656652
1820.135940,1608.800546,-0.000000,9474.636058
1820.136258,1455.581446,-74.020594,9548.656652
1820.136575,1838.629195,-0.000000,9770.718434
1820.136892,1149.143247,-222.061783,9696.697840
1820.137210,842.705048,-74.020594,9622.677246
1820.137527,842.705048,-296.082377,9622.677246
1820.137844,995.924147,-74.020594,9622.677246
1820.138162,842.705048,-0.000000,9474.636058
1820.138479,612.876398,-148.041188,9474.636058
1820.138797,536.266849,-74.020594,9474.636058
1820.139114,842.705048,-222.061783,9548.656652
1820.139431,612.876398,-74.020594,9474.636058
1820.139749,995.924147,-222.061783,9622.677246
1820.140066,995.924147,-74.020594,9252.574275
1820.140383,689.485948,-296.082377,9474.636058
1820.140701,612.876398,-74.020594,9474.636058
1820.141018,766.095498,-0.000000,9474.636058
1820.141336,689.485948,-222.061783,9326.594869
1820.141653,689.485948,-0.000000,9400.615463
1820.141970,459.657299,-74.020594,9030.512492
1820.142288,842.705048,-0.000000,9252.574275
1820.142605,383.047749,-74.020594,9252.574275
1820.142922,536.266849,-74.020594,9030.512492
1820.143240,383.047749,-222.061783,9104.533087
1820.143557,612.876398,-0.000000,9104.533087
1820.143875,842.705048,-74.020594,9104.533087
1820.144192,766.095498,-0.000000,9030.512492
1820.144509,766.095498,-74.020594,8882.471304
1820.144827,536.266849,-0.000000,9178.553681
1820.145144,459.657299,222.061783,9104.533087
1820.145461,459.657299,-0.000000,9030.512492
1820.145779,689.485948,370.102971,9252.574275
1820.146096,229.828649,222.061783,9474.636058
1820.146414,229.828649,-0.000000,9030.512492
1820.146731,536.266849,-0.000000,9104.533087
1820.147048,536.266849,-0.000000,9326.594869
1820.147366,383.047749,148.041188,9178.553681
1820.147683,689.485948,148.041188,9104.533087
1820.148000,766.095498,444.123565,9104.533087
1820.148318,689.485948,370.102971,9178.553681
1820.148635,919.314598,296.082377,9104.533087
1820.148953,919.314598,222.061783,9252.574275
1820.149270,1072.533697,518.144159,9548.656652
1820.149587,689.485948,-0.000000,9474.636058
1820.149905,919.314598,-0.000000,9400.615463
1820.150222,689.485948,-0.000000,9474.636058
1820.150539,153.219100,222.061783,9474.636058
1820.150857,459.657299,-0.000000,9474.636058
1820.151174,536.266849,-0.000000,9474.636058
1820.151492,612.876398,148.041188,9770.718434
1820.151809,306.438199,-0.000000,9696.697840
1820.152126,383.047749,222.061783,9992.780217
1820.152444,306.438199,-0.000000,9844.739029
1820.152761,689.485948,296.082377,9622.677246
1820.153078,766.095498,370.102971,9622.677246
1820.153396,689.485948,296.082377,9696.697840
1820.153713,766.095498,222.061783,9992.780217
1820.154031,842.705048,-0.000000,9474.636058
1820.154348,689.485948,148.041188,9696.697840
1820.154665,766.095498,518.144159,9770.718434
1820.154983,1072.533697,370.102971,9548.656652
1820.155300,1149.143247,296.082377,9548.656652
1820.155617,689.485948,814.226536,9474.636058
1820.155935,612.876398,592.164754,9474.636058
1820.156252,612.876398,666.185348,9326.594869
1820.156570,612.876398,666.185348,9474.636058
1820.156887,612.876398,666.185348,9474.636058
1820.157204,306.438199,666.185348,9474.636058
1820.157522,612.876398,444.123565,9474.636058
1820.157839,459.657299,518.144159,9326.594869
1820.158156,459.657299,666.185348,9548.656652
1820.158474,612.876398,814.226536,9474.636058
1820.158791,612.876398,740.205942,9474.636058
1820.159109,383.047749,370.102971,9474.636058
1820.159426,229.828649,592.164754,9474.636058
1820.159743,153.219100,370.102971,9326.594869
1820.160061,383.047749,444.123565,9326.594869
1820.160378,306.438199,518.144159,9400.615463
1820.160695,536.266849,-0.000000,9474.636058
1820.161013,459.657299,296.082377,9474.636058
1820.161330,919.314598,148.041188,9548.656652
1820.161648,842.705048,-0.000000,9326.594869
1820.161965,766.095498,296.082377,9474.636058
1820.162282,1149.143247,-0.000000,9400.615463
1820.162600,1225.752797,148.041188,9326.594869
1820.162917,995.924147,-0.000000,9548.656652
1820.163234,1225.752797,-0.000000,9474.636058
1820.163552,1302.362347,-0.000000,9548.656652
1820.163869,1455.581446,-74.020594,9474.636058
1820.164187,1608.800546,-148.041188,9474.636058
1820.164504,1149.143247,-444.123565,9548.656652
1820.164821,1608.800546,-148.041188,9474.636058
1820.165139,919.314598,-296.082377,9548.656652
1820.165456,1455.581446,-222.061783,9622.677246
1820.165773,1608.800546,-370.102971,9548.656652
1820.166091,1225.752797,-148.041188,9844.739029
1820.166408,1149.143247,-370.102971,9622.677246
1820.166726,1608.800546,-518.144159,9548.656652
1820.167043,1072.533697,-296.082377,9622.677246
1820.167360,1378.971896,-518.144159,9548.656652
1820.167678,1149.143247,-0.000000,9474.636058
1820.167995,1072.533697,-370.102971,9252.574275
1820.168312,1225.752797,-444.123565,9400.615463
1820.168630,1225.752797,-222.061783,9474.636058
1820.168947,919.314598,-370.102971,9252.574275
1820.169265,1072.533697,-222.061783,9252.574275
1820.169582,1225.752797,-148.041188,9104.533087
1820.169899,995.924147,-0.000000,9178.553681
1820.170217,1072.533697,-296.082377,9030.512492
1820.170534,1225.752797,-148.041188,9326.594869
1820.170851,919.314598,-0.000000,9252.574275
1820.171169,766.095498,-0.000000,9326.594869
1820.171486,995.924147,-0.000000,8882.471304
1820.171804,919.314598,222.061783,9104.533087
1820.172121,1149.143247,-0.000000,9178.553681
1820.172438,842.705048,222.061783,9030.512492
1820.172756,766.095498,296.082377,8956.491898
1820.173073,1072.533697,296.082377,8882.471304
1820.173390,612.876398,444.123565,9252.574275
1820.173708,689.485948,296.082377,9400.615463
1820.174025,995.924147,296.082377,9252.574275
1820.174343,842.705048,296.082377,9252.574275
1820.174660,842.705048,222.061783,9474.636058
1820.174977,842.705048,-0.000000,9326.594869
1820.175295,995.924147,222.061783,9326.594869
1820.175612,1149.143247,296.082377,9252.574275
1820.175929,766.095498,222.061783,9400.615463
1820.176247,995.924147,-0.000000,9474.636058
1820.176564,995.924147,370.102971,9474.636058
1820.176882,919.314598,518.144159,9474.636058
1820.177199,995.924147,592.164754,9400.615463
1820.177516,919.314598,444.123565,9474.636058
1820.177834,1072.533697,-0.000000,9548.656652
1820.178151,919.314598,666.185348,9474.636058
1820.178468,689.485948,148.041188,9548.656652
1820.178786,842.705048,518.144159,9548.656652
1820.179103,766.095498,370.102971,9844.739029
1820.179421,766.095498,518.144159,9622.677246
1820.179738,842.705048,370.102971,9770.718434
1820.180055,536.266849,444.123565,9696.697840
1820.180373,536.266849,740.205942,9770.718434
1820.180690,306.438199,370.102971,9770.718434
1820.181007,0.000000,222.061783,9622.677246
1820.181325,306.438199,296.082377,9696.697840
1820.181642,229.828649,444.123565,9770.718434
1820.181960,459.657299,222.061783,9844.739029
1820.182277,536.266849,222.061783,9770.718434
1820.182594,459.657299,222.061783,9918.759623
1820.182912,459.657299,444.123565,9474.636058
1820.183229,689.485948,518.144159,9622.677246
1820.183546,766.095498,518.144159,9622.677246
1820.183864,766.095498,370.102971,9474.636058
1820.184181,1225.752797,222.061783,9252.574275
1820.184499,536.266849,222.061783,9474.636058
1820.184816,766.095498,518.144159,9622.677246
1820.185133,842.705048,444.123565,9474.636058
1820.185451,919.314598,370.102971,9326.594869
1820.185768,766.095498,370.102971,9474.636058
1820.186086,919.314598,296.082377,9474.636058
1820.186403,919.314598,222.061783,9474.636058
1820.186721,766.095498,148.041188,9400.615463
1820.187038,842.705048,370.102971,9400.615463
1820.187356,536.266849,148.041188,9474.636058
1820.187673,766.095498,370.102971,9326.594869
1820.187991,842.705048,518.144159,9252.574275
1820.188308,689.485948,444.123565,9252.574275
1820.188626,1302.362347,518.144159,9326.594869
1820.188943,536.266849,518.144159,9252.574275
1820.189261,766.095498,592.164754,9326.594869
1820.189578,842.705048,370.102971,9252.574275
1820.189896,842.705048,444.123565,9104.533087
1820.190213,919.314598,518.144159,8882.471304
1820.190531,689.485948,444.123565,9252.574275
1820.190848,995.924147,518.144159,9104.533087
1820.191165,766.095498,444.123565,9030.512492
1820.191483,612.876398,444.123565,9030.512492
1820.191800,842.705048,-0.000000,9252.574275
1820.192118,689.485948,444.123565,9252.574275
1820.192435,459.657299,148.041188,9252.574275
1820.192753,612.876398,-0.000000,9326.594869
1820.193070,459.657299,-0.000000,9400.615463
1820.193388,459.657299,-0.000000,9326.594869
1820.193705,153.219100,-0.000000,9400.615463
1820.194023,459.657299,222.061783,9178.553681
1820.194340,229.828649,-0.000000,9474.636058
1820.194658,76.609550,148.041188,9474.636058
1820.194975,459.657299,222.061783,9474.636058
1820.195293,153.219100,296.082377,9474.636058
1820.195610,76.609550,148.041188,9474.636058
1820.195928,306.438199,-0.000000,9474.636058
1820.196245,229.828649,-0.000000,9770.718434
1820.196563,995.924147,-0.000000,9770.718434
1820.196880,612.876398,74.020594,9474.636058
1820.197198,842.705048,296.082377,9622.677246
1820.197515,995.924147,148.041188,9548.656652
1820.197833,689.485948,370.102971,9474.636058
1820.198150,689.485948,148.041188,9622.677246
1820.198468,766.095498,296.082377,9474.636058
1820.198785,995.924147,592.164754,9474.636058
1820.199103,995.924147,370.102971,9474.636058
1820.199420,842.705048,518.144159,9474.636058
1820.199738,842.705048,296.082377,9326.594869
1820.200055,1225.752797,518.144159,9178.553681
1820.200373,995.924147,592.164754,9400.615463
1820.200690,1149.143247,370.102971,9474.636058
1820.201008,1608.800546,296.082377,9474.636058
1820.201325,766.095498,296.082377,9474.636058
1820.201643,459.657299,222.061783,9474.636058
1820.201960,766.095498,592.164754,9400.615463
1820.202277,766.095498,222.061783,9474.636058
1820.202595,459.657299,370.102971,9548.656652
1820.202912,459.657299,296.082377,9474.636058
1820.203230,459.657299,222.061783,9326.594869
1820.203547,766.095498,370.102971,9548.656652
1820.203865,689.485948,-0.000000,9474.636058
1820.204182,459.657299,-0.000000,9474.636058
1820.204500,1225.752797,296.082377,9474.636058
1820.204817,995.924147,148.041188,9326.594869
1820.205135,995.924147,148.041188,9400.615463
1820.205452,766.095498,148.041188,9474.636058
1820.205770,1378.971896,-74.020594,9326.594869
1820.206087,842.705048,-0.000000,9326.594869
1820.206405,919.314598,296.082377,9326.594869
1820.206722,1072.533697,-0.000000,9400.615463
1820.207040,919.314598,-0.000000,9326.594869
1820.207357,995.924147,-0.000000,9474.636058
1820.207675,995.924147,-0.000000,9474.636058
1820.207992,766.095498,-0.000000,9474.636058
1820.208310,612.876398,-74.020594,9548.656652
1820.208627,383.047749,222.061783,9548.656652
1820.208945,842.705048,74.020594,9474.636058
1820.209262,766.095498,370.102971,9474.636058
1820.209580,536.266849,-0.000000,9400.615463
1820.209897,459.657299,-0.000000,9400.615463
1820.210215,536.266849,148.041188,9400.615463
1820.210532,612.876398,148.041188,9178.553681
1820.210850,536.266849,148.041188,9326.594869
1820.211167,536.266849,-0.000000,9178.553681
1820.211485,612.876398,-0.000000,9326.594869
1820.211802,383.047749,370.102971,9400.615463
1820.212120,153.219100,370.102971,9474.636058
1820.212437,306.438199,222.061783,9178.553681
1820.212755,76.609550,74.020594,9252.574275
1820.213072,153.219100,296.082377,9326.594869
1820.213389,459.657299,-0.000000,9548.656652
1820.213707,153.219100,222.061783,9400.615463
1820.214024,153.219100,148.041188,9400.615463
1820.214342,153.219100,370.102971,9252.574275
1820.214659,383.047749,148.041188,9400.615463
1820.214977,229.828649,444.123565,9474.636058
1820.215294,536.266849,296.082377,9400.615463
1820.215612,306.438199,444.123565,9400.615463
1820.215929,459.657299,296.082377,9326.594869
1820.216247,459.657299,518.144159,9474.636058
1820.216564,153.219100,666.185348,9474.636058
1820.216882,306.438199,666.185348,9474.636058
1820.217199,612.876398,518.144159,9474.636058
1820.217517,536.266849,592.164754,9474.636058
1820.217834,306.438199,518.144159,9622.677246
1820.218152,766.095498,592.164754,9474.636058
1820.218469,995.924147,740.205942,9474.636058
1820.218787,1302.362347,740.205942,9252.574275
1820.219104,919.314598,666.185348,9474.636058
1820.219422,995.924147,666.185348,9474.636058
1820.219739,1149.143247,666.185348,9548.656652
1820.220057,919.314598,666.185348,9474.636058
1820.220374,766.095498,592.164754,9696.697840
1820.220692,842.705048,592.164754,9326.594869
1820.221009,766.095498,444.123565,9474.636058
1820.221327,536.266849,296.082377,9474.636058
1820.221644,459.657299,222.061783,9548.656652
1820.221962,459.657299,-0.000000,9696.697840
1820.222279,612.876398,148.041188,10066.800811
1820.222597,153.219100,-0.000000,9474.636058
1820.222914,383.047749,222.061783,9696.697840
1820.223232,306.438199,370.102971,9548.656652
1820.223549,383.047749,370.102971,9548.656652
1820.223867,306.438199,222.061783,9696.697840
1820.224184,153.219100,148.041188,9696.697840
1820.224501,383.047749,-0.000000,9844.739029
1820.224819,383.047749,-0.000000,9844.739029
1820.225136,536.266849,-74.020594,9770.718434
1820.225454,612.876398,-0.000000,9918.759623
1820.225771,459.657299,148.041188,9844.739029
1820.226089,689.485948,222.061783,9326.594869
1820.226406,612.876398,296.082377,9474.636058
1820.226724,383.047749,148.041188,9474.636058
1820.227041,306.438199,-0.000000,9918.759623
1820.227359,612.876398,222.061783,9548.656652
1820.227676,919.314598,-0.000000,9548.656652
1820.227994,919.314598,-0.000000,9696.697840
1820.228311,919.314598,-0.000000,9474.636058
1820.228629,1302.362347,-370.102971,9326.594869
1820.228946,1225.752797,-296.082377,9400.615463
1820.229264,1378.971896,296.082377,9178.553681
1820.229581,1072.533697,-0.000000,9400.615463
1820.229899,1225.752797,-0.000000,9474.636058
1820.230216,689.485948,-0.000000,9326.594869
1820.230534,842.705048,-0.000000,9326.594869
1820.230851,919.314598,-0.000000,9474.636058
1820.231169,1225.752797,-0.000000,9326.594869
1820.231486,995.924147,-0.000000,9400.615463
1820.231804,919.314598,-370.102971,9178.553681
1820.232121,1302.362347,-74.020594,9178.553681
1820.232439,842.705048,-370.102971,9178.553681
1820.232756,1072.533697,-148.041188,9030.512492
1820.233074,1149.143247,-0.000000,8956.491898
1820.233391,1072.533697,-148.041188,8956.491898
1820.233709,1072.533697,-0.000000,9030.512492
1820.234026,1072.533697,-0.000000,8956.491898
1820.234344,995.924147,-0.000000,9104.533087
1820.234661,995.924147,-74.020594,9178.553681
1820.234979,1072.533697,-0.000000,9400.615463
1820.235296,919.314598,-222.061783,9030.512492
1820.235613,1149.143247,-0.000000,9030.512492
1820.235931,1149.143247,-0.000000,9178.553681
1820.236248,919.314598,-148.041188,9030.512492
1820.236566,919.314598,-148.041188,9252.574275
1820.236883,689.485948,-0.000000,9252.574275
1820.237201,919.314598,-0.000000,9400.615463
1820.237518,689.485948,-148.041188,9400.615463
1820.237836,612.876398,-0.000000,9474.636058
1820.238153,689.485948,-0.000000,9400.615463
1820.238471,842.705048,370.102971,9474.636058
1820.238788,689.485948,-0.000000,9474.636058
1820.239106,689.485948,296.082377,9400.615463
1820.239423,995.924147,-0.000000,9548.656652
1820.239741,995.924147,222.061783,9474.636058
1820.240058,995.924147,296.082377,9326.594869
1820.240376,842.705048,370.102971,9474.636058
1820.240693,689.485948,296.082377,9474.636058
1820.241011,766.095498,370.102971,9622.677246
1820.241328,995.924147,592.164754,9548.656652
1820.241646,612.876398,296.082377,9326.594869
1820.241963,689.485948,518.144159,9474.636058
1820.242281,919.314598,-0.000000,9548.656652
1820.242598,842.705048,370.102971,9770.718434
1820.242916,842.705048,296.082377,9474.636058
1820.243233,612.876398,518.144159,9474.636058
1820.243551,612.876398,592.164754,9622.677246
1820.243868,536.266849,444.123565,9622.677246
1820.244186,689.485948,296.082377,9622.677246
1820.244503,229.828649,370.102971,9696.697840
1820.244821,76.609550,592.164754,9474.636058
1820.245138,459.657299,518.144159,9770.718434
1820.245456,229.828649,740.205942,9548.656652
1820.245773,459.657299,296.082377,9696.697840
1820.246091,612.876398,518.144159,9622.677246
1820.246408,842.705048,518.144159,9622.677246
1820.246725,842.705048,370.102971,9622.677246
1820.247043,1072.533697,888.247130,9844.739029
1820.247360,1225.752797,518.144159,9770.718434
1820.247678,1302.362347,592.164754,9548.656652
1820.247995,1149.143247,666.185348,9474.636058
1820.248313,1225.752797,592.164754,9474.636058
1820.248630,1302.362347,518.144159,9474.636058
1820.248948,1302.362347,296.082377,9474.636058
1820.249265,1149.143247,370.102971,9400.615463
1820.249583,919.314598,148.041188,9400.615463
1820.249900,1225.752797,74.020594,9474.636058
1820.250218,919.314598,148.041188,9474.636058
1820.250535,995.924147,74.020594,9252.574275
1820.250853,1072.533697,222.061783,9474.636058
1820.251170,689.485948,222.061783,9622.677246
1820.251488,612.876398,-0.000000,9696.697840
1820.251805,1072.533697,222.061783,9770.718434
1820.252123,689.485948,-0.000000,9548.656652
1820.252440,536.266849,-0.000000,9400.615463
1820.252758,536.266849,-0.000000,9474.636058
1820.253075,459.657299,-0.000000,9474.636058
1820.253393,536.266849,-0.000000,9252.574275
1820.253710,383.047749,-444.123565,9326.594869
1820.254028,766.095498,-0.000000,9252.574275
1820.254345,306.438199,-0.000000,9252.574275
1820.254663,383.047749,-0.000000,9326.594869
1820.254980,383.047749,148.041188,9326.594869
1820.255298,383.047749,148.041188,9178.553681
1820.255615,383.047749,-0.000000,9326.594869
1820.255933,536.266849,-0.000000,9252.574275
1820.256250,383.047749,-148.041188,9400.615463
1820.256568,689.485948,-74.020594,9252.574275
1820.256885,459.657299,-0.000000,9104.533087
1820.257203,383.047749,148.041188,9252.574275
1820.257520,766.095498,-0.000000,9030.512492
1820.257837,536.266849,222.061783,9326.594869
1820.258155,459.657299,-0.000000,9178.553681
1820.258472,383.047749,296.082377,9400.615463
1820.258790,306.438199,296.082377,9252.574275
1820.259107,536.266849,-0.000000,9326.594869
1820.259425,306.438199,296.082377,9622.677246
1820.259742,459.657299,222.061783,9622.677246
1820.260060,919.314598,222.061783,9252.574275
1820.260377,919.314598,-0.000000,9252.574275
1820.260695,1378.971896,370.102971,9326.594869
1820.261012,1225.752797,444.123565,9104.533087
1820.261330,1149.143247,370.102971,9326.594869
1820.261647,1532.190996,370.102971,9474.636058
1820.261965,1302.362347,518.144159,9400.615463
1820.262282,1762.019645,518.144159,9400.615463
1820.262600,1225.752797,592.164754,9696.697840
1820.262917,1608.800546,518.144159,9326.594869
1820.263235,1225.752797,-0.000000,9474.636058
1820.263552,1378.971896,148.041188,9622.677246
1820.263870,1149.143247,-0.000000,9696.697840
1820.264187,1149.143247,222.061783,9622.677246
1820.264505,995.924147,-0.000000,9622.677246
1820.264822,919.314598,-0.000000,9770.718434
1820.265140,766.095498,-0.000000,9770.718434
1820.265457,689.485948,-0.000000,9770.718434
1820.265775,766.095498,222.061783,9696.697840
1820.266092,1149.143247,296.082377,9622.677246
1820.266410,612.876398,370.102971,9622.677246
1820.266727,229.828649,370.102971,9696.697840
1820.267045,842.705048,148.041188,9548.656652
1820.267362,689.485948,148.041188,9474.636058
1820.267680,919.314598,296.082377,9622.677246
1820.267997,1302.362347,370.102971,9474.636058
1820.268315,842.705048,148.041188,9696.697840
1820.268632,919.314598,444.123565,9474.636058
1820.268949,842.705048,444.123565,9474.636058
1820.269267,689.485948,148.041188,9474.636058
1820.269584,842.705048,518.144159,9474.636058
1820.269902,842.705048,-0.000000,9252.574275
1820.270219,612.876398,370.102971,9548.656652
1820.270537,536.266849,148.041188,9548.656652
1820.270854,612.876398,222.061783,9548.656652
1820.271172,1149.143247,222.061783,9326.594869
1820.271489,766.095498,370.102971,9474.636058
1820.271807,612.876398,444.123565,9474.636058
1820.272124,766.095498,296.082377,9252.574275
1820.272442,612.876398,370.102971,9252.574275
1820.272759,919.314598,370.102971,9400.615463
1820.273077,919.314598,222.061783,9030.512492
1820.273394,459.657299,-0.000000,9326.594869
1820.273712,689.485948,296.082377,9252.574275
1820.274029,459.657299,370.102971,9252.574275
1820.274347,689.485948,222.061783,9474.636058
1820.274664,689.485948,-0.000000,9252.574275
1820.274982,919.314598,518.144159,9326.594869
1820.275299,919.314598,148.041188,9252.574275
1820.275617,995.924147,296.082377,9178.553681
1820.275934,919.314598,-0.000000,9104.533087
1820.276252,306.438199,370.102971,9548.656652
1820.276569,689.485948,74.020594,9252.574275
1820.276887,689.485948,-0.000000,9326.594869
1820.277204,612.876398,148.041188,9326.594869
1820.277522,995.924147,222.061783,9400.615463
1820.277839,766.095498,370.102971,9252.574275
1820.278157,766.095498,296.082377,9474.636058
1820.278474,612.876398,444.123565,9400.615463
1820.278792,995.924147,148.041188,9252.574275
1820.279109,1149.143247,148.041188,9326.594869
1820.279426,536.266849,-0.000000,9622.677246
1820.279744,612.876398,296.082377,9326.594869
1820.280061,459.657299,296.082377,9474.636058
1820.280379,153.219100,296.082377,9474.636058
1820.280696,76.609550,-0.000000,9548.656652
1820.281014,306.438199,-0.000000,9548.656652
1820.281331,459.657299,-0.000000,9696.697840
1820.281649,306.438199,-148.041188,9844.739029
1820.281966,459.657299,-0.000000,9622.677246
1820.282284,383.047749,222.061783,10140.821405
1820.282601,536.266849,222.061783,9770.718434
1820.282919,766.095498,222.061783,9696.697840
1820.283236,689.485948,444.123565,9548.656652
1820.283554,766.095498,222.061783,9548.656652
1820.283871,766.095498,296.082377,9474.636058
1820.284189,995.924147,296.082377,9400.615463
1820.284506,766.095498,296.082377,9400.615463
1820.284824,842.705048,444.123565,9400.615463
1820.285141,919.314598,222.061783,9326.594869
1820.285459,766.095498,370.102971,9252.574275
1820.285776,919.314598,444.123565,9326.594869
1820.286094,766.095498,444.123565,9474.636058
1820.286411,459.657299,444.123565,9474.636058
1820.286729,306.438199,-0.000000,9474.636058
1820.287046,153.219100,518.144159,9622.677246
1820.287363,0.000000,296.082377,9548.656652
1820.287681,76.609550,444.123565,9474.636058
1820.287998,306.438199,444.123565,9548.656652
1820.288315,842.705048,444.123565,9474.636058
1820.288633,536.266849,370.102971,9474.636058
1820.288950,536.266849,814.226536,9400.615463
1820.289267,536.266849,666.185348,9400.615463
1820.289585,766.095498,888.247130,9326.594869
1820.289902,766.095498,814.226536,9400.615463
1820.290219,766.095498,592.164754,9104.533087
1820.290537,766.095498,444.123565,9178.553681
1820.290854,766.095498,444.123565,9400.615463
1820.291171,689.485948,444.123565,9252.574275
1820.291489,919.314598,222.061783,9030.512492
1820.291806,689.485948,444.123565,9326.594869
1820.292124,536.266849,296.082377,9548.656652
1820.292441,612.876398,296.082377,9474.636058
1820.292758,689.485948,-0.000000,9474.636058
1820.293076,536.266849,-0.000000,9400.615463
1820.293393,689.485948,-0.000000,9474.636058
1820.293710,306.438199,148.041188,9696.697840
1820.294028,689.485948,222.061783,9400.615463
1820.294345,766.095498,370.102971,9622.677246
1820.294662,689.485948,222.061783,9400.615463
1820.294980,1149.143247,370.102971,9474.636058
1820.295297,612.876398,148.041188,9474.636058
1820.295614,919.314598,222.061783,9400.615463
1820.295932,1072.533697,-74.020594,9400.615463
1820.296249,995.924147,-0.000000,9326.594869
1820.296566,919.314598,148.041188,9474.636058
1820.296884,766.095498,-0.000000,9548.656652
1820.297201,612.876398,-0.000000,9252.574275
1820.297518,689.485948,-0.000000,9474.636058
1820.297836,766.095498,370.102971,9474.636058
1820.298153,383.047749,-0.000000,9474.636058
1820.298470,689.485948,-0.000000,9548.656652
1820.298788,612.876398,-0.000000,9474.636058
1820.299105,459.657299,-74.020594,9696.697840
1820.299422,459.657299,-74.020594,9474.636058
1820.299740,536.266849,148.041188,9400.615463
1820.300057,612.876398,-0.000000,9326.594869
1820.300374,1072.533697,-0.000000,9474.636058
1820.300692,689.485948,222.061783,9178.553681
1820.301009,689.485948,222.061783,9326.594869
1820.301327,536.266849,518.144159,9178.553681
1820.301644,689.485948,-0.000000,9326.594869
1820.301961,689.485948,-0.000000,9474.636058
1820.302279,766.095498,-0.000000,9400.615463
1820.302596,766.095498,148.041188,9474.636058
1820.302913,1072.533697,-0.000000,9326.594869
1820.303231,1225.752797,-0.000000,9030.512492
1820.303548,1072.533697,-0.000000,9474.636058
1820.303865,919.314598,148.041188,9178.553681
1820.304183,1225.752797,296.082377,9252.574275
1820.304500,1378.971896,296.082377,9400.615463
1820.304817,766.095498,592.164754,9400.615463
1820.305135,1378.971896,296.082377,9326.594869
1820.305452,1608.800546,444.123565,9326.594869
1820.305769,1225.752797,370.102971,9326.594869
1820.306087,1072.533697,-0.000000,9326.594869
1820.306404,689.485948,-0.000000,9474.636058
1820.306721,1225.752797,148.041188,9474.636058
1820.307039,1149.143247,-0.000000,9326.594869
1820.307356,1072.533697,-0.000000,9474.636058
1820.307673,995.924147,-0.000000,9400.615463
1820.307991,0.000000,296.082377,9770.718434
1820.308308,536.266849,-0.000000,9474.636058
1820.308625,459.657299,-0.000000,9474.636058
1820.308943,229.828649,-0.000000,9548.656652
1820.309260,536.266849,-0.000000,9992.780217
1820.309577,306.438199,-296.082377,9696.697840
1820.309895,459.657299,-74.020594,9696.697840
1820.310212,383.047749,-0.000000,9474.636058
1820.310530,612.876398,-0.000000,9548.656652
1820.310847,459.657299,148.041188,9474.636058
1820.311164,536.266849,-0.000000,9992.780217
1820.311482,842.705048,222.061783,9474.636058
1820.311799,536.266849,-0.000000,9696.697840
1820.312116,459.657299,-0.000000,9548.656652
1820.312434,536.266849,-0.000000,9400.615463
1820.312751,383.047749,-148.041188,9622.677246
1820.313068,689.485948,-0.000000,9548.656652
1820.313386,842.705048,-0.000000,9474.636058
1820.313703,1072.533697,-0.000000,9400.615463
1820.314020,1072.533697,-0.000000,9474.636058
1820.314338,919.314598,-148.041188,9104.533087
1820.314655,689.485948,148.041188,9400.615463
1820.314972,1302.362347,518.144159,9178.553681
1820.315290,995.924147,370.102971,9474.636058
1820.315607,689.485948,370.102971,9474.636058
1820.315924,1149.143247,370.102971,9400.615463
1820.316242,842.705048,370.102971,9474.636058
1820.316559,919.314598,370.102971,9400.615463
1820.316876,1072.533697,370.102971,9474.636058
1820.317194,1149.143247,518.144159,9252.574275
1820.317511,1762.019645,222.061783,9474.636058
1820.317828,1302.362347,370.102971,9030.512492
1820.318146,1302.362347,296.082377,9252.574275
1820.318463,1149.143247,444.123565,9326.594869
1820.318780,1072.533697,444.123565,9326.594869
1820.319098,1608.800546,222.061783,8808.450710
1820.319415,995.924147,370.102971,9252.574275
1820.319733,612.876398,148.041188,9178.553681
1820.320050,689.485948,-0.000000,9400.615463
1820.320367,995.924147,-0.000000,9326.594869
1820.320685,689.485948,-444.123565,9326.594869
1820.321002,229.828649,-370.102971,9400.615463
1820.321319,612.876398,-0.000000,9770.718434
1820.321637,536.266849,-74.020594,9400.615463
1820.321954,306.438199,-0.000000,9474.636058
1820.322271,383.047749,-0.000000,9770.718434
1820.322589,536.266849,148.041188,9474.636058
1820.322906,612.876398,-0.000000,9474.636058
1820.323223,459.657299,-0.000000,9474.636058
1820.323541,766.095498,-0.000000,9400.615463
1820.323858,383.047749,-0.000000,9474.636058
1820.324175,1149.143247,-0.000000,9474.636058
1820.324493,689.485948,-0.000000,9326.594869
1820.324810,766.095498,222.061783,9326.594869
1820.325127,919.314598,370.102971,9400.615463
1820.325445,919.314598,296.082377,9474.636058
1820.325762,995.924147,444.123565,9400.615463
1820.326079,842.705048,518.144159,9548.656652
1820.326397,995.924147,-0.000000,9474.636058
1820.326714,536.266849,222.061783,9622.677246
1820.327031,919.314598,444.123565,9770.718434
1820.327349,842.705048,222.061783,9326.594869
1820.327666,919.314598,518.144159,9474.636058
1820.327983,842.705048,518.144159,9252.574275
1820.328301,842.705048,444.123565,9400.615463
1820.328618,919.314598,666.185348,9474.636058
1820.328936,842.705048,666.185348,9474.636058
1820.329253,766.095498,370.102971,9400.615463
1820.329570,536.266849,592.164754,9474.636058
1820.329888,842.705048,370.102971,9548.656652
1820.330205,766.095498,444.123565,9252.574275
1820.330522,995.924147,740.205942,9474.636058
1820.330840,842.705048,370.102971,9400.615463
1820.331157,919.314598,444.123565,9400.615463
1820.331474,766.095498,444.123565,9326.594869
1820.331792,919.314598,370.102971,9400.615463
1820.332109,1072.533697,518.144159,9400.615463
1820.332426,1072.533697,592.164754,9252.574275
1820.332744,919.314598,518.144159,9252.574275
1820.333061,1149.143247,370.102971,9400.615463
1820.333378,766.095498,-0.000000,9474.636058
1820.333696,842.705048,296.082377,9474.636058
1820.334013,842.705048,222.061783,9474.636058
1820.334330,766.095498,296.082377,9622.677246
1820.334648,1149.143247,-222.061783,9622.677246
1820.334965,919.314598,222.061783,9474.636058
1820.335282,766.095498,-0.000000,9474.636058
1820.335600,919.314598,-0.000000,9400.615463
1820.335917,766.095498,-0.000000,9548.656652
1820.336234,766.095498,-0.000000,9622.677246
1820.336552,383.047749,74.020594,9770.718434
1820.336869,766.095498,-0.000000,9548.656652
1820.337186,766.095498,-0.000000,9548.656652
1820.337504,612.876398,-74.020594,9622.677246
1820.337821,1072.533697,-222.061783,9696.697840
1820.338139,919.314598,-74.020594,9474.636058
1820.338456,919.314598,-0.000000,9548.656652
1820.338773,919.314598,-0.000000,9548.656652
1820.339091,689.485948,-0.000000,9474.636058
1820.339408,995.924147,-0.000000,9252.574275
1820.339725,919.314598,-0.000000,9104.533087
1820.340043,766.095498,296.082377,9474.636058
1820.340360,1072.533697,-74.020594,9326.594869
1820.340677,766.095498,-0.000000,9400.615463
1820.340995,842.705048,-444.123565,9474.636058
1820.341312,766.095498,296.082377,9400.615463
1820.341629,1072.533697,148.041188,9178.553681
1820.341947,919.314598,148.041188,9104.533087
1820.342264,995.924147,-0.000000,9252.574275
1820.342581,1149.143247,518.144159,9400.615463
1820.342899,689.485948,222.061783,9400.615463
1820.343216,842.705048,444.123565,9474.636058
1820.343533,612.876398,222.061783,9326.594869
1820.343851,459.657299,296.082377,9326.594869
1820.344168,459.657299,296.082377,9474.636058
1820.344485,536.266849,370.102971,9252.574275
1820.344803,689.485948,370.102971,9178.553681
1820.345120,766.095498,370.102971,9178.553681
1820.345437,1149.143247,296.082377,9326.594869
1820.345755,842.705048,-0.000000,9178.553681
1820.346072,919.314598,-0.000000,9104.533087
1820.346389,842.705048,592.164754,9178.553681
1820.346707,995.924147,444.123565,9326.594869
1820.347024,766.095498,296.082377,9252.574275
1820.347341,689.485948,518.144159,9252.574275
1820.347659,689.485948,370.102971,9474.636058
1820.347976,766.095498,148.041188,9326.594869
1820.348294,919.314598,370.102971,9400.615463
1820.348611,919.314598,296.082377,9548.656652
1820.348928,1072.533697,-0.000000,9474.636058
1820.349246,766.095498,-0.000000,9770.718434
1820.349563,612.876398,-0.000000,9474.636058
1820.349880,459.657299,296.082377,9474.636058
1820.350198,229.828649,518.144159,9474.636058
1820.350515,459.657299,444.123565,9696.697840
1820.350832,459.657299,-0.000000,9622.677246
1820.351150,306.438199,296.082377,9622.677246
1820.351467,383.047749,222.061783,9548.656652
1820.351784,229.828649,-0.000000,9548.656652
1820.352102,766.095498,-0.000000,9770.718434
1820.352419,306.438199,74.020594,9548.656652
1820.352736,612.876398,74.020594,9548.656652
1820.353054,383.047749,370.102971,9696.697840
1820.353371,689.485948,148.041188,9474.636058
1820.353688,306.438199,592.164754,9548.656652
1820.354006,383.047749,518.144159,9622.677246
1820.354323,383.047749,444.123565,9622.677246
1820.354640,306.438199,518.144159,9474.636058
1820.354958,766.095498,370.102971,9474.636058
1820.355275,689.485948,592.164754,9548.656652
1820.355592,689.485948,444.123565,9178.553681
1820.355910,919.314598,518.144159,9548.656652
1820.356227,766.095498,444.123565,9474.636058
1820.356544,612.876398,518.144159,9252.574275
1820.356862,459.657299,666.185348,9474.636058
1820.357179,689.485948,592.164754,9400.615463
1820.357497,459.657299,740.205942,9474.636058
1820.357814,766.095498,370.102971,9474.636058
1820.358131,612.876398,444.123565,9474.636058
1820.358449,229.828649,222.061783,9548.656652
1820.358766,612.876398,370.102971,9326.594869
1820.359083,766.095498,444.123565,9474.636058
1820.359401,1149.143247,-0.000000,9696.697840
1820.359718,919.314598,444.123565,9474.636058
1820.360035,1072.533697,518.144159,9326.594869
1820.360353,1072.533697,444.123565,9178.553681
1820.360670,919.314598,444.123565,9326.594869
1820.360987,995.924147,148.041188,9252.574275
1820.361305,1072.533697,444.123565,9400.615463
1820.361622,842.705048,-0.000000,9474.636058
1820.361939,1072.533697,148.041188,9474.636058
1820.362257,842.705048,222.061783,9400.615463
1820.362574,689.485948,-0.000000,9548.656652
1820.362891,766.095498,-74.020594,9548.656652
1820.363209,766.095498,-0.000000,9400.615463
1820.363526,919.314598,-74.020594,9474.636058
1820.363843,536.266849,-0.000000,9474.636058
1820.364161,842.705048,-0.000000,9548.656652
1820.364478,459.657299,-74.020594,9548.656652
1820.364795,459.657299,-0.000000,9622.677246
1820.365113,766.095498,-0.000000,9622.677246
1820.365430,383.047749,-74.020594,9622.677246
1820.365747,536.266849,-148.041188,9252.574275
1820.366065,689.485948,-148.041188,9548.656652
1820.366382,689.485948,-148.041188,9474.636058
1820.366700,842.705048,-222.061783,9400.615463
1820.367017,842.705048,-74.020594,9326.594869
1820.367334,766.095498,-0.000000,9400.615463
1820.367652,612.876398,-0.000000,9400.615463
1820.367969,612.876398,-370.102971,9474.636058
1820.368286,536.266849,148.041188,9326.594869
1820.368604,842.705048,-0.000000,9252.574275
1820.368921,766.095498,-0.000000,9178.553681
1820.369238,995.924147,148.041188,9178.553681
1820.369556,995.924147,-0.000000,9178.553681
1820.369873,995.924147,-0.000000,9252.574275
1820.370190,1302.362347,-0.000000,8956.491898
1820.370508,1149.143247,148.041188,8956.491898
1820.370825,1225.752797,74.020594,9252.574275
1820.371142,995.924147,222.061783,9326.594869
1820.371460,612.876398,-0.000000,8808.450710
1820.371777,995.924147,370.102971,9178.553681
1820.372094,919.314598,444.123565,9030.512492
1820.372412,766.095498,444.123565,9252.574275
1820.372729,842.705048,444.123565,9252.574275
1820.373046,842.705048,-0.000000,8808.450710
1820.373364,1072.533697,370.102971,9104.533087
1820.373681,766.095498,296.082377,9400.615463
1820.373998,1072.533697,444.123565,9400.615463
1820.374316,766.095498,444.123565,9474.636058
1820.374633,842.705048,444.123565,9326.594869
1820.374950,766.095498,148.041188,9326.594869
1820.375268,842.705048,592.164754,9474.636058
1820.375585,689.485948,518.144159,9326.594869
1820.375903,536.266849,296.082377,9400.615463
1820.376220,229.828649,222.061783,9548.656652
1820.376537,229.828649,-0.000000,9400.615463
1820.376855,383.047749,296.082377,9400.615463
1820.377172,229.828649,-0.000000,9474.636058
1820.377489,229.828649,222.061783,9548.656652
1820.377807,0.000000,222.061783,9622.677246
1820.378124,-229.828649,-0.000000,9548.656652
1820.378441,229.828649,370.102971,9622.677246
1820.378759,0.000000,370.102971,9622.677246
1820.379076,0.000000,296.082377,9696.697840
1820.379393,229.828649,222.061783,9770.718434
1820.379711,76.609550,296.082377,9770.718434
1820.380028,76.609550,296.082377,9474.636058
1820.380345,153.219100,370.102971,9474.636058
1820.380663,766.095498,444.123565,9622.677246
1820.380980,612.876398,296.082377,9548.656652
1820.381297,689.485948,592.164754,9844.739029
1820.381615,459.657299,518.144159,9622.677246
1820.381932,612.876398,370.102971,9696.697840
1820.382249,536.266849,370.102971,9696.697840
1820.382567,689.485948,444.123565,9622.677246
1820.382884,612.876398,444.123565,9770.718434
1820.383201,689.485948,296.082377,9622.677246
1820.383519,842.705048,296.082377,9770.718434
1820.383836,1225.752797,148.041188,9622.677246
1820.384153,1072.533697,296.082377,9548.656652
1820.384471,995.924147,592.164754,9622.677246
1820.384788,995.924147,370.102971,9474.636058
1820.385106,1149.143247,444.123565,9474.636058
1820.385423,1455.581446,444.123565,9400.615463
1820.385740,1149.143247,592.164754,9474.636058
1820.386058,1072.533697,592.164754,9474.636058
1820.386375,1225.752797,444.123565,9400.615463
1820.386692,1378.971896,370.102971,9252.574275
1820.387010,1302.362347,370.102971,9844.739029
1820.387327,1455.581446,296.082377,9326.594869
1820.387644,1072.533697,222.061783,9474.636058
1820.387962,1149.143247,222.061783,9400.615463
1820.388279,1455.581446,-0.000000,9326.594869
1820.388596,1225.752797,370.102971,9178.553681
1820.388914,1225.752797,296.082377,9104.533087
1820.389231,1225.752797,370.102971,9326.594869
1820.389548,1072.533697,-0.000000,9252.574275
1820.389866,1072.533697,-74.020594,9178.553681
1820.390183,919.314598,-74.020594,9474.636058
1820.390500,842.705048,-0.000000,9178.553681
1820.390818,766.095498,-74.020594,9178.553681
1820.391135,536.266849,-370.102971,9104.533087
1820.391452,995.924147,-592.164754,9178.553681
1820.391770,689.485948,-74.020594,9326.594869
1820.392087,459.657299,-74.020594,9178.553681
1820.392405,229.828649,-148.041188,9400.615463
1820.392722,459.657299,-444.123565,9326.594869
1820.393039,612.876398,-444.123565,9400.615463
1820.393357,76.609550,-296.082377,9400.615463
1820.393674,383.047749,-518.144159,9326.594869
1820.393991,153.219100,-518.144159,9474.636058
1820.394309,306.438199,-370.102971,9400.615463
1820.394626,536.266849,-296.082377,9252.574275
1820.394943,383.047749,-296.082377,9400.615463
1820.395261,383.047749,-148.041188,9474.636058
1820.395578,689.485948,-148.041188,9252.574275
1820.395895,1072.533697,-222.061783,9252.574275
1820.396213,612.876398,-0.000000,9474.636058
1820.396530,689.485948,-0.000000,9326.594869
1820.396847,459.657299,-0.000000,9326.594869
1820.397165,536.266849,222.061783,9474.636058
1820.397482,536.266849,148.041188,9400.615463
1820.397800,842.705048,222.061783,9252.574275
1820.398117,919.314598,148.041188,9474.636058
1820.398434,919.314598,222.061783,9326.594869
1820.398752,995.924147,222.061783,9326.594869
1820.399069,995.924147,-0.000000,9474.636058
1820.399386,919.314598,296.082377,9548.656652
1820.399704,842.705048,370.102971,9326.594869
1820.400021,689.485948,370.102971,9474.636058
1820.400338,995.924147,370.102971,9400.615463
1820.400656,383.047749,666.185348,9696.697840
1820.400973,842.705048,518.144159,9622.677246
1820.401290,1225.752797,370.102971,9474.636058
1820.401608,1149.143247,296.082377,9474.636058
1820.401925,1608.800546,370.102971,9474.636058
1820.402242,1685.410096,370.102971,9474.636058
1820.402560,1455.581446,592.164754,9474.636058
1820.402877,1685.410096,666.185348,9252.574275
1820.403195,1302.362347,518.144159,9326.594869
1820.403512,1378.971896,592.164754,9400.615463
1820.403829,1685.410096,444.123565,9400.615463
1820.404147,1302.362347,592.164754,9474.636058
1820.404464,1378.971896,370.102971,9548.656652
1820.404781,1302.362347,222.061783,9326.594869
1820.405099,612.876398,222.061783,9696.697840
1820.405416,1149.143247,-0.000000,9474.636058
1820.405733,919.314598,-74.020594,9696.697840
1820.406051,842.705048,148.041188,9696.697840
1820.406368,1072.533697,-0.000000,9696.697840
1820.406685,612.876398,296.082377,9844.739029
1820.407003,766.095498,296.082377,9548.656652
1820.407320,536.266849,370.102971,9400.615463
1820.407637,459.657299,370.102971,9548.656652
1820.407955,306.438199,-0.000000,9474.636058
1820.408272,612.876398,148.041188,9474.636058
1820.408590,536.266849,-0.000000,9548.656652
1820.408907,306.438199,-74.020594,9474.636058
1820.409224,766.095498,-148.041188,9400.615463
1820.409542,383.047749,-0.000000,9104.533087
1820.409859,383.047749,296.082377,9474.636058
1820.410176,536.266849,296.082377,9326.594869
1820.410494,459.657299,222.061783,9326.594869
1820.410811,459.657299,148.041188,9178.553681
1820.411128,383.047749,-0.000000,9474.636058
1820.411446,229.828649,-0.000000,9474.636058
1820.411763,612.876398,-0.000000,9400.615463
1820.412080,689.485948,222.061783,9252.574275
1820.412398,459.657299,222.061783,9252.574275
1820.412715,459.657299,148.041188,9252.574275
1820.413032,612.876398,148.041188,9178.553681
1820.413350,766.095498,222.061783,9178.553681
1820.413667,766.095498,444.123565,8956.491898
1820.413985,536.266849,222.061783,9400.615463
1820.414302,612.876398,148.041188,9252.574275
1820.414619,536.266849,-0.000000,9178.553681
1820.414937,306.438199,148.041188,9326.594869
1820.415254,612.876398,296.082377,9400.615463
1820.415571,229.828649,296.082377,9326.594869
1820.415889,766.095498,-0.000000,9400.615463
1820.416206,536.266849,-0.000000,9622.677246
1820.416523,1149.143247,222.061783,9474.636058
1820.416841,1072.533697,370.102971,9474.636058
1820.417158,1378.971896,370.102971,9400.615463
1820.417475,1225.752797,592.164754,9400.615463
1820.417793,1225.752797,518.144159,9474.636058
1820.418110,1455.581446,592.164754,9252.574275
1820.418427,1302.362347,592.164754,9474.636058
1820.418745,1532.190996,444.123565,9326.594869
1820.419062,995.924147,148.041188,9400.615463
1820.419380,995.924147,370.102971,9474.636058
1820.419697,1072.533697,296.082377,9548.656652
1820.420014,1149.143247,222.061783,9548.656652
1820.420332,1072.533697,-296.082377,9696.697840
1820.420649,766.095498,-0.000000,9696.697840
1820.420966,766.095498,-0.000000,9622.677246
1820.421284,612.876398,-0.000000,9622.677246
1820.421601,612.876398,-0.000000,9770.718434
1820.421918,459.657299,-74.020594,9548.656652
1820.422236,459.657299,-74.020594,9696.697840
1820.422553,306.438199,-296.082377,9548.656652
1820.422870,536.266849,-0.000000,9770.718434
1820.423188,536.266849,-0.000000,9548.656652
1820.423505,842.705048,-0.000000,9400.615463
1820.423822,459.657299,-0.000000,9474.636058
1820.424140,612.876398,444.123565,9178.553681
1820.424457,459.657299,518.144159,9474.636058
1820.424775,459.657299,222.061783,9474.636058
1820.425092,459.657299,-74.020594,9474.636058
1820.425409,306.438199,222.061783,9400.615463
1820.425727,306.438199,-0.000000,9474.636058
1820.426044,153.219100,74.020594,9474.636058
1820.426361,383.047749,296.082377,9326.594869
1820.426679,536.266849,148.041188,9474.636058
1820.426996,612.876398,296.082377,9400.615463
1820.427313,536.266849,296.082377,9474.636058
1820.427631,459.657299,518.144159,9326.594869
1820.427948,766.095498,370.102971,9400.615463
1820.428265,842.705048,-0.000000,9326.594869
1820.428583,612.876398,518.144159,9252.574275
1820.428900,612.876398,518.144159,9104.533087
1820.429217,842.705048,444.123565,9178.553681
1820.429535,612.876398,592.164754,9178.553681
1820.429852,919.314598,518.144159,9104.533087
1820.430170,919.314598,666.185348,9252.574275
1820.430487,1072.533697,370.102971,9104.533087
1820.430804,1149.143247,296.082377,8956.491898
1820.431122,1149.143247,666.185348,9104.533087
1820.431439,1149.143247,370.102971,9030.512492
1820.431756,1225.752797,222.061783,9326.594869
1820.432074,1149.143247,370.102971,9178.553681
1820.432391,1149.143247,222.061783,9252.574275
1820.432708,1072.533697,-296.082377,9400.615463
1820.433026,1149.143247,296.082377,9474.636058
1820.433343,919.314598,370.102971,9252.574275
1820.433660,995.924147,-0.000000,9400.615463
1820.433978,766.095498,148.041188,9474.636058
1820.434295,919.314598,370.102971,9548.656652
1820.434612,995.924147,-0.000000,9548.656652
1820.434930,1072.533697,296.082377,9474.636058
1820.435247,766.095498,370.102971,9622.677246
1820.435565,689.485948,-0.000000,9474.636058
1820.435882,995.924147,-0.000000,9622.677246
1820.436199,842.705048,-148.041188,9548.656652
1820.436517,612.876398,-222.061783,9548.656652
1820.436834,689.485948,-148.041188,9474.636058
1820.437151,1225.752797,-74.020594,9844.739029
1820.437469,919.314598,-0.000000,9696.697840
1820.437786,919.314598,-0.000000,9474.636058
1820.438103,689.485948,-148.041188,9696.697840
1820.438421,612.876398,-148.041188,9474.636058
1820.438738,995.924147,-0.000000,9548.656652
1820.439055,689.485948,-0.000000,9548.656652
1820.439373,612.876398,-0.000000,9696.697840
1820.439690,612.876398,-0.000000,9548.656652
1820.440007,766.095498,-0.000000,9474.636058
1820.440325,842.705048,-0.000000,9474.636058
1820.440642,766.095498,-0.000000,9548.656652
1820.440960,766.095498,-0.000000,9474.636058
1820.441277,689.485948,-0.000000,9400.615463
1820.441594,536.266849,-0.000000,9400.615463
1820.441912,229.828649,-74.020594,9696.697840
1820.442229,306.438199,444.123565,9474.636058
1820.442546,536.266849,296.082377,9400.615463
1820.442864,306.438199,222.061783,9474.636058
1820.443181,689.485948,222.061783,9474.636058
1820.443498,612.876398,370.102971,9918.759623
1820.443816,842.705048,444.123565,9252.574275
1820.444133,995.924147,592.164754,9252.574275
1820.444450,1072.533697,592.164754,9178.553681
1820.444768,2145.067394,518.144159,9030.512492
1820.445085,1149.143247,666.185348,8956.491898
1820.445402,1608.800546,740.205942,8956.491898
1820.445720,1455.581446,592.164754,9104.533087
1820.446037,1149.143247,592.164754,8882.471304
1820.446355,1072.533697,370.102971,9326.594869
1820.446672,919.314598,296.082377,9178.553681
1820.446989,459.657299,296.082377,9252.574275
1820.447307,689.485948,296.082377,9474.636058
1820.447624,995.924147,-222.061783,9326.594869
1820.447941,383.047749,-0.000000,9474.636058
1820.448259,229.828649,-0.000000,9474.636058
1820.448576,383.047749,-0.000000,9548.656652
1820.448893,153.219100,-0.000000,9770.718434
1820.449211,306.438199,-0.000000,9622.677246
1820.449528,383.047749,-0.000000,9770.718434
1820.449845,306.438199,222.061783,9696.697840
1820.450163,306.438199,370.102971,9696.697840
1820.450480,459.657299,222.061783,9548.656652
1820.450797,766.095498,74.020594,9474.636058
1820.451115,536.266849,222.061783,9474.636058
1820.451432,689.485948,-0.000000,9548.656652
1820.451750,689.485948,-0.000000,9474.636058
1820.452067,919.314598,-0.000000,9474.636058
1820.452384,689.485948,-0.000000,9474.636058
1820.452702,689.485948,370.102971,9548.656652
1820.453019,459.657299,148.041188,9548.656652
1820.453336,306.438199,222.061783,9770.718434
1820.453654,612.876398,296.082377,9696.697840
1820.453971,689.485948,-0.000000,9844.739029
1820.454288,766.095498,148.041188,9844.739029
1820.454606,995.924147,296.082377,9474.636058
1820.454923,766.095498,222.061783,9548.656652
1820.455240,995.924147,-0.000000,9400.615463
1820.455558,766.095498,148.041188,9474.636058
1820.455875,766.095498,370.102971,9326.594869
1820.456192,689.485948,444.123565,9400.615463
1820.456510,536.266849,370.102971,9326.594869
1820.456827,766.095498,-0.000000,9178.553681
1820.457145,612.876398,296.082377,8956.491898
1820.457462,459.657299,-0.000000,9548.656652
1820.457779,612.876398,148.041188,9178.553681
1820.458097,689.485948,222.061783,9326.594869
1820.458414,766.095498,-0.000000,9548.656652
1820.458731,612.876398,444.123565,9252.574275
1820.459049,612.876398,370.102971,9326.594869
1820.459366,766.095498,444.123565,9400.615463
1820.459683,766.095498,444.123565,9104.533087
1820.460001,766.095498,518.144159,9400.615463
1820.460318,1072.533697,814.226536,9030.512492
1820.460635,919.314598,518.144159,8882.471304
1820.460953,1072.533697,518.144159,8956.491898
1820.461270,995.924147,518.144159,9030.512492
1820.461587,995.924147,296.082377,9178.553681
1820.461905,1302.362347,296.082377,9030.512492
1820.462222,919.314598,370.102971,9104.533087
1820.462540,842.705048,222.061783,9104.533087
1820.462857,766.095498,-0.000000,9178.553681
1820.463174,689.485948,148.041188,9252.574275
1820.463492,689.485948,74.020594,9400.615463
1820.463809,536.266849,-0.000000,9474.636058
1820.464126,536.266849,-0.000000,9548.656652
1820.464444,459.657299,-0.000000,9548.656652
1820.464761,766.095498,-0.000000,9992.780217
1820.465078,766.095498,-0.000000,9696.697840
1820.465396,919.314598,-0.000000,9622.677246
1820.465713,842.705048,-0.000000,9844.739029
1820.466030,842.705048,-0.000000,9918.759623
1820.466348,1072.533697,-0.000000,9844.739029
1820.466665,1072.533697,222.061783,9548.656652
1820.466982,919.314598,-0.000000,9474.636058
1820.467300,919.314598,148.041188,9474.636058
1820.467617,1455.581446,74.020594,9474.636058
1820.467935,995.924147,-0.000000,9474.636058
1820.468252,612.876398,-148.041188,9548.656652
1820.468569,766.095498,-0.000000,9622.677246
1820.468887,689.485948,-148.041188,9474.636058
1820.469204,612.876398,-148.041188,9474.636058
1820.469521,919.314598,-0.000000,9918.759623
1820.469839,306.438199,-148.041188,9548.656652
1820.470156,612.876398,148.041188,9770.718434
1820.470473,306.438199,296.082377,9696.697840
1820.470791,306.438199,222.061783,9770.718434
1820.471108,612.876398,296.082377,9474.636058
1820.471425,536.266849,222.061783,9326.594869
1820.471743,536.266849,592.164754,9474.636058
1820.472060,766.095498,444.123565,9474.636058
1820.472377,1455.581446,222.061783,9622.677246
1820.472695,842.705048,518.144159,9400.615463
1820.473012,1302.362347,518.144159,9030.512492
1820.473330,1149.143247,222.061783,9104.533087
1820.473647,1225.752797,222.061783,9252.574275
1820.473964,766.095498,444.123565,9178.553681
1820.474282,995.924147,444.123565,9178.553681
1820.474599,1072.533697,296.082377,9030.512492
1820.474916,919.314598,296.082377,9326.594869
1820.475234,919.314598,-0.000000,9622.677246
1820.475551,842.705048,296.082377,9400.615463
1820.475868,1149.143247,-0.000000,9326.594869
1820.476186,536.266849,370.102971,9400.615463
1820.476503,842.705048,222.061783,9474.636058
1820.476820,1302.362347,-74.020594,9548.656652
1820.477138,536.266849,222.061783,9326.594869
1820.477455,842.705048,296.082377,9326.594869
1820.477772,536.266849,370.102971,9400.615463
1820.478090,383.047749,222.061783,9326.594869
1820.478407,689.485948,-74.020594,9400.615463
1820.478725,612.876398,148.041188,9548.656652
1820.479042,612.876398,296.082377,9252.574275
1820.479359,459.657299,-0.000000,9474.636058
1820.479677,842.705048,-0.000000,9326.594869
1820.479994,383.047749,222.061783,9548.656652
1820.480311,383.047749,-0.000000,9474.636058
1820.480629,306.438199,-0.000000,9474.636058
1820.480946,229.828649,148.041188,9696.697840
1820.481263,536.266849,-0.000000,9622.677246
1820.481581,383.047749,222.061783,9548.656652
1820.481898,383.047749,222.061783,9622.677246
1820.482215,689.485948,592.164754,9326.594869
1820.482533,459.657299,370.102971,9326.594869
1820.482850,919.314598,444.123565,9474.636058
1820.483167,766.095498,370.102971,9400.615463
1820.483485,919.314598,296.082377,9474.636058
1820.483802,766.095498,222.061783,9400.615463
1820.484120,766.095498,296.082377,9474.636058
1820.484437,536.266849,518.144159,9400.615463
1820.484754,459.657299,370.102971,9400.615463
1820.485072,459.657299,444.123565,9474.636058
1820.485389,306.438199,296.082377,9622.677246
1820.485706,-536.266849,148.041188,9622.677246
1820.486024,536.266849,444.123565,9474.636058
1820.486341,459.657299,222.061783,9548.656652
1820.486658,766.095498,222.061783,9474.636058
1820.486976,766.095498,444.123565,9474.636058
1820.487293,1149.143247,740.205942,9770.718434
1820.487611,1225.752797,518.144159,9474.636058
1820.487928,1302.362347,518.144159,9400.615463
1820.488245,1225.752797,592.164754,9104.533087
1820.488563,1072.533697,296.082377,9326.594869
1820.488880,1915.238745,-0.000000,9252.574275
1820.489197,1072.533697,-0.000000,9400.615463
1820.489515,1149.143247,222.061783,9400.615463
1820.489832,689.485948,222.061783,9400.615463
1820.490150,919.314598,-0.000000,9474.636058
1820.490467,842.705048,-370.102971,9474.636058
1820.490784,689.485948,-0.000000,9474.636058
1820.491102,842.705048,-0.000000,9548.656652
1820.491419,766.095498,-0.000000,9474.636058
1820.491737,842.705048,-74.020594,9326.594869
1820.492054,766.095498,-148.041188,9474.636058
1820.492371,459.657299,-0.000000,9474.636058
1820.492689,766.095498,-0.000000,9474.636058
1820.493006,766.095498,-0.000000,9474.636058
1820.493324,459.657299,148.041188,9474.636058
1820.493641,919.314598,148.041188,9474.636058
1820.493958,919.314598,148.041188,9252.574275
1820.494276,689.485948,222.061783,9104.533087
1820.494593,766.095498,296.082377,9252.574275
1820.494911,459.657299,-0.000000,9178.553681
1820.495228,229.828649,-74.020594,9326.594869
1820.495545,536.266849,-0.000000,9252.574275
1820.495863,536.266849,222.061783,9400.615463
1820.496180,766.095498,-0.000000,9252.574275
1820.496498,766.095498,-0.000000,9326.594869
1820.496815,766.095498,-0.000000,9400.615463
1820.497132,842.705048,148.041188,9104.533087
1820.497450,919.314598,370.102971,9178.553681
1820.497767,995.924147,296.082377,9178.553681
1820.498084,919.314598,222.061783,8956.491898
1820.498402,919.314598,222.061783,9178.553681
1820.498719,842.705048,370.102971,9178.553681
1820.499037,689.485948,370.102971,9104.533087
1820.499354,612.876398,444.123565,9178.553681
1820.499671,459.657299,518.144159,8956.491898
1820.499989,842.705048,370.102971,9326.594869
1820.500306,536.266849,222.061783,9400.615463
1820.500624,919.314598,-0.000000,9400.615463
1820.500941,766.095498,-0.000000,9400.615463
1820.501258,842.705048,222.061783,9474.636058
1820.501576,1072.533697,296.082377,9474.636058
1820.501893,766.095498,148.041188,9474.636058
1820.502211,689.485948,370.102971,9474.636058
1820.502528,842.705048,296.082377,9474.636058
1820.502845,1455.581446,444.123565,9548.656652
1820.503163,766.095498,296.082377,9548.656652
1820.503480,919.314598,444.123565,9474.636058
1820.503798,766.095498,370.102971,9474.636058
1820.504115,919.314598,-0.000000,9548.656652
1820.504432,383.047749,-0.000000,9474.636058
1820.504750,459.657299,296.082377,9844.739029
1820.505067,842.705048,-0.000000,9474.636058
1820.505385,612.876398,222.061783,9474.636058
1820.505702,459.657299,-0.000000,9696.697840
1820.506019,612.876398,-0.000000,9770.718434
1820.506337,536.266849,-0.000000,9548.656652
1820.506654,536.266849,148.041188,9770.718434
1820.506971,229.828649,-0.000000,9548.656652
1820.507289,306.438199,-0.000000,9474.636058
1820.507606,536.266849,-148.041188,9622.677246
1820.507924,842.705048,-74.020594,9474.636058
1820.508241,689.485948,-0.000000,9474.636058
1820.508558,842.705048,370.102971,9622.677246
1820.508876,919.314598,-0.000000,9474.636058
1820.509193,919.314598,370.102971,9474.636058
1820.509511,919.314598,444.123565,9474.636058
1820.509828,919.314598,444.123565,9400.615463
1820.510145,995.924147,370.102971,9252.574275
1820.510463,919.314598,518.144159,9474.636058
1820.510780,1149.143247,296.082377,9474.636058
1820.511098,689.485948,148.041188,9400.615463
1820.511415,919.314598,-0.000000,9178.553681
1820.511732,919.314598,-0.000000,9252.574275
1820.512050,1149.143247,-0.000000,9400.615463
1820.512367,842.705048,296.082377,9400.615463
1820.512685,842.705048,444.123565,9326.594869
1820.513002,612.876398,370.102971,9400.615463
1820.513319,612.876398,370.102971,9326.594869
1820.513637,842.705048,-0.000000,9326.594869
1820.513954,612.876398,444.123565,9474.636058
1820.514271,612.876398,370.102971,9474.636058
1820.514589,612.876398,518.144159,9252.574275
1820.514906,689.485948,370.102971,9474.636058
1820.515224,1072.533697,222.061783,9474.636058
1820.515541,919.314598,296.082377,9178.553681
1820.515858,766.095498,518.144159,9252.574275
1820.516176,995.924147,370.102971,9252.574275
1820.516493,1302.362347,370.102971,9252.574275
1820.516811,919.314598,222.061783,9178.553681
1820.517128,1225.752797,-0.000000,9178.553681
1820.517445,689.485948,74.020594,9474.636058
1820.517763,766.095498,-0.000000,9326.594869
1820.518080,842.705048,-0.000000,9696.697840
1820.518398,536.266849,-0.000000,9474.636058
1820.518715,612.876398,-0.000000,9474.636058
1820.519032,612.876398,-0.000000,9400.615463
1820.519350,612.876398,148.041188,9474.636058
1820.519667,612.876398,-0.000000,9474.636058
1820.519985,536.266849,-0.000000,9474.636058
1820.520302,153.219100,-0.000000,9400.615463
1820.520619,0.000000,148.041188,9548.656652
1820.520937,306.438199,-0.000000,9696.697840
1820.521254,766.095498,-0.000000,9474.636058
1820.521572,229.828649,-0.000000,9474.636058
1820.521889,306.438199,148.041188,9696.697840
1820.522206,459.657299,148.041188,9548.656652
1820.522524,153.219100,-0.000000,9548.656652
1820.522841,306.438199,222.061783,9252.574275
1820.523158,536.266849,296.082377,9622.677246
1820.523476,766.095498,518.144159,9548.656652
1820.523793,842.705048,370.102971,9474.636058
1820.524111,689.485948,222.061783,9178.553681
1820.524428,536.266849,296.082377,9326.594869
1820.524745,536.266849,444.123565,9474.636058
1820.525063,995.924147,296.082377,9474.636058
1820.525380,919.314598,370.102971,9474.636058
1820.525698,1072.533697,518.144159,9474.636058
1820.526015,1225.752797,444.123565,9252.574275
1820.526332,842.705048,370.102971,9326.594869
1820.526650,919.314598,592.164754,9400.615463
1820.526967,842.705048,296.082377,9326.594869
1820.527285,689.485948,370.102971,9474.636058
1820.527602,689.485948,592.164754,9474.636058
1820.527919,612.876398,444.123565,9474.636058
1820.528237,919.314598,518.144159,9474.636058
1820.528554,766.095498,222.061783,9326.594869
1820.528872,995.924147,296.082377,9474.636058
1820.529189,842.705048,222.061783,9326.594869
1820.529506,1072.533697,370.102971,9178.553681
1820.529824,1072.533697,518.144159,9400.615463
1820.530141,1072.533697,296.082377,9326.594869
1820.530459,1072.533697,444.123565,9400.615463
1820.530776,1072.533697,444.123565,9104.533087
1820.531093,1072.533697,370.102971,9178.553681
1820.531411,995.924147,370.102971,9400.615463
1820.531728,842.705048,-0.000000,9178.553681
1820.532045,995.924147,-0.000000,9326.594869
1820.532363,612.876398,-222.061783,9474.636058
1820.532680,536.266849,-222.061783,9474.636058
1820.532998,612.876398,-222.061783,9474.636058
1820.533315,76.609550,-148.041188,9548.656652
1820.533632,612.876398,-74.020594,9474.636058
1820.533950,229.828649,-148.041188,9622.677246
1820.534267,383.047749,-0.000000,9548.656652
1820.534585,0.000000,-222.061783,9622.677246
1820.534902,229.828649,-0.000000,9622.677246
1820.535219,306.438199,-0.000000,9474.636058
1820.535537,536.266849,-74.020594,9622.677246
1820.535854,536.266849,-222.061783,9622.677246
1820.536172,229.828649,-74.020594,9844.739029
1820.536489,842.705048,-0.000000,9474.636058
1820.536806,536.266849,-74.020594,9326.594869
1820.537124,842.705048,-0.000000,9474.636058
1820.537441,766.095498,148.041188,9400.615463
1820.537759,1072.533697,444.123565,9474.636058
1820.538076,842.705048,148.041188,9178.553681
1820.538393,689.485948,370.102971,9252.574275
1820.538711,919.314598,148.041188,9252.574275
1820.539028,1149.143247,148.041188,9400.615463
1820.539345,1149.143247,-0.000000,9474.636058
1820.539663,1072.533697,222.061783,9252.574275
1820.539980,1072.533697,-0.000000,9400.615463
1820.540298,1302.362347,148.041188,9178.553681
1820.540615,842.705048,-0.000000,9252.574275
1820.540932,1072.533697,222.061783,9474.636058
1820.541250,1149.143247,370.102971,9252.574275
1820.541567,1072.533697,370.102971,9252.574275
1820.541885,689.485948,518.144159,9326.594869
1820.542202,1072.533697,370.102971,9474.636058
1820.542519,995.924147,296.082377,9400.615463
1820.542837,842.705048,518.144159,9474.636058
1820.543154,1149.143247,444.123565,9326.594869
1820.543472,1378.971896,518.144159,9326.594869
1820.543789,1685.410096,444.123565,9252.574275
1820.544106,1072.533697,370.102971,9474.636058
1820.544424,1302.362347,370.102971,9326.594869
1820.544741,1225.752797,370.102971,9326.594869
1820.545059,1072.533697,370.102971,9474.636058
1820.545376,995.924147,370.102971,9474.636058
1820.545693,995.924147,222.061783,9474.636058
1820.546011,459.657299,-0.000000,9474.636058
1820.546328,689.485948,222.061783,9548.656652
1820.546646,842.705048,-0.000000,9400.615463
1820.546963,1302.362347,296.082377,9622.677246
1820.547280,612.876398,-0.000000,9548.656652
1820.547598,383.047749,-0.000000,9474.636058
1820.547915,306.438199,222.061783,9548.656652
1820.548232,0.000000,148.041188,9474.636058
1820.548550,306.438199,-0.000000,9770.718434
1820.548867,0.000000,-0.000000,9696.697840
1820.549185,0.000000,-0.000000,9770.718434
1820.549502,76.609550,-0.000000,9770.718434
1820.549819,229.828649,-0.000000,9696.697840
1820.550137,536.266849,-0.000000,9622.677246
1820.550454,459.657299,222.061783,9622.677246
1820.550772,153.219100,370.102971,9474.636058
1820.551089,306.438199,518.144159,9548.656652
1820.551406,1072.533697,296.082377,9474.636058
1820.551724,306.438199,296.082377,9400.615463
1820.552041,536.266849,592.164754,9622.677246
1820.552359,766.095498,592.164754,9474.636058
1820.552676,612.876398,444.123565,9252.574275
1820.552993,1225.752797,444.123565,9252.574275
1820.553311,1072.533697,370.102971,9178.553681
1820.553628,1072.533697,370.102971,9030.512492
1820.553946,919.314598,296.082377,9252.574275
1820.554263,1149.143247,370.102971,9252.574275
1820.554580,1072.533697,296.082377,9400.615463
1820.554898,689.485948,148.041188,9252.574275
1820.555215,536.266849,592.164754,9400.615463
1820.555533,536.266849,444.123565,9400.615463
1820.555850,689.485948,-0.000000,9474.636058
1820.556167,842.705048,666.185348,9844.739029
1820.556485,536.266849,296.082377,9474.636058
1820.556802,766.095498,370.102971,9474.636058
1820.557119,919.314598,222.061783,9474.636058
1820.557437,766.095498,-0.000000,9548.656652
1820.557754,1455.581446,370.102971,9844.739029
1820.558072,1532.190996,296.082377,9326.594869
1820.558389,1225.752797,444.123565,9400.615463
1820.558706,1302.362347,148.041188,9178.553681
1820.559024,1608.800546,296.082377,9326.594869
1820.559341,1378.971896,222.061783,9400.615463
1820.559659,1225.752797,222.061783,9326.594869
1820.559976,1225.752797,-0.000000,9252.574275
1820.560293,1072.533697,-0.000000,9400.615463
1820.560611,842.705048,-222.061783,9400.615463
1820.560928,842.705048,-0.000000,9474.636058
1820.561246,689.485948,-222.061783,9326.594869
1820.561563,689.485948,-0.000000,9252.574275
1820.561880,383.047749,-74.020594,9474.636058
1820.562198,383.047749,-0.000000,9474.636058
1820.562515,459.657299,-0.000000,9474.636058
1820.562833,229.828649,-0.000000,9474.636058
1820.563150,383.047749,-0.000000,9326.594869
1820.563467,229.828649,-0.000000,9400.615463
1820.563785,229.828649,-0.000000,9326.594869
1820.564102,459.657299,148.041188,9474.636058
1820.564419,459.657299,-0.000000,9400.615463
1820.564737,842.705048,-148.041188,9474.636058
1820.565054,689.485948,-148.041188,9400.615463
1820.565372,536.266849,-0.000000,9548.656652
1820.565689,459.657299,-0.000000,9252.574275
1820.566006,383.047749,74.020594,9474.636058
1820.566324,306.438199,-0.000000,9474.636058
1820.566641,306.438199,148.041188,9548.656652
1820.566959,612.876398,-0.000000,9252.574275
1820.567276,536.266849,148.041188,9400.615463
1820.567593,919.314598,148.041188,9474.636058
1820.567911,459.657299,296.082377,9474.636058
1820.568228,612.876398,222.061783,9474.636058
1820.568546,766.095498,296.082377,9400.615463
1820.568863,1072.533697,-0.000000,9326.594869
1820.569180,995.924147,370.102971,9326.594869
1820.569498,1072.533697,666.185348,9474.636058
1820.569815,919.314598,444.123565,9474.636058
1820.570133,995.924147,518.144159,9474.636058
1820.570450,995.924147,592.164754,9474.636058
1820.570767,842.705048,518.144159,9326.594869
1820.571085,1302.362347,222.061783,9326.594869
1820.571402,1455.581446,814.226536,9326.594869
1820.571720,1455.581446,370.102971,9326.594869
1820.572037,1378.971896,518.144159,9548.656652
1820.572354,1302.362347,518.144159,9474.636058
1820.572672,1455.581446,370.102971,9326.594869
1820.572989,1149.143247,296.082377,9474.636058
1820.573306,1455.581446,444.123565,9474.636058
1820.573624,1225.752797,444.123565,9326.594869
1820.573941,1302.362347,370.102971,9474.636058
1820.574259,1149.143247,296.082377,9474.636058
1820.574576,995.924147,518.144159,9474.636058
1820.574893,919.314598,148.041188,9548.656652
1820.575211,689.485948,296.082377,9474.636058
1820.575528,689.485948,370.102971,9474.636058
1820.575846,842.705048,-0.000000,9770.718434
1820.576163,306.438199,-74.020594,9474.636058
1820.576480,536.266849,-74.020594,9474.636058
1820.576798,383.047749,-222.061783,9696.697840
1820.577115,229.828649,-0.000000,9696.697840
1820.577433,229.828649,-148.041188,9844.739029
1820.577750,0.000000,-74.020594,9918.759623
1820.578067,76.609550,-0.000000,9844.739029
1820.578385,306.438199,-74.020594,9622.677246
1820.578702,459.657299,-0.000000,9548.656652
1820.579020,459.657299,148.041188,9326.594869
1820.579337,306.438199,-0.000000,9474.636058
1820.579654,612.876398,296.082377,9474.636058
1820.579972,536.266849,148.041188,9252.574275
1820.580289,383.047749,-0.000000,9474.636058
1820.580607,1149.143247,222.061783,9474.636058
1820.580924,842.705048,296.082377,9326.594869
1820.581241,612.876398,-0.000000,9030.512492
1820.581559,459.657299,296.082377,9030.512492
1820.581876,766.095498,222.061783,9400.615463
1820.582193,612.876398,-74.020594,9400.615463
1820.582511,766.095498,296.082377,9326.594869
1820.582828,612.876398,296.082377,9326.594869
1820.583146,459.657299,296.082377,9178.553681
1820.583463,689.485948,-0.000000,9326.594869
1820.583780,306.438199,-0.000000,9474.636058
1820.584098,612.876398,370.102971,9104.533087
1820.584415,229.828649,444.123565,9326.594869
1820.584733,459.657299,592.164754,9474.636058
1820.585050,842.705048,296.082377,9400.615463
1820.585367,766.095498,296.082377,9326.594869
1820.585685,536.266849,370.102971,9326.594869
1820.586002,995.924147,222.061783,9474.636058
1820.586320,842.705048,222.061783,9252.574275
1820.586637,995.924147,370.102971,9178.553681
1820.586954,1149.143247,518.144159,9400.615463
1820.587272,1225.752797,518.144159,8956.491898
1820.587589,1072.533697,518.144159,9252.574275
1820.587907,842.705048,444.123565,9326.594869
1820.588224,766.095498,-0.000000,9696.697840
1820.588541,995.924147,148.041188,9474.636058
1820.588859,995.924147,-0.000000,9474.636058
1820.589176,919.314598,-0.000000,9474.636058
1820.589494,919.314598,-0.000000,9622.677246
1820.589811,383.047749,222.061783,9770.718434
1820.590128,919.314598,444.123565,9548.656652
1820.590446,766.095498,222.061783,9622.677246
1820.590763,612.876398,148.041188,9474.636058
1820.591081,766.095498,-0.000000,9548.656652
1820.591398,919.314598,-0.000000,9696.697840
1820.591715,612.876398,-0.000000,9474.636058
1820.592033,689.485948,-0.000000,9696.697840
1820.592350,689.485948,-0.000000,9548.656652
1820.592668,1225.752797,-0.000000,9548.656652
1820.592985,383.047749,222.061783,9918.759623
1820.593302,842.705048,-0.000000,9474.636058
1820.593620,995.924147,-0.000000,9696.697840
1820.593937,1072.533697,-0.000000,9474.636058
1820.594255,766.095498,296.082377,9696.697840
1820.594572,995.924147,-0.000000,9474.636058
1820.594889,919.314598,-0.000000,9400.615463
1820.595207,919.314598,-0.000000,9474.636058
1820.595524,919.314598,370.102971,9474.636058
1820.595842,459.657299,370.102971,9400.615463
1820.596159,612.876398,-222.061783,9252.574275
1820.596476,689.485948,-148.041188,9548.656652
1820.596794,919.314598,-0.000000,9252.574275
1820.597111,612.876398,-222.061783,9400.615463
1820.597429,995.924147,-0.000000,9400.615463
1820.597746,689.485948,-0.000000,9326.594869
1820.598063,536.266849,-0.000000,9400.615463
1820.598381,459.657299,296.082377,9474.636058
1820.598698,689.485948,-0.000000,9474.636058
1820.599016,766.095498,-0.000000,9400.615463
1820.599333,766.095498,370.102971,9474.636058
1820.599650,919.314598,-0.000000,9252.574275
1820.599968,995.924147,370.102971,9252.574275
1820.600285,995.924147,-0.000000,9326.594869
1820.600603,1378.971896,296.082377,9030.512492
1820.600920,1302.362347,370.102971,9178.553681
1820.601237,1302.362347,444.123565,9104.533087
1820.601555,1302.362347,518.144159,8956.491898
1820.601872,1225.752797,296.082377,9252.574275
1820.602190,1149.143247,444.123565,9178.553681
1820.602507,842.705048,-0.000000,9030.512492
1820.602824,766.095498,-0.000000,9400.615463
1820.603142,1072.533697,-0.000000,9548.656652
1820.603459,612.876398,74.020594,9474.636058
1820.603777,459.657299,-0.000000,9400.615463
1820.604094,536.266849,222.061783,9474.636058
1820.604411,459.657299,148.041188,9474.636058
1820.604729,612.876398,-0.000000,9474.636058
1820.605046,153.219100,296.082377,9326.594869
1820.605364,459.657299,148.041188,9474.636058
1820.605681,229.828649,-0.000000,9326.594869
1820.605998,383.047749,-0.000000,9622.677246
1820.606316,0.000000,-0.000000,9548.656652
1820.606633,459.657299,-0.000000,9400.615463
1820.606951,459.657299,296.082377,9474.636058
1820.607268,306.438199,296.082377,9400.615463
1820.607585,536.266849,-0.000000,9474.636058
1820.607903,459.657299,444.123565,9474.636058
1820.608220,229.828649,444.123565,9548.656652
1820.608538,76.609550,296.082377,9548.656652
1820.608855,306.438199,666.185348,9548.656652
1820.609172,536.266849,370.102971,9548.656652
1820.609490,536.266849,222.061783,9548.656652
1820.609807,536.266849,148.041188,9474.636058
1820.610125,612.876398,444.123565,9474.636058
1820.610442,689.485948,740.205942,9474.636058
1820.610760,919.314598,222.061783,9548.656652
1820.611077,689.485948,444.123565,9400.615463
1820.611394,459.657299,592.164754,9474.636058
1820.611712,536.266849,370.102971,9474.636058
1820.612029,536.266849,518.144159,9548.656652
1820.612347,76.609550,518.144159,9770.718434
1820.612664,229.828649,222.061783,9474.636058
1820.612981,689.485948,518.144159,9696.697840
1820.613299,536.266849,444.123565,9770.718434
1820.613616,612.876398,296.082377,9622.677246
1820.613934,536.266849,296.082377,9696.697840
1820.614251,689.485948,370.102971,9696.697840
1820.614568,1149.143247,444.123565,9474.636058
1820.614886,919.314598,148.041188,9548.656652
1820.615203,1072.533697,518.144159,9548.656652
1820.615521,995.924147,666.185348,9918.759623
1820.615838,1378.971896,222.061783,9400.615463
1820.616155,1302.362347,666.185348,9474.636058
1820.616473,1302.362347,296.082377,9400.615463
1820.616790,1532.190996,296.082377,9400.615463
1820.617108,1302.362347,-0.000000,9326.594869
1820.617425,1455.581446,148.041188,9474.636058
1820.617742,1378.971896,-0.000000,9548.656652
1820.618060,1072.533697,-0.000000,9474.636058
1820.618377,459.657299,148.041188,9474.636058
1820.618695,919.314598,-0.000000,9178.553681
1820.619012,689.485948,370.102971,9400.615463
1820.619329,612.876398,-0.000000,9474.636058
1820.619647,612.876398,-0.000000,9474.636058
1820.619964,459.657299,370.102971,9474.636058
1820.620282,612.876398,-0.000000,9400.615463
1820.620599,536.266849,-0.000000,9548.656652
1820.620916,689.485948,148.041188,9400.615463
1820.621234,612.876398,148.041188,9252.574275
1820.621551,536.266849,-0.000000,9252.574275
1820.621869,459.657299,-0.000000,9178.553681
1820.622186,536.266849,370.102971,9178.553681
1820.622503,536.266849,222.061783,9178.553681
1820.622821,459.657299,-0.000000,9030.512492
1820.623138,306.438199,-296.082377,9104.533087
1820.623456,459.657299,-0.000000,9252.574275
1820.623773,153.219100,-0.000000,9326.594869
1820.624090,536.266849,-0.000000,9400.615463
1820.624408,536.266849,-0.000000,9104.533087
1820.624725,1149.143247,-0.000000,9474.636058
1820.625043,536.266849,-0.000000,9400.615463
1820.625360,536.266849,296.082377,9252.574275
1820.625677,459.657299,-0.000000,9252.574275
1820.625995,536.266849,148.041188,9178.553681
1820.626312,536.266849,222.061783,9400.615463
1820.626630,612.876398,222.061783,9400.615463
1820.626947,842.705048,148.041188,9474.636058
1820.627264,766.095498,222.061783,9474.636058
1820.627582,612.876398,-0.000000,9400.615463
1820.627899,919.314598,222.061783,9400.615463
1820.628217,1302.362347,148.041188,9474.636058
1820.628534,1302.362347,444.123565,9178.553681
1820.628851,1455.581446,444.123565,9178.553681
1820.629169,1532.190996,518.144159,9178.553681
1820.629486,1378.971896,370.102971,9474.636058
1820.629804,1378.971896,222.061783,9400.615463
1820.630121,1072.533697,296.082377,9474.636058
1820.630438,1072.533697,296.082377,9696.697840
1820.630756,1149.143247,148.041188,9548.656652
1820.631073,1149.143247,370.102971,9474.636058
1820.631391,1149.143247,-0.000000,9474.636058
1820.631708,1378.971896,148.041188,9622.677246
1820.632025,1225.752797,-0.000000,9474.636058
1820.632343,1225.752797,148.041188,9696.697840
1820.632660,995.924147,296.082377,9770.718434
1820.632978,995.924147,296.082377,9622.677246
1820.633295,689.485948,148.041188,9696.697840
1820.633612,1072.533697,-74.020594,9474.636058
1820.633930,689.485948,-0.000000,9770.718434
1820.634247,842.705048,-0.000000,9474.636058
1820.634565,536.266849,-0.000000,9696.697840
1820.634882,1072.533697,-0.000000,9548.656652
1820.635200,919.314598,-0.000000,9622.677246
1820.635517,1072.533697,-0.000000,9548.656652
1820.635834,995.924147,296.082377,9474.636058
1820.636152,995.924147,370.102971,9474.636058
1820.636469,919.314598,296.082377,9474.636058
1820.636787,842.705048,370.102971,9474.636058
1820.637104,766.095498,518.144159,9474.636058
1820.637421,689.485948,370.102971,9400.615463
1820.637739,766.095498,222.061783,9474.636058
1820.638056,842.705048,-222.061783,9474.636058
1820.638374,689.485948,-0.000000,9474.636058
1820.638691,459.657299,222.061783,9474.636058
1820.639008,536.266849,296.082377,9474.636058
1820.639326,459.657299,222.061783,9400.615463
1820.639643,0.000000,-0.000000,9326.594869
1820.639961,153.219100,370.102971,9400.615463
1820.640278,0.000000,222.061783,9252.574275
1820.640595,153.219100,222.061783,9326.594869
1820.640913,229.828649,444.123565,9474.636058
1820.641230,459.657299,-0.000000,9326.594869
1820.641548,459.657299,370.102971,9178.553681
1820.641865,383.047749,148.041188,9474.636058
1820.642182,612.876398,370.102971,9326.594869
1820.642500,612.876398,296.082377,9326.594869
1820.642817,689.485948,370.102971,9400.615463
1820.643135,689.485948,296.082377,9178.553681
1820.643452,842.705048,222.061783,9400.615463
1820.643769,995.924147,296.082377,9326.594869
1820.644087,689.485948,148.041188,8808.450710
1820.644404,689.485948,-222.061783,9178.553681
1820.644722,995.924147,444.123565,9326.594869
1820.645039,1149.143247,518.144159,9252.574275
1820.645356,995.924147,296.082377,9474.636058
1820.645674,1072.533697,296.082377,9178.553681
1820.645991,995.924147,148.041188,9252.574275
1820.646309,1225.752797,-0.000000,9400.615463
1820.646626,1149.143247,-0.000000,9474.636058
1820.646943,995.924147,148.041188,9474.636058
1820.647261,842.705048,444.123565,9474.636058
1820.647578,1225.752797,518.144159,9474.636058
1820.647896,612.876398,222.061783,9474.636058
1820.648213,766.095498,370.102971,9400.615463
1820.648530,536.266849,-0.000000,9400.615463
1820.648848,766.095498,296.082377,9400.615463
1820.649165,536.266849,148.041188,9844.739029
1820.649483,766.095498,-0.000000,9622.677246
1820.649800,536.266849,296.082377,9474.636058
1820.650117,536.266849,-0.000000,9548.656652
1820.650435,536.266849,-0.000000,9770.718434
1820.650752,383.047749,-0.000000,9548.656652
1820.651070,383.047749,444.123565,9474.636058
1820.651387,383.047749,296.082377,9474.636058
1820.651704,459.657299,222.061783,9474.636058
1820.652022,459.657299,-0.000000,9474.636058
1820.652339,612.876398,-0.000000,9770.718434
1820.652657,306.438199,-0.000000,9548.656652
1820.652974,689.485948,148.041188,9474.636058
1820.653291,612.876398,-0.000000,9474.636058
1820.653609,536.266849,-0.000000,9548.656652
1820.653926,536.266849,370.102971,9696.697840
1820.654244,459.657299,222.061783,9622.677246
1820.654561,612.876398,370.102971,9474.636058
1820.654878,459.657299,296.082377,9474.636058
1820.655196,536.266849,296.082377,9474.636058
1820.655513,383.047749,444.123565,9548.656652
1820.655831,766.095498,296.082377,9474.636058
1820.656148,1072.533697,370.102971,9474.636058
1820.656465,1302.362347,444.123565,9326.594869
1820.656783,1608.800546,518.144159,9474.636058
1820.657100,1608.800546,444.123565,9030.512492
1820.657418,1072.533697,370.102971,9178.553681
1820.657735,1225.752797,592.164754,9104.533087
1820.658052,1225.752797,370.102971,9104.533087
1820.658370,1225.752797,296.082377,9104.533087
1820.658687,1149.143247,370.102971,9474.636058
1820.659005,1072.533697,-0.000000,9400.615463
1820.659322,919.314598,-0.000000,9400.615463
1820.659639,919.314598,-0.000000,9474.636058
1820.659957,842.705048,148.041188,9474.636058
1820.660274,536.266849,-0.000000,9474.636058
1820.660592,842.705048,-0.000000,9474.636058
1820.660909,689.485948,-0.000000,9178.553681
1820.661227,459.657299,-0.000000,9252.574275
1820.661544,383.047749,-0.000000,9400.615463
1820.661861,612.876398,-0.000000,9474.636058
1820.662179,383.047749,-0.000000,9474.636058
1820.662496,229.828649,-222.061783,9548.656652
1820.662814,459.657299,-222.061783,9474.636058
1820.663131,612.876398,-148.041188,9622.677246
1820.663448,689.485948,-222.061783,9696.697840
1820.663766,766.095498,-74.020594,9474.636058
1820.664083,766.095498,-0.000000,9474.636058
1820.664401,536.266849,222.061783,9326.594869
1820.664718,842.705048,-0.000000,9252.574275
1820.665035,612.876398,370.102971,9474.636058
1820.665353,689.485948,-0.000000,9252.574275
1820.665670,612.876398,-0.000000,9104.533087
1820.665988,766.095498,-0.000000,9178.553681
1820.666305,919.314598,222.061783,9474.636058
1820.666622,919.314598,74.020594,9252.574275
1820.666940,995.924147,148.041188,9400.615463
1820.667257,766.095498,148.041188,9178.553681
1820.667575,766.095498,444.123565,9104.533087
1820.667892,995.924147,222.061783,9400.615463
1820.668209,612.876398,296.082377,9178.553681
1820.668527,766.095498,370.102971,9252.574275
1820.668844,689.485948,444.123565,9400.615463
1820.669162,306.438199,296.082377,9474.636058
1820.669479,1149.143247,370.102971,9696.697840
1820.669796,459.657299,444.123565,9474.636058
1820.670114,689.485948,222.061783,9474.636058
1820.670431,536.266849,370.102971,9326.594869
1820.670749,766.095498,296.082377,9252.574275
1820.671066,995.924147,-0.000000,9326.594869
1820.671383,919.314598,592.164754,9474.636058
1820.671701,919.314598,592.164754,9474.636058
1820.672018,842.705048,518.144159,9474.636058
1820.672336,1072.533697,518.144159,9474.636058
1820.672653,995.924147,222.061783,9622.677246
1820.672970,1072.533697,518.144159,9548.656652
1820.673288,1072.533697,370.102971,9622.677246
1820.673605,1225.752797,296.082377,9548.656652
1820.673923,1302.362347,222.061783,9400.615463
1820.674240,1302.362347,296.082377,9400.615463
1820.674557,1149.143247,-0.000000,9548.656652
1820.674875,1225.752797,222.061783,9548.656652
1820.675192,1072.533697,222.061783,9622.677246
1820.675510,1149.143247,-0.000000,9474.636058
1820.675827,995.924147,-0.000000,9622.677246
1820.676144,995.924147,-0.000000,9548.656652
1820.676462,612.876398,296.082377,9770.718434
1820.676779,766.095498,148.041188,9696.697840
