#time,accel_x,accel_y,accel_z
1142.045788,229.828649,592.164754,9326.594869
1142.046107,689.485948,444.123565,9326.594869
1142.046426,536.266849,518.144159,9252.574275
1142.046745,383.047749,444.123565,9400.615463
1142.047064,459.657299,444.123565,9252.574275
1142.047383,612.876398,518.144159,9400.615463
1142.047702,842.705048,148.041188,9252.574275
1142.048021,536.266849,666.185348,9178.553681
1142.048340,459.657299,-0.000000,9252.574275
1142.048659,766.095498,444.123565,9252.574275
1142.048978,459.657299,222.061783,9400.615463
1142.049297,383.047749,370.102971,9178.553681
1142.049616,-306.438199,-0.000000,9548.656652
1142.049935,229.828649,222.061783,9326.594869
1142.050254,306.438199,222.061783,9178.553681
1142.050572,229.828649,296.082377,9326.594869
1142.050891,306.438199,222.061783,9104.533087
1142.051210,383.047749,-0.000000,9400.615463
1142.051529,0.000000,-0.000000,9400.615463
1142.051848,689.485948,444.123565,9178.553681
1142.052167,459.657299,370.102971,9326.594869
1142.052486,612.876398,444.123565,9326.594869
1142.052805,229.828649,148.041188,9104.533087
1142.053124,459.657299,370.102971,9326.594869
1142.053443,536.266849,444.123565,9400.615463
1142.053762,536.266849,444.123565,9326.594869
1142.054081,612.876398,444.123565,9326.594869
1142.054400,306.438199,-0.000000,9178.553681
1142.054719,766.095498,518.144159,9104.533087
1142.055038,612.876398,518.144159,9326.594869
1142.055357,536.266849,518.144159,9326.594869
1142.055676,612.876398,148.041188,9326.594869
1142.055995,612.876398,370.102971,9400.615463
1142.056314,766.095498,518.144159,9178.553681
1142.056633,383.047749,444.123565,9252.574275
1142.056952,153.219100,518.144159,9326.594869
1142.057271,459.657299,222.061783,9252.574275
1142.057590,153.219100,370.102971,9178.553681
1142.057909,306.438199,444.123565,9178.553681
1142.058228,383.047749,296.082377,9326.594869
1142.058547,306.438199,370.102971,9326.594869
1142.058866,536.266849,370.102971,9474.636058
1142.059185,612.876398,296.082377,9178.553681
1142.059504,153.219100,296.082377,9252.574275
1142.059823,306.438199,-0.000000,9326.594869
1142.060142,229.828649,-0.000000,9104.533087
1142.060461,383.047749,-0.000000,9104.533087
1142.060780,0.000000,74.020594,9252.574275
1142.061099,383.047749,370.102971,9326.594869
1142.061418,306.438199,370.102971,9400.615463
1142.061737,76.609550,444.123565,9326.594869
1142.062056,612.876398,518.144159,9326.594869
1142.062374,459.657299,444.123565,9104.533087
1142.062693,459.657299,518.144159,9326.594869
1142.063012,536.266849,518.144159,9030.512492
1142.063331,919.314598,592.164754,9178.553681
1142.063650,536.266849,444.123565,9252.574275
1142.063969,229.828649,296.082377,9030.512492
1142.064288,612.876398,592.164754,9400.615463
1142.064607,612.876398,444.123565,9252.574275
1142.064926,459.657299,444.123565,9178.553681
1142.065245,612.876398,518.144159,9252.574275
1142.065564,766.095498,370.102971,9252.574275
1142.065883,383.047749,518.144159,9252.574275
1142.066202,612.876398,-0.000000,9326.594869
1142.066521,383.047749,444.123565,9252.574275
1142.066840,612.876398,518.144159,9326.594869
1142.067159,612.876398,296.082377,9178.553681
1142.067478,229.828649,148.041188,9030.512492
1142.067797,229.828649,-0.000000,8882.471304
1142.068116,153.219100,222.061783,8956.491898
1142.068435,0.000000,-296.082377,9252.574275
1142.068754,0.000000,-444.123565,9104.533087
1142.069073,-383.047749,-740.205942,9030.512492
1142.069392,-612.876398,-888.247130,8956.491898
1142.069711,-536.266849,-518.144159,9178.553681
1142.070030,-689.485948,-444.123565,9474.636058
1142.070349,-842.705048,-814.226536,8956.491898
1142.070668,-1608.800546,-592.164754,8808.450710
1142.070987,-1685.410096,-814.226536,8956.491898
1142.071306,-1072.533697,-666.185348,8882.471304
1142.071625,-1608.800546,-1258.350101,8660.409521
1142.071944,-1838.629195,-1406.391290,8882.471304
1142.072263,-1608.800546,-1110.308913,8956.491898
1142.072582,-1302.362347,-1184.329507,8808.450710
1142.072901,-1302.362347,-962.267725,8364.327145
1142.073220,-1302.362347,-592.164754,7920.203579
1142.073539,-1225.752797,-814.226536,7698.141797
1142.073857,-1532.190996,-888.247130,7550.100608
1142.074176,-1608.800546,-1332.370696,7698.141797
1142.074495,-2145.067394,-1850.514855,7846.182985
1142.074814,-1915.238745,-1998.556043,8216.285956
1142.075133,-1915.238745,-2220.617826,8586.388927
1142.075452,-2374.896044,-2664.741391,9326.594869
1142.075771,-2068.457845,-2072.576638,9104.533087
1142.076090,-2145.067394,-1924.535449,8586.388927
1142.076409,-2298.286494,-1998.556043,8512.368333
1142.076728,-2374.896044,-2146.597232,8734.430116
1142.077047,-2374.896044,-2664.741391,8512.368333
1142.077366,-2987.772442,-3330.926739,8586.388927
1142.077685,-2911.162892,-3923.091493,9400.615463
1142.078004,-3447.429741,-4737.318029,9992.780217
1142.078323,-3677.258390,-4737.318029,10584.944971
1142.078642,-3447.429741,-4441.235652,10807.006753
1142.078961,-3370.820191,-3923.091493,11177.109724
1142.079280,-3370.820191,-3552.988522,11029.068536
1142.079599,-3064.381992,-2960.823768,10881.027347
1142.079918,-2834.553343,-3108.864956,10732.986159
1142.080237,-2911.162892,-2886.803174,10658.965565
1142.080556,-2681.334243,-3182.885551,10658.965565
1142.080875,-2604.724693,-3330.926739,10584.944971
1142.081194,-2681.334243,-3552.988522,10214.842000
1142.081513,-2528.115143,-4219.173869,10510.924376
1142.081832,-3524.039291,-3997.112087,10732.986159
1142.082151,-3447.429741,-3923.091493,10584.944971
1142.082470,-3907.087040,-3849.070898,11029.068536
1142.082789,-4366.744339,-3552.988522,11695.253884
1142.083108,-4749.792088,-3182.885551,11917.315666
1142.083427,-4903.011187,-3182.885551,11473.192101
1142.083746,-4749.792088,-2590.720797,11325.150913
1142.084065,-4903.011187,-2886.803174,10807.006753
1142.084384,-4443.353888,-2960.823768,10732.986159
1142.084703,-3753.867940,-3108.864956,10658.965565
1142.085022,-2987.772442,-2960.823768,10881.027347
1142.085341,-2145.067394,-2812.782580,11029.068536
1142.085659,-995.924147,-2146.597232,11029.068536
1142.085978,-153.219100,-814.226536,9178.553681
1142.086297,842.705048,370.102971,7772.162391
1142.086616,1838.629195,1628.453072,6587.832884
1142.086935,1762.019645,2072.576638,4737.318029
1142.087254,1838.629195,1184.329507,4293.194464
1142.087573,1532.190996,-0.000000,5255.462188
1142.087892,459.657299,-1628.453072,6957.935855
1142.088211,-306.438199,-2664.741391,8290.306550
1142.088530,-1149.143247,-3034.844362,9474.636058
1142.088849,-919.314598,-2812.782580,10584.944971
1142.089168,-1225.752797,-888.247130,10214.842000
1142.089487,-842.705048,370.102971,9696.697840
1142.089806,0.000000,2146.597232,8660.409521
1142.090125,76.609550,2738.761985,8364.327145
1142.090444,1225.752797,1850.514855,7550.100608
1142.090763,612.876398,1776.494261,6809.894666
1142.091082,153.219100,1036.288319,5921.647536
1142.091401,229.828649,-0.000000,5847.626942
1142.091720,-383.047749,-814.226536,6365.771101
1142.092039,-612.876398,-2072.576638,7328.038826
1142.092358,-1225.752797,-2368.659014,8586.388927
1142.092677,-1915.238745,-2368.659014,10362.883188
1142.092996,-1915.238745,-2072.576638,11251.130318
1142.093315,-2757.943793,-1628.453072,11251.130318
1142.093634,-2604.724693,-740.205942,10807.006753
1142.093953,-2987.772442,-666.185348,10436.903782
1142.094272,-2757.943793,-888.247130,9696.697840
1142.094591,-2834.553343,-1184.329507,9030.512492
1142.094910,-2834.553343,-1554.432478,8290.306550
1142.095229,-2834.553343,-2368.659014,8438.347739
1142.095548,-2757.943793,-3256.906145,8808.450710
1142.095867,-2757.943793,-4441.235652,9844.739029
1142.096186,-2528.115143,-5033.400406,11177.109724
1142.096505,-3140.991542,-3552.988522,11177.109724
1142.096824,-2834.553343,-2368.659014,10881.027347
1142.097143,-3064.381992,-592.164754,10584.944971
1142.097461,-3600.648841,-592.164754,10658.965565
1142.097780,-3447.429741,-1184.329507,10584.944971
1142.098099,-4519.963438,-1998.556043,9770.718434
1142.098418,-4903.011187,-3182.885551,9992.780217
1142.098737,-4673.182538,-4293.194464,11251.130318
1142.099056,-4519.963438,-5329.482782,12509.480420
1142.099375,-3524.039291,-6365.771101,13989.892304
1142.099694,-2604.724693,-5033.400406,13397.727550
1142.100013,-459.657299,-3256.906145,12139.377449
1142.100332,842.705048,-1702.473667,10955.047942
1142.100651,2374.896044,296.082377,9178.553681
1142.100970,3064.381992,1480.411884,7031.956449
1142.101289,3447.429741,1702.473667,4737.318029
1142.101608,2987.772442,-222.061783,4737.318029
1142.101927,2221.676944,-2146.597232,6069.688724
1142.102246,1149.143247,-3404.947333,7550.100608
1142.102565,76.609550,-4737.318029,9104.533087
1142.102884,-612.876398,-4663.297435,9918.759623
1142.103203,-1685.410096,-4145.153275,11325.150913
1142.103522,-2221.676944,-2960.823768,11473.192101
1142.103841,-3140.991542,-1480.411884,9696.697840
1142.104160,-3140.991542,-370.102971,8734.430116
1142.104479,-3447.429741,-296.082377,8586.388927
1142.104798,-3677.258390,-1110.308913,8660.409521
1142.105117,-3447.429741,-2442.679609,8734.430116
1142.105436,-3140.991542,-2886.803174,9252.574275
1142.105755,-3064.381992,-3701.029710,10510.924376
1142.106074,-2374.896044,-2960.823768,10066.800811
1142.106393,-1149.143247,-1776.494261,8290.306550
1142.106712,-536.266849,-1036.288319,7994.224174
1142.107031,76.609550,-444.123565,8216.285956
1142.107350,383.047749,592.164754,6143.709319
1142.107669,536.266849,1332.370696,4737.318029
1142.107988,-153.219100,-0.000000,4885.359217
1142.108307,-842.705048,-1850.514855,5255.462188
1142.108626,-2221.676944,-2738.761985,5329.482782
1142.108944,-3830.477490,-4293.194464,7105.977043
1142.109263,-5132.839837,-5847.626942,9622.677246
1142.109582,-5669.106685,-5625.565159,11103.089130
1142.109901,-5669.106685,-4441.235652,12657.521608
1142.110220,-5515.887586,-3478.967927,14211.954086
1142.110539,-4596.572988,-2072.576638,14359.995275
1142.110858,-2604.724693,296.082377,12731.542202
1142.111177,-919.314598,1554.432478,10732.986159
1142.111495,-306.438199,740.205942,9992.780217
1142.111814,459.657299,-0.000000,8142.265362
1142.112133,842.705048,-444.123565,6661.853478
1142.112452,766.095498,-2146.597232,6143.709319
1142.112771,0.000000,-3552.988522,5181.441594
1142.113089,-842.705048,-4441.235652,5107.421000
1142.113408,-1915.238745,-5181.441594,7105.977043
1142.113727,-3370.820191,-5847.626942,8438.347739
1142.114046,-4979.620737,-7031.956449,10584.944971
1142.114364,-6358.592633,-7105.977043,14211.954086
1142.114683,-6894.859482,-6069.688724,16506.592507
1142.115002,-6128.763984,-5329.482782,16062.468941
1142.115321,-4903.011187,-3775.050304,16580.613101
1142.115639,-2834.553343,-1480.411884,15914.427753
1142.115958,-689.485948,740.205942,11473.192101
1142.116277,1532.190996,2886.803174,7624.121203
1142.116596,3524.039291,4293.194464,6143.709319
1142.116915,4290.134789,3108.864956,2516.700203
1142.117233,3983.696590,1998.556043,1184.329507
1142.117552,2757.943793,-666.185348,2516.700203
1142.117871,1532.190996,-2516.700203,3478.967927
1142.118190,-1072.533697,-4589.276840,6365.771101
1142.118508,-3140.991542,-5255.462188,9918.759623
1142.118827,-5669.106685,-5107.421000,14211.954086
1142.119146,-6665.030833,-3923.091493,15248.242405
1142.119465,-6511.811733,-2516.700203,17542.880825
1142.119783,-5515.887586,-1110.308913,16950.716072
1142.120102,-3907.087040,1702.473667,13841.851115
1142.120421,-1149.143247,3330.926739,11695.253884
1142.120740,995.924147,4367.215058,7402.059420
1142.121059,2987.772442,3478.967927,3478.967927
1142.121377,4519.963438,1702.473667,1702.473667
1142.121696,4673.182538,-592.164754,444.123565
1142.122015,4443.353888,-2220.617826,0.000000
1142.122334,2068.457845,-2812.782580,1998.556043
1142.122652,0.000000,-3552.988522,4959.379811
1142.122971,-3064.381992,-4811.338623,8734.430116
1142.123290,-5745.716235,-4959.379811,12065.356855
1142.123609,-8503.660028,-4367.215058,16432.571912
1142.123927,-9039.926876,-3997.112087,19689.478057
1142.124246,-8963.317327,-2812.782580,19689.478057
1142.124565,-7124.688131,-1998.556043,18431.127956
1142.124884,-5132.839837,-2590.720797,16876.695478
1142.125203,-1838.629195,-1110.308913,13323.706956
1142.125521,1608.800546,-1628.453072,9252.574275
1142.125840,3907.087040,-666.185348,2590.720797
1142.126159,6665.030833,-148.041188,370.102971
1142.126478,7048.078582,592.164754,-1702.473667
1142.126796,6358.592633,222.061783,-1480.411884
1142.127115,3677.258390,-518.144159,0.000000
1142.127434,459.657299,-1702.473667,4441.235652
1142.127753,-2911.162892,-5477.523971,10955.047942
1142.128071,-5898.935335,-6883.915261,16358.551318
1142.128390,-8503.660028,-7920.203579,20577.725188
1142.128709,-8580.269578,-7105.977043,22724.322419
1142.129028,-8886.707777,-4293.194464,22428.240043
1142.129347,-6205.373534,-1924.535449,21465.972318
1142.129665,-2834.553343,1850.514855,14804.118840
1142.129984,1532.190996,4811.338623,8438.347739
1142.130303,5362.668486,5403.503377,3997.112087
1142.130622,7584.345430,4589.276840,-962.267725
1142.130940,8963.317327,3182.885551,-3330.926739
1142.131259,9499.584175,1702.473667,-2590.720797
1142.131578,8197.221829,-518.144159,-2220.617826
1142.131897,5669.106685,-2368.659014,1554.432478
1142.132215,2681.334243,-3034.844362,5921.647536
1142.132534,76.609550,-3034.844362,11177.109724
1142.132853,-2374.896044,-2664.741391,14952.160028
1142.133172,-4443.353888,-740.205942,17764.942608
1142.133491,-4903.011187,1332.370696,17542.880825
1142.133809,-4903.011187,1850.514855,18209.066173
1142.134128,-3217.601092,2664.741391,16136.489536
1142.134447,-842.705048,2146.597232,11769.274478
1142.134766,1991.848295,2294.638420,7105.977043
1142.135084,4443.353888,4811.338623,3256.906145
1142.135403,6511.811733,2812.782580,74.020594
1142.135722,7814.174080,3923.091493,-370.102971
1142.136041,7967.393179,2960.823768,-148.041188
1142.136359,7277.907231,3182.885551,1110.308913
1142.136678,4749.792088,2294.638420,3182.885551
1142.136997,2145.067394,2590.720797,8808.450710
1142.137316,1072.533697,1628.453072,14211.954086
1142.137635,-1685.410096,3108.864956,15618.345376
1142.137953,-1915.238745,1850.514855,17394.839637
1142.138272,-3370.820191,3034.844362,16358.551318
1142.138591,-2528.115143,814.226536,14804.118840
1142.138910,-2068.457845,962.267725,11547.212695
1142.139228,-229.828649,1776.494261,7254.018232
1142.139547,1225.752797,962.267725,4737.318029
1142.139866,1378.971896,444.123565,2664.741391
1142.140185,1915.238745,-962.267725,4071.132681
1142.140503,2221.676944,-1184.329507,5033.400406
1142.140822,1455.581446,-666.185348,7105.977043
1142.141141,383.047749,-370.102971,9992.780217
1142.141460,-1762.019645,666.185348,13397.727550
1142.141779,-2221.676944,1924.535449,16210.510130
1142.142097,-2987.772442,2368.659014,17838.963202
1142.142416,-3447.429741,3256.906145,16802.674883
1142.142735,-3217.601092,3034.844362,14804.118840
1142.143054,-2757.943793,2590.720797,11695.253884
1142.143372,-1608.800546,-0.000000,10362.883188
1142.143691,-842.705048,-962.267725,7476.080014
1142.144010,0.000000,-2516.700203,5403.503377
1142.144329,0.000000,-4071.132681,5255.462188
1142.144647,0.000000,-3775.050304,6513.812290
1142.144966,0.000000,-3627.009116,8290.306550
1142.145285,-459.657299,-2220.617826,8808.450710
1142.145604,-689.485948,-740.205942,11843.295072
1142.145923,-1072.533697,1184.329507,13249.686362
1142.146241,-766.095498,962.267725,15618.345376
1142.146560,-612.876398,1998.556043,15766.386565
1142.146879,383.047749,2072.576638,14285.974681
1142.147198,1149.143247,3627.009116,10955.047942
1142.147516,3447.429741,2886.803174,7624.121203
1142.147835,4290.134789,1702.473667,4367.215058
1142.148154,4366.744339,888.247130,2368.659014
1142.148473,4290.134789,-370.102971,962.267725
1142.148791,2911.162892,-2220.617826,1702.473667
1142.149110,1149.143247,-3404.947333,3997.112087
1142.149429,-536.266849,-4515.256246,7550.100608
1142.149748,-2145.067394,-4367.215058,10732.986159
1142.150067,-2298.286494,-4293.194464,14359.995275
1142.150385,-3064.381992,-3552.988522,17394.839637
1142.150704,-1149.143247,-148.041188,17838.963202
1142.151023,-306.438199,2960.823768,15470.304188
1142.151342,2451.505594,5921.647536,12361.439231
1142.151660,5056.230287,7920.203579,7328.038826
1142.151979,7124.688131,7402.059420,2590.720797
1142.152298,8350.440928,5625.565159,-1702.473667
1142.152617,8580.269578,3404.947333,-3330.926739
1142.152935,7048.078582,-222.061783,-3330.926739
1142.153254,4213.525239,-2960.823768,-666.185348
1142.153573,1608.800546,-6513.812290,3478.967927
1142.153892,-2374.896044,-6735.874072,8142.265362
1142.154211,-3983.696590,-7402.059420,13915.871710
1142.154529,-6665.030833,-5477.523971,17394.839637
1142.154848,-5898.935335,-3256.906145,20577.725188
1142.155167,-5975.544884,1406.391290,21169.889941
1142.155486,-3294.210641,3923.091493,19393.395680
1142.155804,-842.705048,6809.894666,15914.427753
1142.156123,2987.772442,9474.636058,9844.739029
1142.156442,6205.373534,9252.574275,3404.947333
1142.156761,8427.050478,6661.853478,-2146.597232
1142.157079,8350.440928,5773.606348,-5773.606348
1142.157398,7354.516781,2516.700203,-6809.894666
1142.157717,4596.572988,-1554.432478,-3478.967927
1142.158036,1072.533697,-4589.276840,1258.350101
1142.158355,-4136.915689,-6069.688724,7994.224174
1142.158673,-7431.126331,-7402.059420,14508.036463
1142.158992,-10112.460574,-7772.162391,20947.828159
1142.159311,-10801.946522,-6365.771101,28053.805202
1142.159630,-11031.775171,-2886.803174,29460.196492
1142.159948,-9729.412825,4737.318029,26055.249158
1142.160267,-2911.162892,6587.832884,21762.054695
1142.160586,1378.971896,15322.262999,15248.242405
1142.160905,7737.564530,11547.212695,6735.874072
1142.161223,9806.022374,14211.954086,-3330.926739
1142.161542,12257.527968,9474.636058,-8512.368333
1142.161861,10878.556072,4663.297435,-9178.553681
1142.162180,9269.755526,-3478.967927,-4663.297435
1142.162499,4749.792088,-6661.853478,-740.205942
1142.162817,-229.828649,-8142.265362,4737.318029
1142.163136,-5592.497135,-8438.347739,13471.748144
1142.163455,-7431.126331,-7994.224174,23464.528361
1142.163774,-9806.022374,-3923.091493,26203.290347
1142.164092,-8733.488677,1110.308913,30422.464216
1142.164411,-8427.050478,5107.421000,28127.825796
1142.164730,-4596.572988,9918.759623,23686.590144
1142.165049,1915.238745,14582.057057,15174.221811
1142.165367,5592.497135,8808.450710,11695.253884
1142.165686,12257.527968,9770.718434,1554.432478
1142.166005,13942.938064,9178.553681,-8512.368333
1142.166324,14555.814462,2960.823768,-10732.986159
1142.166643,12793.794817,-1998.556043,-7105.977043
1142.166961,9193.145976,-4219.173869,-3923.091493
1142.167280,2757.943793,-3330.926739,1628.453072
1142.167599,0.000000,-6661.853478,7624.121203
1142.167918,-5362.668486,-4737.318029,14063.912898
1142.168236,-6971.469032,-5699.585753,24278.754898
1142.168555,-7890.783629,-4737.318029,29090.093521
1142.168874,-10418.898773,666.185348,27387.619854
1142.169193,-7431.126331,6217.729913,25907.207970
1142.169511,-612.876398,7698.141797,18801.230927
1142.169830,3370.820191,8882.471304,9326.594869
1142.170149,8963.317327,7772.162391,2516.700203
1142.170468,10112.460574,7105.977043,-7179.997637
1142.170787,11414.822920,2516.700203,-11325.150913
1142.171105,11261.603821,-1036.288319,-10732.986159
1142.171424,7737.564530,-4293.194464,-4811.338623
1142.171743,1762.019645,-7328.038826,-148.041188
1142.172062,-3524.039291,-7772.162391,6291.750507
1142.172380,-5822.325785,-10732.986159,16728.654289
1142.172699,-9806.022374,-10732.986159,22576.281231
1142.173018,-11491.432470,-4737.318029,27461.640448
1142.173337,-10648.727422,2442.679609,25759.166782
1142.173655,-9806.022374,9918.759623,20281.642811
1142.173974,-5515.887586,6735.874072,22132.157666
1142.174293,1225.752797,5995.668130,9844.739029
1142.174612,4519.963438,6365.771101,-666.185348
1142.174931,8886.707777,5551.544565,-3478.967927
1142.175249,7277.907231,-1924.535449,-8956.491898
1142.175568,7431.126331,-4219.173869,-8364.327145
1142.175887,7354.516781,-7105.977043,-1850.514855
1142.176206,3907.087040,-7328.038826,222.061783
1142.176524,-1838.629195,-7402.059420,4737.318029
1142.176843,-3370.820191,-6809.894666,13619.789333
1142.177162,-7584.345430,-6365.771101,18135.045579
1142.177481,-6435.202183,-740.205942,26943.496289
1142.177799,-8733.488677,4441.235652,27387.619854
1142.178118,-7201.297681,6735.874072,26055.249158
1142.178437,-3064.381992,7920.203579,17987.004391
1142.178756,1302.362347,10436.903782,11473.192101
1142.179075,7890.783629,5995.668130,4811.338623
1142.179393,9422.974625,5699.585753,-6291.750507
1142.179712,11797.870669,2294.638420,-8068.244768
1142.180031,9806.022374,-3108.864956,-8142.265362
1142.180350,7354.516781,-7031.956449,-3627.009116
1142.180668,5132.839837,-8808.450710,2294.638420
1142.180987,842.705048,-7328.038826,7179.997637
1142.181306,-3830.477490,-9326.594869,15766.386565
1142.181625,-5209.449386,-4441.235652,25833.187376
1142.181944,-6281.983084,1184.329507,28275.866984
1142.182262,-5056.230287,7846.182985,29016.072926
1142.182581,-3753.867940,12879.583391,24796.899057
1142.182900,1072.533697,16358.551318,18949.272115
1142.183219,4136.915689,13471.748144,8808.450710
1142.183537,8810.098227,9178.553681,2146.597232
1142.183856,10648.727422,3478.967927,-7179.997637
1142.184175,10265.679673,-444.123565,-8808.450710
1142.184494,9193.145976,-7846.182985,-6883.915261
1142.184812,6281.983084,-10362.883188,0.000000
1142.185131,2834.553343,-8882.471304,3256.906145
1142.185450,-1838.629195,-5847.626942,9252.574275
1142.185769,-3830.477490,-6809.894666,18949.272115
1142.186088,-7201.297681,-3256.906145,23242.466579
1142.186406,-5209.449386,3701.029710,29238.134709
1142.186725,-6588.421283,11177.109724,25833.187376
1142.187044,-5898.935335,11917.315666,24648.857869
1142.187363,-1455.581446,12805.562797,17098.757260
1142.187681,3677.258390,16876.695478,6809.894666
1142.188000,9193.145976,8956.491898,74.020594
1142.188319,9422.974625,5181.441594,-8882.471304
1142.188638,8120.612279,-1850.514855,-11991.336260
1142.188956,6205.373534,-5921.647536,-7179.997637
1142.189275,1455.581446,-11547.212695,-1850.514855
1142.189594,-1838.629195,-11177.109724,1702.473667
1142.189913,-7660.954980,-11399.171507,8364.327145
1142.190232,-10342.289223,-11695.253884,20207.622217
1142.190550,-13176.842566,-8882.471304,28497.928767
1142.190869,-14019.547613,-592.164754,30940.608376
1142.191188,-11721.261119,3627.009116,31458.752535
1142.191507,-7660.954980,11547.212695,26721.434506
1142.191825,-2987.772442,15544.324782,21317.931130
1142.192144,4903.011187,16580.613101,5773.606348
1142.192463,10572.117872,13323.706956,-3849.070898
1142.192782,12947.013916,9474.636058,-11251.130318
1142.193100,11108.384721,-370.102971,-15544.324782
1142.193419,9806.022374,-9474.636058,-10732.986159
1142.193738,2987.772442,-14434.015869,-3256.906145
1142.194057,-1302.362347,-17616.901420,1998.556043
1142.194376,-7048.078582,-12805.562797,5477.523971
1142.194694,-9499.584175,-16210.510130,19763.498651
1142.195013,-10648.727422,-12509.480420,28942.052332
1142.195332,-12257.527968,-6143.709319,30792.567187
1142.195651,-12257.527968,1998.556043,32198.958477
1142.195969,-5822.325785,12583.501014,31310.711347
1142.196288,-1072.533697,15174.221811,22650.301825
1142.196607,7737.564530,17172.777854,10066.800811
1142.196926,14172.766713,15100.201217,2516.700203
1142.197244,18003.244203,11547.212695,-10584.944971
1142.197563,19612.044749,3330.926739,-19245.354492
1142.197882,20071.702048,-2146.597232,-16358.551318
1142.198201,12257.527968,-12509.480420,-9104.533087
1142.198520,5132.839837,-13249.686362,-6587.832884
1142.198838,-536.266849,-15100.201217,-518.144159
1142.199157,-5975.544884,-15914.427753,11695.253884
1142.199476,-10418.898773,-21169.889941,24574.837274
1142.199795,-13636.499864,-13619.789333,32791.123231
1142.200113,-15704.957709,-2072.576638,33753.390955
1142.200432,-10878.556072,8882.471304,34937.720462
1142.200751,-4903.011187,18949.272115,30348.443622
1142.201070,2221.676944,16432.571912,16802.674883
1142.201388,9422.974625,14952.160028,5625.565159
1142.201707,15781.567259,16654.633695,-7698.141797
1142.202026,18156.463303,11769.274478,-19985.560434
1142.202345,17773.415554,3849.070898,-20725.766376
1142.202664,14555.814462,-7328.038826,-11991.336260
1142.202982,3217.601092,-15692.365970,-7550.100608
1142.203301,-3983.696590,-12805.562797,-2294.638420
1142.203620,-7507.735880,-13101.645173,7105.977043
1142.203939,-13023.623466,-16802.674883,22058.137072
1142.204257,-13023.623466,-12361.439231,33827.411549
1142.204576,-18079.853753,-1036.288319,36048.029375
1142.204895,-16854.100956,6587.832884,32050.917289
1142.205214,-11338.213370,15470.304188,26055.249158
1142.205532,-4290.134789,17394.839637,25981.228564
1142.205851,4519.963438,19171.333898,7254.018232
1142.206170,9729.412825,14952.160028,-4219.173869
1142.206489,12947.013916,13397.727550,-10732.986159
1142.206808,15168.690860,4589.276840,-15840.407159
1142.207126,14402.595362,-3849.070898,-9252.574275
1142.207445,6052.154434,-12287.418637,-6587.832884
1142.207764,-306.438199,-10288.862594,-5625.565159
1142.208083,-4673.182538,-10510.924376,3404.947333
1142.208401,-8197.221829,-13545.768739,18949.272115
1142.208720,-11108.384721,-11621.233289,30718.546593
1142.209039,-13559.890315,-4737.318029,34493.596897
1142.209358,-17466.977354,6661.853478,34345.555709
1142.209676,-12947.013916,11103.089130,31754.834912
1142.209995,-4213.525239,15248.242405,26721.434506
1142.210314,1072.533697,16358.551318,11843.295072
1142.210633,9193.145976,16876.695478,1776.494261
1142.210952,17620.196454,14137.933492,-9252.574275
1142.211270,15245.300410,8068.244768,-18283.086767
1142.211589,15551.738609,-4441.235652,-15174.221811
1142.211908,12947.013916,-12065.356855,-3404.947333
1142.212227,2834.553343,-16210.510130,-4515.256246
1142.212545,-1455.581446,-11103.089130,1036.288319
1142.212864,-2834.553343,-14211.954086,14878.139434
1142.213183,-9959.241474,-14285.974681,27239.578666
1142.213502,-10265.679673,-8216.285956,36270.091158
1142.213820,-13253.452115,962.267725,34493.596897
1142.214139,-12410.747068,10140.821405,29682.258274
1142.214458,-6358.592633,15100.201217,23538.548956
1142.214777,1378.971896,14730.098246,19689.478057
1142.215096,10342.289223,19615.457463,6587.832884
1142.215414,15321.909960,12065.356855,-6587.832884
1142.215733,16547.662757,4145.153275,-13175.665768
1142.216052,17390.367805,-3256.906145,-14063.912898
1142.216371,15398.519510,-12509.480420,-7624.121203
1142.216689,6818.249932,-13397.727550,-6069.688724
1142.217008,0.000000,-15248.242405,-2220.617826
1142.217327,-2145.067394,-11843.295072,6661.853478
1142.217646,-5515.887586,-16136.489536,24944.940245
1142.217964,-12027.699319,-12139.377449,30570.505405
1142.218283,-12947.013916,-148.041188,33087.205607
1142.218602,-13023.623466,8808.450710,26129.269753
1142.218921,-7967.393179,15544.324782,28053.805202
1142.219240,1991.848295,12583.501014,20429.683999
1142.219558,6281.983084,17468.860231,1554.432478
1142.219877,12487.356617,12657.521608,-4885.359217
1142.220196,13483.280765,3627.009116,-16284.530724
1142.220515,14019.547613,-1998.556043,-17246.798449
1142.220833,11721.261119,-9326.594869,-11695.253884
1142.221152,4749.792088,-15544.324782,-5699.585753
1142.221471,-2451.505594,-13027.624579,-5995.668130
1142.221790,-5975.544884,-14359.995275,2812.782580
1142.222108,-10648.727422,-16210.510130,21465.972318
1142.222427,-15858.176809,-13101.645173,33161.226202
1142.222746,-18462.901502,-5625.565159,37084.317694
1142.223065,-17850.025103,10214.842000,29608.237680
1142.223383,-11721.261119,17024.736666,31458.752535
1142.223702,-3830.477490,18801.230927,22798.343014
1142.224021,2681.334243,21391.951724,7994.224174
1142.224340,8044.002729,16210.510130,-3552.988522
1142.224659,15245.300410,12657.521608,-11917.315666
1142.224977,14785.643111,296.082377,-16136.489536
1142.225296,14938.862211,-8216.285956,-11769.274478
1142.225615,7584.345430,-12287.418637,-6217.729913
1142.225934,2221.676944,-12953.603985,-4589.276840
1142.226252,-1915.238745,-15766.386565,2220.617826
1142.226571,-6971.469032,-11325.150913,11251.130318
1142.226890,-8427.050478,-11843.295072,29090.093521
1142.227209,-14785.643111,-6143.709319,35751.946999
1142.227527,-14938.862211,370.102971,39452.976709
1142.227846,-12870.404366,11251.130318,36270.091158
1142.228165,-3447.429741,16950.716072,29756.278868
1142.228484,5209.449386,17024.736666,15544.324782
1142.228803,12334.137518,19467.416275,2886.803174
1142.229121,18692.730151,16654.633695,-6365.771101
1142.229440,19918.482948,10288.862594,-19615.457463
1142.229759,19918.482948,2294.638420,-12361.439231
1142.230078,13023.623466,-14211.954086,-4885.359217
1142.230396,5056.230287,-12361.439231,-4515.256246
1142.230715,1991.848295,-7698.141797,-4663.297435
1142.231034,-3677.258390,-8734.430116,6809.894666
1142.231353,-6894.859482,-18061.024985,25315.043216
1142.231671,-11874.480219,-12731.542202,37158.338288
1142.231990,-14709.033562,-7328.038826,36788.235317
1142.232309,-16394.443657,3701.029710,35899.988187
1142.232628,-10112.460574,12805.562797,32865.143825
1142.232947,-153.219100,19245.354492,17912.983796
1142.233265,7354.516781,27831.743419,9474.636058
1142.233584,14096.157163,14211.954086,2146.597232
1142.233903,18999.168350,14359.995275,-14211.954086
1142.234222,21297.454844,6809.894666,-18875.251521
1142.234540,17466.977354,-6513.812290,-7179.997637
1142.234859,8733.488677,-14804.118840,-4959.379811
1142.235178,766.095498,-12435.459826,-6217.729913
1142.235497,-2911.162892,-16950.716072,0.000000
1142.235815,-8350.440928,-11991.336260,16580.613101
1142.236134,-10572.117872,-14063.912898,27831.743419
1142.236453,-16011.395908,-6809.894666,30644.525999
1142.236772,-18309.682402,3775.050304,32939.164419
1142.237091,-16088.005458,11843.295072,31976.896694
1142.237409,-8963.317327,10732.986159,33161.226202
1142.237728,-2298.286494,17172.777854,15470.304188
1142.238047,4826.401637,22132.157666,-1702.473667
1142.238366,12257.527968,11399.171507,-8290.306550
1142.238684,18003.244203,11917.315666,-16654.633695
1142.239003,18309.682402,-592.164754,-17172.777854
1142.239322,13253.452115,-8438.347739,-11325.150913
1142.239641,459.657299,-11251.130318,-9178.553681
1142.239959,-2911.162892,-10584.944971,-3404.947333
1142.240278,-6281.983084,-13323.706956,9252.574275
1142.240597,-11338.213370,-20873.807564,18357.107362
1142.240916,-15781.567259,-9918.759623,30792.567187
1142.241235,-15475.129060,-6217.729913,35011.741057
1142.241553,-19765.263848,3256.906145,29978.340651
1142.241872,-11721.261119,8438.347739,33309.267390
1142.242191,-4596.572988,16432.571912,21095.869347
1142.242510,3217.601092,16580.613101,5995.668130
1142.242828,14632.424012,16284.530724,-888.247130
1142.243147,17160.539155,10807.006753,-9474.636058
1142.243466,20531.359346,6143.709319,-16358.551318
1142.243785,21527.283494,-592.164754,-11473.192101
1142.244103,15858.176809,-8512.368333,-11325.150913
1142.244422,4060.306139,-11917.315666,-12657.521608
1142.244741,689.485948,-13767.830521,148.041188
1142.245060,-4213.525239,-15692.365970,14359.995275
1142.245379,-6818.249932,-15544.324782,25463.084405
1142.245697,-12487.356617,-8290.306550,32717.102636
1142.246016,-16088.005458,-1332.370696,34641.638086
1142.246335,-13023.623466,9326.594869,36788.235317
1142.246654,-3983.696590,9104.533087,33309.267390
1142.246972,1302.362347,19023.292709,21762.054695
1142.247291,9806.022374,21762.054695,5181.441594
1142.247610,19075.777900,16210.510130,-5921.647536
1142.247929,20684.578446,15988.448347,-15100.201217
1142.248247,21374.064394,2886.803174,-13027.624579
1142.248566,17237.148705,-6439.791695,-11177.109724
1142.248885,6358.592633,-10807.006753,-12953.603985
1142.249204,2298.286494,-10436.903782,-6587.832884
1142.249523,-3140.991542,-14508.036463,4663.297435
1142.249841,-8350.440928,-18357.107362,22650.301825
1142.250160,-12563.966167,-15544.324782,32050.917289
1142.250479,-16854.100956,-6439.791695,36788.235317
1142.250798,-20301.530697,5255.462188,31606.793723
1142.251116,-14096.157163,12361.439231,31902.876100
1142.251435,-6435.202183,11917.315666,27461.640448
1142.251754,0.000000,17912.983796,9918.759623
1142.252073,8350.440928,17690.922014,-1258.350101
1142.252391,13636.499864,17987.004391,-14285.974681
1142.252710,13483.280765,5107.421000,-13545.768739
1142.253029,13866.328514,-2294.638420,-11695.253884
1142.253348,10035.851024,-9918.759623,-9030.512492
1142.253667,-459.657299,-10807.006753,-12287.418637
1142.253985,-1225.752797,-14582.057057,-1998.556043
1142.254304,-7431.126331,-12657.521608,10436.903782
1142.254623,-8044.002729,-19393.395680,29534.217086
1142.254942,-11414.822920,-4811.338623,34789.679274
1142.255260,-18462.901502,1480.411884,33161.226202
1142.255579,-18999.168350,7624.121203,32272.979071
1142.255898,-11414.822920,14804.118840,30792.567187
1142.256217,-459.657299,12731.542202,18431.127956
1142.256535,5132.839837,27313.599260,2368.659014
1142.256854,10572.117872,18431.127956,-5847.626942
1142.257173,17390.367805,10436.903782,-10140.821405
1142.257492,17466.977354,4885.359217,-12361.439231
1142.257810,17237.148705,-7920.203579,-10658.965565
1142.258129,6281.983084,-11843.295072,-12953.603985
1142.258448,3140.991542,-8808.450710,-8068.244768
1142.258767,-383.047749,-14434.015869,1924.535449
1142.259086,-3830.477490,-15766.386565,19171.333898
1142.259404,-8963.317327,-12657.521608,32865.143825
1142.259723,-17083.929605,-10362.883188,33309.267390
1142.260042,-21527.283494,4293.194464,33013.185013
1142.260361,-12487.356617,12361.439231,31236.690752
1142.260679,-3064.381992,16062.468941,23760.610738
1142.260998,4596.572988,17542.880825,11621.233289
1142.261317,12257.527968,21688.034101,444.123565
1142.261636,17696.806004,14952.160028,-10214.842000
1142.261954,19305.606550,7772.162391,-16506.592507
1142.262273,20071.702048,-5033.400406,-10066.800811
1142.262592,14785.643111,-12879.583391,-8586.388927
1142.262911,7967.393179,-14063.912898,-13175.665768
1142.263230,4596.572988,-11547.212695,-7402.059420
1142.263548,-1302.362347,-12509.480420,6365.771101
1142.263867,-4903.011187,-16210.510130,22872.363608
1142.264186,-9729.412825,-11251.130318,34863.699868
1142.264505,-17466.977354,-3997.112087,34345.555709
1142.264823,-18003.244203,5033.400406,35307.823433
1142.265142,-11644.651570,12953.603985,31902.876100
1142.265461,-2374.896044,18801.230927,23760.610738
1142.265780,8044.002729,15618.345376,6365.771101
1142.266098,14938.862211,24796.899057,-6957.935855
1142.266417,18845.949251,12805.562797,-12139.377449
1142.266736,17313.758255,592.164754,-13915.871710
1142.267055,17926.634653,-7476.080014,-7772.162391
1142.267374,8427.050478,-10510.924376,-11695.253884
1142.267692,76.609550,-12953.603985,-12139.377449
1142.268011,-2298.286494,-14656.077652,-4589.276840
1142.268330,-9039.926876,-22132.157666,12509.480420
1142.268649,-14096.157163,-16580.613101,28645.969955
1142.268967,-20454.749797,-13471.748144,34715.658680
1142.269286,-27196.390179,-3330.926739,32865.143825
1142.269605,-20301.530697,6587.832884,44856.480085
1142.269924,-14709.033562,14211.954086,33531.329173
1142.270242,-1149.143247,19541.436869,11029.068536
1142.270561,3677.258390,27831.743419,0.000000
1142.270880,11721.261119,19689.478057,-5329.482782
1142.271199,13100.233016,9474.636058,-14211.954086
1142.271518,19228.997000,4589.276840,-15174.221811
1142.271836,15015.471761,-5403.503377,-10881.027347
1142.272155,5439.278036,-10955.047942,-13027.624579
1142.272474,-153.219100,-11547.212695,-7994.224174
1142.272793,-1685.410096,-17838.963202,814.226536
1142.273111,-6281.983084,-14582.057057,16136.489536
1142.273430,-11108.384721,-14878.139434,32198.958477
1142.273749,-20684.578446,-7328.038826,31828.855506
1142.274068,-18386.291952,-1924.535449,41525.553346
1142.274386,-16471.053207,10732.986159,31754.834912
1142.274705,-3064.381992,14656.077652,33161.226202
1142.275024,4826.401637,20059.581028,11251.130318
1142.275343,13253.452115,23908.651927,1258.350101
1142.275662,20607.968896,18949.272115,-11399.171507
1142.275980,21680.502593,12509.480420,-17912.983796
1142.276299,22753.036291,-2960.823768,-12805.562797
1142.276618,17926.634653,-7105.977043,-11991.336260
1142.276937,10265.679673,-11695.253884,-14434.015869
1142.277255,5898.935335,-14211.954086,-3256.906145
1142.277574,-2221.676944,-16284.530724,3108.864956
1142.277893,-7660.954980,-19393.395680,25537.104999
1142.278212,-14479.204912,-17764.942608,37898.544230
1142.278530,-19382.216099,-9696.697840,40267.203245
1142.278849,-17466.977354,1036.288319,37454.420665
1142.279168,-12257.527968,12953.603985,33087.205607
1142.279487,-1991.848295,20133.601622,30200.402434
1142.279806,4366.744339,21021.848753,10732.986159
1142.280124,12487.356617,20799.786970,-5995.668130
1142.280443,16624.272307,17320.819043,-13693.809927
1142.280762,18922.558801,5773.606348,-13249.686362
1142.281081,19228.997000,-5477.523971,-11251.130318
1142.281399,10725.336972,-7328.038826,-13767.830521
1142.281718,2451.505594,-14656.077652,-12065.356855
1142.282037,-1302.362347,-11399.171507,-1776.494261
1142.282356,-6741.640382,-16136.489536,10362.883188
1142.282674,-11108.384721,-19911.539840,26351.331535
1142.282993,-16088.005458,-11917.315666,34419.576303
1142.283312,-22599.817191,2368.659014,29460.196492
1142.283631,-18156.463303,7846.182985,33161.226202
1142.283950,-10112.460574,11177.109724,33087.205607
1142.284268,-4136.915689,17468.860231,19689.478057
1142.284587,2145.067394,19911.539840,-1776.494261
1142.284906,10801.946522,24056.693115,-8660.409521
1142.285225,17696.806004,11917.315666,-15100.201217
1142.285543,18539.511052,3701.029710,-15840.407159
1142.285862,15398.519510,-6143.709319,-9992.780217
1142.286181,5745.716235,-9030.512492,-13841.851115
1142.286500,0.000000,-15766.386565,-9622.677246
1142.286818,-4519.963438,-15692.365970,1776.494261
1142.287137,-9499.584175,-20725.766376,20577.725188
1142.287456,-12640.575717,-24130.713709,34567.617491
1142.287775,-19458.825649,-10584.944971,34271.535115
1142.288094,-20301.530697,4663.297435,32791.123231
1142.288412,-16700.881856,10955.047942,33161.226202
1142.288731,-4826.401637,18727.210333,26721.434506
1142.289050,842.705048,20651.745782,16506.592507
1142.289369,8350.440928,25018.960840,0.000000
1142.289687,13942.938064,19911.539840,-8882.471304
1142.290006,19305.606550,6365.771101,-13841.851115
1142.290325,21527.283494,-1554.432478,-9770.718434
1142.290644,17773.415554,-13249.686362,-8364.327145
1142.290962,7354.516781,-10658.965565,-13175.665768
1142.291281,5439.278036,-14434.015869,-10288.862594
1142.291600,-766.095498,-15766.386565,10066.800811
1142.291919,-4826.401637,-18801.230927,26869.475695
1142.292238,-10418.898773,-13397.727550,33235.246796
1142.292556,-16777.491406,-592.164754,32272.979071
1142.292875,-15168.690860,5403.503377,38120.606013
1142.293194,-6971.469032,14434.015869,31310.711347
1142.293513,-1225.752797,14211.954086,25167.002028
1142.293831,7584.345430,19023.292709,12065.356855
1142.294150,12870.404366,18653.189738,-4811.338623
1142.294469,19075.777900,13027.624579,-14211.954086
1142.294788,21374.064394,3330.926739,-11917.315666
1142.295106,21833.721693,-3627.009116,-8660.409521
1142.295425,13023.623466,-10584.944971,-13249.686362
1142.295744,5439.278036,-10066.800811,-11843.295072
1142.296063,76.609550,-13767.830521,-4589.276840
1142.296381,-5898.935335,-15914.427753,12213.398043
1142.296700,-11108.384721,-21688.034101,32569.061448
1142.297019,-17926.634653,-14434.015869,38934.832549
1142.297338,-22293.378992,-592.164754,34567.617491
1142.297657,-19765.263848,9844.739029,29534.217086
1142.297975,-11568.042020,14878.139434,31014.628970
1142.298294,-4673.182538,12879.583391,19911.539840
1142.298613,3294.210641,20873.807564,4885.359217
1142.298932,7584.345430,19615.457463,-3552.988522
1142.299250,14096.157163,14804.118840,-9400.615463
1142.299569,15934.786358,1258.350101,-14508.036463
1142.299888,15628.348159,-5403.503377,-8142.265362
1142.300207,8810.098227,-10955.047942,-10288.862594
1142.300525,1378.971896,-11547.212695,-10658.965565
1142.300844,-2068.457845,-12805.562797,-3701.029710
1142.301163,-6281.983084,-17764.942608,12583.501014
1142.301482,-9729.412825,-15322.262999,29164.114115
1142.301801,-18616.120601,-6069.688724,31014.628970
1142.302119,-20761.187996,-0.000000,34049.473332
1142.302438,-19228.997000,9622.677246,31828.855506
1142.302757,-9039.926876,12953.603985,28497.928767
1142.303076,-766.095498,16580.613101,14285.974681
1142.303394,4443.353888,26277.310941,814.226536
1142.303713,14096.157163,15618.345376,-7105.977043
1142.304032,18309.682402,12731.542202,-12879.583391
1142.304351,20914.407095,-666.185348,-11029.068536
1142.304669,17007.320056,-8216.285956,-9326.594869
1142.304988,9039.926876,-15100.201217,-10288.862594
1142.305307,4366.744339,-14063.912898,-9104.533087
1142.305626,-3140.991542,-16284.530724,-888.247130
1142.305945,-6052.154434,-18801.230927,18653.189738
1142.306263,-12257.527968,-16654.633695,33013.185013
1142.306582,-16241.224558,-8956.491898,35603.905810
1142.306901,-19841.873398,370.102971,39304.935520
1142.307220,-12563.966167,10584.944971,35529.885216
1142.307538,-3677.258390,14211.954086,28794.011144
1142.307857,4213.525239,22058.137072,9030.512492
1142.308176,9422.974625,16210.510130,-370.102971
1142.308495,14019.547613,15396.283594,-8364.327145
1142.308813,19918.482948,6143.709319,-14285.974681
1142.309132,22753.036291,-3701.029710,-8290.306550
1142.309451,15934.786358,-8586.388927,-11843.295072
1142.309770,12793.794817,-11399.171507,-13841.851115
1142.310089,4290.134789,-11251.130318,-8882.471304
1142.310407,689.485948,-13027.624579,4589.276840
1142.310726,-8273.831378,-20947.828159,21317.931130
1142.311045,-13176.842566,-12287.418637,30126.381839
1142.311364,-18079.853753,-5551.544565,35233.802839
1142.311683,-17543.586904,2886.803174,37306.379477
1142.312001,-11721.261119,5403.503377,34049.473332
1142.312320,-306.438199,14063.912898,25907.207970
1142.312639,5439.278036,22946.384202,6217.729913
1142.312958,10418.898773,21984.116477,-2368.659014
1142.313277,15628.348159,13767.830521,-7920.203579
1142.313596,18462.901502,8142.265362,-12879.583391
1142.313915,20148.311597,-1924.535449,-10955.047942
1142.314234,11338.213370,-2664.741391,-14508.036463
1142.314553,3983.696590,-9326.594869,-13767.830521
1142.314871,-2757.943793,-11843.295072,-4145.153275
1142.315190,-5975.544884,-17394.839637,10807.006753
1142.315509,-13406.671215,-21688.034101,24944.940245
1142.315828,-19612.044749,-13841.851115,34419.576303
1142.316147,-21527.283494,-5403.503377,35825.967593
1142.316466,-21297.454844,5699.585753,35011.741057
1142.316785,-13406.671215,7846.182985,36566.173535
1142.317104,-7354.516781,17394.839637,22058.137072
1142.317422,842.705048,29386.175897,4589.276840
1142.317741,9729.412825,13841.851115,-1628.453072
1142.318060,14709.033562,21688.034101,-10214.842000
1142.318379,17696.806004,3552.988522,-12731.542202
1142.318698,15475.129060,-3182.885551,-10658.965565
1142.319017,11644.651570,-8808.450710,-12583.501014
1142.319336,3447.429741,-9252.574275,-6513.812290
1142.319655,-1608.800546,-15100.201217,-1184.329507
1142.319973,-6128.763984,-15026.180623,12657.521608
1142.320292,-8120.612279,-18875.251521,29756.278868
1142.320611,-14249.376263,-10436.903782,34419.576303
1142.320930,-16241.224558,-2442.679609,33975.452738
1142.321249,-17926.634653,7550.100608,32791.123231
1142.321568,-7124.688131,11103.089130,35011.741057
1142.321887,1762.019645,20873.807564,19615.457463
1142.322206,7354.516781,20281.642811,3404.947333
1142.322524,15475.129060,17024.736666,-4737.318029
1142.322843,20454.749797,18209.066173,-18875.251521
1142.323162,24974.713235,3923.091493,-16358.551318
1142.323481,20914.407095,-4959.379811,-9548.656652
1142.323800,11644.651570,-13841.851115,-11473.192101
1142.324119,6128.763984,-14804.118840,-7254.018232
1142.324438,76.609550,-18135.045579,1628.453072
1142.324757,-3294.210641,-19467.416275,22206.178260
1142.325075,-8963.317327,-21539.992912,30940.608376
1142.325394,-13253.452115,-7179.997637,34197.514520
1142.325713,-15321.909960,-370.102971,34345.555709
1142.326032,-12870.404366,11769.274478,29312.155303
1142.326351,-6588.421283,13693.809927,25092.981434
1142.326670,4366.744339,26721.434506,15100.201217
1142.326989,8886.707777,18061.024985,-370.102971
1142.327308,13253.452115,16136.489536,-9104.533087
1142.327627,16241.224558,9992.780217,-15988.448347
1142.327945,17926.634653,-5699.585753,-8364.327145
1142.328264,12257.527968,-10214.842000,-8956.491898
1142.328583,5592.497135,-14656.077652,-8438.347739
1142.328902,-229.828649,-12657.521608,-7994.224174
1142.329221,-3677.258390,-12287.418637,2812.782580
1142.329540,-6741.640382,-16728.654289,23686.590144
1142.329859,-12870.404366,-15914.427753,34049.473332
1142.330178,-17160.539155,-3849.070898,30052.361245
1142.330496,-19075.777900,7179.997637,27831.743419
1142.330815,-12793.794817,12953.603985,32346.999665
1142.331134,-7354.516781,14878.139434,26129.269753
1142.331453,0.000000,22280.198854,7994.224174
1142.331772,5592.497135,17172.777854,-2442.679609
1142.332091,13023.623466,20429.683999,-10214.842000
1142.332410,17620.196454,9844.739029,-13767.830521
1142.332729,16547.662757,-3034.844362,-12657.521608
1142.333047,10955.165621,-9030.512492,-9474.636058
1142.333366,4136.915689,-11177.109724,-6143.709319
1142.333685,-1455.581446,-15396.283594,1850.514855
1142.334004,-5515.887586,-16580.613101,3627.009116
1142.334323,-10648.727422,-15914.427753,30718.546593
1142.334642,-13942.938064,-16358.551318,39304.935520
1142.334961,-18769.339701,-962.267725,37084.317694
1142.335280,-19612.044749,10732.986159,25018.960840
1142.335598,-11031.775171,14137.933492,27313.599260
1142.335917,-1991.848295,18579.169144,22354.219448
1142.336236,3294.210641,19541.436869,7920.203579
1142.336555,10955.165621,18431.127956,-3182.885551
1142.336874,14325.985813,14285.974681,-8882.471304
1142.337193,20684.578446,5551.544565,-16136.489536
1142.337512,17390.367805,-9622.677246,-4293.194464
1142.337831,13330.061665,-13027.624579,-3478.967927
1142.338149,4213.525239,-15470.304188,-8216.285956
1142.338468,2987.772442,-10732.986159,-592.164754
1142.338787,-1685.410096,-16136.489536,11177.109724
1142.339106,-5592.497135,-18283.086767,30644.525999
1142.339425,-12027.699319,-9474.636058,34789.679274
1142.339744,-14249.376263,3923.091493,34567.617491
1142.340063,-13559.890315,8956.491898,26055.249158
1142.340382,-6281.983084,13989.892304,25833.187376
1142.340700,3294.210641,21465.972318,15544.324782
1142.341019,10495.508323,18949.272115,9400.615463
1142.341338,15092.081311,18875.251521,-2368.659014
1142.341657,17237.148705,10140.821405,-15174.221811
1142.341976,21603.893044,2220.617826,-11103.089130
1142.342295,17773.415554,-8956.491898,-3923.091493
1142.342614,11031.775171,-11103.089130,-7031.956449
1142.342933,4596.572988,-12139.377449,-8438.347739
1142.343252,306.438199,-11695.253884,-1924.535449
1142.343570,-4060.306139,-19467.416275,16876.695478
1142.343889,-13559.890315,-16654.633695,26721.434506
1142.344208,-15781.567259,-9622.677246,33975.452738
1142.344527,-19918.482948,2886.803174,30052.361245
1142.344846,-18233.072852,10732.986159,25611.125593
1142.345165,-8580.269578,14434.015869,27831.743419
1142.345484,-459.657299,17838.963202,10955.047942
1142.345803,3983.696590,20577.725188,5403.503377
1142.346121,9806.022374,9696.697840,-4219.173869
1142.346440,12334.137518,9992.780217,-14434.015869
1142.346759,16854.100956,1480.411884,-9252.574275
1142.347078,12257.527968,-7772.162391,-6069.688724
1142.347397,4903.011187,-13249.686362,-8142.265362
1142.347716,0.000000,-12657.521608,-7846.182985
1142.348035,-2298.286494,-11917.315666,-1924.535449
1142.348354,-8963.317327,-15248.242405,13619.789333
1142.348672,-15245.300410,-13249.686362,26943.496289
1142.348991,-19535.435199,-8734.430116,32939.164419
1142.349310,-20607.968896,1332.370696,34493.596897
1142.349629,-17390.367805,9400.615463,30422.464216
1142.349948,-7660.954980,12361.439231,29608.237680
1142.350267,842.705048,18061.024985,11251.130318
1142.350586,8197.221829,18283.086767,4737.318029
1142.350905,15245.300410,21021.848753,-6661.853478
1142.351223,17466.977354,10214.842000,-12435.459826
1142.351542,18539.511052,518.144159,-10584.944971
1142.351861,17773.415554,-7105.977043,-7994.224174
1142.352180,10112.460574,-12583.501014,-8364.327145
1142.352499,5056.230287,-7254.018232,-9252.574275
1142.352818,612.876398,-8586.388927,2960.823768
1142.353137,-5745.716235,-18579.169144,22946.384202
1142.353456,-7814.174080,-13545.768739,33901.432144
1142.353774,-16394.443657,-2738.761985,34789.679274
1142.354093,-14479.204912,3256.906145,33531.329173
1142.354412,-12257.527968,10584.944971,34419.576303
1142.354731,-842.705048,12953.603985,23242.466579
1142.355050,2911.162892,13175.665768,12065.356855
1142.355369,10112.460574,17468.860231,5551.544565
1142.355688,16011.395908,12805.562797,-6365.771101
1142.356007,18922.558801,10066.800811,-16062.468941
1142.356326,22063.550342,-222.061783,-9770.718434
1142.356644,18079.853753,-5107.421000,-10214.842000
1142.356963,7354.516781,-8660.409521,-10732.986159
1142.357282,4749.792088,-9178.553681,-7624.121203
1142.357601,-2451.505594,-14211.954086,3997.112087
1142.357920,-7737.564530,-18505.148550,21095.869347
1142.358239,-13406.671215,-18283.086767,35529.885216
1142.358558,-17390.367805,-9252.574275,36196.070564
1142.358877,-20071.702048,-1480.411884,35381.844028
1142.359195,-15934.786358,9030.512492,32272.979071
1142.359514,-5515.887586,9992.780217,32791.123231
1142.359833,3064.381992,22428.240043,11473.192101
1142.360152,9269.755526,24278.754898,-3849.070898
1142.360471,13100.233016,19393.395680,-9400.615463
1142.360790,16088.005458,12509.480420,-14508.036463
1142.361109,17083.929605,-370.102971,-11695.253884
1142.361428,11184.994271,-6809.894666,-10140.821405
1142.361746,4903.011187,-13249.686362,-5033.400406
1142.362065,-1302.362347,-12953.603985,-5403.503377
1142.362384,-9116.536426,-19023.292709,4663.297435
1142.362703,-6205.373534,-21021.848753,29312.155303
1142.363022,-16011.395908,-11991.336260,29312.155303
1142.363341,-18079.853753,-1850.514855,32346.999665
1142.363660,-22676.426741,-74.020594,30496.484810
1142.363979,-15398.519510,10732.986159,29386.175897
1142.364297,-4673.182538,12361.439231,27017.516883
1142.364616,1302.362347,20207.622217,14952.160028
1142.364935,8197.221829,23908.651927,-6143.709319
1142.365254,11951.089769,12731.542202,-10807.006753
1142.365573,17083.929605,9474.636058,-10362.883188
1142.365892,18386.291952,-1702.473667,-11843.295072
1142.366211,11644.651570,-6735.874072,-12287.418637
1142.366530,5056.230287,-12879.583391,-9696.697840
1142.366848,1915.238745,-11547.212695,-3478.967927
1142.367167,-4136.915689,-10436.903782,4071.132681
1142.367486,-5745.716235,-20429.683999,24500.816680
1142.367805,-11797.870669,-16210.510130,37602.461854
1142.368124,-16164.615008,-7772.162391,33161.226202
1142.368443,-17237.148705,4071.132681,30570.505405
1142.368762,-11874.480219,9770.718434,30570.505405
1142.369081,-1302.362347,17542.880825,28201.846390
1142.369400,7201.297681,13841.851115,9844.739029
1142.369718,13866.328514,26055.249158,-3182.885551
1142.370037,19688.654299,22724.322419,-12583.501014
1142.370356,20837.797546,10510.924376,-20503.704593
1142.370675,21833.721693,-4589.276840,-10436.903782
1142.370994,16777.491406,-10140.821405,-6513.812290
1142.371313,7737.564530,-12657.521608,-7994.224174
1142.371632,2451.505594,-11399.171507,-5033.400406
1142.371951,-229.828649,-15396.283594,14582.057057
1142.372269,-7201.297681,-22724.322419,29904.320057
1142.372588,-12180.918418,-17098.757260,34345.555709
1142.372907,-16777.491406,-2220.617826,33901.432144
1142.373226,-13942.938064,6069.688724,29090.093521
1142.373545,-12563.966167,14211.954086,24056.693115
1142.373864,-3217.601092,12657.521608,22280.198854
1142.374183,4060.306139,20207.622217,6365.771101
1142.374502,9652.803275,19393.395680,-3775.050304
1142.374820,13253.452115,13101.645173,-12435.459826
1142.375139,17160.539155,3256.906145,-14878.139434
1142.375458,15934.786358,-6291.750507,-6883.915261
1142.375777,7967.393179,-8586.388927,-8808.450710
1142.376096,306.438199,-13545.768739,-7476.080014
1142.376415,-3447.429741,-11695.253884,1554.432478
1142.376734,-6435.202183,-16506.592507,13471.748144
1142.377053,-10189.070123,-16506.592507,29978.340651
1142.377371,-16700.881856,-10732.986159,33679.370361
1142.377690,-19075.777900,2072.576638,31606.793723
1142.378009,-19075.777900,9326.594869,25537.104999
1142.378328,-14325.985813,12213.398043,27461.640448
1142.378647,-4443.353888,11769.274478,23094.425390
1142.378966,1762.019645,19023.292709,5033.400406
1142.379285,7890.783629,19541.436869,-6217.729913
1142.379604,14325.985813,14211.954086,-8882.471304
1142.379922,14709.033562,2812.782580,-12657.521608
1142.380241,14709.033562,-10362.883188,-5181.441594
1142.380560,8963.317327,-12361.439231,-3182.885551
1142.380879,2221.676944,-10807.006753,-4811.338623
1142.381198,995.924147,-12509.480420,592.164754
1142.381517,-1838.629195,-14804.118840,16506.592507
1142.381836,-7354.516781,-15248.242405,29460.196492
1142.382155,-12334.137518,-7772.162391,33457.308578
1142.382474,-14479.204912,4293.194464,30866.587781
1142.382792,-15398.519510,9918.759623,23686.590144
1142.383111,-6128.763984,13545.768739,21539.992912
1142.383430,-766.095498,8438.347739,16210.510130
1142.383749,8656.879127,17987.004391,5921.647536
1142.384068,12257.527968,12361.439231,-6365.771101
1142.384387,17237.148705,5773.606348,-11177.109724
1142.384706,19382.216099,-740.205942,-11769.274478
1142.385025,17696.806004,-5773.606348,-3775.050304
1142.385343,12104.308868,-9326.594869,-7624.121203
1142.385662,6741.640382,-13249.686362,-4515.256246
1142.385981,919.314598,-10584.944971,0.000000
1142.386300,-2987.772442,-12953.603985,16136.489536
1142.386619,-7277.907231,-17912.983796,29830.299463
1142.386938,-12793.794817,-8660.409521,34123.493926
1142.387257,-14479.204912,518.144159,31754.834912
1142.387576,-12027.699319,9474.636058,21762.054695
1142.387894,-6052.154434,15692.365970,18727.210333
1142.388213,-306.438199,10881.027347,17394.839637
1142.388532,6128.763984,12953.603985,6809.894666
1142.388851,10189.070123,12509.480420,-4811.338623
1142.389170,16547.662757,9770.718434,-10658.965565
1142.389489,16011.395908,2886.803174,-10807.006753
1142.389808,14709.033562,-9622.677246,-4959.379811
1142.390127,9116.536426,-8882.471304,-4663.297435
1142.390445,3370.820191,-10214.842000,-4663.297435
1142.390764,-2374.896044,-9918.759623,296.082377
1142.391083,-6128.763984,-11769.274478,18653.189738
1142.391402,-10035.851024,-13989.892304,28645.969955
1142.391721,-16164.615008,-5403.503377,29830.299463
1142.392040,-18692.730151,4145.153275,28868.031738
1142.392359,-15092.081311,8586.388927,27313.599260
1142.392678,-8120.612279,9178.553681,23834.631332
1142.392996,-1225.752797,11621.233289,14508.036463
1142.393315,2681.334243,11473.192101,5403.503377
1142.393634,7354.516781,12657.521608,-1258.350101
1142.393953,11951.089769,8512.368333,-8956.491898
1142.394272,15321.909960,3256.906145,-7772.162391
1142.394591,12947.013916,-5403.503377,-7105.977043
1142.394910,7584.345430,-5551.544565,-9178.553681
1142.395229,2757.943793,-6957.935855,-5477.523971
1142.395548,-2911.162892,-6513.812290,1554.432478
1142.395866,-6128.763984,-11843.295072,16136.489536
1142.396185,-11644.651570,-13767.830521,26129.269753
1142.396504,-16088.005458,-8438.347739,31532.773129
1142.396823,-20454.749797,-1554.432478,31532.773129
1142.397142,-16317.834107,7698.141797,27091.537477
1142.397461,-5209.449386,12213.398043,21539.992912
1142.397780,1608.800546,17690.922014,19763.498651
1142.398099,5669.106685,13471.748144,10362.883188
1142.398417,11184.994271,12731.542202,0.000000
1142.398736,17160.539155,10658.965565,-7846.182985
1142.399055,18539.511052,1702.473667,-9178.553681
1142.399374,18079.853753,-4811.338623,-6735.874072
1142.399693,13636.499864,-4737.318029,-7994.224174
1142.400012,8350.440928,-4515.256246,-8956.491898
1142.400331,3600.648841,-5995.668130,-2442.679609
1142.400650,-1225.752797,-11991.336260,11917.315666
1142.400968,-6511.811733,-15026.180623,22724.322419
1142.401287,-13483.280765,-7624.121203,30052.361245
1142.401606,-15245.300410,-4145.153275,35011.741057
1142.401925,-15168.690860,1258.350101,34641.638086
1142.402244,-6435.202183,6069.688724,31014.628970
1142.402563,153.219100,11399.171507,22206.178260
1142.402882,7124.688131,14359.995275,10066.800811
1142.403201,11261.603821,13989.892304,-1850.514855
1142.403519,18845.949251,11103.089130,-9474.636058
1142.403838,18386.291952,6883.915261,-15174.221811
1142.404157,18003.244203,2072.576638,-11547.212695
1142.404476,10572.117872,-3478.967927,-9770.718434
1142.404795,5439.278036,-7624.121203,-6809.894666
1142.405114,-1762.019645,-10807.006753,-296.082377
1142.405433,-6971.469032,-13767.830521,13545.768739
1142.405752,-10572.117872,-16876.695478,27461.640448
1142.406070,-15245.300410,-14211.954086,33013.185013
1142.406389,-18769.339701,-4515.256246,34863.699868
1142.406708,-17390.367805,4515.256246,32495.040854
1142.407027,-12027.699319,9104.533087,25167.002028
1142.407346,-1685.410096,9844.739029,15692.365970
1142.407665,2834.553343,18653.189738,7994.224174
1142.407984,8120.612279,17690.922014,-3404.947333
1142.408303,12104.308868,13915.871710,-15026.180623
1142.408622,16930.710506,8364.327145,-15914.427753
1142.408940,15168.690860,-2886.803174,-5329.482782
1142.409259,9499.584175,-10436.903782,-9030.512492
1142.409578,2451.505594,-6883.915261,-8438.347739
1142.409897,-995.924147,-11325.150913,1776.494261
1142.410216,-5975.544884,-15026.180623,12583.501014
1142.410535,-9806.022374,-14285.974681,26869.475695
1142.410854,-14249.376263,-11547.212695,31236.690752
1142.411173,-18309.682402,-4959.379811,30792.567187
1142.411491,-17083.929605,666.185348,28275.866984
1142.411810,-12717.185267,3182.885551,30866.587781
1142.412129,-1149.143247,11843.295072,22354.219448
1142.412448,2911.162892,17024.736666,4737.318029
1142.412767,9269.755526,14434.015869,-2664.741391
1142.413086,13483.280765,16062.468941,-9770.718434
1142.413405,17850.025103,5477.523971,-14508.036463
1142.413724,17390.367805,-1924.535449,-11621.233289
1142.414042,12027.699319,-8142.265362,-9326.594869
1142.414361,6281.983084,-8734.430116,-6143.709319
1142.414680,1072.533697,-9326.594869,-2072.576638
1142.414999,-3524.039291,-16580.613101,13175.665768
1142.415318,-7277.907231,-15914.427753,27091.537477
1142.415637,-10418.898773,-10436.903782,32050.917289
1142.415956,-13866.328514,-3627.009116,29386.175897
1142.416275,-13406.671215,4441.235652,29608.237680
1142.416593,-7814.174080,11177.109724,28868.031738
1142.416912,1072.533697,11399.171507,23242.466579
1142.417231,8886.707777,23390.507767,7402.059420
1142.417550,12180.918418,13693.809927,-1036.288319
1142.417869,17313.758255,16506.592507,-13545.768739
1142.418188,21450.673944,9104.533087,-15322.262999
1142.418507,19918.482948,-814.226536,-11843.295072
1142.418826,13253.452115,-6365.771101,-9104.533087
1142.419145,8273.831378,-5921.647536,-3330.926739
1142.419463,2298.286494,-8068.244768,-3478.967927
1142.419782,-3830.477490,-15026.180623,12213.398043
1142.420101,-10112.460574,-18061.024985,29608.237680
1142.420420,-11721.261119,-11621.233289,34641.638086
1142.420739,-15628.348159,370.102971,31458.752535
1142.421058,-14785.643111,6735.874072,27165.558071
1142.421377,-11184.994271,9844.739029,30496.484810
1142.421696,-3600.648841,18283.086767,24352.775492
1142.422014,2221.676944,12065.356855,12139.377449
1142.422333,5132.839837,19097.313304,-3330.926739
1142.422652,9806.022374,12361.439231,-8290.306550
1142.422971,12487.356617,7105.977043,-12435.459826
1142.423290,12257.527968,370.102971,-10510.924376
1142.423609,7354.516781,-6365.771101,-4959.379811
1142.423928,-689.485948,-13397.727550,-1554.432478
1142.424247,-2528.115143,-10510.924376,1480.411884
1142.424566,-5975.544884,-15988.448347,17838.963202
1142.424884,-10418.898773,-14285.974681,32272.979071
1142.425203,-13406.671215,-10584.944971,32272.979071
1142.425522,-17850.025103,3256.906145,26721.434506
1142.425841,-15551.738609,5921.647536,26203.290347
1142.426160,-10878.556072,12879.583391,22946.384202
1142.426479,-1915.238745,14508.036463,16580.613101
1142.426798,2451.505594,16284.530724,7179.997637
1142.427117,8733.488677,15618.345376,-2960.823768
1142.427435,10878.556072,13841.851115,-10288.862594
1142.427754,15321.909960,4367.215058,-11621.233289
1142.428073,12947.013916,-6217.729913,-5403.503377
1142.428392,9269.755526,-13175.665768,-814.226536
1142.428711,4290.134789,-10214.842000,-3552.988522
1142.429030,1302.362347,-6365.771101,2590.720797
1142.429349,-2451.505594,-12361.439231,15026.180623
1142.429668,-4060.306139,-12435.459826,30718.546593
1142.429987,-10035.851024,-7105.977043,30274.423028
1142.430305,-12104.308868,666.185348,28201.846390
1142.430624,-11797.870669,8956.491898,23908.651927
1142.430943,-3983.696590,10510.924376,19319.375086
1142.431262,1455.581446,16062.468941,12879.583391
1142.431581,7584.345430,9326.594869,7698.141797
1142.431900,13406.671215,12139.377449,-4737.318029
1142.432219,16241.224558,7698.141797,-13619.789333
1142.432538,18462.901502,-74.020594,-9844.739029
1142.432856,14862.252661,-10584.944971,-5329.482782
1142.433175,10955.165621,-11843.295072,-2960.823768
1142.433494,4749.792088,-7846.182985,-6291.750507
1142.433813,995.924147,-10214.842000,4515.256246
1142.434132,-3217.601092,-12139.377449,16728.654289
1142.434451,-8197.221829,-10510.924376,24500.816680
1142.434770,-10572.117872,-5107.421000,31162.670158
1142.435089,-11874.480219,3923.091493,25759.166782
1142.435408,-11414.822920,9474.636058,22650.301825
1142.435726,-4749.792088,13175.665768,16876.695478
1142.436045,-1838.629195,9992.780217,13471.748144
1142.436364,3983.696590,11991.336260,9918.759623
1142.436683,8350.440928,7994.224174,592.164754
1142.437002,10725.336972,8216.285956,-9474.636058
1142.437321,14938.862211,1110.308913,-9622.677246
1142.437640,10572.117872,-5477.523971,-4367.215058
1142.437959,6358.592633,-9474.636058,-4737.318029
1142.438277,1532.190996,-11325.150913,-4071.132681
1142.438596,-3524.039291,-6883.915261,4219.173869
1142.438915,-5745.716235,-11843.295072,15544.324782
1142.439234,-11568.042020,-7105.977043,25907.207970
1142.439553,-14938.862211,-3627.009116,31310.711347
1142.439872,-14862.252661,5477.523971,27313.599260
1142.440191,-14479.204912,11103.089130,20873.807564
1142.440510,-7660.954980,8512.368333,19097.313304
1142.440829,-4443.353888,7920.203579,14804.118840
1142.441147,1072.533697,9474.636058,6513.812290
1142.441466,5439.278036,8068.244768,-370.102971
1142.441785,8733.488677,4293.194464,-2960.823768
1142.442104,11491.432470,-888.247130,-6217.729913
1142.442423,10112.460574,-3034.844362,-5403.503377
1142.442742,7124.688131,-7624.121203,-2368.659014
1142.443061,4519.963438,-6587.832884,-148.041188
1142.443380,536.266849,-4589.276840,4737.318029
1142.443698,-3907.087040,-6735.874072,17542.880825
1142.444017,-11261.603821,-6957.935855,25241.022622
1142.444336,-12947.013916,-4589.276840,31236.690752
1142.444655,-14402.595362,444.123565,28942.052332
1142.444974,-10648.727422,4737.318029,23094.425390
1142.445293,-4596.572988,11917.315666,19393.395680
1142.445612,1685.410096,10584.944971,12139.377449
1142.445931,6894.859482,9474.636058,6217.729913
1142.446250,13406.671215,7994.224174,1332.370696
1142.446568,14096.157163,4515.256246,-2886.803174
1142.446887,16011.395908,296.082377,-5995.668130
1142.447206,14479.204912,-1850.514855,-4219.173869
1142.447525,12180.918418,-5329.482782,-2960.823768
1142.447844,9806.022374,-4737.318029,-1998.556043
1142.448163,2834.553343,-3256.906145,3552.988522
1142.448482,-2681.334243,-7031.956449,14582.057057
1142.448801,-7814.174080,-8808.450710,23020.404796
1142.449119,-12563.966167,-6291.750507,27979.784608
1142.449438,-12640.575717,-888.247130,29978.340651
1142.449757,-10418.898773,4219.173869,26203.290347
1142.450076,-2834.553343,7402.059420,19393.395680
1142.450395,4596.572988,11251.130318,10881.027347
1142.450714,7967.393179,7179.997637,5033.400406
1142.451033,11031.775171,3330.926739,-814.226536
1142.451352,12947.013916,3701.029710,-6143.709319
1142.451671,15398.519510,-1628.453072,-7328.038826
1142.451989,13100.233016,-2368.659014,-8216.285956
1142.452308,8044.002729,-3182.885551,-8586.388927
1142.452627,3983.696590,-2812.782580,-5403.503377
1142.452946,-2145.067394,-3775.050304,2072.576638
1142.453265,-7048.078582,-7105.977043,13397.727550
1142.453584,-14862.252661,-7994.224174,21317.931130
1142.453903,-17160.539155,-5773.606348,29090.093521
1142.454222,-16317.834107,-1850.514855,29830.299463
1142.454540,-14785.643111,2664.741391,23538.548956
1142.454859,-9116.536426,3997.112087,20207.622217
1142.455178,-4290.134789,7402.059420,13767.830521
1142.455497,1378.971896,11251.130318,5107.421000
1142.455816,7890.783629,8956.491898,-1406.391290
1142.456135,8273.831378,9918.759623,-7476.080014
1142.456454,11951.089769,7846.182985,-8956.491898
1142.456773,10801.946522,1628.453072,-11177.109724
1142.457092,5822.325785,-0.000000,-8290.306550
1142.457410,3294.210641,-5033.400406,-2072.576638
1142.457729,-2068.457845,-4515.256246,3478.967927
1142.458048,-7737.564530,-6957.935855,13915.871710
1142.458367,-10035.851024,-11251.130318,24944.940245
1142.458686,-14709.033562,-7105.977043,28942.052332
1142.459005,-12257.527968,-4959.379811,30200.402434
1142.459324,-12334.137518,888.247130,26425.352129
1142.459643,-7277.907231,4293.194464,22650.301825
1142.459961,306.438199,10658.965565,13397.727550
1142.460280,5822.325785,11399.171507,6217.729913
1142.460599,8733.488677,8142.265362,2590.720797
1142.460918,12027.699319,2442.679609,-3330.926739
1142.461237,14019.547613,4737.318029,-6957.935855
1142.461556,15245.300410,-1998.556043,-5477.523971
1142.461875,11797.870669,-4663.297435,-3330.926739
1142.462194,7354.516781,-3775.050304,-296.082377
1142.462513,2451.505594,-5033.400406,5255.462188
1142.462831,-2374.896044,-8364.327145,16284.530724
1142.463150,-8810.098227,-11325.150913,24056.693115
1142.463469,-10801.946522,-9918.759623,28571.949361
1142.463788,-10725.336972,-3627.009116,31088.649564
1142.464107,-9499.584175,2664.741391,29386.175897
1142.464426,-4290.134789,666.185348,23094.425390
1142.464745,2451.505594,10288.862594,15026.180623
1142.465064,8197.221829,10436.903782,5033.400406
1142.465382,13176.842566,8660.409521,962.267725
1142.465701,14172.766713,6957.935855,-8438.347739
1142.466020,16317.834107,4663.297435,-7994.224174
1142.466339,15015.471761,1406.391290,-10362.883188
1142.466658,10112.460574,-444.123565,-8364.327145
1142.466977,6511.811733,-5181.441594,296.082377
1142.467296,536.266849,-4737.318029,4441.235652
1142.467615,-5515.887586,-8882.471304,12731.542202
1142.467934,-11031.775171,-12213.398043,22132.157666
1142.468252,-15092.081311,-10362.883188,30126.381839
1142.468571,-15245.300410,-3034.844362,29904.320057
1142.468890,-12257.527968,6809.894666,25833.187376
1142.469209,-7660.954980,10510.924376,18431.127956
1142.469528,-2221.676944,4737.318029,17320.819043
1142.469847,3907.087040,9030.512492,8586.388927
1142.470166,7967.393179,11251.130318,-1776.494261
1142.470485,11261.603821,5995.668130,-5847.626942
1142.470803,10418.898773,3775.050304,-9400.615463
1142.471122,11721.261119,2590.720797,-7698.141797
1142.471441,8273.831378,-3627.009116,-7920.203579
1142.471760,2221.676944,-5107.421000,-3627.009116
1142.472079,-1762.019645,-6661.853478,2220.617826
1142.472398,-7277.907231,-6291.750507,8290.306550
1142.472717,-10265.679673,-9400.615463,20873.807564
1142.473036,-16241.224558,-7254.018232,29016.072926
1142.473355,-16930.710506,-4959.379811,33531.329173
1142.473673,-14785.643111,-74.020594,26351.331535
1142.473992,-9193.145976,4663.297435,20133.601622
1142.474311,-2757.943793,8734.430116,14656.077652
1142.474630,3753.867940,9400.615463,5255.462188
1142.474949,8427.050478,9030.512492,-2368.659014
1142.475268,13559.890315,7031.956449,-6143.709319
1142.475587,13100.233016,5921.647536,-10584.944971
1142.475906,13942.938064,-1702.473667,-6513.812290
1142.476224,10265.679673,-4885.359217,-4293.194464
1142.476543,6818.249932,-7624.121203,1628.453072
1142.476862,3907.087040,-5551.544565,4959.379811
1142.477181,-995.924147,-1480.411884,12139.377449
1142.477500,-3677.258390,-7105.977043,24130.713709
1142.477819,-8963.317327,-5477.523971,26425.352129
1142.478138,-11644.651570,-1702.473667,26943.496289
1142.478457,-9346.365076,518.144159,23316.487173
1142.478776,-4290.134789,5847.626942,20133.601622
1142.479094,1455.581446,11769.274478,14804.118840
1142.479413,6052.154434,3256.906145,5625.565159
1142.479732,10265.679673,5773.606348,2812.782580
1142.480051,14019.547613,3034.844362,-2812.782580
1142.480370,16394.443657,1332.370696,-5329.482782
1142.480689,14479.204912,-592.164754,-8142.265362
1142.481008,13100.233016,-3627.009116,-3182.885551
1142.481327,7507.735880,-3034.844362,0.000000
1142.481645,2451.505594,-2072.576638,3997.112087
1142.481964,-2374.896044,-5847.626942,12509.480420
1142.482283,-7814.174080,-6217.729913,19763.498651
1142.482602,-12640.575717,-4737.318029,24574.837274
1142.482921,-14555.814462,-740.205942,27387.619854
1142.483240,-13406.671215,5033.400406,23760.610738
1142.483559,-6511.811733,8290.306550,18505.148550
1142.483878,-4673.182538,8512.368333,12361.439231
1142.484196,2068.457845,6365.771101,9252.574275
1142.484515,4366.744339,4663.297435,1036.288319
1142.484834,8656.879127,4293.194464,-1036.288319
1142.485153,9499.584175,-1036.288319,-2516.700203
1142.485472,7967.393179,-888.247130,-4885.359217
1142.485791,6741.640382,-2368.659014,-2146.597232
1142.486110,2987.772442,-4663.297435,2590.720797
1142.486429,-919.314598,-5699.585753,7254.018232
1142.486748,-5975.544884,-1480.411884,12583.501014
1142.487066,-9039.926876,-1036.288319,19393.395680
1142.487385,-11491.432470,666.185348,25018.960840
1142.487704,-13713.109414,3182.885551,23982.672521
1142.488023,-10878.556072,6439.791695,21836.075289
1142.488342,-6128.763984,6291.750507,16950.716072
1142.488661,-3064.381992,6513.812290,10288.862594
1142.488980,2911.162892,2738.761985,6883.915261
1142.489299,6128.763984,-0.000000,1406.391290
1142.489617,8963.317327,-962.267725,-518.144159
1142.489936,10801.946522,-3701.029710,-1110.308913
1142.490255,10035.851024,-3404.947333,-148.041188
1142.490574,8044.002729,-2368.659014,-814.226536
1142.490893,6281.983084,-1776.494261,1480.411884
1142.491212,1685.410096,-1184.329507,7624.121203
1142.491531,-995.924147,-1036.288319,14952.160028
1142.491850,-3983.696590,-666.185348,16728.654289
1142.492169,-7737.564530,-1036.288319,21169.889941
1142.492487,-9576.193725,148.041188,23094.425390
1142.492806,-7354.516781,222.061783,22724.322419
1142.493125,-3064.381992,2442.679609,14508.036463
1142.493444,1455.581446,4441.235652,8290.306550
1142.493763,5745.716235,4589.276840,3997.112087
1142.494082,8886.707777,3478.967927,-2368.659014
1142.494401,10495.508323,-296.082377,-1776.494261
1142.494720,11874.480219,-3627.009116,2812.782580
1142.495038,10572.117872,-4885.359217,3997.112087
1142.495357,7507.735880,-2368.659014,444.123565
1142.495676,5132.839837,-3182.885551,5181.441594
1142.495995,919.314598,-4071.132681,12065.356855
1142.496314,-1991.848295,-2294.638420,14508.036463
1142.496633,-4596.572988,1036.288319,15988.448347
1142.496952,-7354.516781,2590.720797,16506.592507
1142.497271,-7507.735880,3923.091493,18283.086767
1142.497590,-6741.640382,5181.441594,14508.036463
1142.497908,-2068.457845,6661.853478,10955.047942
1142.498227,0.000000,4367.215058,6735.874072
1142.498546,1685.410096,-2368.659014,3108.864956
1142.498865,4673.182538,-1406.391290,3552.988522
1142.499184,6971.469032,-2590.720797,3997.112087
1142.499503,6894.859482,-4515.256246,4737.318029
1142.499822,5209.449386,-3108.864956,4811.338623
1142.500141,3064.381992,-888.247130,3923.091493
1142.500459,689.485948,814.226536,5921.647536
1142.500778,-1685.410096,962.267725,9992.780217
1142.501097,-4749.792088,814.226536,14137.933492
1142.501416,-6894.859482,3923.091493,13767.830521
1142.501735,-7737.564530,5033.400406,14508.036463
1142.502054,-7890.783629,6587.832884,15988.448347
1142.502373,-5898.935335,2664.741391,17320.819043
1142.502692,-2987.772442,4515.256246,12361.439231
1142.503011,612.876398,1924.535449,6809.894666
1142.503329,2068.457845,-74.020594,3627.009116
1142.503648,2987.772442,-2664.741391,3256.906145
1142.503967,4060.306139,-3775.050304,5995.668130
1142.504286,4749.792088,-4663.297435,7328.038826
1142.504605,3447.429741,-2812.782580,9474.636058
1142.504924,2987.772442,-444.123565,9844.739029
1142.505243,919.314598,1554.432478,10436.903782
1142.505562,536.266849,3034.844362,12879.583391
1142.505880,-2528.115143,3552.988522,15322.262999
1142.506199,-2757.943793,5033.400406,15100.201217
1142.506518,-1225.752797,7550.100608,12953.603985
1142.506837,-689.485948,4885.359217,11843.295072
1142.507156,919.314598,1628.453072,10881.027347
1142.507475,2987.772442,-296.082377,8808.450710
1142.507794,5209.449386,-1776.494261,4737.318029
1142.508113,6052.154434,-3182.885551,4663.297435
1142.508432,5286.058936,-3552.988522,6735.874072
1142.508750,5286.058936,-3404.947333,7772.162391
1142.509069,3217.601092,-1258.350101,9548.656652
1142.509388,3217.601092,-1110.308913,13471.748144
1142.509707,1225.752797,740.205942,12583.501014
1142.510026,536.266849,3552.988522,12213.398043
1142.510345,0.000000,3627.009116,11843.295072
1142.510664,-1302.362347,4589.276840,12657.521608
1142.510983,-383.047749,3923.091493,10881.027347
1142.511301,229.828649,4589.276840,8438.347739
1142.511620,1608.800546,3478.967927,5921.647536
1142.511939,2145.067394,1628.453072,4367.215058
1142.512258,2221.676944,-296.082377,2220.617826
1142.512577,2145.067394,-2294.638420,1924.535449
1142.512896,1072.533697,-5403.503377,5551.544565
1142.513215,-995.924147,-6809.894666,9178.553681
1142.513534,-2681.334243,-7550.100608,12435.459826
1142.513853,-3447.429741,-4885.359217,16136.489536
1142.514172,-4366.744339,-2738.761985,16802.674883
1142.514491,-4519.963438,-0.000000,16506.592507
1142.514810,-3753.867940,4367.215058,14804.118840
1142.515129,-2451.505594,7105.977043,11177.109724
1142.515447,-1072.533697,9844.739029,6513.812290
1142.515766,459.657299,9400.615463,3701.029710
1142.516085,1378.971896,6217.729913,1998.556043
1142.516404,2681.334243,1776.494261,0.000000
1142.516723,2451.505594,-3404.947333,74.020594
1142.517042,1762.019645,-7179.997637,2738.761985
1142.517361,-383.047749,-9252.574275,4663.297435
1142.517680,-1532.190996,-10214.842000,8808.450710
1142.517999,-3217.601092,-8586.388927,12731.542202
1142.518318,-4366.744339,-6439.791695,17468.860231
1142.518637,-4979.620737,-3997.112087,18949.272115
1142.518956,-4366.744339,518.144159,19097.313304
1142.519275,-3907.087040,5107.421000,16432.571912
1142.519594,-1915.238745,8882.471304,14063.912898
1142.519912,1378.971896,10362.883188,9548.656652
1142.520231,4673.182538,10732.986159,3775.050304
1142.520550,7967.393179,8512.368333,0.000000
1142.520869,9806.022374,7402.059420,-3627.009116
1142.521188,10801.946522,3330.926739,-4737.318029
1142.521507,9882.631924,-1702.473667,-2368.659014
1142.521826,6205.373534,-7550.100608,2590.720797
1142.522145,1608.800546,-9474.636058,5921.647536
1142.522464,-2374.896044,-9992.780217,10881.027347
1142.522783,-5362.668486,-10658.965565,17690.922014
1142.523102,-7584.345430,-8586.388927,24352.775492
1142.523421,-8580.269578,-5033.400406,26499.372724
1142.523740,-7507.735880,1480.411884,24352.775492
1142.524059,-6128.763984,6661.853478,21984.116477
1142.524378,-995.924147,13545.768739,16210.510130
1142.524696,3370.820191,12805.562797,7550.100608
1142.525015,9652.803275,16580.613101,296.082377
1142.525334,12257.527968,10732.986159,-5847.626942
1142.525653,14172.766713,6291.750507,-7698.141797
1142.525972,13330.061665,370.102971,-6587.832884
1142.526291,10648.727422,-6291.750507,-1924.535449
1142.526610,6894.859482,-9252.574275,2590.720797
1142.526929,612.876398,-11843.295072,9104.533087
1142.527248,-6358.592633,-14063.912898,14878.139434
1142.527567,-10035.851024,-11473.192101,23686.590144
1142.527886,-14019.547613,-7994.224174,26869.475695
1142.528205,-12870.404366,-1850.514855,27683.702231
1142.528524,-11031.775171,5477.523971,27017.516883
1142.528843,-7277.907231,10955.047942,23686.590144
1142.529161,-842.705048,13323.706956,13841.851115
1142.529480,2068.457845,13249.686362,4441.235652
1142.529799,7584.345430,14804.118840,962.267725
1142.530118,10572.117872,6735.874072,-7402.059420
1142.530437,13100.233016,5847.626942,-10881.027347
1142.530756,12410.747068,-2590.720797,-6513.812290
1142.531075,8733.488677,-9770.718434,-740.205942
1142.531394,4903.011187,-9326.594869,444.123565
1142.531713,153.219100,-9474.636058,6143.709319
1142.532032,-6588.421283,-11547.212695,15692.365970
1142.532351,-9499.584175,-11621.233289,26055.249158
1142.532670,-13559.890315,-5477.523971,27535.661042
1142.532989,-13942.938064,-148.041188,27683.702231
1142.533308,-12717.185267,5773.606348,24278.754898
1142.533626,-8044.002729,12953.603985,19023.292709
1142.533945,-2451.505594,12805.562797,11843.295072
1142.534264,2987.772442,14804.118840,1924.535449
1142.534583,5439.278036,11177.109724,-7254.018232
1142.534902,10265.679673,7254.018232,-10658.965565
1142.535221,10035.851024,-1480.411884,-11473.192101
1142.535540,9806.022374,-7920.203579,-4293.194464
1142.535859,4826.401637,-12139.377449,-666.185348
1142.536178,2604.724693,-11473.192101,1258.350101
1142.536497,-229.828649,-12953.603985,11917.315666
1142.536816,-5592.497135,-13915.871710,24130.713709
1142.537135,-8427.050478,-11843.295072,30570.505405
1142.537454,-11644.651570,-2294.638420,26721.434506
1142.537773,-10035.851024,6513.812290,26055.249158
1142.538091,-6052.154434,11473.192101,18949.272115
1142.538410,-919.314598,17690.922014,16210.510130
1142.538729,5592.497135,13767.830521,8364.327145
1142.539048,10112.460574,13693.809927,-4959.379811
1142.539367,13789.718964,9992.780217,-9992.780217
1142.539686,13253.452115,1184.329507,-13619.789333
1142.540005,14709.033562,-5329.482782,-7624.121203
1142.540324,9959.241474,-11917.315666,-2442.679609
1142.540643,5439.278036,-14508.036463,1406.391290
1142.540962,383.047749,-11621.233289,6439.791695
1142.541281,-1915.238745,-13027.624579,17172.777854
1142.541600,-4979.620737,-16580.613101,28497.928767
1142.541919,-9039.926876,-7105.977043,32346.999665
1142.542238,-10035.851024,3182.885551,28423.908173
1142.542557,-8656.879127,17690.922014,22058.137072
1142.542875,-3064.381992,16876.695478,17098.757260
1142.543194,4749.792088,19171.333898,11843.295072
1142.543513,10035.851024,19393.395680,370.102971
1142.543832,12563.966167,15914.427753,-13915.871710
1142.544151,13100.233016,8364.327145,-16728.654289
1142.544470,13100.233016,-4663.297435,-10066.800811
1142.544789,9652.803275,-16506.592507,-2072.576638
1142.545108,2834.553343,-16802.674883,1924.535449
1142.545427,-3830.477490,-16802.674883,4441.235652
1142.545746,-6894.859482,-14878.139434,14804.118840
1142.546065,-8810.098227,-14359.995275,27165.558071
1142.546384,-12257.527968,-8882.471304,33457.308578
1142.546703,-14785.643111,740.205942,32939.164419
1142.547022,-12487.356617,12509.480420,25759.166782
1142.547340,-12257.527968,15988.448347,20281.642811
1142.547659,-3140.991542,18949.272115,16136.489536
1142.547978,2298.286494,17838.963202,5551.544565
1142.548297,7584.345430,16136.489536,-6587.832884
1142.548616,9729.412825,15322.262999,-16728.654289
1142.548935,13023.623466,2368.659014,-12583.501014
1142.549254,11874.480219,-10214.842000,-5329.482782
1142.549573,5592.497135,-17394.839637,-1480.411884
1142.549892,-1685.410096,-16728.654289,2146.597232
1142.550211,-5669.106685,-16580.613101,6439.791695
1142.550530,-8733.488677,-15840.407159,22798.343014
1142.550849,-11031.775171,-18727.210333,35603.905810
1142.551168,-16930.710506,-8882.471304,35974.008781
1142.551487,-14096.157163,5329.482782,33161.226202
1142.551805,-11644.651570,16136.489536,22650.301825
1142.552124,-2298.286494,19689.478057,19837.519246
1142.552443,4826.401637,25167.002028,11251.130318
1142.552762,9499.584175,19541.436869,-222.061783
1142.553081,15781.567259,21762.054695,-9696.697840
1142.553400,17620.196454,9770.718434,-19689.478057
1142.553719,18922.558801,-5329.482782,-13989.892304
1142.554038,14785.643111,-17838.963202,-4663.297435
1142.554357,8044.002729,-15618.345376,0.000000
1142.554676,1532.190996,-21984.116477,3256.906145
1142.554995,-1685.410096,-15396.283594,10881.027347
1142.555314,-5056.230287,-19911.539840,29904.320057
1142.555633,-11874.480219,-13767.830521,39749.059085
1142.555952,-14172.766713,-3034.844362,33679.370361
1142.556271,-13942.938064,9992.780217,27165.558071
1142.556589,-7354.516781,16506.592507,23686.590144
1142.556908,229.828649,22946.384202,17098.757260
1142.557227,5439.278036,20133.601622,5181.441594
1142.557546,11797.870669,23168.445985,-7476.080014
1142.557865,18692.730151,16432.571912,-15470.304188
1142.558184,17620.196454,1776.494261,-19097.313304
1142.558503,17083.929605,-10732.986159,-8512.368333
1142.558822,9269.755526,-18431.127956,-3034.844362
1142.559141,4290.134789,-16062.468941,-2294.638420
1142.559460,-2145.067394,-17690.922014,1850.514855
1142.559779,-5898.935335,-20725.766376,18061.024985
1142.560098,-9959.241474,-23094.425390,33531.329173
1142.560417,-15704.957709,-14434.015869,38194.626607
1142.560736,-17773.415554,-2664.741391,33753.390955
1142.561054,-16854.100956,12287.418637,22576.281231
1142.561373,-6894.859482,21095.869347,19985.560434
1142.561692,1455.581446,20947.828159,14804.118840
1142.562011,6205.373534,23834.631332,-592.164754
1142.562330,12870.404366,21391.951724,-10807.006753
1142.562649,14785.643111,16432.571912,-21095.869347
1142.562968,15934.786358,1036.288319,-17987.004391
1142.563287,13406.671215,-11325.150913,-6365.771101
1142.563606,4673.182538,-18135.045579,-3923.091493
1142.563925,-842.705048,-20799.786970,370.102971
1142.564244,-5132.839837,-20429.683999,7105.977043
1142.564563,-11721.261119,-21243.910535,24796.899057
1142.564882,-12640.575717,-17912.983796,42043.697506
1142.565201,-17850.025103,-6217.729913,41081.429781
1142.565519,-18769.339701,5921.647536,31014.628970
1142.565838,-13636.499864,19023.292709,24500.816680
1142.566157,-7201.297681,24278.754898,19393.395680
1142.566476,1455.581446,21317.931130,14730.098246
1142.566795,9499.584175,33531.329173,-4071.132681
1142.567114,14632.424012,22428.240043,-11769.274478
1142.567433,16777.491406,12805.562797,-16950.716072
1142.567752,18386.291952,-2220.617826,-15914.427753
1142.568071,13483.280765,-12657.521608,-7105.977043
1142.568390,1072.533697,-17912.983796,-4515.256246
1142.568709,-1838.629195,-17394.839637,2220.617826
1142.569028,-5975.544884,-20429.683999,11843.295072
1142.569347,-7277.907231,-21762.054695,31902.876100
1142.569666,-12027.699319,-17912.983796,41969.676911
1142.569984,-15628.348159,-5699.585753,34123.493926
1142.570303,-15398.519510,6217.729913,31976.896694
1142.570622,-8656.879127,12287.418637,30940.608376
1142.570941,689.485948,18209.066173,22206.178260
1142.571260,7201.297681,27831.743419,5107.421000
1142.571579,16011.395908,30644.525999,-6513.812290
1142.571898,20071.702048,25167.002028,-21169.889941
1142.572217,20531.359346,10214.842000,-24574.837274
1142.572536,20224.921147,-7328.038826,-9622.677246
1142.572855,14862.252661,-14434.015869,-4589.276840
1142.573174,5515.887586,-17764.942608,-5107.421000
1142.573493,-153.219100,-18949.272115,3923.091493
1142.573812,-4060.306139,-22724.322419,20725.766376
1142.574131,-6588.421283,-26869.475695,35825.967593
1142.574450,-10112.460574,-18653.189738,41303.491564
1142.574768,-14709.033562,-4589.276840,30126.381839
1142.575087,-12334.137518,10881.027347,28275.866984
1142.575406,-6588.421283,24130.713709,30052.361245
1142.575725,1915.238745,23020.404796,23168.445985
1142.576044,6358.592633,30422.464216,-4219.173869
1142.576363,12410.747068,30644.525999,-11843.295072
1142.576682,18079.853753,22650.301825,-21910.095883
1142.577001,15934.786358,8216.285956,-28571.949361
1142.577320,15551.738609,-11177.109724,-9400.615463
1142.577639,5975.544884,-19023.292709,-4441.235652
1142.577958,-2604.724693,-17024.736666,-9178.553681
1142.578277,-5745.716235,-23168.445985,8216.285956
1142.578596,-10112.460574,-33309.267390,32791.123231
1142.578915,-11797.870669,-28868.031738,37750.503042
1142.579233,-14632.424012,-13545.768739,35603.905810
1142.579552,-17237.148705,3256.906145,29904.320057
1142.579871,-14785.643111,13619.789333,27313.599260
1142.580190,-9039.926876,25241.022622,23464.528361
1142.580509,-536.266849,23094.425390,17246.798449
1142.580828,3217.601092,33457.308578,-5255.462188
1142.581147,10112.460574,29682.258274,-22058.137072
1142.581466,12487.356617,18727.210333,-24426.796086
1142.581785,17313.758255,962.267725,-13989.892304
1142.582104,9499.584175,-12139.377449,-7772.162391
1142.582423,1762.019645,-22280.198854,-6291.750507
1142.582742,-2681.334243,-23242.466579,518.144159
1142.583061,-7201.297681,-26499.372724,8808.450710
1142.583380,-11874.480219,-29682.258274,32939.164419
1142.583698,-9959.241474,-25759.166782,51148.230592
1142.584017,-14938.862211,-5033.400406,31236.690752
1142.584336,-12563.966167,12435.459826,22798.343014
1142.584655,-6281.983084,19985.560434,26129.269753
1142.584974,-4749.792088,24722.878463,15692.365970
1142.585293,3294.210641,23612.569550,5773.606348
1142.585612,9116.536426,23464.528361,-2960.823768
1142.585931,17390.367805,25389.063811,-15248.242405
1142.586250,20301.530697,17468.860231,-29016.072926
1142.586569,19995.092498,-4515.256246,-13767.830521
1142.586888,17773.415554,-12509.480420,-444.123565
1142.587207,6281.983084,-20873.807564,-12509.480420
1142.587526,-1149.143247,-20651.745782,740.205942
1142.587845,-2987.772442,-28571.949361,22058.137072
1142.588164,-6588.421283,-31976.896694,35381.844028
1142.588482,-10801.946522,-22946.384202,43672.150578
1142.588801,-12027.699319,-3849.070898,36936.276506
1142.589120,-10035.851024,5995.668130,31014.628970
1142.589439,-4213.525239,20133.601622,20503.704593
1142.589758,1455.581446,21391.951724,17838.963202
1142.590077,7890.783629,29904.320057,3034.844362
1142.590396,14402.595362,34567.617491,-11695.253884
1142.590715,18462.901502,26277.310941,-22576.281231
1142.591034,18156.463303,10066.800811,-22354.219448
1142.591353,17237.148705,-7846.182985,-9770.718434
1142.591672,9116.536426,-19467.416275,-2368.659014
1142.591991,1532.190996,-19689.478057,-6587.832884
1142.592310,-3753.867940,-26129.269753,2516.700203
1142.592629,-13330.061665,-30792.567187,23242.466579
1142.592947,-9652.803275,-28571.949361,46040.809592
1142.593266,-13330.061665,-15618.345376,42931.944636
1142.593585,-14785.643111,6439.791695,29978.340651
1142.593904,-14172.766713,17024.736666,21836.075289
1142.594223,-10495.508323,22206.178260,19689.478057
1142.594542,0.000000,24796.899057,14508.036463
1142.594861,3370.820191,32198.958477,-3552.988522
1142.595180,8273.831378,32495.040854,-20059.581028
1142.595499,13713.109414,22650.301825,-20651.745782
1142.595818,14709.033562,4071.132681,-18505.148550
1142.596137,11338.213370,-10881.027347,-7994.224174
1142.596456,1991.848295,-21095.869347,-6291.750507
1142.596775,-2911.162892,-20725.766376,-4293.194464
1142.597094,-8580.269578,-25907.207970,6957.935855
1142.597412,-13330.061665,-27313.599260,27683.702231
1142.597731,-10572.117872,-30200.402434,49297.715737
1142.598050,-17926.634653,-11695.253884,39971.120868
1142.598369,-14709.033562,5699.585753,31754.834912
1142.598688,-14172.766713,16284.530724,25092.981434
1142.599007,-6511.811733,23316.487173,25167.002028
1142.599326,2834.553343,26425.352129,12657.521608
1142.599645,7124.688131,32495.040854,-9770.718434
1142.599964,14402.595362,28127.825796,-16284.530724
1142.600283,18539.511052,19837.519246,-21169.889941
1142.600602,20378.140247,1258.350101,-18505.148550
1142.600921,18079.853753,-15618.345376,-1850.514855
1142.601240,8810.098227,-22132.157666,-5847.626942
1142.601559,-1455.581446,-19615.457463,-5773.606348
1142.601878,-2451.505594,-31088.649564,19393.395680
1142.602196,-6358.592633,-30866.587781,35381.844028
1142.602515,-6894.859482,-24056.693115,41451.532752
1142.602834,-14096.157163,-2516.700203,36344.111752
1142.603153,-10955.165621,11769.274478,29904.320057
1142.603472,-8503.660028,13767.830521,26721.434506
1142.603791,-842.705048,19245.354492,18505.148550
1142.604110,3370.820191,25463.084405,3552.988522
1142.604429,10418.898773,31458.752535,-6883.915261
1142.604748,16777.491406,23316.487173,-20503.704593
1142.605067,20224.921147,11251.130318,-18727.210333
1142.605386,20991.016645,-3923.091493,-12361.439231
1142.605705,12027.699319,-11251.130318,-8882.471304
1142.606024,6741.640382,-17616.901420,-4811.338623
1142.606343,383.047749,-19393.395680,-7031.956449
1142.606661,-8503.660028,-23612.569550,13397.727550
1142.606980,-8810.098227,-34271.535115,37676.482448
1142.607299,-11338.213370,-21762.054695,45300.603650
1142.607618,-17160.539155,-6735.874072,34567.617491
1142.607937,-17237.148705,7031.956449,31384.731941
1142.608256,-9269.755526,18061.024985,22946.384202
1142.608575,-4903.011187,24278.754898,19023.292709
1142.608894,1378.971896,28794.011144,11473.192101
1142.609213,8350.440928,30126.381839,-4737.318029
1142.609532,15092.081311,31310.711347,-17912.983796
1142.609851,14862.252661,17468.860231,-26721.434506
1142.610170,15551.738609,-5107.421000,-9400.615463
1142.610489,9652.803275,-15100.201217,-3552.988522
1142.610808,-229.828649,-19689.478057,-9548.656652
1142.611126,-7048.078582,-25981.228564,2590.720797
1142.611445,-11184.994271,-28868.031738,19615.457463
1142.611764,-7660.954980,-31754.834912,40785.347404
1142.612083,-12027.699319,-14211.954086,43968.232955
1142.612402,-17160.539155,-2368.659014,35529.885216
1142.612721,-14555.814462,12435.459826,29386.175897
1142.613040,-9116.536426,22132.157666,21243.910535
1142.613359,-2834.553343,24130.713709,19319.375086
1142.613678,3983.696590,30792.567187,2368.659014
1142.613997,10801.946522,33679.370361,-11917.315666
1142.614316,17620.196454,26351.331535,-21688.034101
1142.614635,20531.359346,9326.594869,-20281.642811
1142.614954,18386.291952,-8882.471304,-8216.285956
1142.615272,10035.851024,-18431.127956,-5181.441594
1142.615591,842.705048,-19541.436869,-6439.791695
1142.615910,-2987.772442,-24130.713709,7254.018232
1142.616229,-8886.707777,-28423.908173,27387.619854
1142.616548,-8350.440928,-27239.578666,46632.974346
1142.616867,-12257.527968,-16654.633695,44486.377114
1142.617186,-12180.918418,-0.000000,33901.432144
1142.617505,-10495.508323,14359.995275,26203.290347
1142.617824,-5286.058936,18875.251521,29682.258274
1142.618143,7124.688131,21836.075289,20133.601622
1142.618462,10572.117872,39675.038491,-9400.615463
1142.618781,17160.539155,29608.237680,-18431.127956
1142.619099,19995.092498,20355.663405,-22724.322419
1142.619418,24898.103685,5329.482782,-20873.807564
1142.619737,20301.530697,-12435.459826,-9770.718434
1142.620056,12257.527968,-22206.178260,-296.082377
1142.620375,6894.859482,-21762.054695,-222.061783
1142.620694,-612.876398,-25611.125593,11325.150913
1142.621013,-2298.286494,-30718.546593,38786.791361
1142.621332,-2911.162892,-26647.413912,49741.839302
1142.621651,-7967.393179,-5033.400406,37824.523636
1142.621970,-3677.258390,13841.851115,25092.981434
1142.622289,-1455.581446,24648.857869,23686.590144
1142.622607,2834.553343,32717.102636,13915.871710
1142.622926,7201.297681,31828.855506,3034.844362
1142.623245,9116.536426,36936.276506,-13989.892304
1142.623564,11874.480219,25537.104999,-23316.487173
1142.623883,12180.918418,16358.551318,-23538.548956
1142.624202,11721.261119,-8956.491898,-12657.521608
1142.624521,6435.202183,-23538.548956,1036.288319
1142.624840,-1072.533697,-22946.384202,3108.864956
1142.625159,-4596.572988,-26129.269753,11399.171507
1142.625478,-7431.126331,-24944.940245,29164.114115
1142.625797,-5898.935335,-15988.448347,44560.397708
1142.626115,-4290.134789,-7698.141797,40267.203245
1142.626434,-4903.011187,20799.786970,25167.002028
1142.626753,-3983.696590,33457.308578,15988.448347
1142.627072,-2451.505594,33383.287984,10066.800811
1142.627391,919.314598,33901.432144,1110.308913
1142.627710,4290.134789,29978.340651,-8956.491898
1142.628029,6665.030833,23686.590144,-18505.148550
1142.628348,8427.050478,13619.789333,-23020.404796
1142.628667,8733.488677,-7550.100608,-9030.512492
1142.628986,2374.896044,-23908.651927,5551.544565
1142.629305,-2911.162892,-31532.773129,13989.892304
1142.629623,-1532.190996,-27609.681637,21539.992912
1142.629942,766.095498,-21169.889941,33235.246796
1142.630261,-1378.971896,-16062.468941,38194.626607
1142.630580,-2757.943793,-5255.462188,40267.203245
1142.630899,2145.067394,14952.160028,31606.793723
1142.631218,76.609550,29386.175897,7254.018232
1142.631537,2911.162892,31162.670158,5921.647536
1142.631856,5822.325785,33679.370361,-2960.823768
1142.632175,6894.859482,22798.343014,-9918.759623
1142.632494,7277.907231,13175.665768,-13027.624579
1142.632813,8273.831378,740.205942,-11843.295072
1142.633132,5745.716235,-15544.324782,-4293.194464
1142.633450,3524.039291,-29090.093521,12213.398043
1142.633769,842.705048,-32272.979071,21465.972318
1142.634088,2451.505594,-26129.269753,27461.640448
1142.634407,3753.867940,-13175.665768,28275.866984
1142.634726,2451.505594,-2886.803174,25315.043216
1142.635045,1378.971896,4737.318029,24944.940245
1142.635364,2451.505594,14434.015869,22132.157666
1142.635683,-459.657299,26647.413912,2960.823768
1142.636002,2145.067394,27239.578666,-3552.988522
1142.636321,3830.477490,23612.569550,-6143.709319
1142.636640,2221.676944,14137.933492,-12435.459826
1142.636958,4290.134789,-0.000000,-3478.967927
1142.637277,4673.182538,-5255.462188,592.164754
1142.637596,5745.716235,-12435.459826,6809.894666
1142.637915,5822.325785,-17172.777854,12509.480420
1142.638234,5056.230287,-19319.375086,22132.157666
1142.638553,7431.126331,-14137.933492,23242.466579
1142.638872,7507.735880,1332.370696,11473.192101
1142.639191,6665.030833,11103.089130,11473.192101
1142.639510,3983.696590,12287.418637,8438.347739
1142.639829,1225.752797,15174.221811,4811.338623
1142.640148,-2374.896044,22872.363608,-2072.576638
1142.640466,-1991.848295,14434.015869,-2146.597232
1142.640785,-4826.401637,7772.162391,-5551.544565
1142.641104,-3983.696590,-4071.132681,4515.256246
1142.641423,-2145.067394,-8142.265362,15396.283594
1142.641742,2374.896044,-4367.215058,19541.436869
1142.642061,4596.572988,-1776.494261,16728.654289
1142.642380,6281.983084,-3997.112087,17542.880825
1142.642699,9116.536426,-2812.782580,17912.983796
1142.643018,9576.193725,3108.864956,5403.503377
1142.643337,7507.735880,9474.636058,1776.494261
1142.643656,3830.477490,8882.471304,2072.576638
1142.643974,-536.266849,4589.276840,3256.906145
1142.644293,-2068.457845,7550.100608,2738.761985
1142.644612,-4213.525239,5773.606348,5255.462188
1142.644931,-5898.935335,2812.782580,9474.636058
1142.645250,-3753.867940,2812.782580,8364.327145
1142.645569,-2604.724693,1554.432478,8068.244768
1142.645888,-1762.019645,1924.535449,14359.995275
1142.646207,689.485948,2442.679609,19171.333898
1142.646526,2451.505594,-1110.308913,16506.592507
1142.646845,3830.477490,-4441.235652,16432.571912
1142.647164,5975.544884,-3627.009116,13101.645173
1142.647483,8427.050478,-296.082377,9104.533087
1142.647801,9652.803275,5699.585753,5255.462188
1142.648120,8503.660028,8660.409521,1850.514855
1142.648439,7354.516781,11029.068536,3552.988522
1142.648758,5056.230287,12361.439231,3256.906145
1142.649077,4366.744339,10658.965565,6069.688724
1142.649396,2757.943793,7698.141797,6957.935855
1142.649715,1991.848295,2442.679609,8438.347739
1142.650034,1532.190996,-2738.761985,12361.439231
1142.650353,689.485948,-6143.709319,18653.189738
1142.650672,459.657299,-8142.265362,21762.054695
1142.650991,-536.266849,-6883.915261,20503.704593
1142.651309,306.438199,-2886.803174,18209.066173
1142.651628,1532.190996,2738.761985,12361.439231
1142.651947,3294.210641,8438.347739,6217.729913
1142.652266,4903.011187,13101.645173,4441.235652
1142.652585,5975.544884,12879.583391,2664.741391
1142.652904,5362.668486,8364.327145,2590.720797
1142.653223,4519.963438,3997.112087,7550.100608
1142.653542,4136.915689,1480.411884,9918.759623
1142.653861,4443.353888,-962.267725,8364.327145
1142.654180,3600.648841,-2146.597232,8586.388927
1142.654499,3753.867940,-1850.514855,11843.295072
1142.654817,2451.505594,1480.411884,11325.150913
1142.655136,1378.971896,4589.276840,11695.253884
1142.655455,1072.533697,6365.771101,11103.089130
1142.655774,-383.047749,6957.935855,8142.265362
1142.656093,-383.047749,5329.482782,8586.388927
1142.656412,-612.876398,4293.194464,6735.874072
1142.656731,76.609550,1036.288319,6661.853478
1142.657050,459.657299,-222.061783,8364.327145
1142.657369,842.705048,-444.123565,8142.265362
1142.657688,1762.019645,1628.453072,8364.327145
1142.658007,1762.019645,3182.885551,9030.512492
1142.658325,2374.896044,3775.050304,8068.244768
1142.658644,3140.991542,4515.256246,7254.018232
1142.658963,3600.648841,4367.215058,9104.533087
1142.659282,3830.477490,5107.421000,9252.574275
1142.659601,4060.306139,4737.318029,9030.512492
1142.659920,4290.134789,2516.700203,9474.636058
1142.660239,4903.011187,814.226536,8882.471304
1142.660558,5056.230287,-296.082377,7772.162391
1142.660877,4749.792088,-1406.391290,7698.141797
1142.661196,4366.744339,-814.226536,6957.935855
1142.661515,3830.477490,888.247130,8068.244768
1142.661834,3217.601092,2368.659014,9252.574275
1142.662152,1991.848295,3182.885551,8956.491898
1142.662471,1685.410096,2294.638420,10214.842000
1142.662790,1302.362347,814.226536,11029.068536
1142.663109,1225.752797,222.061783,10066.800811
1142.663428,1608.800546,-148.041188,11621.233289
1142.663747,2298.286494,-74.020594,12361.439231
1142.664066,2451.505594,-0.000000,10881.027347
1142.664385,3294.210641,-148.041188,10955.047942
1142.664704,3370.820191,962.267725,9474.636058
1142.665023,4290.134789,2960.823768,7402.059420
1142.665342,4519.963438,4515.256246,6587.832884
1142.665660,4213.525239,5255.462188,5551.544565
1142.665979,3753.867940,5181.441594,5551.544565
1142.666298,2451.505594,3627.009116,7550.100608
1142.666617,1455.581446,1480.411884,9104.533087
1142.666936,689.485948,1110.308913,9400.615463
1142.667255,0.000000,1332.370696,10510.924376
1142.667574,153.219100,1850.514855,10881.027347
1142.667893,536.266849,2516.700203,11769.274478
1142.668212,1302.362347,3108.864956,12435.459826
1142.668531,1532.190996,4367.215058,11251.130318
1142.668850,3294.210641,5107.421000,9548.656652
1142.669168,3524.039291,4885.359217,9104.533087
1142.669487,4596.572988,5033.400406,7994.224174
1142.669806,5209.449386,5329.482782,6143.709319
1142.670125,5822.325785,5033.400406,5773.606348
1142.670444,4826.401637,4145.153275,5921.647536
1142.670763,3753.867940,3108.864956,6439.791695
1142.671082,2528.115143,3182.885551,7698.141797
1142.671401,1302.362347,3478.967927,8438.347739
1142.671720,-689.485948,3182.885551,9992.780217
1142.672039,-1149.143247,1702.473667,12509.480420
1142.672358,-1608.800546,888.247130,14063.912898
1142.672676,-1532.190996,444.123565,14211.954086
1142.672995,-1149.143247,-0.000000,13767.830521
1142.673314,229.828649,-0.000000,12287.418637
1142.673633,1378.971896,1480.411884,10436.903782
1142.673952,1991.848295,1850.514855,8808.450710
1142.674271,2834.553343,2812.782580,7105.977043
1142.674590,3753.867940,3627.009116,6513.812290
1142.674909,4213.525239,4589.276840,6143.709319
1142.675228,3830.477490,3997.112087,6661.853478
1142.675547,2911.162892,2738.761985,8364.327145
1142.675866,2298.286494,2294.638420,9178.553681
1142.676185,1608.800546,962.267725,10214.842000
1142.676503,1072.533697,-0.000000,11769.274478
1142.676822,306.438199,-518.144159,12805.562797
1142.677141,229.828649,-0.000000,11991.336260
1142.677460,459.657299,888.247130,11325.150913
1142.677779,1149.143247,888.247130,11251.130318
1142.678098,612.876398,1850.514855,8956.491898
1142.678417,1378.971896,2368.659014,8364.327145
1142.678736,2068.457845,2590.720797,7772.162391
1142.679055,2528.115143,3108.864956,7624.121203
1142.679374,3370.820191,1924.535449,7698.141797
1142.679693,3600.648841,1554.432478,7698.141797
1142.680011,4136.915689,888.247130,7994.224174
1142.680330,3907.087040,518.144159,8364.327145
1142.680649,3217.601092,444.123565,9326.594869
1142.680968,3140.991542,592.164754,9400.615463
1142.681287,2298.286494,1628.453072,10140.821405
1142.681606,1608.800546,1258.350101,11251.130318
1142.681925,995.924147,1184.329507,10732.986159
1142.682244,1762.019645,666.185348,10288.862594
1142.682563,689.485948,888.247130,10436.903782
1142.682882,1762.019645,666.185348,9844.739029
1142.683201,2298.286494,1036.288319,9622.677246
1142.683519,3370.820191,1554.432478,9178.553681
1142.683838,4443.353888,1850.514855,8512.368333
1142.684157,5286.058936,2146.597232,8956.491898
1142.684476,5898.935335,2590.720797,9104.533087
1142.684795,5975.544884,3552.988522,8734.430116
1142.685114,5209.449386,3849.070898,8586.388927
1142.685433,4366.744339,3404.947333,8660.409521
1142.685752,3217.601092,2812.782580,9104.533087
1142.686071,2757.943793,2664.741391,8882.471304
1142.686390,1225.752797,1924.535449,9178.553681
1142.686709,306.438199,814.226536,8882.471304
1142.687027,-612.876398,-222.061783,9252.574275
1142.687346,-1378.971896,-888.247130,10510.924376
1142.687665,-1915.238745,-296.082377,11473.192101
1142.687984,-2068.457845,296.082377,11843.295072
1142.688303,-1608.800546,1998.556043,12435.459826
1142.688622,-995.924147,3627.009116,11917.315666
1142.688941,612.876398,5181.441594,10807.006753
1142.689260,1302.362347,6069.688724,9178.553681
1142.689579,2451.505594,6513.812290,7254.018232
1142.689898,3140.991542,5995.668130,6365.771101
1142.690217,3830.477490,4885.359217,5551.544565
1142.690536,4749.792088,3404.947333,5699.585753
1142.690854,4673.182538,2368.659014,6809.894666
1142.691173,5515.887586,1850.514855,7624.121203
1142.691492,5056.230287,2368.659014,8142.265362
1142.691811,5209.449386,2738.761985,9030.512492
1142.692130,5209.449386,3775.050304,9326.594869
1142.692449,5362.668486,4959.379811,8808.450710
1142.692768,4903.011187,6587.832884,8290.306550
1142.693087,5898.935335,7105.977043,6883.915261
1142.693406,6052.154434,6957.935855,5773.606348
1142.693725,7277.907231,5847.626942,5551.544565
1142.694044,7814.174080,4367.215058,5847.626942
1142.694362,8273.831378,3256.906145,5847.626942
1142.694681,8503.660028,3256.906145,6661.853478
1142.695000,8427.050478,3997.112087,6957.935855
1142.695319,8120.612279,5255.462188,7328.038826
1142.695638,7354.516781,6143.709319,6957.935855
1142.695957,6511.811733,6069.688724,7105.977043
1142.696276,4979.620737,5551.544565,8142.265362
1142.696595,3907.087040,4737.318029,8586.388927
1142.696914,2834.553343,3627.009116,9696.697840
1142.697233,1762.019645,2886.803174,10658.965565
1142.697552,919.314598,2516.700203,11251.130318
1142.697870,459.657299,2368.659014,10288.862594
1142.698189,459.657299,2368.659014,9992.780217
1142.698508,842.705048,2812.782580,9918.759623
1142.698827,612.876398,2960.823768,9474.636058
1142.699146,1072.533697,2738.761985,9474.636058
1142.699465,459.657299,2368.659014,10288.862594
1142.699784,0.000000,1702.473667,10140.821405
1142.700103,-306.438199,592.164754,10510.924376
1142.700422,-766.095498,-740.205942,11547.212695
1142.700741,-1378.971896,-1406.391290,12361.439231
1142.701060,-2068.457845,-1036.288319,13027.624579
1142.701378,-2604.724693,-148.041188,13619.789333
1142.701697,-2528.115143,1258.350101,13397.727550
1142.702016,-2451.505594,2442.679609,12213.398043
1142.702335,-2145.067394,2590.720797,11325.150913
1142.702654,-2221.676944,1702.473667,10732.986159
1142.702973,-1838.629195,592.164754,10214.842000
1142.703292,-612.876398,-962.267725,10436.903782
1142.703611,153.219100,-2442.679609,10510.924376
1142.703930,995.924147,-3627.009116,11547.212695
1142.704249,1991.848295,-3849.070898,11991.336260
1142.704568,2911.162892,-2738.761985,11917.315666
1142.704887,4443.353888,-444.123565,11177.109724
1142.705205,4903.011187,2146.597232,9252.574275
1142.705524,5592.497135,5477.523971,7994.224174
1142.705843,5745.716235,6143.709319,6365.771101
1142.706162,5132.839837,6291.750507,5255.462188
1142.706481,4903.011187,4293.194464,5551.544565
1142.706800,4903.011187,1702.473667,6883.915261
1142.707119,3600.648841,-444.123565,6883.915261
1142.707438,4290.134789,-2664.741391,8808.450710
1142.707757,3524.039291,-2442.679609,9918.759623
1142.708076,4060.306139,-2072.576638,11843.295072
1142.708395,4290.134789,-444.123565,10584.944971
1142.708713,4903.011187,2664.741391,9104.533087
1142.709032,5132.839837,5625.565159,7402.059420
1142.709351,4366.744339,7846.182985,4441.235652
1142.709670,4290.134789,7846.182985,2960.823768
1142.709989,3217.601092,6143.709319,2516.700203
1142.710308,2221.676944,3478.967927,3478.967927
1142.710627,1149.143247,1332.370696,5033.400406
1142.710946,383.047749,-666.185348,6883.915261
1142.711265,842.705048,-814.226536,9770.718434
1142.711584,1378.971896,74.020594,10362.883188
1142.711903,1378.971896,1702.473667,9326.594869
1142.712221,1762.019645,3849.070898,9178.553681
1142.712540,1838.629195,5181.441594,9178.553681
1142.712859,2451.505594,5329.482782,7624.121203
1142.713178,2068.457845,5255.462188,6217.729913
1142.713497,1608.800546,3775.050304,6587.832884
1142.713816,2221.676944,2368.659014,7550.100608
1142.714135,1915.238745,1628.453072,7550.100608
1142.714454,2145.067394,1480.411884,9030.512492
1142.714773,2068.457845,2738.761985,9622.677246
1142.715091,3064.381992,4737.318029,10288.862594
1142.715410,3907.087040,6217.729913,9252.574275
1142.715729,3983.696590,6365.771101,10436.903782
1142.716048,4749.792088,5033.400406,11325.150913
1142.716367,4213.525239,5181.441594,10362.883188
1142.716686,4903.011187,3775.050304,10066.800811
1142.717005,3830.477490,2442.679609,9992.780217
1142.717324,2681.334243,1258.350101,10140.821405
1142.717643,3140.991542,-148.041188,9770.718434
1142.717961,2145.067394,-148.041188,10362.883188
1142.718280,2068.457845,-888.247130,13323.706956
1142.718599,1608.800546,1036.288319,14063.912898
1142.718918,1378.971896,3404.947333,13323.706956
1142.719237,2221.676944,4219.173869,14063.912898
1142.719556,2068.457845,5107.421000,13175.665768
1142.719875,3600.648841,4367.215058,11917.315666
1142.720194,3370.820191,3182.885551,10362.883188
1142.720513,3600.648841,2368.659014,10510.924376
1142.720831,3677.258390,1332.370696,9992.780217
1142.721150,2834.553343,1036.288319,8808.450710
1142.721469,2604.724693,888.247130,8216.285956
1142.721788,2145.067394,2146.597232,8142.265362
1142.722107,842.705048,2368.659014,8956.491898
1142.722426,689.485948,1406.391290,9992.780217
1142.722745,0.000000,2072.576638,11547.212695
1142.723064,-1072.533697,2664.741391,13175.665768
1142.723383,-766.095498,2072.576638,13767.830521
1142.723701,-306.438199,2516.700203,13027.624579
1142.724020,612.876398,2664.741391,12287.418637
1142.724339,1685.410096,3997.112087,9918.759623
1142.724658,2911.162892,4959.379811,6735.874072
1142.724977,4596.572988,5033.400406,5181.441594
1142.725296,4979.620737,5995.668130,3404.947333
1142.725615,5056.230287,5921.647536,3034.844362
1142.725934,5362.668486,4515.256246,2960.823768
1142.726253,4673.182538,3108.864956,4145.153275
1142.726571,3217.601092,148.041188,6809.894666
1142.726890,2757.943793,-1184.329507,9178.553681
1142.727209,2451.505594,-740.205942,11399.171507
1142.727528,2145.067394,-1406.391290,13619.789333
1142.727847,1685.410096,-814.226536,15914.427753
1142.728166,2221.676944,1850.514855,14211.954086
1142.728485,3907.087040,5255.462188,10510.924376
1142.728804,4979.620737,7031.956449,8142.265362
1142.729122,6052.154434,7476.080014,5699.585753
1142.729441,7431.126331,7624.121203,2812.782580
1142.729760,7814.174080,7105.977043,74.020594
1142.730079,8120.612279,3627.009116,888.247130
1142.730398,7201.297681,-0.000000,1776.494261
1142.730717,5975.544884,-2294.638420,4515.256246
1142.731036,4519.963438,-4589.276840,8216.285956
1142.731355,1838.629195,-5033.400406,11325.150913
1142.731674,-153.219100,-4219.173869,14211.954086
1142.731992,-919.314598,-2664.741391,18135.045579
1142.732311,-1991.848295,1258.350101,16728.654289
1142.732630,-1838.629195,3997.112087,14878.139434
1142.732949,-842.705048,6291.750507,13249.686362
1142.733268,1302.362347,7031.956449,10362.883188
1142.733587,2298.286494,8882.471304,5255.462188
1142.733906,3677.258390,8068.244768,1924.535449
1142.734225,5439.278036,5255.462188,1406.391290
1142.734544,5209.449386,2368.659014,0.000000
1142.734862,4596.572988,-814.226536,2664.741391
1142.735181,2911.162892,-2664.741391,5625.565159
1142.735500,842.705048,-3108.864956,8068.244768
1142.735819,-766.095498,-3330.926739,13323.706956
1142.736138,-2911.162892,-2664.741391,16506.592507
1142.736457,-4519.963438,-222.061783,18653.189738
1142.736776,-5286.058936,444.123565,20429.683999
1142.737095,-4673.182538,4145.153275,18135.045579
1142.737414,-2374.896044,4145.153275,15396.283594
1142.737732,0.000000,6735.874072,13027.624579
1142.738051,4060.306139,7328.038826,9252.574275
1142.738370,6588.421283,7772.162391,4589.276840
1142.738689,8580.269578,8216.285956,296.082377
1142.739008,9806.022374,5921.647536,-962.267725
1142.739327,10035.851024,3627.009116,-2294.638420
1142.739646,8580.269578,222.061783,0.000000
1142.739965,5898.935335,-3404.947333,4441.235652
1142.740284,1915.238745,-5625.565159,9622.677246
1142.740602,-2451.505594,-7105.977043,16358.551318
1142.740921,-5439.278036,-6069.688724,21021.848753
1142.741240,-7584.345430,-4515.256246,22354.219448
1142.741559,-8656.879127,-1924.535449,22946.384202
1142.741878,-7277.907231,3330.926739,19393.395680
1142.742197,-5286.058936,5329.482782,16728.654289
1142.742516,-1608.800546,9548.656652,12509.480420
1142.742835,1225.752797,11769.274478,5625.565159
1142.743153,4903.011187,10214.842000,1036.288319
1142.743472,6894.859482,7254.018232,-2072.576638
1142.743791,8273.831378,1924.535449,-3108.864956
1142.744110,7660.954980,-3182.885551,-2738.761985
1142.744429,6128.763984,-6217.729913,0.000000
1142.744748,3983.696590,-8956.491898,6291.750507
1142.745067,153.219100,-7476.080014,12435.459826
1142.745386,-3140.991542,-5181.441594,17246.798449
1142.745705,-6205.373534,-2886.803174,20133.601622
1142.746023,-7507.735880,-296.082377,19911.539840
1142.746342,-8656.879127,1258.350101,20503.704593
1142.746661,-6894.859482,5625.565159,16876.695478
1142.746980,-4443.353888,5921.647536,13323.706956
1142.747299,-766.095498,5995.668130,9770.718434
1142.747618,1991.848295,4885.359217,3552.988522
1142.747937,4903.011187,2812.782580,-2442.679609
1142.748256,6281.983084,-740.205942,-5625.565159
1142.748575,6128.763984,-5107.421000,-4293.194464
1142.748893,4673.182538,-8438.347739,-592.164754
1142.749212,3524.039291,-8142.265362,4589.276840
1142.749531,383.047749,-6587.832884,10510.924376
1142.749850,-1149.143247,-5551.544565,17987.004391
1142.750169,-3753.867940,-4885.359217,21984.116477
1142.750488,-5822.325785,-1332.370696,23612.569550
1142.750807,-5209.449386,518.144159,20725.766376
1142.751126,-5132.839837,6513.812290,16136.489536
1142.751445,-1685.410096,6957.935855,12879.583391
1142.751763,536.266849,9474.636058,5921.647536
1142.752082,4903.011187,7698.141797,-740.205942
1142.752401,6741.640382,6513.812290,-6069.688724
1142.752720,9193.145976,1036.288319,-7624.121203
1142.753039,7737.564530,-4293.194464,-6661.853478
1142.753358,7507.735880,-7994.224174,-1258.350101
1142.753677,4366.744339,-11843.295072,4663.297435
1142.753996,842.705048,-11547.212695,11991.336260
1142.754315,-2757.943793,-11029.068536,20651.745782
1142.754633,-4903.011187,-6069.688724,24870.919651
1142.754952,-6052.154434,-74.020594,23094.425390
1142.755271,-5439.278036,6217.729913,19911.539840
1142.755590,-5056.230287,7105.977043,17098.757260
1142.755909,-1685.410096,12139.377449,12287.418637
1142.756228,-229.828649,14285.974681,5477.523971
1142.756547,3677.258390,10658.965565,1554.432478
1142.756866,6741.640382,8808.450710,-3849.070898
1142.757184,7890.783629,3627.009116,-7105.977043
1142.757503,8733.488677,-4959.379811,-5403.503377
1142.757822,6818.249932,-10140.821405,-444.123565
1142.758141,3524.039291,-14508.036463,5773.606348
1142.758460,306.438199,-12953.603985,10807.006753
1142.758779,-3753.867940,-11251.130318,20651.745782
1142.759098,-7124.688131,-6143.709319,25241.022622
1142.759417,-8273.831378,-740.205942,28127.825796
1142.759736,-7660.954980,4515.256246,25092.981434
1142.760054,-7124.688131,9992.780217,21836.075289
1142.760373,-2911.162892,15322.262999,13619.789333
1142.760692,0.000000,17542.880825,9622.677246
1142.761011,3830.477490,15988.448347,2368.659014
1142.761330,5898.935335,14063.912898,-3849.070898
1142.761649,10955.165621,9474.636058,-8882.471304
1142.761968,10648.727422,-74.020594,-11547.212695
1142.762287,10342.289223,-11843.295072,-2812.782580
1142.762606,5132.839837,-16802.674883,4515.256246
1142.762924,1149.143247,-15766.386565,10658.965565
1142.763243,-2757.943793,-12435.459826,17542.880825
1142.763562,-6358.592633,-7920.203579,27091.537477
1142.763881,-9652.803275,-1628.453072,28719.990550
1142.764200,-8963.317327,5551.544565,25833.187376
1142.764519,-8350.440928,12509.480420,18875.251521
1142.764838,-4673.182538,14211.954086,17320.819043
1142.765157,0.000000,19689.478057,10510.924376
1142.765476,1302.362347,21021.848753,3108.864956
1142.765794,7201.297681,14137.933492,-814.226536
1142.766113,8197.221829,9400.615463,-10658.965565
1142.766432,10418.898773,-2442.679609,-10288.862594
1142.766751,10112.460574,-12509.480420,-6143.709319
1142.767070,5898.935335,-17320.819043,2220.617826
1142.767389,3064.381992,-19245.354492,9474.636058
1142.767708,-2298.286494,-16654.633695,14582.057057
1142.768027,-4903.011187,-12435.459826,24944.940245
1142.768346,-9269.755526,-6217.729913,30496.484810
1142.768664,-9422.974625,-0.000000,28423.908173
1142.768983,-9959.241474,6291.750507,23094.425390
1142.769302,-3140.991542,12361.439231,19171.333898
1142.769621,-1915.238745,18135.045579,12509.480420
1142.769940,2298.286494,18061.024985,8734.430116
1142.770259,8273.831378,14952.160028,0.000000
1142.770578,9806.022374,11325.150913,-15692.365970
1142.770897,11644.651570,-2072.576638,-13915.871710
1142.771215,10725.336972,-9178.553681,-9474.636058
1142.771534,8273.831378,-21317.931130,-3330.926739
1142.771853,6205.373534,-25018.960840,5033.400406
1142.772172,-766.095498,-19097.313304,14508.036463
1142.772491,-4366.744339,-18209.066173,23094.425390
1142.772810,-10189.070123,-11843.295072,30200.402434
1142.773129,-10725.336972,-3552.988522,29682.258274
1142.773448,-10035.851024,2368.659014,27387.619854
1142.773767,-8273.831378,14656.077652,18209.066173
1142.774085,-4136.915689,11547.212695,12361.439231
1142.774404,-995.924147,18357.107362,8660.409521
1142.774723,4213.525239,18801.230927,2960.823768
1142.775042,6358.592633,13397.727550,-10436.903782
1142.775361,9499.584175,8660.409521,-15100.201217
1142.775680,10801.946522,-5699.585753,-13915.871710
1142.775999,7431.126331,-16580.613101,-9992.780217
1142.776318,4213.525239,-24426.796086,1628.453072
1142.776637,-1225.752797,-26721.434506,8660.409521
1142.776955,-7048.078582,-20355.663405,18283.086767
1142.777274,-10418.898773,-16654.633695,28053.805202
1142.777593,-13483.280765,-8438.347739,32050.917289
1142.777912,-13789.718964,814.226536,30274.423028
1142.778231,-10572.117872,9918.759623,23094.425390
1142.778550,-5515.887586,14730.098246,15692.365970
1142.778869,-612.876398,21984.116477,11177.109724
1142.779188,995.924147,19837.519246,4293.194464
1142.779507,7201.297681,24870.919651,-7476.080014
1142.779825,12257.527968,19097.313304,-19319.375086
1142.780144,15092.081311,4145.153275,-19911.539840
1142.780463,11721.261119,-11621.233289,-16950.716072
1142.780782,8197.221829,-27239.578666,-2294.638420
1142.781101,1762.019645,-24722.878463,3923.091493
1142.781420,-2987.772442,-22576.281231,12509.480420
1142.781739,-7890.783629,-21095.869347,27461.640448
1142.782058,-11797.870669,-13397.727550,40045.141462
1142.782377,-13559.890315,-2442.679609,36492.152941
1142.782695,-12793.794817,10436.903782,24278.754898
1142.783014,-6358.592633,19245.354492,21984.116477
1142.783333,306.438199,20133.601622,24352.775492
1142.783652,3907.087040,27979.784608,8438.347739
1142.783971,8963.317327,25981.228564,-2886.803174
1142.784290,13330.061665,23982.672521,-10140.821405
1142.784609,16547.662757,16284.530724,-19541.436869
1142.784928,17543.586904,-4663.297435,-22206.178260
1142.785246,12947.013916,-20503.704593,-8586.388927
1142.785565,8503.660028,-24944.940245,2960.823768
1142.785884,-1532.190996,-22132.157666,6439.791695
1142.786203,-4136.915689,-18949.272115,23612.569550
1142.786522,-7814.174080,-21095.869347,38934.832549
1142.786841,-13866.328514,-7179.997637,39452.976709
1142.787160,-13483.280765,5551.544565,31310.711347
1142.787479,-11568.042020,13323.706956,23686.590144
1142.787798,-6665.030833,17024.736666,20873.807564
1142.788116,-1072.533697,23020.404796,21317.931130
1142.788435,1072.533697,20651.745782,7031.956449
1142.788754,9039.926876,30866.587781,-5847.626942
1142.789073,15781.567259,21836.075289,-15766.386565
1142.789392,14325.985813,7994.224174,-25315.043216
1142.789711,14479.204912,-12731.542202,-16506.592507
1142.790030,9269.755526,-20281.642811,-4071.132681
1142.790349,1838.629195,-20429.683999,2368.659014
1142.790668,-1608.800546,-22132.157666,11547.212695
1142.790986,-8350.440928,-28868.031738,31458.752535
1142.791305,-9652.803275,-23686.590144,43968.232955
1142.791624,-12947.013916,-4737.318029,36048.029375
1142.791943,-12563.966167,11621.233289,23538.548956
1142.792262,-7584.345430,15618.345376,21984.116477
1142.792581,-1455.581446,20355.663405,15914.427753
1142.792900,-306.438199,24130.713709,16210.510130
1142.793219,3907.087040,25685.146187,3849.070898
1142.793538,10112.460574,25315.043216,-14730.098246
1142.793856,14019.547613,22132.157666,-27091.537477
1142.794175,9576.193725,592.164754,-20799.786970
1142.794494,12487.356617,-19911.539840,-7846.182985
1142.794813,2374.896044,-28053.805202,-5551.544565
1142.795132,-2298.286494,-28201.846390,5329.482782
1142.795451,-7660.954980,-29978.340651,22058.137072
1142.795770,-9806.022374,-26055.249158,32643.082042
1142.796089,-11414.822920,-16580.613101,38860.811955
1142.796408,-13942.938064,1036.288319,30496.484810
1142.796726,-12487.356617,7994.224174,21539.992912
1142.797045,-7354.516781,10214.842000,24648.857869
1142.797364,-2374.896044,22280.198854,17320.819043
1142.797683,1072.533697,28053.805202,7624.121203
1142.798002,8733.488677,28127.825796,-7994.224174
1142.798321,13713.109414,27017.516883,-19541.436869
1142.798640,14479.204912,11177.109724,-29164.114115
1142.798959,11338.213370,-13397.727550,-19171.333898
1142.799277,9422.974625,-31902.876100,-1628.453072
1142.799596,2834.553343,-31088.649564,1184.329507
1142.799915,-3447.429741,-32421.020260,11917.315666
1142.800234,-6665.030833,-31902.876100,28423.908173
1142.800553,-7354.516781,-26425.352129,40637.306216
1142.800872,-9729.412825,-6143.709319,39601.017897
1142.801191,-6818.249932,9918.759623,25241.022622
1142.801510,-7124.688131,17838.963202,17098.757260
1142.801829,-1991.848295,14211.954086,14804.118840
1142.802147,2451.505594,28053.805202,14804.118840
1142.802466,6052.154434,30052.361245,2442.679609
1142.802785,12104.308868,29534.217086,-13989.892304
1142.803104,15934.786358,26795.455100,-27313.599260
1142.803423,17696.806004,-74.020594,-22058.137072
1142.803742,16547.662757,-20651.745782,-7476.080014
1142.804061,5515.887586,-26869.475695,-5625.565159
1142.804380,-2451.505594,-29682.258274,5995.668130
1142.804699,-4290.134789,-28423.908173,19541.436869
1142.805017,-9193.145976,-23168.445985,33087.205607
1142.805336,-11568.042020,-19985.560434,46188.850781
1142.805655,-10648.727422,3108.864956,35751.946999
1142.805974,-9116.536426,17838.963202,17024.736666
1142.806293,-6358.592633,18431.127956,19911.539840
1142.806612,-4213.525239,21317.931130,25611.125593
1142.806931,1072.533697,25981.228564,17246.798449
1142.807250,4290.134789,36788.235317,-10140.821405
1142.807569,12104.308868,35455.864622,-21465.972318
1142.807887,17160.539155,21614.013506,-23908.651927
1142.808206,12257.527968,666.185348,-24056.693115
1142.808525,12410.747068,-20947.828159,-9252.574275
1142.808844,4749.792088,-26499.372724,-666.185348
