#time,accel_x,accel_y,accel_z
1519.896188,2145.067394,-74.020594,6809.894666
1519.896505,2911.162892,370.102971,6143.709319
1519.896823,1991.848295,518.144159,6291.750507
1519.897140,1608.800546,-0.000000,6513.812290
1519.897458,995.924147,-370.102971,7179.997637
1519.897775,0.000000,-666.185348,8438.347739
1519.898093,-306.438199,-1628.453072,8956.491898
1519.898410,-995.924147,-814.226536,9252.574275
1519.898728,-919.314598,-148.041188,9400.615463
1519.899045,-689.485948,296.082377,8956.491898
1519.899363,-842.705048,666.185348,8808.450710
1519.899680,-1302.362347,666.185348,8734.430116
1519.899998,-1532.190996,666.185348,8956.491898
1519.900315,-2068.457845,222.061783,9474.636058
1519.900633,-2451.505594,-0.000000,10362.883188
1519.900950,-3294.210641,-888.247130,11547.212695
1519.901268,-3370.820191,-888.247130,11695.253884
1519.901585,-3140.991542,-370.102971,11843.295072
1519.901903,-2911.162892,148.041188,11547.212695
1519.902220,-2374.896044,518.144159,11177.109724
1519.902538,-2528.115143,592.164754,10881.027347
1519.902855,-2298.286494,740.205942,10510.924376
1519.903173,-1915.238745,518.144159,10732.986159
1519.903490,-1685.410096,666.185348,10732.986159
1519.903807,-1915.238745,592.164754,11251.130318
1519.904125,-1915.238745,666.185348,11177.109724
1519.904442,-1838.629195,444.123565,11473.192101
1519.904760,-1838.629195,592.164754,11325.150913
1519.905077,-1072.533697,888.247130,11029.068536
1519.905395,-383.047749,814.226536,9844.739029
1519.905712,-459.657299,814.226536,9178.553681
1519.906030,0.000000,370.102971,9178.553681
1519.906347,-383.047749,148.041188,8956.491898
1519.906665,-766.095498,-222.061783,8586.388927
1519.906982,-1762.019645,-814.226536,9104.533087
1519.907300,-2145.067394,-962.267725,9992.780217
1519.907617,-2757.943793,-740.205942,9548.656652
1519.907935,-3064.381992,-518.144159,9992.780217
1519.908252,-3370.820191,-592.164754,10362.883188
1519.908570,-2987.772442,-1036.288319,10140.821405
1519.908887,-2374.896044,-1702.473667,9696.697840
1519.909205,-1915.238745,-1850.514855,10288.862594
1519.909522,-1302.362347,-2368.659014,10066.800811
1519.909840,-766.095498,-2368.659014,10140.821405
1519.910157,0.000000,-2812.782580,9918.759623
1519.910475,-459.657299,-2516.700203,9770.718434
1519.910792,0.000000,-2516.700203,10066.800811
1519.911109,0.000000,-2368.659014,9400.615463
1519.911427,229.828649,-3552.988522,9104.533087
1519.911744,-1149.143247,-4589.276840,9252.574275
1519.912062,-383.047749,-4885.359217,9696.697840
1519.912379,-306.438199,-5773.606348,10584.944971
1519.912697,0.000000,-6661.853478,11399.171507
1519.913014,-153.219100,-6291.750507,10288.862594
1519.913332,0.000000,-5773.606348,10362.883188
1519.913649,0.000000,-4293.194464,10066.800811
1519.913967,-612.876398,-4441.235652,9548.656652
1519.914284,-995.924147,-3997.112087,9474.636058
1519.914602,-1378.971896,-4441.235652,9992.780217
1519.914919,-689.485948,-4145.153275,11843.295072
1519.915237,229.828649,-4219.173869,11547.212695
1519.915554,1072.533697,-3923.091493,10807.006753
1519.915872,1455.581446,-3256.906145,9326.594869
1519.916189,1072.533697,-2368.659014,8882.471304
1519.916507,1455.581446,-2072.576638,7328.038826
1519.916824,1302.362347,-740.205942,5033.400406
1519.917142,0.000000,-814.226536,4219.173869
1519.917459,-1378.971896,-1702.473667,5551.544565
1519.917777,-2834.553343,-3849.070898,7105.977043
1519.918094,-4826.401637,-5477.523971,8512.368333
1519.918411,-6818.249932,-6513.812290,10140.821405
1519.918729,-8197.221829,-6661.853478,10436.903782
1519.919046,-9039.926876,-6069.688724,10214.842000
1519.919364,-8733.488677,-4885.359217,9918.759623
1519.919681,-8733.488677,-3923.091493,9178.553681
1519.919999,-8120.612279,-3404.947333,8808.450710
1519.920316,-8197.221829,-3552.988522,9030.512492
1519.920634,-8120.612279,-4219.173869,9326.594869
1519.920951,-7890.783629,-4441.235652,10362.883188
1519.921269,-7814.174080,-5181.441594,11177.109724
1519.921586,-6818.249932,-4885.359217,11473.192101
1519.921904,-5056.230287,-4293.194464,11029.068536
1519.922221,-2681.334243,-3849.070898,10584.944971
1519.922539,-766.095498,-3330.926739,10362.883188
1519.922856,1915.238745,-2220.617826,9474.636058
1519.923174,3753.867940,-1036.288319,7994.224174
1519.923491,4979.620737,-0.000000,6439.791695
1519.923809,4979.620737,296.082377,6069.688724
1519.924126,5822.325785,-148.041188,7105.977043
1519.924444,5975.544884,-666.185348,8068.244768
1519.924761,6435.202183,-962.267725,9104.533087
1519.925079,6894.859482,-1184.329507,9844.739029
1519.925396,7048.078582,-444.123565,10510.924376
1519.925713,7967.393179,-0.000000,9992.780217
1519.926031,7967.393179,1258.350101,8142.265362
1519.926348,8197.221829,2516.700203,7254.018232
1519.926665,7660.954980,3923.091493,7846.182985
1519.926983,8120.612279,4737.318029,8290.306550
1519.927300,8120.612279,4663.297435,9844.739029
1519.927617,7507.735880,4145.153275,11325.150913
1519.927934,6128.763984,4737.318029,11103.089130
1519.928252,5822.325785,5403.503377,10140.821405
1519.928569,5056.230287,6661.853478,8142.265362
1519.928886,5592.497135,7105.977043,6513.812290
1519.929203,5132.839837,7254.018232,5181.441594
1519.929521,4673.182538,6143.709319,5699.585753
1519.929838,3524.039291,3923.091493,6883.915261
1519.930155,1838.629195,1998.556043,7772.162391
1519.930472,-536.266849,740.205942,10510.924376
1519.930790,-2145.067394,1036.288319,11695.253884
1519.931107,-3907.087040,1258.350101,11473.192101
1519.931424,-5132.839837,2812.782580,11029.068536
1519.931741,-5592.497135,3849.070898,10807.006753
1519.932059,-5975.544884,4811.338623,9696.697840
1519.932376,-5515.887586,4367.215058,9918.759623
1519.932693,-6052.154434,3923.091493,9918.759623
1519.933010,-6281.983084,2442.679609,10955.047942
1519.933328,-6818.249932,814.226536,11843.295072
1519.933645,-7124.688131,-148.041188,13101.645173
1519.933962,-7124.688131,-814.226536,14285.974681
1519.934279,-6818.249932,296.082377,13915.871710
1519.934597,-5975.544884,1184.329507,13249.686362
1519.934914,-4903.011187,2146.597232,12435.459826
1519.935231,-3983.696590,1924.535449,11473.192101
1519.935548,-2528.115143,1480.411884,10584.944971
1519.935866,-2451.505594,518.144159,11177.109724
1519.936183,-1915.238745,-518.144159,11251.130318
1519.936500,-1455.581446,-1628.453072,11547.212695
1519.936817,-766.095498,-1998.556043,12361.439231
1519.937135,-459.657299,-2516.700203,12509.480420
1519.937452,612.876398,-1850.514855,11547.212695
1519.937769,919.314598,-1480.411884,10510.924376
1519.938086,1991.848295,-962.267725,9992.780217
1519.938404,2681.334243,-1480.411884,9770.718434
1519.938721,2911.162892,-2812.782580,9992.780217
1519.939038,3140.991542,-3330.926739,10288.862594
1519.939355,2911.162892,-3404.947333,10140.821405
1519.939673,3600.648841,-3256.906145,10214.842000
1519.939990,3983.696590,-2960.823768,9770.718434
1519.940307,4519.963438,-2146.597232,9326.594869
1519.940625,4749.792088,-1554.432478,9474.636058
1519.940942,4749.792088,-1702.473667,8734.430116
1519.941259,4596.572988,-2516.700203,8142.265362
1519.941576,4213.525239,-2738.761985,7624.121203
1519.941894,4366.744339,-3701.029710,7550.100608
1519.942211,4060.306139,-3997.112087,7550.100608
1519.942528,4596.572988,-4589.276840,7550.100608
1519.942845,4443.353888,-4219.173869,7476.080014
1519.943163,5132.839837,-3627.009116,7698.141797
1519.943480,4213.525239,-4515.256246,7031.956449
1519.943797,4060.306139,-3478.967927,6587.832884
1519.944114,4136.915689,-2220.617826,6439.791695
1519.944432,3524.039291,-1850.514855,5921.647536
1519.944749,2451.505594,-1850.514855,5847.626942
1519.945066,2145.067394,-1850.514855,6883.915261
1519.945383,2221.676944,-2146.597232,7402.059420
1519.945701,1915.238745,-2220.617826,7846.182985
1519.946018,1149.143247,-2220.617826,7476.080014
1519.946335,919.314598,-2220.617826,7698.141797
1519.946652,1072.533697,-1110.308913,7254.018232
1519.946970,842.705048,-1110.308913,6735.874072
1519.947287,536.266849,-592.164754,6365.771101
1519.947604,76.609550,-666.185348,6735.874072
1519.947921,153.219100,-296.082377,6513.812290
1519.948239,-153.219100,-0.000000,6735.874072
1519.948556,-1302.362347,518.144159,6957.935855
1519.948873,-2068.457845,444.123565,7550.100608
1519.949190,-2604.724693,296.082377,7772.162391
1519.949508,-2834.553343,592.164754,8586.388927
1519.949825,-3064.381992,592.164754,9326.594869
1519.950142,-2987.772442,1110.308913,9326.594869
1519.950459,-3140.991542,1480.411884,9252.574275
1519.950777,-2834.553343,1628.453072,9474.636058
1519.951094,-2757.943793,2072.576638,10214.842000
1519.951411,-2681.334243,3182.885551,9992.780217
1519.951728,-2987.772442,3478.967927,9474.636058
1519.952046,-2911.162892,3775.050304,9918.759623
1519.952363,-2834.553343,3478.967927,10658.965565
1519.952680,-2451.505594,3701.029710,10140.821405
1519.952997,-2911.162892,3034.844362,10732.986159
1519.953315,-2145.067394,3404.947333,11177.109724
1519.953632,-1685.410096,3256.906145,11177.109724
1519.953949,-1685.410096,2516.700203,11621.233289
1519.954267,-1455.581446,2294.638420,12065.356855
1519.954584,-1302.362347,2368.659014,12583.501014
1519.954901,-383.047749,2960.823768,12435.459826
1519.955218,766.095498,3552.988522,12139.377449
1519.955536,919.314598,4145.153275,12657.521608
1519.955853,1532.190996,4071.132681,12213.398043
1519.956170,2451.505594,4145.153275,11843.295072
1519.956487,2911.162892,3923.091493,11473.192101
1519.956805,3907.087040,3330.926739,11695.253884
1519.957122,3983.696590,3182.885551,11399.171507
1519.957439,4979.620737,3256.906145,11177.109724
1519.957756,4826.401637,3182.885551,11399.171507
1519.958074,4519.963438,2886.803174,11547.212695
1519.958391,4213.525239,2590.720797,11473.192101
1519.958708,4366.744339,2590.720797,11325.150913
1519.959025,3830.477490,2146.597232,11325.150913
1519.959343,3983.696590,2072.576638,12139.377449
1519.959660,3677.258390,1480.411884,10955.047942
1519.959977,3830.477490,2294.638420,10584.944971
1519.960294,3983.696590,2220.617826,11029.068536
1519.960612,4136.915689,2442.679609,11103.089130
1519.960929,4136.915689,1998.556043,9474.636058
1519.961246,3830.477490,1258.350101,8734.430116
1519.961563,3753.867940,1258.350101,9104.533087
1519.961881,3370.820191,592.164754,9178.553681
1519.962198,2757.943793,-370.102971,9178.553681
1519.962515,2068.457845,-1332.370696,9326.594869
1519.962832,1302.362347,-1554.432478,9622.677246
1519.963150,919.314598,-1258.350101,9252.574275
1519.963467,459.657299,-1184.329507,9030.512492
1519.963784,0.000000,-1258.350101,9104.533087
1519.964101,-229.828649,-1258.350101,8586.388927
1519.964419,-612.876398,-1258.350101,8364.327145
1519.964736,-1149.143247,-1332.370696,8364.327145
1519.965053,-1072.533697,-1850.514855,8364.327145
1519.965370,-1149.143247,-1998.556043,8216.285956
1519.965688,-1225.752797,-2146.597232,7402.059420
1519.966005,-1302.362347,-2294.638420,7254.018232
1519.966322,-1302.362347,-1776.494261,7476.080014
1519.966639,-919.314598,-1702.473667,7105.977043
1519.966957,-842.705048,-1110.308913,6809.894666
1519.967274,-919.314598,-1110.308913,6883.915261
1519.967591,-1072.533697,-1036.288319,6883.915261
1519.967909,-1072.533697,-962.267725,6661.853478
1519.968226,-1149.143247,-1110.308913,7105.977043
1519.968543,-1532.190996,-962.267725,7624.121203
1519.968860,-1149.143247,-518.144159,7698.141797
1519.969178,-1072.533697,-518.144159,8216.285956
1519.969495,-766.095498,-296.082377,8068.244768
1519.969812,-153.219100,-0.000000,8364.327145
1519.970129,229.828649,740.205942,7846.182985
1519.970447,1072.533697,666.185348,7328.038826
1519.970764,1685.410096,740.205942,7402.059420
1519.971081,2221.676944,740.205942,7698.141797
1519.971398,2834.553343,814.226536,7550.100608
1519.971716,3600.648841,370.102971,7772.162391
1519.972033,3217.601092,444.123565,8734.430116
1519.972350,2987.772442,518.144159,8882.471304
1519.972667,2604.724693,814.226536,9104.533087
1519.972985,2681.334243,888.247130,9696.697840
1519.973302,2987.772442,1036.288319,10288.862594
1519.973619,2451.505594,1406.391290,9918.759623
1519.973936,2528.115143,1184.329507,10436.903782
1519.974254,2451.505594,962.267725,10584.944971
1519.974571,2374.896044,518.144159,10436.903782
1519.974888,2221.676944,518.144159,10881.027347
1519.975205,2145.067394,666.185348,11251.130318
1519.975523,1915.238745,740.205942,11695.253884
1519.975840,1455.581446,1036.288319,11251.130318
1519.976157,1762.019645,1554.432478,11399.171507
1519.976474,1378.971896,1998.556043,11473.192101
1519.976792,1072.533697,1998.556043,11103.089130
1519.977109,689.485948,1850.514855,11251.130318
1519.977426,306.438199,2220.617826,11029.068536
1519.977743,153.219100,2072.576638,11325.150913
1519.978061,229.828649,2220.617826,11843.295072
1519.978378,-306.438199,2220.617826,11843.295072
1519.978695,-536.266849,2294.638420,11547.212695
1519.979012,-612.876398,2738.761985,11473.192101
1519.979330,-76.609550,2590.720797,11029.068536
1519.979647,0.000000,2960.823768,10214.842000
1519.979964,0.000000,3108.864956,9474.636058
1519.980281,0.000000,2590.720797,9252.574275
1519.980599,306.438199,2368.659014,8660.409521
1519.980916,306.438199,1998.556043,8956.491898
1519.981233,383.047749,1850.514855,9400.615463
1519.981551,-153.219100,1332.370696,9696.697840
1519.981868,-153.219100,1480.411884,9770.718434
1519.982185,0.000000,1406.391290,9474.636058
1519.982502,-536.266849,1036.288319,10140.821405
1519.982820,0.000000,1258.350101,9696.697840
1519.983137,0.000000,1406.391290,9400.615463
1519.983454,536.266849,1332.370696,8956.491898
1519.983771,689.485948,888.247130,8882.471304
1519.984089,995.924147,740.205942,8734.430116
1519.984406,1378.971896,518.144159,8438.347739
1519.984723,995.924147,-0.000000,8142.265362
1519.985040,1149.143247,-0.000000,8512.368333
1519.985358,1225.752797,-148.041188,8734.430116
1519.985675,995.924147,-518.144159,8586.388927
1519.985992,612.876398,-962.267725,8364.327145
1519.986309,612.876398,-1184.329507,9030.512492
1519.986627,306.438199,-1554.432478,9030.512492
1519.986944,-459.657299,-1628.453072,9474.636058
1519.987261,0.000000,-1998.556043,9400.615463
1519.987578,-536.266849,-1776.494261,9918.759623
1519.987896,0.000000,-1554.432478,9918.759623
1519.988213,0.000000,-1628.453072,9992.780217
1519.988530,383.047749,-1184.329507,9622.677246
1519.988847,919.314598,-592.164754,9474.636058
1519.989165,1149.143247,-592.164754,8438.347739
1519.989482,1685.410096,-888.247130,7772.162391
1519.989799,2298.286494,-1036.288319,7402.059420
1519.990116,2145.067394,-1480.411884,7550.100608
1519.990434,2221.676944,-1480.411884,7624.121203
1519.990751,2145.067394,-1850.514855,8216.285956
1519.991068,1685.410096,-1850.514855,8956.491898
1519.991385,612.876398,-1924.535449,8956.491898
1519.991703,1149.143247,-1480.411884,8882.471304
1519.992020,1378.971896,-962.267725,8956.491898
1519.992337,1608.800546,-444.123565,8956.491898
1519.992654,2068.457845,-222.061783,8512.368333
1519.992972,1991.848295,-0.000000,8660.409521
1519.993289,2451.505594,-0.000000,8956.491898
1519.993606,2681.334243,-74.020594,8882.471304
1519.993923,2987.772442,-148.041188,8660.409521
1519.994241,3140.991542,-148.041188,8512.368333
1519.994558,2528.115143,-0.000000,9104.533087
1519.994875,2681.334243,296.082377,8956.491898
1519.995193,2298.286494,222.061783,8956.491898
1519.995510,2145.067394,370.102971,9252.574275
1519.995827,1608.800546,222.061783,9474.636058
1519.996144,689.485948,222.061783,9844.739029
1519.996462,306.438199,-0.000000,10510.924376
1519.996779,-306.438199,-370.102971,11547.212695
1519.997096,-766.095498,-370.102971,11991.336260
1519.997413,-995.924147,-222.061783,11843.295072
1519.997731,-1455.581446,-0.000000,11769.274478
1519.998048,-995.924147,592.164754,11621.233289
1519.998365,-689.485948,962.267725,10732.986159
1519.998682,-383.047749,1406.391290,9992.780217
1519.999000,-306.438199,1332.370696,9844.739029
1519.999317,0.000000,1184.329507,9696.697840
1519.999634,-229.828649,666.185348,9918.759623
1519.999951,-383.047749,444.123565,9992.780217
1520.000269,-919.314598,-0.000000,10584.944971
1520.000586,-1378.971896,-0.000000,10732.986159
1520.000903,-1762.019645,666.185348,10807.006753
1520.001220,-1685.410096,1184.329507,10584.944971
1520.001538,-1685.410096,1480.411884,10732.986159
1520.001855,-1608.800546,1258.350101,10214.842000
1520.002172,-1608.800546,962.267725,9992.780217
1520.002489,-919.314598,1480.411884,10066.800811
1520.002807,-766.095498,888.247130,10214.842000
1520.003124,-689.485948,666.185348,9548.656652
1520.003441,0.000000,1110.308913,9400.615463
1520.003758,0.000000,740.205942,9178.553681
1520.004076,459.657299,962.267725,9030.512492
1520.004393,306.438199,1184.329507,8512.368333
1520.004710,459.657299,814.226536,8068.244768
1520.005027,383.047749,370.102971,8660.409521
1520.005345,-612.876398,222.061783,8216.285956
1520.005662,0.000000,-444.123565,8956.491898
1520.005979,-306.438199,-296.082377,9030.512492
1520.006296,-153.219100,-740.205942,9918.759623
1520.006614,306.438199,-1406.391290,9770.718434
1520.006931,0.000000,-1036.288319,9474.636058
1520.007248,383.047749,-814.226536,9622.677246
1520.007565,1225.752797,-296.082377,9030.512492
1520.007883,1838.629195,-444.123565,8956.491898
1520.008200,1838.629195,-740.205942,8068.244768
1520.008517,2298.286494,-740.205942,8142.265362
1520.008835,2451.505594,-1258.350101,7994.224174
1520.009152,2757.943793,-1332.370696,8216.285956
1520.009469,2757.943793,-1628.453072,8512.368333
1520.009786,2528.115143,-1776.494261,9030.512492
1520.010104,2068.457845,-1776.494261,9104.533087
1520.010421,1685.410096,-1924.535449,8882.471304
1520.010738,1455.581446,-1998.556043,9252.574275
1520.011055,1378.971896,-1850.514855,9474.636058
1520.011373,1685.410096,-1776.494261,9104.533087
1520.011690,1608.800546,-1776.494261,9178.553681
1520.012007,1149.143247,-1554.432478,9104.533087
1520.012324,1608.800546,-1850.514855,9326.594869
1520.012642,1608.800546,-1702.473667,8512.368333
1520.012959,1608.800546,-1554.432478,8068.244768
1520.013276,1838.629195,-1184.329507,8290.306550
1520.013593,1455.581446,-1036.288319,7994.224174
1520.013911,1608.800546,-740.205942,7994.224174
1520.014228,1149.143247,-888.247130,8216.285956
1520.014545,536.266849,-1036.288319,8216.285956
1520.014862,536.266849,-888.247130,8438.347739
1520.015180,0.000000,-1184.329507,8882.471304
1520.015497,-153.219100,-1184.329507,9400.615463
1520.015814,-536.266849,-1702.473667,10140.821405
1520.016131,-1149.143247,-1036.288319,9992.780217
1520.016449,-995.924147,-740.205942,10288.862594
1520.016766,-1072.533697,-222.061783,9622.677246
1520.017083,-459.657299,-0.000000,9622.677246
1520.017400,-153.219100,-0.000000,9474.636058
1520.017718,76.609550,-0.000000,9030.512492
1520.018035,612.876398,-0.000000,9326.594869
1520.018352,536.266849,-0.000000,9400.615463
1520.018669,689.485948,148.041188,9400.615463
1520.018987,689.485948,222.061783,9844.739029
1520.019304,459.657299,148.041188,10140.821405
1520.019621,306.438199,518.144159,10066.800811
1520.019938,229.828649,740.205942,10362.883188
1520.020256,766.095498,1184.329507,10881.027347
1520.020573,766.095498,1554.432478,11251.130318
1520.020890,383.047749,1406.391290,10881.027347
1520.021207,612.876398,1480.411884,10881.027347
1520.021525,919.314598,1480.411884,11177.109724
1520.021842,919.314598,2072.576638,11103.089130
1520.022159,1378.971896,2072.576638,9918.759623
1520.022477,1378.971896,1628.453072,10066.800811
1520.022794,1762.019645,2072.576638,10066.800811
1520.023111,1532.190996,2220.617826,9548.656652
1520.023428,1225.752797,2072.576638,9474.636058
1520.023746,995.924147,1924.535449,9474.636058
1520.024063,689.485948,1628.453072,9474.636058
1520.024380,306.438199,1554.432478,9696.697840
1520.024697,0.000000,1406.391290,10140.821405
1520.025015,-229.828649,888.247130,10288.862594
1520.025332,0.000000,1184.329507,10214.842000
1520.025649,76.609550,1480.411884,10362.883188
1520.025966,153.219100,1776.494261,9992.780217
1520.026284,153.219100,1554.432478,9918.759623
1520.026601,76.609550,1924.535449,9326.594869
1520.026918,612.876398,1628.453072,8956.491898
1520.027235,306.438199,1332.370696,8808.450710
1520.027553,459.657299,962.267725,8660.409521
1520.027870,612.876398,370.102971,8290.306550
1520.028187,459.657299,-0.000000,8734.430116
1520.028504,306.438199,-296.082377,9104.533087
1520.028822,-229.828649,-592.164754,9326.594869
1520.029139,-153.219100,-592.164754,9326.594869
1520.029456,-306.438199,-444.123565,9548.656652
1520.029774,-153.219100,-518.144159,9622.677246
1520.030091,-383.047749,-296.082377,9696.697840
1520.030408,-536.266849,-444.123565,9622.677246
1520.030725,0.000000,-370.102971,9474.636058
1520.031043,0.000000,-666.185348,10214.842000
1520.031360,612.876398,-666.185348,9548.656652
1520.031677,1149.143247,-444.123565,8586.388927
1520.031995,1532.190996,-370.102971,8734.430116
1520.032312,1991.848295,-592.164754,8660.409521
1520.032629,2374.896044,-666.185348,8068.244768
1520.032946,2451.505594,-518.144159,7846.182985
1520.033264,1915.238745,-814.226536,8364.327145
1520.033581,1608.800546,-888.247130,8734.430116
1520.033898,1149.143247,-1258.350101,8882.471304
1520.034216,766.095498,-1554.432478,9252.574275
1520.034533,383.047749,-1406.391290,9770.718434
1520.034850,383.047749,-1406.391290,9696.697840
1520.035167,689.485948,-1184.329507,9622.677246
1520.035485,689.485948,-814.226536,9474.636058
1520.035802,842.705048,-888.247130,9326.594869
1520.036119,842.705048,-444.123565,8660.409521
1520.036437,1608.800546,-296.082377,8216.285956
1520.036754,1685.410096,-296.082377,7994.224174
1520.037071,1991.848295,-296.082377,8068.244768
1520.037388,2068.457845,-148.041188,8068.244768
1520.037706,1838.629195,-296.082377,8438.347739
1520.038023,1378.971896,-444.123565,8956.491898
1520.038340,1455.581446,-222.061783,9104.533087
1520.038658,1302.362347,74.020594,8956.491898
1520.038975,689.485948,370.102971,9252.574275
1520.039292,842.705048,814.226536,9326.594869
1520.039609,919.314598,1184.329507,9400.615463
1520.039927,766.095498,1332.370696,9252.574275
1520.040244,612.876398,1184.329507,9622.677246
1520.040561,689.485948,1110.308913,9622.677246
1520.040878,766.095498,1110.308913,9474.636058
1520.041196,1225.752797,1258.350101,9104.533087
1520.041513,1149.143247,1406.391290,9326.594869
1520.041830,1762.019645,1258.350101,9252.574275
1520.042148,1302.362347,1776.494261,8808.450710
1520.042465,1149.143247,1850.514855,8660.409521
1520.042782,842.705048,1850.514855,9030.512492
1520.043099,229.828649,1554.432478,9474.636058
1520.043417,0.000000,1332.370696,10288.862594
1520.043734,-306.438199,1110.308913,10510.924376
1520.044051,-919.314598,1036.288319,11399.171507
1520.044369,-919.314598,1258.350101,11325.150913
1520.044686,-306.438199,2072.576638,11177.109724
1520.045003,689.485948,2146.597232,10510.924376
1520.045320,459.657299,2738.761985,10510.924376
1520.045638,1225.752797,2960.823768,9474.636058
1520.045955,1455.581446,2960.823768,9326.594869
1520.046272,1455.581446,2294.638420,9326.594869
1520.046590,1532.190996,1924.535449,9474.636058
1520.046907,1302.362347,1554.432478,9548.656652
1520.047224,1225.752797,1110.308913,9992.780217
1520.047541,842.705048,962.267725,10584.944971
1520.047859,459.657299,1184.329507,10732.986159
1520.048176,459.657299,1184.329507,10881.027347
1520.048493,919.314598,1406.391290,10436.903782
1520.048811,766.095498,1332.370696,10510.924376
1520.049128,995.924147,1332.370696,10362.883188
1520.049445,1608.800546,1554.432478,9844.739029
1520.049762,1378.971896,1184.329507,10288.862594
1520.050080,1532.190996,1036.288319,10510.924376
1520.050397,1991.848295,962.267725,9992.780217
1520.050714,1991.848295,1184.329507,9474.636058
1520.051032,2451.505594,1110.308913,9474.636058
1520.051349,2221.676944,740.205942,9326.594869
1520.051666,2374.896044,666.185348,8660.409521
1520.051983,2221.676944,370.102971,8438.347739
1520.052301,1838.629195,-0.000000,8734.430116
1520.052618,1378.971896,-0.000000,8438.347739
1520.052935,995.924147,-296.082377,9326.594869
1520.053253,536.266849,-740.205942,9992.780217
1520.053570,0.000000,-740.205942,10066.800811
1520.053887,-536.266849,-444.123565,10140.821405
1520.054204,0.000000,-74.020594,9474.636058
1520.054522,383.047749,370.102971,9474.636058
1520.054839,383.047749,296.082377,8882.471304
1520.055156,995.924147,592.164754,8216.285956
1520.055473,1378.971896,666.185348,7624.121203
1520.055791,1455.581446,-0.000000,7550.100608
1520.056108,1225.752797,-222.061783,7624.121203
1520.056425,1072.533697,-74.020594,7846.182985
1520.056743,383.047749,-592.164754,7846.182985
1520.057060,153.219100,-370.102971,8216.285956
1520.057377,0.000000,-814.226536,8808.450710
1520.057694,76.609550,-444.123565,8956.491898
1520.058012,76.609550,-444.123565,9178.553681
1520.058329,0.000000,-148.041188,9104.533087
1520.058646,0.000000,-222.061783,8512.368333
1520.058964,0.000000,-0.000000,8808.450710
1520.059281,153.219100,-74.020594,9030.512492
1520.059598,383.047749,-222.061783,9178.553681
1520.059915,536.266849,-0.000000,8438.347739
1520.060233,612.876398,-0.000000,8808.450710
1520.060550,1072.533697,296.082377,8438.347739
1520.060867,1225.752797,370.102971,8068.244768
1520.061185,1072.533697,-0.000000,8290.306550
1520.061502,153.219100,-740.205942,8882.471304
1520.061819,383.047749,-444.123565,8882.471304
1520.062136,306.438199,-370.102971,9326.594869
1520.062454,0.000000,-148.041188,9770.718434
1520.062771,-383.047749,-74.020594,9844.739029
1520.063088,-766.095498,-74.020594,10288.862594
1520.063406,-612.876398,-0.000000,9992.780217
1520.063723,-229.828649,296.082377,10510.924376
1520.064040,459.657299,1036.288319,10066.800811
1520.064357,1072.533697,740.205942,9252.574275
1520.064675,1302.362347,1110.308913,8808.450710
1520.064992,1302.362347,444.123565,8660.409521
1520.065309,1455.581446,222.061783,9474.636058
1520.065627,1378.971896,370.102971,9252.574275
1520.065944,1608.800546,740.205942,9400.615463
1520.066261,689.485948,222.061783,9770.718434
1520.066578,459.657299,-0.000000,10436.903782
1520.066896,76.609550,-0.000000,10807.006753
1520.067213,0.000000,-0.000000,10732.986159
1520.067530,306.438199,592.164754,11029.068536
1520.067848,0.000000,1036.288319,11177.109724
1520.068165,536.266849,1110.308913,10584.944971
1520.068482,1149.143247,518.144159,10732.986159
1520.068799,919.314598,296.082377,10881.027347
1520.069117,1915.238745,666.185348,10658.965565
1520.069434,2145.067394,1258.350101,9696.697840
1520.069751,2681.334243,1036.288319,9474.636058
1520.070068,2911.162892,1332.370696,9696.697840
1520.070386,2834.553343,962.267725,9030.512492
1520.070703,2298.286494,888.247130,8734.430116
1520.071020,2298.286494,444.123565,9104.533087
1520.071338,1762.019645,222.061783,9400.615463
1520.071655,1532.190996,370.102971,10066.800811
1520.071972,689.485948,-518.144159,10362.883188
1520.072289,306.438199,-148.041188,10658.965565
1520.072607,0.000000,-296.082377,11251.130318
1520.072924,0.000000,-370.102971,10881.027347
1520.073241,229.828649,222.061783,10807.006753
1520.073559,612.876398,444.123565,10584.944971
1520.073876,689.485948,814.226536,9474.636058
1520.074193,995.924147,1480.411884,8586.388927
1520.074510,1302.362347,1036.288319,8512.368333
1520.074828,1225.752797,666.185348,8364.327145
1520.075145,1455.581446,518.144159,7772.162391
1520.075462,919.314598,370.102971,8142.265362
1520.075780,689.485948,-296.082377,8956.491898
1520.076097,0.000000,-222.061783,8660.409521
1520.076414,0.000000,-222.061783,9030.512492
1520.076731,-306.438199,-0.000000,9400.615463
1520.077049,-689.485948,-370.102971,9104.533087
1520.077366,-689.485948,296.082377,9178.553681
1520.077683,-459.657299,222.061783,9178.553681
1520.078001,-383.047749,370.102971,9252.574275
1520.078318,0.000000,444.123565,9104.533087
1520.078635,383.047749,296.082377,8734.430116
1520.078952,766.095498,962.267725,8364.327145
1520.079270,995.924147,666.185348,8216.285956
1520.079587,1608.800546,518.144159,7698.141797
1520.079904,1991.848295,740.205942,7698.141797
1520.080222,1532.190996,296.082377,7772.162391
1520.080539,1072.533697,-222.061783,8290.306550
1520.080856,919.314598,-518.144159,8512.368333
1520.081173,459.657299,-814.226536,9474.636058
1520.081491,76.609550,-740.205942,9622.677246
1520.081808,0.000000,-1184.329507,10214.842000
1520.082125,-229.828649,-1036.288319,10066.800811
1520.082442,229.828649,-962.267725,10362.883188
1520.082760,459.657299,-296.082377,10510.924376
1520.083077,919.314598,-148.041188,9696.697840
1520.083394,1149.143247,-0.000000,9326.594869
1520.083712,1838.629195,-74.020594,9104.533087
1520.084029,2145.067394,-296.082377,9326.594869
1520.084346,2221.676944,-74.020594,9252.574275
1520.084663,1915.238745,-518.144159,8882.471304
1520.084981,1685.410096,-666.185348,9326.594869
1520.085298,1149.143247,-1036.288319,9474.636058
1520.085615,1072.533697,-814.226536,9918.759623
1520.085933,612.876398,-1184.329507,10510.924376
1520.086250,-153.219100,-1036.288319,10510.924376
1520.086567,-383.047749,-1110.308913,10658.965565
1520.086884,-306.438199,-888.247130,10362.883188
1520.087202,-229.828649,-814.226536,10658.965565
1520.087519,-229.828649,-666.185348,10510.924376
1520.087836,-153.219100,-222.061783,10362.883188
1520.088154,-153.219100,-0.000000,9622.677246
1520.088471,76.609550,-0.000000,9474.636058
1520.088788,842.705048,-74.020594,9178.553681
1520.089105,536.266849,-0.000000,9030.512492
1520.089423,612.876398,-0.000000,8660.409521
1520.089740,612.876398,-148.041188,9030.512492
1520.090057,689.485948,-148.041188,8734.430116
1520.090375,383.047749,-444.123565,9104.533087
1520.090692,0.000000,-518.144159,9474.636058
1520.091009,-383.047749,-666.185348,9918.759623
1520.091326,-919.314598,-518.144159,10362.883188
1520.091644,-612.876398,-74.020594,10288.862594
1520.091961,-766.095498,148.041188,9918.759623
1520.092278,-229.828649,-0.000000,10362.883188
1520.092596,0.000000,-0.000000,9844.739029
1520.092913,689.485948,-0.000000,9474.636058
1520.093230,1225.752797,-0.000000,9400.615463
1520.093547,1532.190996,-0.000000,8364.327145
1520.093865,2068.457845,296.082377,8068.244768
1520.094182,2068.457845,296.082377,8364.327145
1520.094499,1991.848295,-444.123565,9104.533087
1520.094817,1991.848295,-148.041188,8660.409521
1520.095134,1685.410096,-74.020594,8660.409521
1520.095451,1532.190996,296.082377,9326.594869
1520.095768,1608.800546,296.082377,9474.636058
1520.096086,1072.533697,222.061783,9474.636058
1520.096403,306.438199,-148.041188,9474.636058
1520.096720,766.095498,148.041188,9622.677246
1520.097037,1072.533697,-148.041188,9844.739029
1520.097355,995.924147,-0.000000,9326.594869
1520.097672,1225.752797,222.061783,9400.615463
1520.097989,766.095498,592.164754,9030.512492
1520.098307,1302.362347,888.247130,8808.450710
1520.098624,1378.971896,962.267725,7994.224174
1520.098941,1455.581446,1184.329507,8142.265362
1520.099258,995.924147,666.185348,8364.327145
1520.099576,536.266849,518.144159,8216.285956
1520.099893,459.657299,-0.000000,8882.471304
1520.100210,0.000000,-0.000000,9326.594869
1520.100528,0.000000,-0.000000,9622.677246
1520.100845,-766.095498,592.164754,9770.718434
1520.101162,-766.095498,444.123565,9622.677246
1520.101479,-842.705048,888.247130,9548.656652
1520.101797,-536.266849,518.144159,10214.842000
1520.102114,-229.828649,962.267725,9474.636058
1520.102431,153.219100,1036.288319,9400.615463
1520.102749,306.438199,962.267725,9104.533087
1520.103066,459.657299,518.144159,9400.615463
1520.103383,459.657299,518.144159,9104.533087
1520.103700,995.924147,-74.020594,9474.636058
1520.104018,919.314598,-0.000000,10140.821405
1520.104335,995.924147,296.082377,10066.800811
1520.104652,1149.143247,370.102971,9770.718434
1520.104970,459.657299,666.185348,9992.780217
1520.105287,995.924147,296.082377,10140.821405
1520.105604,995.924147,666.185348,10510.924376
1520.105921,612.876398,666.185348,9918.759623
1520.106239,919.314598,518.144159,10510.924376
1520.106556,1072.533697,-0.000000,10584.944971
1520.106873,919.314598,296.082377,10732.986159
1520.107191,1072.533697,-74.020594,10140.821405
1520.107508,1455.581446,-222.061783,10362.883188
1520.107825,1608.800546,-0.000000,9918.759623
1520.108142,1838.629195,-148.041188,9844.739029
1520.108460,1225.752797,-222.061783,9770.718434
1520.108777,995.924147,-0.000000,9696.697840
1520.109094,1149.143247,-0.000000,9548.656652
1520.109412,612.876398,-0.000000,9696.697840
1520.109729,1225.752797,-0.000000,10288.862594
1520.110046,0.000000,-74.020594,10510.924376
1520.110363,229.828649,-296.082377,10658.965565
1520.110681,612.876398,-0.000000,10214.842000
1520.110998,612.876398,-0.000000,9992.780217
1520.111315,612.876398,444.123565,9474.636058
1520.111632,689.485948,518.144159,9252.574275
1520.111950,1225.752797,814.226536,8438.347739
1520.112267,1149.143247,888.247130,8290.306550
1520.112584,919.314598,592.164754,8290.306550
1520.112902,919.314598,-0.000000,8734.430116
1520.113219,383.047749,-518.144159,9104.533087
1520.113536,153.219100,-814.226536,9104.533087
1520.113853,0.000000,-592.164754,9400.615463
1520.114171,0.000000,-592.164754,9252.574275
1520.114488,536.266849,-222.061783,9622.677246
1520.114805,76.609550,-222.061783,9696.697840
1520.115123,153.219100,-296.082377,9474.636058
1520.115440,153.219100,-222.061783,9326.594869
1520.115757,536.266849,-148.041188,9400.615463
1520.116074,1149.143247,-0.000000,8956.491898
1520.116392,1072.533697,444.123565,8364.327145
1520.116709,1685.410096,666.185348,8290.306550
1520.117026,1762.019645,444.123565,8142.265362
1520.117344,1991.848295,370.102971,7105.977043
1520.117661,2834.553343,666.185348,7920.203579
1520.117978,1915.238745,296.082377,7846.182985
1520.118295,1532.190996,222.061783,8290.306550
1520.118613,1072.533697,-74.020594,8290.306550
1520.118930,766.095498,-592.164754,9178.553681
1520.119247,0.000000,-444.123565,9622.677246
1520.119565,0.000000,-370.102971,9844.739029
1520.119882,-153.219100,148.041188,10066.800811
1520.120199,0.000000,-0.000000,10066.800811
1520.120516,0.000000,370.102971,9918.759623
1520.120834,612.876398,1258.350101,9474.636058
1520.121151,1225.752797,1110.308913,8808.450710
1520.121468,1302.362347,1554.432478,7994.224174
1520.121786,1302.362347,1184.329507,8512.368333
1520.122103,1455.581446,1332.370696,8290.306550
1520.122420,1149.143247,1036.288319,8290.306550
1520.122737,919.314598,1184.329507,9030.512492
1520.123055,306.438199,296.082377,9178.553681
1520.123372,306.438199,592.164754,9696.697840
1520.123689,0.000000,518.144159,9992.780217
1520.124007,0.000000,444.123565,10288.862594
1520.124324,0.000000,518.144159,10658.965565
1520.124641,-153.219100,592.164754,10658.965565
1520.124958,383.047749,888.247130,10288.862594
1520.125276,0.000000,1258.350101,10436.903782
1520.125593,689.485948,1702.473667,10362.883188
1520.125910,919.314598,1776.494261,9770.718434
1520.126227,1149.143247,1924.535449,9474.636058
1520.126545,1608.800546,1406.391290,9770.718434
1520.126862,1685.410096,1480.411884,9474.636058
1520.127179,2068.457845,962.267725,9992.780217
1520.127496,1838.629195,740.205942,9696.697840
1520.127813,2145.067394,740.205942,9918.759623
1520.128131,1838.629195,740.205942,9696.697840
1520.128448,1685.410096,518.144159,10066.800811
1520.128765,1378.971896,444.123565,10584.944971
1520.129082,1302.362347,666.185348,10807.006753
1520.129399,1532.190996,740.205942,10732.986159
1520.129717,1455.581446,1036.288319,10732.986159
1520.130034,1838.629195,1184.329507,10658.965565
1520.130351,1838.629195,1332.370696,9844.739029
1520.130668,2221.676944,1332.370696,9400.615463
1520.130985,2451.505594,1184.329507,9030.512492
1520.131303,2528.115143,888.247130,9178.553681
1520.131620,2451.505594,592.164754,8808.450710
1520.131937,2298.286494,222.061783,9030.512492
1520.132254,995.924147,-0.000000,8734.430116
1520.132571,1225.752797,296.082377,9400.615463
1520.132889,459.657299,370.102971,9474.636058
1520.133206,0.000000,296.082377,10066.800811
1520.133523,0.000000,222.061783,10066.800811
1520.133840,-229.828649,148.041188,9770.718434
1520.134157,-689.485948,666.185348,9918.759623
1520.134475,-229.828649,222.061783,9622.677246
1520.134792,0.000000,296.082377,9770.718434
1520.135109,-229.828649,296.082377,9104.533087
1520.135426,0.000000,-0.000000,8734.430116
1520.135744,0.000000,370.102971,8734.430116
1520.136061,536.266849,-0.000000,8660.409521
1520.136378,306.438199,-0.000000,7772.162391
1520.136695,306.438199,-296.082377,7994.224174
1520.137012,536.266849,-0.000000,8438.347739
1520.137330,0.000000,-0.000000,8290.306550
1520.137647,-536.266849,-0.000000,7994.224174
1520.137964,-995.924147,-222.061783,8882.471304
1520.138281,-842.705048,-222.061783,9474.636058
1520.138598,-995.924147,-740.205942,9696.697840
1520.138916,-842.705048,-666.185348,9696.697840
1520.139233,-1072.533697,-962.267725,9622.677246
1520.139550,-229.828649,-518.144159,9770.718434
1520.139867,995.924147,-370.102971,9178.553681
1520.140184,1225.752797,444.123565,8512.368333
1520.140502,1072.533697,-74.020594,8586.388927
1520.140819,1378.971896,-148.041188,7920.203579
1520.141136,2068.457845,-0.000000,8290.306550
1520.141453,2451.505594,-74.020594,8290.306550
1520.141770,2374.896044,-222.061783,8808.450710
1520.142088,1991.848295,-370.102971,8882.471304
1520.142405,2145.067394,-666.185348,9252.574275
1520.142722,1608.800546,-296.082377,9770.718434
1520.143039,2221.676944,-592.164754,10140.821405
1520.143356,1302.362347,296.082377,9474.636058
1520.143674,2145.067394,222.061783,9326.594869
1520.143991,1685.410096,148.041188,9844.739029
1520.144308,1838.629195,-0.000000,10140.821405
1520.144625,2221.676944,-148.041188,10066.800811
1520.144942,1762.019645,370.102971,9622.677246
1520.145260,1915.238745,444.123565,10066.800811
1520.145577,2068.457845,518.144159,9770.718434
1520.145894,1762.019645,370.102971,9326.594869
1520.146211,1762.019645,370.102971,9178.553681
1520.146528,766.095498,-0.000000,9104.533087
1520.146846,459.657299,296.082377,9548.656652
1520.147163,766.095498,-148.041188,9844.739029
1520.147480,153.219100,-0.000000,10140.821405
1520.147797,-383.047749,-148.041188,10881.027347
1520.148115,-689.485948,-296.082377,10807.006753
1520.148432,-459.657299,-0.000000,10807.006753
1520.148749,-689.485948,518.144159,10436.903782
1520.149066,-612.876398,962.267725,10066.800811
1520.149383,0.000000,1184.329507,9474.636058
1520.149701,459.657299,1332.370696,8808.450710
1520.150018,612.876398,814.226536,8808.450710
1520.150335,612.876398,888.247130,8734.430116
1520.150652,1072.533697,518.144159,9326.594869
1520.150969,995.924147,444.123565,9474.636058
1520.151287,536.266849,370.102971,9474.636058
1520.151604,306.438199,518.144159,9622.677246
1520.151921,383.047749,666.185348,9770.718434
1520.152238,766.095498,962.267725,9548.656652
1520.152555,842.705048,666.185348,9770.718434
1520.152873,612.876398,814.226536,9326.594869
1520.153190,536.266849,592.164754,9548.656652
1520.153507,995.924147,518.144159,9770.718434
1520.153824,919.314598,592.164754,9992.780217
1520.154141,1302.362347,666.185348,9252.574275
1520.154459,1149.143247,888.247130,9474.636058
1520.154776,1455.581446,740.205942,9252.574275
1520.155093,2145.067394,148.041188,9030.512492
1520.155410,1455.581446,740.205942,8364.327145
1520.155727,1455.581446,444.123565,8882.471304
1520.156045,919.314598,-0.000000,9104.533087
1520.156362,612.876398,-148.041188,9252.574275
1520.156679,536.266849,-0.000000,9696.697840
1520.156996,-229.828649,-666.185348,10066.800811
1520.157313,-306.438199,-370.102971,10436.903782
1520.157631,-383.047749,-666.185348,10140.821405
1520.157948,-612.876398,-222.061783,10140.821405
1520.158265,-536.266849,-370.102971,10436.903782
1520.158582,-306.438199,148.041188,9548.656652
1520.158900,76.609550,370.102971,9104.533087
1520.159217,229.828649,74.020594,8438.347739
1520.159534,612.876398,148.041188,8364.327145
1520.159851,459.657299,-370.102971,8956.491898
1520.160168,612.876398,-740.205942,8734.430116
1520.160486,842.705048,-666.185348,9030.512492
1520.160803,612.876398,-222.061783,9104.533087
1520.161120,229.828649,-370.102971,8882.471304
1520.161437,0.000000,-222.061783,9400.615463
1520.161754,612.876398,-222.061783,9770.718434
1520.162072,383.047749,-370.102971,9918.759623
1520.162389,459.657299,-296.082377,9696.697840
1520.162706,842.705048,-74.020594,10214.842000
1520.163023,842.705048,-74.020594,9474.636058
1520.163340,1915.238745,-0.000000,9474.636058
1520.163658,1762.019645,222.061783,8882.471304
1520.163975,1838.629195,296.082377,9030.512492
1520.164292,2298.286494,-148.041188,8734.430116
1520.164609,2451.505594,-74.020594,8956.491898
1520.164926,2451.505594,-296.082377,9104.533087
1520.165244,2221.676944,-370.102971,8882.471304
1520.165561,1685.410096,-518.144159,8882.471304
1520.165878,1455.581446,-814.226536,8882.471304
1520.166195,995.924147,-814.226536,9622.677246
1520.166512,383.047749,-1036.288319,10436.903782
1520.166830,76.609550,-740.205942,10584.944971
1520.167147,0.000000,-518.144159,10732.986159
1520.167464,-229.828649,-444.123565,10584.944971
1520.167781,-153.219100,-222.061783,10584.944971
1520.168098,383.047749,148.041188,9770.718434
1520.168416,766.095498,518.144159,9252.574275
1520.168733,766.095498,666.185348,9178.553681
1520.169050,995.924147,666.185348,8956.491898
1520.169367,766.095498,740.205942,8586.388927
1520.169685,919.314598,-0.000000,8586.388927
1520.170002,306.438199,-0.000000,9030.512492
1520.170319,153.219100,-666.185348,9474.636058
1520.170636,-459.657299,-222.061783,9252.574275
1520.170953,-612.876398,-0.000000,9474.636058
1520.171271,-766.095498,-0.000000,9696.697840
1520.171588,-766.095498,-0.000000,9622.677246
1520.171905,-459.657299,518.144159,8956.491898
1520.172222,-689.485948,962.267725,9474.636058
1520.172539,-383.047749,814.226536,9474.636058
1520.172857,0.000000,814.226536,9104.533087
1520.173174,229.828649,740.205942,8882.471304
1520.173491,0.000000,444.123565,8734.430116
1520.173808,459.657299,592.164754,8882.471304
1520.174125,842.705048,444.123565,8290.306550
1520.174443,995.924147,370.102971,8512.368333
1520.174760,1149.143247,370.102971,8734.430116
1520.175077,612.876398,518.144159,8956.491898
1520.175394,536.266849,370.102971,8882.471304
1520.175711,383.047749,-0.000000,9326.594869
1520.176029,-229.828649,-0.000000,9770.718434
1520.176346,-229.828649,-0.000000,10140.821405
1520.176663,-153.219100,-148.041188,10140.821405
1520.176980,76.609550,-74.020594,10807.006753
1520.177297,306.438199,-0.000000,10732.986159
1520.177615,842.705048,222.061783,10066.800811
1520.177932,1149.143247,444.123565,9474.636058
1520.178249,1685.410096,222.061783,9178.553681
1520.178566,1608.800546,74.020594,9030.512492
1520.178883,1838.629195,148.041188,9104.533087
1520.179201,1685.410096,-148.041188,9400.615463
1520.179518,1149.143247,-0.000000,9992.780217
1520.179835,1378.971896,-296.082377,10140.821405
1520.180152,1378.971896,222.061783,10066.800811
1520.180469,1072.533697,518.144159,9844.739029
1520.180787,1149.143247,370.102971,9992.780217
1520.181104,842.705048,740.205942,9844.739029
1520.181421,1072.533697,296.082377,9696.697840
1520.181738,842.705048,-0.000000,10140.821405
1520.182056,1225.752797,-148.041188,10140.821405
1520.182373,1225.752797,-148.041188,9696.697840
1520.182690,1149.143247,-0.000000,9474.636058
1520.183007,1225.752797,296.082377,9252.574275
1520.183324,1608.800546,222.061783,9252.574275
1520.183642,1608.800546,444.123565,8364.327145
1520.183959,1378.971896,740.205942,8512.368333
1520.184276,1455.581446,370.102971,8216.285956
1520.184593,1302.362347,296.082377,8438.347739
1520.184910,1149.143247,-74.020594,8660.409521
1520.185228,459.657299,-222.061783,9326.594869
1520.185545,229.828649,-814.226536,9992.780217
1520.185862,383.047749,-74.020594,9770.718434
1520.186179,459.657299,296.082377,10066.800811
1520.186496,459.657299,518.144159,9770.718434
1520.186814,1302.362347,814.226536,9474.636058
1520.187131,1302.362347,1184.329507,8808.450710
1520.187448,1455.581446,1110.308913,8216.285956
1520.187765,1991.848295,888.247130,8142.265362
1520.188082,1991.848295,666.185348,8512.368333
1520.188400,1838.629195,-0.000000,8660.409521
1520.188717,1455.581446,-296.082377,8956.491898
1520.189034,1072.533697,-444.123565,9622.677246
1520.189351,536.266849,-148.041188,9474.636058
1520.189668,689.485948,370.102971,9474.636058
1520.189986,536.266849,518.144159,9474.636058
1520.190303,153.219100,592.164754,9918.759623
1520.190620,229.828649,444.123565,9622.677246
1520.190937,459.657299,296.082377,9696.697840
1520.191254,153.219100,296.082377,9770.718434
1520.191572,459.657299,296.082377,9770.718434
1520.191889,383.047749,444.123565,9474.636058
1520.192206,536.266849,592.164754,9548.656652
1520.192523,383.047749,814.226536,9178.553681
1520.192841,919.314598,666.185348,9400.615463
1520.193158,459.657299,740.205942,8734.430116
1520.193475,229.828649,370.102971,8734.430116
1520.193792,0.000000,-0.000000,8882.471304
1520.194109,-689.485948,-0.000000,9252.574275
1520.194427,-842.705048,-370.102971,9548.656652
1520.194744,-1302.362347,-296.082377,9918.759623
1520.195061,-1378.971896,-0.000000,10510.924376
1520.195378,-1302.362347,222.061783,10288.862594
1520.195695,-1378.971896,814.226536,10436.903782
1520.196013,-689.485948,740.205942,10140.821405
1520.196330,0.000000,1036.288319,9474.636058
1520.196647,459.657299,1406.391290,9104.533087
1520.196964,919.314598,1184.329507,8734.430116
1520.197281,2145.067394,666.185348,8734.430116
1520.197599,1762.019645,370.102971,8882.471304
1520.197916,1991.848295,444.123565,8660.409521
1520.198233,1762.019645,-74.020594,9252.574275
1520.198550,1915.238745,-0.000000,9178.553681
1520.198867,1762.019645,-0.000000,9400.615463
1520.199185,1608.800546,148.041188,9474.636058
1520.199502,1608.800546,-0.000000,9918.759623
1520.199819,1532.190996,222.061783,9918.759623
1520.200136,842.705048,222.061783,9844.739029
1520.200453,1455.581446,592.164754,10066.800811
1520.200771,1532.190996,592.164754,10140.821405
1520.201088,1532.190996,592.164754,9992.780217
1520.201405,1838.629195,296.082377,9844.739029
1520.201722,1915.238745,370.102971,9622.677246
1520.202039,1915.238745,370.102971,9474.636058
1520.202357,2068.457845,296.082377,9104.533087
1520.202674,2221.676944,296.082377,9104.533087
1520.202991,1838.629195,370.102971,8956.491898
1520.203308,1455.581446,222.061783,9104.533087
1520.203626,766.095498,296.082377,8956.491898
1520.203943,842.705048,296.082377,9252.574275
1520.204260,536.266849,370.102971,9548.656652
1520.204577,0.000000,222.061783,9770.718434
1520.204894,0.000000,-74.020594,9770.718434
1520.205212,0.000000,592.164754,9992.780217
1520.205529,153.219100,444.123565,9770.718434
1520.205846,76.609550,814.226536,9326.594869
1520.206163,383.047749,814.226536,8734.430116
1520.206480,459.657299,888.247130,8808.450710
1520.206798,459.657299,888.247130,8512.368333
1520.207115,459.657299,666.185348,8216.285956
1520.207432,689.485948,518.144159,8586.388927
1520.207749,306.438199,592.164754,8956.491898
1520.208066,153.219100,518.144159,9030.512492
1520.208384,0.000000,740.205942,9030.512492
1520.208701,0.000000,814.226536,9252.574275
1520.209018,0.000000,666.185348,9696.697840
1520.209335,153.219100,740.205942,9548.656652
1520.209652,153.219100,1110.308913,9548.656652
1520.209970,536.266849,592.164754,9992.780217
1520.210287,689.485948,444.123565,9844.739029
1520.210604,1072.533697,592.164754,9326.594869
1520.210921,1532.190996,592.164754,9030.512492
1520.211238,1302.362347,962.267725,9400.615463
1520.211556,1608.800546,740.205942,8882.471304
1520.211873,1991.848295,814.226536,8882.471304
1520.212190,1838.629195,518.144159,8882.471304
1520.212507,1685.410096,222.061783,9030.512492
1520.212824,1378.971896,-0.000000,9326.594869
1520.213142,995.924147,-74.020594,9548.656652
1520.213459,612.876398,-74.020594,10362.883188
1520.213776,612.876398,-222.061783,10807.006753
1520.214093,689.485948,222.061783,10732.986159
1520.214411,459.657299,296.082377,10584.944971
1520.214728,612.876398,518.144159,10510.924376
1520.215045,919.314598,814.226536,10436.903782
1520.215362,1838.629195,1036.288319,9696.697840
1520.215679,1685.410096,1184.329507,8956.491898
1520.215997,1685.410096,962.267725,9400.615463
1520.216314,1915.238745,518.144159,8956.491898
1520.216631,1838.629195,-0.000000,8956.491898
1520.216948,1378.971896,-518.144159,9474.636058
1520.217265,1378.971896,-370.102971,9622.677246
1520.217583,1072.533697,-444.123565,9622.677246
1520.217900,612.876398,-148.041188,9474.636058
1520.218217,842.705048,-0.000000,9844.739029
1520.218534,459.657299,-222.061783,9622.677246
1520.218851,766.095498,296.082377,9622.677246
1520.219169,766.095498,518.144159,9252.574275
1520.219486,612.876398,370.102971,9696.697840
1520.219803,689.485948,-0.000000,9326.594869
1520.220120,995.924147,296.082377,9178.553681
1520.220437,919.314598,-0.000000,9326.594869
1520.220755,1149.143247,-0.000000,8956.491898
1520.221072,1225.752797,-0.000000,8808.450710
1520.221389,1225.752797,-148.041188,8586.388927
1520.221706,766.095498,-370.102971,8734.430116
1520.222023,689.485948,-370.102971,8586.388927
1520.222341,459.657299,-444.123565,8882.471304
1520.222658,0.000000,-592.164754,9030.512492
1520.222975,0.000000,-740.205942,9548.656652
1520.223292,-689.485948,-518.144159,9622.677246
1520.223609,-689.485948,-74.020594,9844.739029
1520.223927,-459.657299,-222.061783,9918.759623
1520.224244,229.828649,-148.041188,9992.780217
1520.224561,0.000000,222.061783,9548.656652
1520.224878,306.438199,370.102971,9178.553681
1520.225195,919.314598,518.144159,8660.409521
1520.225513,995.924147,592.164754,8290.306550
1520.225830,1302.362347,-0.000000,7920.203579
1520.226147,1378.971896,148.041188,8512.368333
1520.226464,766.095498,-74.020594,8956.491898
1520.226782,612.876398,-370.102971,8882.471304
1520.227099,536.266849,-74.020594,9326.594869
1520.227416,459.657299,-222.061783,9474.636058
1520.227733,383.047749,-0.000000,9770.718434
1520.228050,306.438199,148.041188,9548.656652
1520.228368,229.828649,592.164754,9474.636058
1520.228685,459.657299,444.123565,9548.656652
1520.229002,612.876398,222.061783,9474.636058
1520.229319,995.924147,370.102971,9474.636058
1520.229636,1149.143247,740.205942,9400.615463
1520.229954,1378.971896,518.144159,9104.533087
1520.230271,1378.971896,740.205942,9326.594869
1520.230588,1991.848295,592.164754,8882.471304
1520.230905,1838.629195,888.247130,8882.471304
1520.231222,1532.190996,740.205942,9104.533087
1520.231540,1149.143247,444.123565,9030.512492
1520.231857,919.314598,296.082377,9104.533087
1520.232174,536.266849,-296.082377,9548.656652
1520.232491,-229.828649,-222.061783,10288.862594
1520.232809,-459.657299,-592.164754,11103.089130
1520.233126,-459.657299,-444.123565,11177.109724
1520.233443,-306.438199,-296.082377,11473.192101
1520.233760,536.266849,-74.020594,11251.130318
1520.234077,153.219100,370.102971,10510.924376
1520.234395,919.314598,962.267725,9770.718434
1520.234712,1302.362347,1258.350101,9474.636058
1520.235029,1685.410096,888.247130,9104.533087
1520.235346,1991.848295,740.205942,8660.409521
1520.235663,1915.238745,296.082377,9104.533087
1520.235981,1838.629195,-148.041188,9474.636058
1520.236298,1225.752797,-222.061783,9844.739029
1520.236615,612.876398,-296.082377,9992.780217
1520.236932,459.657299,-0.000000,10066.800811
1520.237249,383.047749,-148.041188,10288.862594
1520.237567,459.657299,-0.000000,10066.800811
1520.237884,383.047749,222.061783,9770.718434
1520.238201,766.095498,222.061783,9844.739029
1520.238518,1302.362347,74.020594,9992.780217
1520.238836,689.485948,296.082377,9474.636058
1520.239153,766.095498,370.102971,9104.533087
1520.239470,1149.143247,592.164754,9104.533087
1520.239787,995.924147,666.185348,8734.430116
1520.240104,1378.971896,518.144159,8216.285956
1520.240422,1378.971896,814.226536,8068.244768
1520.240739,1149.143247,518.144159,8068.244768
1520.241056,995.924147,370.102971,7920.203579
1520.241373,919.314598,-0.000000,8438.347739
1520.241690,153.219100,-0.000000,9178.553681
1520.242008,-459.657299,-444.123565,9474.636058
1520.242325,-383.047749,-370.102971,9770.718434
1520.242642,-612.876398,-296.082377,10140.821405
1520.242959,-536.266849,-74.020594,10214.842000
1520.243276,-306.438199,-0.000000,10140.821405
1520.243594,153.219100,370.102971,9178.553681
1520.243911,459.657299,740.205942,8512.368333
1520.244228,842.705048,370.102971,8364.327145
1520.244545,1378.971896,518.144159,7994.224174
1520.244862,1762.019645,-296.082377,8216.285956
1520.245180,1762.019645,-296.082377,8512.368333
1520.245497,1225.752797,-444.123565,8660.409521
1520.245814,1149.143247,-148.041188,9030.512492
1520.246131,995.924147,-296.082377,9474.636058
1520.246449,689.485948,-148.041188,9548.656652
1520.246766,383.047749,-0.000000,9770.718434
1520.247083,536.266849,-0.000000,9770.718434
1520.247400,612.876398,370.102971,9918.759623
1520.247717,689.485948,-148.041188,10066.800811
1520.248035,766.095498,-0.000000,9918.759623
1520.248352,689.485948,-0.000000,9548.656652
1520.248669,1149.143247,-0.000000,9326.594869
1520.248986,1072.533697,444.123565,9400.615463
1520.249303,1532.190996,370.102971,9104.533087
1520.249621,1762.019645,444.123565,8882.471304
1520.249938,1532.190996,518.144159,8882.471304
1520.250255,1302.362347,148.041188,8882.471304
1520.250572,842.705048,-74.020594,9252.574275
1520.250889,153.219100,370.102971,9178.553681
1520.251207,76.609550,-74.020594,9844.739029
1520.251524,-229.828649,-666.185348,10214.842000
1520.251841,-536.266849,-74.020594,10658.965565
1520.252158,-229.828649,-888.247130,10807.006753
1520.252476,-689.485948,148.041188,10732.986159
1520.252793,-229.828649,370.102971,10288.862594
1520.253110,153.219100,518.144159,9622.677246
1520.253427,689.485948,518.144159,9326.594869
1520.253744,766.095498,296.082377,9252.574275
1520.254062,1225.752797,-74.020594,8808.450710
1520.254379,1072.533697,-444.123565,9104.533087
1520.254696,1302.362347,-518.144159,9400.615463
1520.255013,1149.143247,-444.123565,9474.636058
1520.255330,842.705048,-444.123565,9622.677246
1520.255648,766.095498,-370.102971,9622.677246
1520.255965,383.047749,-222.061783,9918.759623
1520.256282,612.876398,-74.020594,10214.842000
1520.256599,306.438199,-74.020594,9844.739029
1520.256916,766.095498,-0.000000,9696.697840
1520.257234,459.657299,-370.102971,9474.636058
1520.257551,612.876398,-148.041188,9622.677246
1520.257868,612.876398,-0.000000,9474.636058
1520.258185,919.314598,-0.000000,9178.553681
1520.258503,919.314598,148.041188,9178.553681
1520.258820,919.314598,-0.000000,8956.491898
1520.259137,842.705048,444.123565,8364.327145
1520.259454,612.876398,222.061783,8734.430116
1520.259771,153.219100,-0.000000,8660.409521
1520.260089,0.000000,-0.000000,8660.409521
1520.260406,-383.047749,-148.041188,9104.533087
1520.260723,-766.095498,-444.123565,9696.697840
1520.261040,-1302.362347,-962.267725,10362.883188
1520.261357,-1149.143247,-518.144159,9844.739029
1520.261675,-1302.362347,-0.000000,9770.718434
1520.261992,-766.095498,666.185348,9844.739029
1520.262309,0.000000,814.226536,9326.594869
1520.262626,153.219100,666.185348,8956.491898
1520.262943,229.828649,1036.288319,8216.285956
1520.263261,766.095498,962.267725,8290.306550
1520.263578,1532.190996,814.226536,8068.244768
1520.263895,1838.629195,296.082377,8808.450710
1520.264212,1608.800546,148.041188,8808.450710
1520.264530,1455.581446,-0.000000,9474.636058
1520.264847,1378.971896,-0.000000,9178.553681
1520.265164,1532.190996,296.082377,9770.718434
1520.265481,1991.848295,370.102971,9770.718434
1520.265798,2145.067394,814.226536,9178.553681
1520.266116,1991.848295,962.267725,9326.594869
1520.266433,2145.067394,666.185348,9770.718434
1520.266750,2298.286494,666.185348,9548.656652
1520.267067,2451.505594,814.226536,9548.656652
1520.267384,2298.286494,666.185348,9474.636058
1520.267702,2374.896044,296.082377,9178.553681
1520.268019,2451.505594,370.102971,9474.636058
1520.268336,2221.676944,518.144159,9178.553681
1520.268653,2145.067394,666.185348,8956.491898
1520.268970,1685.410096,444.123565,8660.409521
1520.269288,1302.362347,592.164754,9178.553681
1520.269605,766.095498,222.061783,9400.615463
1520.269922,76.609550,-0.000000,9770.718434
1520.270239,0.000000,-74.020594,10732.986159
1520.270557,-536.266849,-0.000000,11103.089130
1520.270874,-612.876398,74.020594,10881.027347
1520.271191,-306.438199,962.267725,10658.965565
1520.271508,0.000000,962.267725,10584.944971
1520.271825,383.047749,1258.350101,9622.677246
1520.272143,689.485948,1554.432478,8956.491898
1520.272460,919.314598,1924.535449,8438.347739
1520.272777,1149.143247,1110.308913,8734.430116
1520.273094,1378.971896,592.164754,8512.368333
1520.273411,1072.533697,370.102971,8956.491898
1520.273729,459.657299,296.082377,9326.594869
1520.274046,459.657299,-222.061783,9696.697840
1520.274363,383.047749,-0.000000,9844.739029
1520.274680,306.438199,-0.000000,9844.739029
1520.274997,0.000000,444.123565,10214.842000
1520.275315,0.000000,518.144159,9918.759623
1520.275632,76.609550,814.226536,9918.759623
1520.275949,306.438199,814.226536,9770.718434
1520.276266,766.095498,888.247130,9696.697840
1520.276584,766.095498,740.205942,9548.656652
1520.276901,766.095498,888.247130,9474.636058
1520.277218,1302.362347,888.247130,9400.615463
1520.277535,1149.143247,666.185348,9252.574275
1520.277852,1072.533697,592.164754,8882.471304
1520.278170,1149.143247,592.164754,8660.409521
1520.278487,842.705048,370.102971,8808.450710
1520.278804,689.485948,296.082377,8734.430116
1520.279121,229.828649,-148.041188,9326.594869
1520.279438,-153.219100,-370.102971,9696.697840
1520.279756,-612.876398,-740.205942,10140.821405
1520.280073,-1225.752797,-592.164754,10362.883188
1520.280390,-842.705048,-222.061783,10288.862594
1520.280707,-612.876398,-222.061783,10658.965565
1520.281024,229.828649,-0.000000,10288.862594
1520.281342,536.266849,740.205942,9178.553681
1520.281659,995.924147,1036.288319,8364.327145
1520.281976,1455.581446,666.185348,8438.347739
1520.282293,1915.238745,370.102971,8216.285956
1520.282611,2221.676944,-74.020594,8142.265362
1520.282928,1685.410096,-0.000000,8660.409521
1520.283245,1302.362347,-370.102971,9030.512492
1520.283562,1225.752797,-0.000000,9400.615463
1520.283879,1072.533697,148.041188,9474.636058
1520.284197,689.485948,-0.000000,9844.739029
1520.284514,766.095498,-148.041188,9918.759623
1520.284831,995.924147,-0.000000,9400.615463
1520.285148,1072.533697,-0.000000,9622.677246
1520.285465,1838.629195,-0.000000,9474.636058
1520.285783,1225.752797,-0.000000,9770.718434
1520.286100,1685.410096,370.102971,9400.615463
1520.286417,1685.410096,444.123565,9030.512492
1520.286734,1762.019645,444.123565,8660.409521
1520.287051,2145.067394,-0.000000,8956.491898
1520.287369,1915.238745,-222.061783,8660.409521
1520.287686,1762.019645,-370.102971,8956.491898
1520.288003,1378.971896,-444.123565,9252.574275
1520.288320,689.485948,-370.102971,8882.471304
1520.288638,536.266849,-444.123565,9696.697840
1520.288955,0.000000,-962.267725,10362.883188
1520.289272,153.219100,-740.205942,10362.883188
1520.289589,-383.047749,-74.020594,10214.842000
1520.289906,0.000000,-0.000000,10362.883188
1520.290224,76.609550,-0.000000,10732.986159
1520.290541,306.438199,518.144159,9918.759623
1520.290858,766.095498,962.267725,9178.553681
1520.291175,1225.752797,814.226536,8438.347739
1520.291492,2145.067394,296.082377,8512.368333
1520.291810,1762.019645,518.144159,8438.347739
1520.292127,1991.848295,814.226536,7994.224174
1520.292444,1072.533697,222.061783,8512.368333
1520.292761,1072.533697,-74.020594,9548.656652
1520.293078,689.485948,-0.000000,9030.512492
1520.293396,383.047749,814.226536,9252.574275
1520.293713,153.219100,666.185348,9696.697840
1520.294030,-153.219100,666.185348,10066.800811
1520.294347,0.000000,888.247130,9548.656652
1520.294665,-153.219100,1110.308913,9770.718434
1520.294982,689.485948,962.267725,9918.759623
1520.295299,536.266849,888.247130,9770.718434
1520.295616,1149.143247,1406.391290,9326.594869
1520.295933,1378.971896,1406.391290,9030.512492
1520.296251,1608.800546,1406.391290,8956.491898
1520.296568,1762.019645,1406.391290,8734.430116
1520.296885,1685.410096,1184.329507,8586.388927
1520.297202,1608.800546,1332.370696,8882.471304
1520.297519,1225.752797,1258.350101,8660.409521
1520.297837,383.047749,518.144159,9474.636058
1520.298154,306.438199,518.144159,9474.636058
1520.298471,0.000000,-0.000000,10214.842000
1520.298788,-153.219100,-0.000000,10362.883188
1520.299105,-459.657299,-74.020594,11103.089130
1520.299423,-536.266849,-222.061783,11251.130318
1520.299740,0.000000,222.061783,11103.089130
1520.300057,153.219100,666.185348,9992.780217
1520.300374,76.609550,962.267725,9622.677246
1520.300691,1378.971896,888.247130,9474.636058
1520.301009,1532.190996,888.247130,9178.553681
1520.301326,1532.190996,814.226536,8734.430116
1520.301643,1532.190996,-0.000000,9030.512492
1520.301960,1532.190996,-296.082377,9326.594869
1520.302278,1225.752797,-148.041188,9474.636058
1520.302595,1072.533697,-222.061783,9326.594869
1520.302912,383.047749,-296.082377,10140.821405
1520.303229,153.219100,-222.061783,10288.862594
1520.303546,383.047749,-0.000000,9992.780217
1520.303864,0.000000,-0.000000,9992.780217
1520.304181,-229.828649,-0.000000,10140.821405
1520.304498,0.000000,-0.000000,9844.739029
1520.304815,0.000000,-74.020594,9622.677246
1520.305132,153.219100,444.123565,9474.636058
1520.305450,306.438199,-0.000000,9030.512492
1520.305767,689.485948,-148.041188,9178.553681
1520.306084,766.095498,-74.020594,8808.450710
1520.306401,1302.362347,-296.082377,8586.388927
1520.306718,612.876398,-370.102971,8808.450710
1520.307036,842.705048,-518.144159,8734.430116
1520.307353,536.266849,-296.082377,8660.409521
1520.307670,229.828649,-370.102971,8956.491898
1520.307987,153.219100,-888.247130,9474.636058
1520.308305,76.609550,-1036.288319,9770.718434
1520.308622,459.657299,-370.102971,9474.636058
1520.308939,76.609550,-518.144159,9400.615463
1520.309256,612.876398,-296.082377,9622.677246
1520.309573,1072.533697,-222.061783,9400.615463
1520.309891,1302.362347,-0.000000,8586.388927
1520.310208,1302.362347,222.061783,8438.347739
1520.310525,1532.190996,-0.000000,8586.388927
1520.310842,1608.800546,-370.102971,8512.368333
1520.311159,1685.410096,-666.185348,8808.450710
1520.311477,1685.410096,-666.185348,9474.636058
1520.311794,1149.143247,-962.267725,9474.636058
1520.312111,1302.362347,-370.102971,9400.615463
1520.312428,1302.362347,-0.000000,9474.636058
1520.312745,1225.752797,-0.000000,9474.636058
1520.313063,1302.362347,444.123565,9178.553681
1520.313380,1302.362347,666.185348,9104.533087
1520.313697,1455.581446,518.144159,9178.553681
1520.314014,1532.190996,296.082377,9178.553681
1520.314332,842.705048,296.082377,9104.533087
1520.314649,919.314598,518.144159,9030.512492
1520.314966,919.314598,592.164754,9104.533087
1520.315283,1072.533697,296.082377,8882.471304
1520.315600,995.924147,444.123565,9178.553681
1520.315918,612.876398,296.082377,9104.533087
1520.316235,306.438199,-0.000000,9326.594869
1520.316552,153.219100,518.144159,9400.615463
1520.316869,0.000000,444.123565,9252.574275
1520.317186,153.219100,222.061783,9696.697840
1520.317504,-459.657299,148.041188,10584.944971
1520.317821,-689.485948,592.164754,10436.903782
1520.318138,-153.219100,814.226536,10214.842000
1520.318455,-153.219100,740.205942,10436.903782
1520.318772,766.095498,962.267725,10214.842000
1520.319090,766.095498,1110.308913,9252.574275
1520.319407,842.705048,1110.308913,8734.430116
1520.319724,1378.971896,962.267725,8808.450710
1520.320041,1532.190996,666.185348,8586.388927
1520.320359,1762.019645,444.123565,8660.409521
1520.320676,1149.143247,222.061783,9326.594869
1520.320993,919.314598,-222.061783,9992.780217
1520.321310,689.485948,-0.000000,9918.759623
1520.321627,76.609550,-0.000000,10140.821405
1520.321945,536.266849,-0.000000,10510.924376
1520.322262,229.828649,370.102971,10510.924376
1520.322579,536.266849,592.164754,10510.924376
1520.322896,536.266849,666.185348,10362.883188
1520.323213,1532.190996,1036.288319,10140.821405
1520.323531,1915.238745,814.226536,9770.718434
1520.323848,1838.629195,1110.308913,9548.656652
1520.324165,1762.019645,518.144159,9400.615463
1520.324482,1608.800546,666.185348,9400.615463
1520.324799,1762.019645,370.102971,9400.615463
1520.325117,1302.362347,370.102971,8734.430116
1520.325434,1378.971896,-0.000000,9104.533087
1520.325751,842.705048,-296.082377,9178.553681
1520.326068,306.438199,-148.041188,9104.533087
1520.326386,0.000000,-666.185348,9474.636058
1520.326703,-383.047749,-814.226536,9770.718434
1520.327020,-459.657299,-888.247130,10214.842000
1520.327337,-919.314598,-666.185348,10584.944971
1520.327654,-612.876398,-518.144159,10436.903782
1520.327972,-459.657299,-222.061783,10436.903782
1520.328289,-153.219100,-0.000000,10066.800811
1520.328606,383.047749,444.123565,9400.615463
1520.328923,766.095498,444.123565,8808.450710
1520.329240,1608.800546,518.144159,8586.388927
1520.329558,1685.410096,296.082377,8364.327145
1520.329875,1991.848295,-0.000000,8216.285956
1520.330192,2068.457845,-296.082377,8660.409521
1520.330509,1608.800546,-518.144159,8808.450710
1520.330826,2068.457845,-888.247130,8808.450710
1520.331143,1378.971896,-370.102971,9252.574275
1520.331461,1455.581446,-0.000000,9474.636058
1520.331778,1072.533697,-74.020594,9474.636058
1520.332095,1302.362347,148.041188,9178.553681
1520.332412,1225.752797,-0.000000,8956.491898
1520.332729,1149.143247,-0.000000,9400.615463
1520.333047,1302.362347,-148.041188,9178.553681
1520.333364,1225.752797,-0.000000,9104.533087
1520.333681,1149.143247,-222.061783,9326.594869
1520.333998,612.876398,-148.041188,9252.574275
1520.334315,612.876398,-74.020594,9326.594869
1520.334632,612.876398,-74.020594,9178.553681
1520.334950,536.266849,-0.000000,9252.574275
1520.335267,306.438199,-222.061783,9030.512492
1520.335584,0.000000,-0.000000,9104.533087
1520.335901,-459.657299,-74.020594,9326.594869
1520.336218,-536.266849,-148.041188,9696.697840
1520.336535,-689.485948,-370.102971,9992.780217
1520.336853,-689.485948,-222.061783,9770.718434
1520.337170,-842.705048,-0.000000,10066.800811
1520.337487,-995.924147,-0.000000,9696.697840
1520.337804,-536.266849,296.082377,9326.594869
1520.338121,-306.438199,592.164754,8808.450710
1520.338439,459.657299,444.123565,8882.471304
1520.338756,0.000000,222.061783,9104.533087
1520.339073,153.219100,148.041188,8808.450710
1520.339390,536.266849,222.061783,8956.491898
1520.339707,536.266849,-74.020594,9474.636058
1520.340024,383.047749,-0.000000,9918.759623
1520.340342,459.657299,222.061783,9770.718434
1520.340659,459.657299,518.144159,9770.718434
1520.340976,919.314598,888.247130,9992.780217
1520.341293,1302.362347,1258.350101,9844.739029
1520.341610,1225.752797,1628.453072,9770.718434
1520.341928,1762.019645,1406.391290,9474.636058
1520.342245,1838.629195,1554.432478,9474.636058
1520.342562,2145.067394,1480.411884,8956.491898
1520.342879,2145.067394,1184.329507,8882.471304
1520.343196,2374.896044,592.164754,9474.636058
1520.343513,1838.629195,222.061783,9326.594869
1520.343831,1838.629195,-0.000000,9474.636058
1520.344148,1532.190996,148.041188,9474.636058
1520.344465,919.314598,-74.020594,9548.656652
1520.344782,536.266849,-74.020594,9548.656652
1520.345099,306.438199,148.041188,9622.677246
1520.345416,0.000000,-0.000000,10066.800811
1520.345734,-153.219100,296.082377,10362.883188
1520.346051,0.000000,444.123565,10288.862594
1520.346368,0.000000,814.226536,10584.944971
1520.346685,0.000000,444.123565,10732.986159
1520.347002,459.657299,814.226536,10140.821405
1520.347320,536.266849,814.226536,9474.636058
1520.347637,536.266849,962.267725,9030.512492
1520.347954,919.314598,814.226536,8882.471304
1520.348271,1225.752797,740.205942,8734.430116
1520.348588,919.314598,518.144159,8142.265362
1520.348905,1149.143247,-0.000000,8808.450710
1520.349223,766.095498,-148.041188,9252.574275
1520.349540,153.219100,-222.061783,9252.574275
1520.349857,76.609550,-222.061783,9548.656652
1520.350174,0.000000,-74.020594,10066.800811
1520.350491,76.609550,-148.041188,10140.821405
1520.350809,0.000000,148.041188,9918.759623
1520.351126,612.876398,444.123565,9548.656652
1520.351443,1072.533697,444.123565,9474.636058
1520.351760,1378.971896,666.185348,9252.574275
1520.352077,1838.629195,740.205942,8956.491898
1520.352394,2145.067394,740.205942,8734.430116
1520.352712,2145.067394,370.102971,8364.327145
1520.353029,2221.676944,370.102971,8364.327145
1520.353346,2298.286494,444.123565,8290.306550
1520.353663,2068.457845,370.102971,8364.327145
1520.353980,1455.581446,296.082377,8586.388927
1520.354297,1225.752797,-0.000000,8438.347739
1520.354615,766.095498,-222.061783,8882.471304
1520.354932,229.828649,-296.082377,9474.636058
1520.355249,-229.828649,-888.247130,10066.800811
1520.355566,-612.876398,-962.267725,10066.800811
1520.355883,-306.438199,-962.267725,10510.924376
1520.356201,-383.047749,-592.164754,10881.027347
1520.356518,-229.828649,-0.000000,10140.821405
1520.356835,306.438199,296.082377,9400.615463
1520.357152,459.657299,814.226536,8808.450710
1520.357469,919.314598,888.247130,8364.327145
1520.357786,1149.143247,444.123565,8216.285956
1520.358104,1302.362347,-0.000000,8512.368333
1520.358421,1532.190996,-592.164754,8808.450710
1520.358738,383.047749,-592.164754,9252.574275
1520.359055,306.438199,-592.164754,9400.615463
1520.359372,459.657299,-518.144159,9696.697840
1520.359690,306.438199,-444.123565,9992.780217
1520.360007,153.219100,-518.144159,9992.780217
1520.360324,153.219100,148.041188,9548.656652
1520.360641,383.047749,370.102971,9622.677246
1520.360958,842.705048,222.061783,9770.718434
1520.361275,383.047749,-0.000000,10066.800811
1520.361593,1072.533697,518.144159,9622.677246
1520.361910,1225.752797,814.226536,9474.636058
1520.362227,1838.629195,518.144159,9252.574275
1520.362544,2068.457845,370.102971,9474.636058
1520.362861,2221.676944,222.061783,9104.533087
1520.363178,1608.800546,666.185348,9178.553681
1520.363496,1532.190996,518.144159,9104.533087
1520.363813,995.924147,518.144159,9030.512492
1520.364130,612.876398,592.164754,9400.615463
1520.364447,0.000000,-0.000000,10066.800811
1520.364764,0.000000,-222.061783,10436.903782
1520.365082,0.000000,-0.000000,10732.986159
1520.365399,0.000000,592.164754,10658.965565
1520.365716,459.657299,814.226536,10807.006753
1520.366033,536.266849,1184.329507,9992.780217
1520.366350,919.314598,1480.411884,9400.615463
1520.366667,1378.971896,1628.453072,8882.471304
1520.366985,1455.581446,1036.288319,8734.430116
1520.367302,1455.581446,814.226536,8808.450710
1520.367619,1915.238745,370.102971,9030.512492
1520.367936,1455.581446,148.041188,9326.594869
1520.368253,1302.362347,222.061783,9474.636058
1520.368571,842.705048,444.123565,9622.677246
1520.368888,919.314598,-0.000000,9326.594869
1520.369205,689.485948,888.247130,9770.718434
1520.369522,306.438199,1184.329507,9326.594869
1520.369839,536.266849,1258.350101,9030.512492
1520.370156,0.000000,888.247130,9104.533087
1520.370474,229.828649,888.247130,9474.636058
1520.370791,153.219100,814.226536,9178.553681
1520.371108,229.828649,740.205942,9252.574275
1520.371425,229.828649,518.144159,9400.615463
1520.371742,229.828649,296.082377,9474.636058
1520.372060,76.609550,296.082377,9104.533087
1520.372377,383.047749,296.082377,8956.491898
1520.372694,76.609550,222.061783,9030.512492
1520.373011,229.828649,518.144159,9104.533087
1520.373328,306.438199,444.123565,8808.450710
1520.373645,0.000000,296.082377,9474.636058
1520.373963,-229.828649,-74.020594,10140.821405
1520.374280,0.000000,-370.102971,10436.903782
1520.374597,-229.828649,-0.000000,10214.842000
1520.374914,229.828649,-0.000000,10214.842000
1520.375231,383.047749,-148.041188,9918.759623
1520.375548,1072.533697,370.102971,9400.615463
1520.375866,1532.190996,666.185348,8586.388927
1520.376183,1532.190996,592.164754,8438.347739
1520.376500,1991.848295,-222.061783,8586.388927
1520.376817,1838.629195,-222.061783,8734.430116
1520.377134,1685.410096,-592.164754,8956.491898
1520.377452,1455.581446,-888.247130,9474.636058
1520.377769,1072.533697,-814.226536,9696.697840
1520.378086,1532.190996,-814.226536,9844.739029
1520.378403,1302.362347,-74.020594,10140.821405
1520.378720,1302.362347,-0.000000,10214.842000
1520.379037,1302.362347,-0.000000,9918.759623
1520.379355,1378.971896,-0.000000,9548.656652
1520.379672,1455.581446,296.082377,9918.759623
1520.379989,1762.019645,222.061783,9474.636058
1520.380306,1685.410096,-0.000000,9178.553681
1520.380623,1608.800546,-0.000000,9326.594869
1520.380941,1685.410096,-0.000000,9696.697840
1520.381258,1685.410096,-518.144159,8734.430116
1520.381575,1685.410096,-222.061783,8660.409521
1520.381892,1225.752797,-222.061783,9030.512492
1520.382209,689.485948,-296.082377,8660.409521
1520.382526,0.000000,-0.000000,8808.450710
1520.382844,-153.219100,-666.185348,9178.553681
1520.383161,-689.485948,-740.205942,9918.759623
1520.383478,-842.705048,-518.144159,10288.862594
1520.383795,-919.314598,-592.164754,10288.862594
1520.384112,-1149.143247,-148.041188,10510.924376
1520.384429,-459.657299,-0.000000,10436.903782
1520.384747,-229.828649,592.164754,9696.697840
1520.385064,536.266849,888.247130,9030.512492
1520.385381,766.095498,962.267725,8512.368333
1520.385698,1378.971896,962.267725,8660.409521
1520.386015,1685.410096,518.144159,8364.327145
1520.386333,1532.190996,518.144159,8068.244768
1520.386650,1532.190996,-0.000000,8586.388927
1520.386967,1455.581446,-0.000000,9178.553681
1520.387284,919.314598,-0.000000,9104.533087
1520.387601,612.876398,74.020594,9400.615463
1520.387918,766.095498,370.102971,9918.759623
1520.388236,383.047749,222.061783,9770.718434
1520.388553,229.828649,444.123565,9474.636058
1520.388870,306.438199,518.144159,9548.656652
1520.389187,306.438199,666.185348,9696.697840
1520.389504,306.438199,518.144159,9696.697840
1520.389822,459.657299,1036.288319,9474.636058
1520.390139,612.876398,814.226536,9326.594869
1520.390456,459.657299,666.185348,9326.594869
1520.390773,766.095498,814.226536,9548.656652
1520.391090,995.924147,518.144159,9104.533087
1520.391407,766.095498,370.102971,9030.512492
1520.391725,76.609550,666.185348,9104.533087
1520.392042,229.828649,592.164754,9030.512492
1520.392359,0.000000,444.123565,9326.594869
1520.392676,-153.219100,-222.061783,9918.759623
1520.392993,-306.438199,-444.123565,10214.842000
1520.393310,-1072.533697,-222.061783,10658.965565
1520.393628,-459.657299,-370.102971,10362.883188
1520.393945,-306.438199,-518.144159,10584.944971
1520.394262,229.828649,222.061783,9918.759623
1520.394579,536.266849,518.144159,9400.615463
1520.394896,1225.752797,666.185348,9178.553681
1520.395214,1532.190996,740.205942,8734.430116
1520.395531,1685.410096,962.267725,8290.306550
1520.395848,1762.019645,740.205942,8512.368333
1520.396165,1532.190996,-74.020594,9104.533087
1520.396482,1532.190996,-222.061783,9770.718434
1520.396799,1302.362347,-0.000000,9770.718434
1520.397117,1378.971896,-0.000000,9918.759623
1520.397434,1072.533697,-296.082377,10362.883188
1520.397751,1149.143247,222.061783,9770.718434
1520.398068,1072.533697,370.102971,9622.677246
1520.398385,995.924147,296.082377,9548.656652
1520.398703,1072.533697,-0.000000,9548.656652
1520.399020,1225.752797,-0.000000,9474.636058
1520.399337,1149.143247,222.061783,9400.615463
1520.399654,1072.533697,-74.020594,9326.594869
1520.399971,1072.533697,-74.020594,9474.636058
1520.400288,1149.143247,-0.000000,9400.615463
1520.400606,1225.752797,-0.000000,9474.636058
1520.400923,1378.971896,-0.000000,9104.533087
1520.401240,1302.362347,-296.082377,8808.450710
1520.401557,766.095498,-74.020594,8660.409521
1520.401874,383.047749,-222.061783,9252.574275
1520.402191,-153.219100,-444.123565,9548.656652
1520.402509,-229.828649,-296.082377,9844.739029
1520.402826,-536.266849,-222.061783,10140.821405
1520.403143,-306.438199,-148.041188,10362.883188
1520.403460,-536.266849,222.061783,10510.924376
1520.403777,229.828649,-0.000000,9622.677246
1520.404095,0.000000,296.082377,9178.553681
1520.404412,459.657299,518.144159,8290.306550
1520.404729,689.485948,444.123565,8216.285956
1520.405046,536.266849,-148.041188,8142.265362
1520.405363,995.924147,-444.123565,8882.471304
1520.405680,689.485948,-666.185348,9326.594869
1520.405998,459.657299,-592.164754,9548.656652
1520.406315,383.047749,-74.020594,9770.718434
1520.406632,459.657299,222.061783,9622.677246
1520.406949,612.876398,222.061783,9696.697840
1520.407266,689.485948,814.226536,9400.615463
1520.407584,919.314598,888.247130,9030.512492
1520.407901,1225.752797,962.267725,9326.594869
1520.408218,1455.581446,888.247130,9474.636058
1520.408535,1378.971896,592.164754,9400.615463
1520.408852,1762.019645,592.164754,9474.636058
1520.409169,1685.410096,370.102971,9474.636058
1520.409487,1838.629195,296.082377,9474.636058
1520.409804,2451.505594,592.164754,9030.512492
1520.410121,2221.676944,888.247130,8512.368333
1520.410438,1838.629195,592.164754,8808.450710
1520.410755,1762.019645,666.185348,8808.450710
1520.411073,1149.143247,-0.000000,8660.409521
1520.411390,612.876398,-222.061783,9474.636058
1520.411707,306.438199,-740.205942,10436.903782
1520.412024,-153.219100,-518.144159,10436.903782
1520.412341,-229.828649,-222.061783,10658.965565
1520.412658,-306.438199,370.102971,10807.006753
1520.412976,-459.657299,666.185348,10510.924376
1520.413293,76.609550,1332.370696,9474.636058
1520.413610,842.705048,1702.473667,8882.471304
1520.413927,459.657299,1258.350101,8512.368333
1520.414244,612.876398,888.247130,8660.409521
1520.414561,1072.533697,592.164754,8882.471304
1520.414879,459.657299,-148.041188,9326.594869
1520.415196,306.438199,-370.102971,9844.739029
1520.415513,0.000000,-222.061783,9844.739029
1520.415830,-306.438199,-0.000000,9770.718434
1520.416147,153.219100,-0.000000,10362.883188
1520.416465,153.219100,222.061783,9696.697840
1520.416782,76.609550,592.164754,9548.656652
1520.417099,229.828649,518.144159,9252.574275
1520.417416,383.047749,592.164754,9474.636058
1520.417733,766.095498,592.164754,9474.636058
1520.418050,995.924147,666.185348,9252.574275
1520.418368,1149.143247,296.082377,9252.574275
1520.418685,1302.362347,370.102971,9474.636058
1520.419002,1455.581446,-74.020594,9474.636058
1520.419319,1685.410096,666.185348,9104.533087
1520.419636,1302.362347,518.144159,8512.368333
1520.419954,919.314598,370.102971,8734.430116
1520.420271,919.314598,444.123565,8808.450710
1520.420588,919.314598,-0.000000,9104.533087
1520.420905,459.657299,-296.082377,9992.780217
1520.421222,229.828649,-222.061783,10584.944971
1520.421539,76.609550,-444.123565,10732.986159
1520.421857,76.609550,-148.041188,10807.006753
1520.422174,0.000000,-0.000000,10584.944971
1520.422491,689.485948,444.123565,10362.883188
1520.422808,1302.362347,1184.329507,9252.574275
1520.423125,1685.410096,1036.288319,8734.430116
1520.423442,1915.238745,814.226536,8364.327145
1520.423760,2221.676944,592.164754,8216.285956
1520.424077,1991.848295,148.041188,8586.388927
1520.424394,1685.410096,-222.061783,9104.533087
1520.424711,1225.752797,-444.123565,9548.656652
1520.425028,1225.752797,-0.000000,9474.636058
1520.425346,919.314598,296.082377,9474.636058
1520.425663,919.314598,74.020594,9992.780217
1520.425980,459.657299,518.144159,9622.677246
1520.426297,459.657299,518.144159,9326.594869
1520.426614,229.828649,296.082377,9252.574275
1520.426931,306.438199,296.082377,9474.636058
1520.427249,229.828649,518.144159,9104.533087
1520.427566,153.219100,518.144159,9104.533087
1520.427883,229.828649,444.123565,9474.636058
1520.428200,76.609550,444.123565,9474.636058
1520.428517,612.876398,296.082377,8882.471304
1520.428835,306.438199,74.020594,8512.368333
1520.429152,689.485948,592.164754,8586.388927
1520.429469,536.266849,370.102971,8364.327145
1520.429786,229.828649,-0.000000,8882.471304
1520.430103,0.000000,-74.020594,8956.491898
1520.430421,-383.047749,-296.082377,9770.718434
1520.430738,-536.266849,-74.020594,10140.821405
1520.431055,-306.438199,-0.000000,10288.862594
1520.431372,-536.266849,-0.000000,10510.924376
1520.431690,0.000000,592.164754,10584.944971
1520.432007,766.095498,1110.308913,9474.636058
1520.432324,1225.752797,1110.308913,8734.430116
1520.432642,1685.410096,814.226536,8660.409521
1520.432959,2068.457845,888.247130,8586.388927
1520.433276,1991.848295,592.164754,8586.388927
1520.433594,1991.848295,-0.000000,8956.491898
1520.433911,1838.629195,-296.082377,9696.697840
1520.434228,1685.410096,-592.164754,10066.800811
1520.434546,1149.143247,-222.061783,9844.739029
1520.434863,1149.143247,-0.000000,10362.883188
1520.435180,766.095498,-0.000000,10214.842000
1520.435497,1072.533697,148.041188,10066.800811
1520.435815,842.705048,444.123565,9992.780217
1520.436132,1149.143247,592.164754,9844.739029
1520.436449,1302.362347,518.144159,9844.739029
1520.436767,1378.971896,444.123565,9622.677246
1520.437084,1455.581446,444.123565,9548.656652
1520.437401,1149.143247,-0.000000,9770.718434
1520.437719,1302.362347,-0.000000,9770.718434
1520.438036,1685.410096,-0.000000,9474.636058
1520.438353,1225.752797,296.082377,9104.533087
1520.438671,1225.752797,222.061783,9104.533087
1520.438988,689.485948,370.102971,8438.347739
1520.439305,612.876398,148.041188,8512.368333
1520.439622,229.828649,148.041188,9030.512492
1520.439940,0.000000,-0.000000,9622.677246
1520.440257,-459.657299,222.061783,10140.821405
1520.440574,-536.266849,-296.082377,10140.821405
1520.440892,-229.828649,-0.000000,10658.965565
1520.441209,-153.219100,-0.000000,10362.883188
1520.441526,383.047749,814.226536,9474.636058
1520.441844,995.924147,1406.391290,8734.430116
1520.442161,1608.800546,1332.370696,8438.347739
1520.442478,1378.971896,814.226536,7994.224174
1520.442796,1685.410096,370.102971,7920.203579
1520.443113,1455.581446,-74.020594,8216.285956
1520.443430,1455.581446,-592.164754,9326.594869
1520.443747,1072.533697,-666.185348,9252.574275
1520.444065,459.657299,-222.061783,9178.553681
1520.444382,306.438199,-0.000000,9696.697840
1520.444699,612.876398,-148.041188,9918.759623
1520.445017,153.219100,-74.020594,9696.697840
1520.445334,76.609550,370.102971,9326.594869
1520.445651,459.657299,592.164754,9622.677246
1520.445969,306.438199,444.123565,9474.636058
1520.446286,612.876398,666.185348,9474.636058
1520.446603,459.657299,370.102971,9474.636058
1520.446921,536.266849,370.102971,9474.636058
1520.447238,919.314598,296.082377,9474.636058
1520.447555,1149.143247,296.082377,9030.512492
1520.447872,995.924147,222.061783,8882.471304
1520.448190,995.924147,222.061783,8882.471304
1520.448507,995.924147,444.123565,8734.430116
1520.448824,689.485948,222.061783,8660.409521
1520.449142,383.047749,-0.000000,9326.594869
1520.449459,0.000000,-74.020594,9696.697840
1520.449776,0.000000,-222.061783,10066.800811
1520.450094,0.000000,-222.061783,10288.862594
1520.450411,0.000000,-222.061783,10658.965565
1520.450728,306.438199,296.082377,10140.821405
1520.451046,842.705048,740.205942,9326.594869
1520.451363,995.924147,592.164754,8364.327145
1520.451680,1762.019645,1036.288319,8364.327145
1520.451997,1455.581446,666.185348,8438.347739
1520.452315,1608.800546,-0.000000,8586.388927
1520.452632,1991.848295,-518.144159,9474.636058
1520.452949,919.314598,-888.247130,10066.800811
1520.453267,1072.533697,-740.205942,10288.862594
1520.453584,842.705048,-296.082377,10140.821405
1520.453901,995.924147,-74.020594,10214.842000
1520.454219,919.314598,666.185348,9844.739029
1520.454536,919.314598,740.205942,9474.636058
1520.454853,1149.143247,518.144159,9548.656652
1520.455171,1455.581446,296.082377,9696.697840
1520.455488,1225.752797,-0.000000,9696.697840
1520.455805,1149.143247,-370.102971,9844.739029
1520.456122,1072.533697,-148.041188,9844.739029
1520.456440,1378.971896,-0.000000,9918.759623
1520.456757,1378.971896,222.061783,9326.594869
1520.457074,1532.190996,666.185348,9030.512492
1520.457392,1225.752797,296.082377,8956.491898
1520.457709,1225.752797,592.164754,8660.409521
1520.458026,689.485948,-0.000000,8660.409521
1520.458344,306.438199,-74.020594,9252.574275
1520.458661,-306.438199,-518.144159,9992.780217
1520.458978,-842.705048,-518.144159,10732.986159
1520.459296,-766.095498,-444.123565,10658.965565
1520.459613,-766.095498,-74.020594,10881.027347
1520.459930,-459.657299,518.144159,10732.986159
1520.460247,153.219100,1332.370696,9548.656652
1520.460565,995.924147,1406.391290,8660.409521
1520.460882,1378.971896,1480.411884,8068.244768
1520.461199,1378.971896,888.247130,7772.162391
1520.461517,1608.800546,592.164754,7624.121203
1520.461834,1762.019645,222.061783,8142.265362
1520.462151,1072.533697,-222.061783,8882.471304
1520.462469,1149.143247,-518.144159,9474.636058
1520.462786,689.485948,-0.000000,9252.574275
1520.463103,612.876398,222.061783,9474.636058
1520.463421,995.924147,-0.000000,9474.636058
1520.463738,536.266849,740.205942,9326.594869
1520.464055,766.095498,888.247130,9104.533087
1520.464372,689.485948,962.267725,9400.615463
1520.464690,612.876398,592.164754,9548.656652
1520.465007,612.876398,740.205942,9474.636058
1520.465324,766.095498,592.164754,9548.656652
1520.465642,1149.143247,518.144159,9474.636058
1520.465959,1532.190996,888.247130,9400.615463
1520.466276,1685.410096,740.205942,8808.450710
1520.466594,1762.019645,740.205942,8734.430116
1520.466911,1685.410096,666.185348,8586.388927
1520.467228,1455.581446,518.144159,8364.327145
1520.467546,919.314598,-0.000000,8586.388927
1520.467863,689.485948,-148.041188,9474.636058
1520.468180,229.828649,-518.144159,9770.718434
1520.468497,-229.828649,-444.123565,10510.924376
1520.468815,-459.657299,-518.144159,11103.089130
1520.469132,-536.266849,-518.144159,11029.068536
1520.469449,-153.219100,-222.061783,10807.006753
1520.469767,459.657299,222.061783,10140.821405
1520.470084,383.047749,666.185348,9326.594869
1520.470401,612.876398,814.226536,8734.430116
1520.470719,842.705048,370.102971,9030.512492
1520.471036,919.314598,-0.000000,8956.491898
1520.471353,995.924147,-222.061783,9474.636058
1520.471671,842.705048,-666.185348,9844.739029
1520.471988,536.266849,-518.144159,10140.821405
1520.472305,612.876398,-444.123565,9992.780217
1520.472622,612.876398,-222.061783,9622.677246
1520.472940,842.705048,222.061783,9992.780217
1520.473257,766.095498,74.020594,9474.636058
1520.473574,1072.533697,592.164754,9104.533087
1520.473892,842.705048,222.061783,9474.636058
1520.474209,766.095498,-74.020594,9252.574275
1520.474526,536.266849,-0.000000,9400.615463
1520.474844,536.266849,-0.000000,9548.656652
1520.475161,612.876398,-0.000000,9474.636058
1520.475478,1225.752797,-0.000000,9548.656652
1520.475796,1302.362347,-0.000000,9104.533087
1520.476113,1302.362347,74.020594,8882.471304
1520.476430,1149.143247,-148.041188,8438.347739
1520.476747,1072.533697,-0.000000,8438.347739
1520.477065,919.314598,-0.000000,8734.430116
1520.477382,612.876398,-296.082377,9400.615463
1520.477699,76.609550,-222.061783,9844.739029
1520.478017,0.000000,-296.082377,10066.800811
1520.478334,-229.828649,-0.000000,10214.842000
1520.478651,153.219100,-0.000000,9696.697840
1520.478969,459.657299,592.164754,9548.656652
1520.479286,919.314598,814.226536,8808.450710
1520.479603,1072.533697,666.185348,8290.306550
1520.479921,1532.190996,296.082377,8142.265362
1520.480238,1302.362347,370.102971,8216.285956
1520.480555,1149.143247,-0.000000,8290.306550
1520.480872,1072.533697,-296.082377,9104.533087
1520.481190,766.095498,-444.123565,9548.656652
1520.481507,536.266849,-592.164754,9622.677246
1520.481824,383.047749,222.061783,9622.677246
1520.482142,536.266849,518.144159,9696.697840
1520.482459,612.876398,592.164754,9622.677246
1520.482776,689.485948,1332.370696,9474.636058
1520.483094,919.314598,740.205942,9178.553681
1520.483411,689.485948,666.185348,9474.636058
1520.483728,842.705048,444.123565,9844.739029
1520.484045,919.314598,370.102971,9548.656652
1520.484363,919.314598,296.082377,9474.636058
1520.484680,1225.752797,296.082377,9622.677246
1520.484997,1072.533697,148.041188,9326.594869
1520.485315,1378.971896,296.082377,8882.471304
1520.485632,1225.752797,444.123565,8808.450710
1520.485949,766.095498,444.123565,8808.450710
1520.486267,1378.971896,-0.000000,8660.409521
1520.486584,153.219100,148.041188,9400.615463
1520.486901,76.609550,-222.061783,9844.739029
1520.487219,-459.657299,-222.061783,10658.965565
1520.487536,-383.047749,-148.041188,10807.006753
1520.487853,-153.219100,-0.000000,11177.109724
1520.488170,0.000000,518.144159,10658.965565
1520.488488,612.876398,888.247130,10066.800811
1520.488805,1149.143247,1258.350101,9400.615463
1520.489122,1685.410096,1110.308913,8512.368333
1520.489440,1991.848295,1110.308913,8142.265362
1520.489757,1838.629195,962.267725,7920.203579
1520.490074,1762.019645,740.205942,8512.368333
1520.490392,1455.581446,-222.061783,9104.533087
1520.490709,766.095498,-222.061783,9696.697840
1520.491026,689.485948,-444.123565,10066.800811
1520.491344,306.438199,-74.020594,9918.759623
1520.491661,306.438199,296.082377,10066.800811
1520.491978,229.828649,222.061783,9770.718434
1520.492295,-229.828649,518.144159,9474.636058
1520.492613,459.657299,518.144159,9622.677246
1520.492930,229.828649,592.164754,9918.759623
1520.493247,383.047749,962.267725,9770.718434
1520.493565,842.705048,888.247130,9696.697840
1520.493882,1072.533697,-0.000000,9844.739029
1520.494199,842.705048,-0.000000,9844.739029
1520.494517,1378.971896,296.082377,9474.636058
1520.494834,1685.410096,592.164754,8882.471304
1520.495151,1455.581446,518.144159,8512.368333
1520.495469,1685.410096,148.041188,8290.306550
1520.495786,1302.362347,-0.000000,8364.327145
1520.496103,459.657299,-222.061783,8882.471304
1520.496420,76.609550,-814.226536,9696.697840
1520.496738,-383.047749,-666.185348,10214.842000
1520.497055,0.000000,-222.061783,10658.965565
1520.497372,-306.438199,-518.144159,11251.130318
1520.497690,229.828649,-296.082377,10881.027347
1520.498007,766.095498,296.082377,10288.862594
1520.498324,1915.238745,962.267725,9104.533087
1520.498642,1838.629195,1258.350101,8142.265362
1520.498959,2221.676944,1110.308913,7772.162391
1520.499276,1991.848295,814.226536,7550.100608
1520.499594,2145.067394,222.061783,8438.347739
1520.499911,1685.410096,-518.144159,9104.533087
1520.500228,1225.752797,-962.267725,9770.718434
1520.500545,919.314598,-518.144159,9696.697840
1520.500863,689.485948,-148.041188,9992.780217
1520.501180,689.485948,-0.000000,9844.739029
1520.501497,842.705048,666.185348,9548.656652
1520.501815,153.219100,444.123565,8808.450710
1520.502132,536.266849,740.205942,8882.471304
1520.502449,766.095498,592.164754,9474.636058
1520.502767,459.657299,-0.000000,9400.615463
1520.503084,306.438199,-0.000000,9548.656652
1520.503401,383.047749,-0.000000,9844.739029
1520.503719,459.657299,-0.000000,9474.636058
1520.504036,689.485948,444.123565,9104.533087
1520.504353,1225.752797,592.164754,8438.347739
1520.504670,995.924147,666.185348,8216.285956
1520.504988,766.095498,592.164754,8216.285956
1520.505305,919.314598,296.082377,8512.368333
1520.505622,153.219100,-74.020594,9104.533087
1520.505940,-612.876398,-814.226536,9992.780217
1520.506257,-689.485948,-962.267725,10584.944971
1520.506574,-995.924147,-740.205942,11103.089130
1520.506892,-842.705048,-370.102971,11251.130318
1520.507209,-536.266849,444.123565,10658.965565
1520.507526,153.219100,1258.350101,9400.615463
1520.507844,689.485948,1406.391290,8734.430116
1520.508161,1838.629195,1480.411884,8586.388927
1520.508478,1532.190996,740.205942,8290.306550
1520.508795,1991.848295,-0.000000,8216.285956
1520.509113,2068.457845,-222.061783,9104.533087
1520.509430,1762.019645,-222.061783,9548.656652
1520.509747,1225.752797,-0.000000,9622.677246
1520.510065,1302.362347,222.061783,9622.677246
1520.510382,1072.533697,296.082377,9918.759623
1520.510699,1072.533697,814.226536,9844.739029
1520.511017,536.266849,1036.288319,9474.636058
1520.511334,689.485948,1184.329507,9400.615463
1520.511651,919.314598,888.247130,9474.636058
1520.511969,689.485948,444.123565,9844.739029
1520.512286,842.705048,-0.000000,10066.800811
1520.512603,536.266849,370.102971,9918.759623
1520.512920,842.705048,444.123565,9992.780217
1520.513238,1072.533697,444.123565,9474.636058
1520.513555,1378.971896,888.247130,9030.512492
1520.513872,1378.971896,888.247130,8808.450710
1520.514190,766.095498,740.205942,8734.430116
1520.514507,842.705048,666.185348,8586.388927
1520.514824,306.438199,444.123565,8734.430116
1520.515142,0.000000,-0.000000,9548.656652
1520.515459,-536.266849,-148.041188,10732.986159
1520.515776,-1072.533697,-444.123565,10881.027347
1520.516094,-689.485948,-444.123565,11029.068536
1520.516411,-536.266849,-148.041188,11029.068536
1520.516728,-76.609550,148.041188,10807.006753
1520.517045,536.266849,1110.308913,9474.636058
1520.517363,1149.143247,1406.391290,8734.430116
1520.517680,1302.362347,740.205942,8586.388927
1520.517997,1991.848295,592.164754,8438.347739
1520.518315,1915.238745,444.123565,8068.244768
1520.518632,1762.019645,-0.000000,9030.512492
1520.518949,1838.629195,-74.020594,9474.636058
1520.519267,1762.019645,-0.000000,9474.636058
1520.519584,1685.410096,-592.164754,9400.615463
1520.519901,1685.410096,148.041188,9844.739029
1520.520219,1149.143247,518.144159,9252.574275
1520.520536,1378.971896,814.226536,9104.533087
1520.520853,1608.800546,222.061783,9030.512492
1520.521170,1302.362347,-0.000000,9400.615463
1520.521488,1072.533697,148.041188,9770.718434
1520.521805,1378.971896,518.144159,9474.636058
1520.522122,1302.362347,222.061783,9548.656652
1520.522440,1302.362347,222.061783,9696.697840
1520.522757,1302.362347,296.082377,8956.491898
1520.523074,1378.971896,518.144159,8438.347739
1520.523392,1762.019645,444.123565,8734.430116
1520.523709,1302.362347,444.123565,8216.285956
1520.524026,689.485948,444.123565,8068.244768
1520.524344,1302.362347,-0.000000,8364.327145
1520.524661,76.609550,-518.144159,9252.574275
1520.524978,-689.485948,-888.247130,9918.759623
1520.525295,-1149.143247,-962.267725,10436.903782
1520.525613,-1302.362347,-444.123565,10807.006753
1520.525930,-995.924147,-74.020594,10436.903782
1520.526247,-842.705048,-0.000000,9918.759623
1520.526565,-306.438199,592.164754,9326.594869
1520.526882,0.000000,814.226536,8956.491898
1520.527199,76.609550,518.144159,8660.409521
1520.527517,229.828649,222.061783,8068.244768
1520.527834,919.314598,148.041188,9178.553681
1520.528151,536.266849,-518.144159,9548.656652
1520.528469,612.876398,-962.267725,9992.780217
1520.528786,383.047749,-1110.308913,9844.739029
1520.529103,536.266849,-370.102971,10214.842000
1520.529421,919.314598,-148.041188,9844.739029
1520.529738,995.924147,222.061783,9474.636058
1520.530055,995.924147,518.144159,9030.512492
1520.530373,919.314598,740.205942,9030.512492
1520.530690,842.705048,888.247130,9178.553681
1520.531007,1378.971896,740.205942,9400.615463
1520.531325,995.924147,222.061783,9548.656652
1520.531642,1072.533697,-222.061783,9992.780217
1520.531959,919.314598,-518.144159,10288.862594
1520.532277,1455.581446,-74.020594,9696.697840
1520.532594,1838.629195,222.061783,9474.636058
1520.532912,1608.800546,370.102971,9548.656652
1520.533229,1608.800546,222.061783,8808.450710
1520.533546,1838.629195,370.102971,8808.450710
1520.533864,1225.752797,-0.000000,9474.636058
1520.534181,995.924147,-0.000000,10066.800811
1520.534498,842.705048,592.164754,9622.677246
1520.534816,612.876398,666.185348,10066.800811
1520.535133,383.047749,518.144159,10584.944971
1520.535450,612.876398,370.102971,10214.842000
1520.535768,995.924147,814.226536,9622.677246
1520.536085,1072.533697,1036.288319,9104.533087
1520.536403,1532.190996,962.267725,8734.430116
1520.536720,1225.752797,296.082377,8734.430116
1520.537037,1302.362347,-0.000000,8586.388927
1520.537355,995.924147,-148.041188,9030.512492
1520.537672,536.266849,-370.102971,9844.739029
1520.537989,229.828649,-0.000000,9622.677246
1520.538307,76.609550,444.123565,9548.656652
1520.538624,0.000000,814.226536,9622.677246
1520.538941,76.609550,814.226536,10140.821405
1520.539259,76.609550,1184.329507,9474.636058
1520.539576,153.219100,1480.411884,8956.491898
1520.539893,153.219100,1184.329507,9104.533087
1520.540211,766.095498,592.164754,9252.574275
1520.540528,536.266849,296.082377,9474.636058
1520.540846,766.095498,222.061783,9104.533087
1520.541163,766.095498,296.082377,9400.615463
1520.541480,689.485948,222.061783,9326.594869
1520.541798,1225.752797,518.144159,8734.430116
1520.542115,1302.362347,888.247130,8142.265362
1520.542432,995.924147,518.144159,8512.368333
1520.542750,995.924147,296.082377,8438.347739
1520.543067,842.705048,-0.000000,8808.450710
1520.543384,459.657299,-148.041188,9326.594869
1520.543702,536.266849,-296.082377,9844.739029
1520.544019,76.609550,-0.000000,9770.718434
1520.544337,306.438199,-0.000000,10584.944971
1520.544654,153.219100,296.082377,10362.883188
1520.544971,536.266849,148.041188,10584.944971
1520.545289,766.095498,592.164754,9992.780217
1520.545606,1532.190996,444.123565,9474.636058
1520.545923,1762.019645,814.226536,8586.388927
1520.546241,1915.238745,370.102971,8438.347739
1520.546558,2221.676944,296.082377,8586.388927
1520.546875,1838.629195,-444.123565,8882.471304
1520.547193,1608.800546,-592.164754,9326.594869
1520.547510,1149.143247,-666.185348,9770.718434
1520.547827,766.095498,-444.123565,9770.718434
1520.548145,306.438199,-518.144159,10214.842000
1520.548462,0.000000,-444.123565,10214.842000
1520.548780,0.000000,-592.164754,10140.821405
1520.549097,-306.438199,-296.082377,9770.718434
1520.549414,229.828649,-0.000000,9992.780217
1520.549732,76.609550,-296.082377,10214.842000
1520.550049,612.876398,-0.000000,10214.842000
1520.550366,1072.533697,-444.123565,9918.759623
1520.550684,766.095498,148.041188,9622.677246
1520.551001,919.314598,444.123565,9474.636058
1520.551318,1532.190996,814.226536,8734.430116
1520.551636,1685.410096,888.247130,8290.306550
1520.551953,1225.752797,296.082377,8660.409521
1520.552271,612.876398,-370.102971,8216.285956
1520.552588,153.219100,-666.185348,8512.368333
1520.552905,306.438199,-962.267725,9252.574275
1520.553223,229.828649,-962.267725,10288.862594
1520.553540,-229.828649,-1110.308913,10288.862594
1520.553857,-383.047749,-592.164754,10140.821405
1520.554175,-153.219100,-222.061783,10510.924376
1520.554492,383.047749,296.082377,10510.924376
1520.554809,1455.581446,962.267725,9474.636058
1520.555127,1302.362347,1554.432478,7846.182985
1520.555444,1455.581446,1480.411884,8068.244768
1520.555761,2374.896044,962.267725,7920.203579
1520.556079,2911.162892,296.082377,7550.100608
1520.556396,2528.115143,-0.000000,8216.285956
1520.556714,1838.629195,-0.000000,8438.347739
1520.557031,1915.238745,-0.000000,8660.409521
1520.557348,1838.629195,148.041188,8734.430116
1520.557666,1608.800546,-0.000000,9844.739029
1520.557983,612.876398,518.144159,9178.553681
1520.558300,229.828649,888.247130,8734.430116
1520.558618,153.219100,814.226536,9178.553681
1520.558935,76.609550,444.123565,9770.718434
1520.559252,-229.828649,370.102971,10140.821405
1520.559570,-459.657299,740.205942,9918.759623
1520.559887,-459.657299,592.164754,9992.780217
1520.560205,0.000000,740.205942,9844.739029
1520.560522,459.657299,1036.288319,9474.636058
1520.560839,459.657299,666.185348,9104.533087
1520.561157,229.828649,444.123565,8956.491898
1520.561474,459.657299,518.144159,8956.491898
1520.561791,229.828649,814.226536,8586.388927
1520.562109,383.047749,740.205942,9104.533087
1520.562426,-536.266849,-74.020594,9548.656652
1520.562743,-612.876398,-74.020594,10140.821405
1520.563061,-1149.143247,-370.102971,10362.883188
1520.563378,-995.924147,-444.123565,10955.047942
1520.563695,-689.485948,-148.041188,10881.027347
1520.564013,-306.438199,666.185348,10584.944971
1520.564330,0.000000,962.267725,9992.780217
1520.564648,229.828649,740.205942,9474.636058
1520.564965,612.876398,444.123565,9326.594869
1520.565282,1532.190996,222.061783,9474.636058
1520.565600,1685.410096,222.061783,9252.574275
1520.565917,1225.752797,-0.000000,9622.677246
1520.566234,1685.410096,-148.041188,10214.842000
1520.566552,1915.238745,-0.000000,10214.842000
1520.566869,1991.848295,-0.000000,9918.759623
1520.567186,2221.676944,666.185348,9770.718434
1520.567504,2374.896044,1036.288319,9474.636058
1520.567821,2068.457845,1332.370696,9252.574275
1520.568139,2374.896044,666.185348,9326.594869
1520.568456,1532.190996,-148.041188,9770.718434
1520.568773,1455.581446,-0.000000,9696.697840
1520.569091,1225.752797,-74.020594,9696.697840
1520.569408,1149.143247,-148.041188,10214.842000
1520.569725,536.266849,-666.185348,10140.821405
1520.570043,766.095498,-296.082377,9622.677246
1520.570360,536.266849,-370.102971,9474.636058
1520.570677,689.485948,-148.041188,9326.594869
1520.570995,689.485948,-0.000000,8882.471304
1520.571312,536.266849,296.082377,8882.471304
1520.571629,306.438199,-0.000000,9104.533087
1520.571947,-306.438199,-296.082377,9400.615463
1520.572264,-306.438199,-296.082377,9770.718434
1520.572582,-612.876398,-148.041188,9770.718434
1520.572899,0.000000,-148.041188,9918.759623
1520.573216,0.000000,370.102971,9622.677246
1520.573534,383.047749,518.144159,9178.553681
1520.573851,536.266849,370.102971,8290.306550
1520.574168,766.095498,148.041188,7994.224174
1520.574486,766.095498,296.082377,7698.141797
1520.574803,919.314598,-74.020594,7920.203579
1520.575120,842.705048,-518.144159,8438.347739
1520.575438,612.876398,-666.185348,9104.533087
1520.575755,536.266849,-370.102971,9178.553681
1520.576073,459.657299,-0.000000,9104.533087
1520.576390,919.314598,296.082377,9104.533087
1520.576707,1225.752797,592.164754,9474.636058
1520.577025,1225.752797,666.185348,8956.491898
1520.577342,1685.410096,666.185348,8660.409521
1520.577659,1838.629195,518.144159,8956.491898
1520.577977,2298.286494,888.247130,9030.512492
1520.578294,2145.067394,296.082377,8882.471304
1520.578611,2068.457845,962.267725,8734.430116
1520.578929,1991.848295,444.123565,9474.636058
1520.579246,1762.019645,518.144159,9104.533087
1520.579563,2298.286494,296.082377,8882.471304
1520.579881,1915.238745,296.082377,8734.430116
1520.580198,1378.971896,148.041188,8586.388927
1520.580516,995.924147,-296.082377,9030.512492
1520.580833,306.438199,-148.041188,9178.553681
1520.581150,0.000000,-148.041188,9844.739029
1520.581468,-536.266849,-0.000000,10140.821405
1520.581785,-689.485948,-0.000000,10510.924376
1520.582102,-766.095498,-74.020594,10881.027347
1520.582420,-919.314598,296.082377,10955.047942
1520.582737,-459.657299,666.185348,10658.965565
1520.583054,0.000000,1258.350101,9918.759623
1520.583372,766.095498,1184.329507,8660.409521
1520.583689,229.828649,1702.473667,8290.306550
1520.584007,76.609550,1036.288319,8142.265362
1520.584324,153.219100,518.144159,8512.368333
1520.584641,536.266849,-0.000000,9252.574275
1520.584959,-229.828649,-222.061783,10066.800811
1520.585276,-842.705048,-370.102971,10510.924376
1520.585593,-766.095498,-0.000000,10584.944971
1520.585911,-842.705048,-0.000000,10881.027347
1520.586228,-919.314598,296.082377,11177.109724
1520.586545,-612.876398,518.144159,9918.759623
1520.586863,-383.047749,666.185348,9622.677246
1520.587180,306.438199,518.144159,10066.800811
1520.587497,842.705048,296.082377,10214.842000
1520.587815,842.705048,740.205942,10288.862594
1520.588132,1225.752797,518.144159,9844.739029
1520.588450,1378.971896,296.082377,9622.677246
1520.588767,1915.238745,444.123565,9326.594869
1520.589084,2221.676944,518.144159,9104.533087
1520.589402,2145.067394,666.185348,8808.450710
1520.589719,2145.067394,296.082377,8734.430116
1520.590036,1991.848295,296.082377,8290.306550
1520.590354,1455.581446,-296.082377,9030.512492
1520.590671,919.314598,-592.164754,9918.759623
1520.590988,919.314598,-1036.288319,10436.903782
1520.591306,153.219100,-666.185348,10436.903782
1520.591623,76.609550,-296.082377,11029.068536
1520.591941,229.828649,-0.000000,11177.109724
1520.592258,536.266849,888.247130,10362.883188
1520.592575,1149.143247,1184.329507,9178.553681
1520.592893,1608.800546,1554.432478,8512.368333
1520.593210,1838.629195,1184.329507,8142.265362
1520.593527,2145.067394,814.226536,8068.244768
1520.593845,1762.019645,148.041188,8364.327145
1520.594162,1685.410096,-666.185348,8882.471304
1520.594479,1225.752797,-666.185348,9178.553681
1520.594797,1302.362347,-444.123565,9400.615463
1520.595114,766.095498,-74.020594,9474.636058
1520.595431,612.876398,-518.144159,9696.697840
1520.595749,229.828649,-148.041188,9104.533087
1520.596066,383.047749,148.041188,8882.471304
1520.596384,306.438199,296.082377,8808.450710
1520.596701,153.219100,222.061783,9178.553681
1520.597018,689.485948,-0.000000,9252.574275
1520.597336,536.266849,-0.000000,9030.512492
1520.597653,612.876398,-370.102971,9104.533087
1520.597970,766.095498,-444.123565,9252.574275
1520.598288,1225.752797,-74.020594,8956.491898
1520.598605,2068.457845,-0.000000,8438.347739
1520.598922,1762.019645,370.102971,8438.347739
1520.599240,1762.019645,370.102971,7994.224174
1520.599557,1149.143247,666.185348,7920.203579
1520.599875,995.924147,148.041188,8290.306550
1520.600192,842.705048,-296.082377,9104.533087
1520.600509,459.657299,-296.082377,9844.739029
1520.600827,229.828649,-0.000000,10066.800811
1520.601144,0.000000,148.041188,10362.883188
1520.601461,459.657299,370.102971,10436.903782
1520.601779,1072.533697,592.164754,10288.862594
1520.602096,1149.143247,1036.288319,9326.594869
1520.602413,1302.362347,1110.308913,9104.533087
1520.602731,1225.752797,592.164754,8734.430116
1520.603048,1225.752797,444.123565,8956.491898
1520.603365,1532.190996,296.082377,9474.636058
1520.603683,1072.533697,-0.000000,9622.677246
1520.604000,612.876398,-0.000000,9696.697840
1520.604318,766.095498,148.041188,9622.677246
1520.604635,612.876398,444.123565,10066.800811
1520.604952,459.657299,222.061783,9770.718434
1520.605270,153.219100,518.144159,9844.739029
1520.605587,76.609550,222.061783,9622.677246
1520.605904,229.828649,222.061783,9918.759623
1520.606222,0.000000,148.041188,9992.780217
1520.606539,76.609550,222.061783,9918.759623
1520.606856,-76.609550,-0.000000,9770.718434
1520.607174,-153.219100,-0.000000,9918.759623
1520.607491,153.219100,-0.000000,9844.739029
1520.607809,229.828649,-0.000000,9474.636058
1520.608126,459.657299,296.082377,9400.615463
1520.608443,689.485948,148.041188,8808.450710
1520.608761,536.266849,370.102971,8586.388927
1520.609078,842.705048,148.041188,8734.430116
1520.609395,612.876398,-0.000000,9400.615463
1520.609713,153.219100,-0.000000,9918.759623
1520.610030,0.000000,-74.020594,10584.944971
1520.610347,-153.219100,-0.000000,10584.944971
1520.610665,306.438199,-0.000000,10732.986159
1520.610982,1225.752797,666.185348,10066.800811
1520.611299,1608.800546,1480.411884,9104.533087
1520.611617,2068.457845,1554.432478,8512.368333
1520.611934,2374.896044,1184.329507,8512.368333
1520.612252,2757.943793,814.226536,8290.306550
1520.612569,2451.505594,370.102971,8586.388927
1520.612886,2298.286494,-0.000000,8956.491898
1520.613204,1838.629195,-444.123565,9918.759623
1520.613521,1302.362347,-592.164754,9622.677246
1520.613838,1455.581446,-666.185348,9548.656652
1520.614156,842.705048,-296.082377,9992.780217
1520.614473,612.876398,-148.041188,10214.842000
1520.614790,842.705048,-0.000000,9992.780217
1520.615108,919.314598,370.102971,9622.677246
1520.615425,612.876398,148.041188,9992.780217
1520.615743,766.095498,370.102971,9918.759623
1520.616060,612.876398,296.082377,9104.533087
1520.616377,842.705048,444.123565,9474.636058
1520.616695,1072.533697,444.123565,9252.574275
1520.617012,842.705048,148.041188,9104.533087
1520.617329,766.095498,-0.000000,8734.430116
1520.617647,383.047749,-148.041188,8660.409521
1520.617964,153.219100,-74.020594,8660.409521
1520.618281,153.219100,-370.102971,8734.430116
1520.618599,-459.657299,-370.102971,8734.430116
1520.618916,-612.876398,-814.226536,9548.656652
1520.619233,-1532.190996,-666.185348,9918.759623
1520.619551,-1302.362347,-666.185348,10140.821405
1520.619868,-1149.143247,-148.041188,10214.842000
1520.620186,-995.924147,-0.000000,10140.821405
1520.620503,-153.219100,888.247130,9548.656652
1520.620820,0.000000,888.247130,8586.388927
1520.621138,766.095498,1184.329507,8512.368333
1520.621455,1378.971896,740.205942,7920.203579
1520.621772,1455.581446,296.082377,7994.224174
1520.622090,1685.410096,222.061783,8364.327145
1520.622407,1915.238745,-0.000000,9030.512492
1520.622724,1608.800546,-518.144159,9400.615463
1520.623042,2145.067394,-0.000000,9104.533087
1520.623359,1991.848295,-0.000000,9104.533087
1520.623677,2068.457845,370.102971,9400.615463
1520.623994,1838.629195,296.082377,9178.553681
1520.624311,1608.800546,-0.000000,9474.636058
1520.624629,1302.362347,148.041188,9548.656652
1520.624946,1532.190996,-0.000000,9844.739029
1520.625263,1455.581446,148.041188,9992.780217
1520.625581,1302.362347,222.061783,9918.759623
1520.625898,1532.190996,296.082377,10140.821405
1520.626215,1378.971896,296.082377,9918.759623
1520.626533,1608.800546,740.205942,9548.656652
1520.626850,1455.581446,666.185348,9400.615463
1520.627167,1225.752797,370.102971,8882.471304
1520.627485,1072.533697,518.144159,9178.553681
1520.627802,689.485948,740.205942,8882.471304
1520.628120,383.047749,814.226536,9474.636058
1520.628437,76.609550,222.061783,9918.759623
1520.628754,-995.924147,-148.041188,10288.862594
1520.629072,-689.485948,-148.041188,10658.965565
1520.629389,-689.485948,-0.000000,10658.965565
1520.629706,-459.657299,592.164754,10584.944971
1520.630024,0.000000,1110.308913,9844.739029
1520.630342,-229.828649,1554.432478,9030.512492
1520.630659,153.219100,1554.432478,8586.388927
1520.630977,536.266849,1406.391290,8512.368333
1520.631294,612.876398,814.226536,8438.347739
1520.631611,612.876398,592.164754,8882.471304
1520.631929,919.314598,-74.020594,9622.677246
1520.632246,229.828649,-74.020594,10066.800811
1520.632563,306.438199,-148.041188,9992.780217
1520.632881,0.000000,296.082377,10214.842000
1520.633198,306.438199,222.061783,10140.821405
1520.633515,306.438199,518.144159,9992.780217
1520.633833,612.876398,962.267725,9548.656652
1520.634150,1072.533697,962.267725,9178.553681
1520.634467,1302.362347,962.267725,9474.636058
1520.634785,2145.067394,740.205942,9474.636058
1520.635102,1915.238745,666.185348,9104.533087
1520.635419,2145.067394,444.123565,8882.471304
1520.635736,1915.238745,592.164754,9178.553681
1520.636054,1991.848295,222.061783,9252.574275
1520.636371,2145.067394,296.082377,8956.491898
1520.636688,1762.019645,-148.041188,9030.512492
1520.637006,1455.581446,-0.000000,9104.533087
1520.637323,842.705048,-370.102971,9030.512492
1520.637640,459.657299,-592.164754,9696.697840
1520.637958,-153.219100,-962.267725,10584.944971
1520.638275,-459.657299,-1036.288319,11103.089130
1520.638592,-612.876398,-1036.288319,10881.027347
1520.638910,-536.266849,-296.082377,10955.047942
1520.639227,0.000000,-148.041188,10658.965565
1520.639544,842.705048,592.164754,9696.697840
1520.639862,842.705048,888.247130,8586.388927
1520.640179,1149.143247,666.185348,8216.285956
1520.640496,1378.971896,518.144159,7994.224174
1520.640814,1762.019645,-0.000000,7846.182985
1520.641131,1762.019645,-518.144159,8438.347739
1520.641448,1302.362347,-962.267725,8956.491898
1520.641766,919.314598,-1036.288319,8882.471304
1520.642083,536.266849,-666.185348,9104.533087
1520.642400,536.266849,-592.164754,9326.594869
1520.642717,153.219100,-370.102971,9474.636058
1520.643035,-306.438199,-74.020594,9252.574275
1520.643352,-153.219100,74.020594,8808.450710
1520.643669,-153.219100,-0.000000,9252.574275
1520.643987,-229.828649,-0.000000,9474.636058
1520.644304,229.828649,-0.000000,9030.512492
1520.644621,459.657299,-0.000000,9030.512492
1520.644939,919.314598,-0.000000,9622.677246
1520.645256,1302.362347,-296.082377,9326.594869
1520.645573,1455.581446,-444.123565,9252.574275
1520.645891,1915.238745,-0.000000,8586.388927
1520.646208,1915.238745,740.205942,8068.244768
1520.646525,1838.629195,518.144159,7994.224174
1520.646843,1685.410096,370.102971,8142.265362
1520.647160,1378.971896,-148.041188,8882.471304
1520.647477,919.314598,-148.041188,9548.656652
1520.647795,536.266849,-296.082377,10066.800811
1520.648112,459.657299,-518.144159,10732.986159
1520.648429,536.266849,-222.061783,10881.027347
1520.648746,689.485948,296.082377,10732.986159
1520.649064,1149.143247,888.247130,9992.780217
1520.649381,1378.971896,1110.308913,9104.533087
1520.649698,1838.629195,1258.350101,8808.450710
1520.650016,1685.410096,1554.432478,8586.388927
1520.650333,1762.019645,888.247130,8660.409521
1520.650650,1608.800546,-0.000000,9104.533087
1520.650968,919.314598,-0.000000,9696.697840
1520.651285,842.705048,518.144159,9844.739029
1520.651602,229.828649,444.123565,9992.780217
1520.651920,229.828649,962.267725,10214.842000
1520.652237,229.828649,962.267725,10066.800811
1520.652554,76.609550,1036.288319,9474.636058
1520.652872,229.828649,1258.350101,9474.636058
1520.653189,0.000000,1036.288319,9770.718434
1520.653506,229.828649,888.247130,9696.697840
1520.653824,229.828649,888.247130,9474.636058
1520.654141,0.000000,740.205942,9696.697840
1520.654458,229.828649,740.205942,10510.924376
1520.654776,536.266849,814.226536,9400.615463
1520.655093,536.266849,888.247130,9474.636058
1520.655410,689.485948,962.267725,9178.553681
1520.655727,689.485948,888.247130,8586.388927
1520.656045,919.314598,962.267725,8808.450710
1520.656362,536.266849,444.123565,8882.471304
1520.656679,153.219100,148.041188,9622.677246
1520.656997,0.000000,-222.061783,10214.842000
1520.657314,-229.828649,-148.041188,10510.924376
1520.657631,-153.219100,-0.000000,10955.047942
1520.657949,229.828649,518.144159,11103.089130
1520.658266,383.047749,444.123565,10288.862594
1520.658583,1072.533697,1036.288319,9696.697840
1520.658901,1302.362347,1258.350101,8882.471304
1520.659218,1762.019645,740.205942,8438.347739
1520.659535,1915.238745,296.082377,8808.450710
1520.659853,1915.238745,-222.061783,9030.512492
1520.660170,1685.410096,-370.102971,9400.615463
1520.660487,1225.752797,-814.226536,10288.862594
1520.660805,1149.143247,-888.247130,10881.027347
1520.661122,1225.752797,-444.123565,10140.821405
1520.661439,995.924147,-0.000000,9918.759623
1520.661756,842.705048,296.082377,9622.677246
1520.662074,842.705048,-0.000000,8956.491898
1520.662391,612.876398,-0.000000,8808.450710
1520.662708,306.438199,-148.041188,9474.636058
1520.663026,383.047749,-370.102971,9622.677246
1520.663343,153.219100,-222.061783,9400.615463
1520.663660,76.609550,-0.000000,9918.759623
1520.663978,229.828649,-592.164754,9696.697840
1520.664295,536.266849,222.061783,8882.471304
1520.664612,459.657299,222.061783,8216.285956
1520.664930,383.047749,-0.000000,8290.306550
1520.665247,919.314598,-74.020594,8216.285956
1520.665564,383.047749,148.041188,7920.203579
1520.665882,536.266849,-74.020594,8586.388927
1520.666199,76.609550,-740.205942,9400.615463
1520.666516,383.047749,-888.247130,9548.656652
1520.666834,536.266849,-666.185348,9844.739029
1520.667151,689.485948,148.041188,9844.739029
1520.667468,689.485948,444.123565,9400.615463
1520.667786,1608.800546,1036.288319,8808.450710
1520.668103,1838.629195,962.267725,7994.224174
1520.668420,2145.067394,740.205942,7772.162391
1520.668737,1991.848295,1110.308913,7624.121203
1520.669055,1991.848295,148.041188,7624.121203
1520.669372,1991.848295,-74.020594,8512.368333
1520.669689,1685.410096,-222.061783,9622.677246
1520.670007,1302.362347,-962.267725,10140.821405
1520.670324,842.705048,-370.102971,10288.862594
1520.670641,995.924147,-0.000000,10288.862594
1520.670959,1149.143247,296.082377,10066.800811
1520.671276,612.876398,592.164754,9696.697840
1520.671593,1072.533697,592.164754,9474.636058
1520.671911,842.705048,666.185348,9548.656652
1520.672228,1225.752797,814.226536,9696.697840
1520.672545,1072.533697,666.185348,9696.697840
1520.672863,842.705048,370.102971,9548.656652
1520.673180,842.705048,222.061783,9918.759623
1520.673497,766.095498,370.102971,10066.800811
1520.673815,689.485948,444.123565,9474.636058
1520.674132,153.219100,592.164754,9252.574275
1520.674449,536.266849,592.164754,9178.553681
1520.674766,153.219100,592.164754,9030.512492
1520.675084,-306.438199,518.144159,9252.574275
1520.675401,-995.924147,-0.000000,9696.697840
1520.675718,-1149.143247,-148.041188,10362.883188
1520.676036,-1225.752797,-74.020594,10955.047942
1520.676353,-1225.752797,-0.000000,11325.150913
1520.676670,-995.924147,518.144159,11251.130318
1520.676988,-536.266849,962.267725,10732.986159
1520.677305,76.609550,1406.391290,9548.656652
1520.677622,842.705048,1702.473667,8734.430116
1520.677940,1225.752797,1332.370696,8586.388927
1520.678257,1838.629195,962.267725,8438.347739
1520.678574,1608.800546,444.123565,8438.347739
1520.678892,1915.238745,-0.000000,9104.533087
1520.679209,1608.800546,-370.102971,9474.636058
1520.679526,1455.581446,-74.020594,10140.821405
1520.679844,919.314598,-74.020594,9770.718434
1520.680161,1225.752797,-0.000000,9918.759623
1520.680478,1149.143247,-0.000000,9844.739029
1520.680796,1455.581446,222.061783,9696.697840
1520.681113,1455.581446,444.123565,9622.677246
1520.681430,1455.581446,370.102971,9696.697840
1520.681747,1608.800546,296.082377,9696.697840
1520.682065,1838.629195,-0.000000,9770.718434
1520.682382,1455.581446,296.082377,9622.677246
1520.682699,1302.362347,74.020594,9622.677246
1520.683017,1532.190996,148.041188,9400.615463
1520.683334,1378.971896,222.061783,9400.615463
1520.683651,1532.190996,148.041188,8882.471304
1520.683969,1149.143247,-0.000000,8364.327145
1520.684286,1149.143247,-296.082377,8586.388927
1520.684603,459.657299,-444.123565,8734.430116
1520.684921,153.219100,-814.226536,9474.636058
1520.685238,-612.876398,-962.267725,9696.697840
1520.685555,-995.924147,-740.205942,10288.862594
1520.685873,-919.314598,-370.102971,10362.883188
1520.686190,-1302.362347,-0.000000,10066.800811
1520.686507,-383.047749,296.082377,9622.677246
1520.686825,-229.828649,740.205942,8734.430116
1520.687142,0.000000,962.267725,7994.224174
1520.687459,459.657299,888.247130,7846.182985
1520.687776,536.266849,592.164754,8142.265362
1520.688094,689.485948,296.082377,8290.306550
1520.688411,919.314598,-0.000000,8734.430116
1520.688728,229.828649,-74.020594,8956.491898
1520.689046,229.828649,148.041188,9252.574275
1520.689363,153.219100,-0.000000,9252.574275
1520.689680,383.047749,370.102971,9400.615463
1520.689998,306.438199,222.061783,9400.615463
1520.690315,459.657299,370.102971,9252.574275
1520.690632,689.485948,296.082377,9326.594869
1520.690950,536.266849,444.123565,9474.636058
1520.691267,1302.362347,148.041188,9696.697840
1520.691584,1378.971896,-0.000000,9400.615463
1520.691902,1762.019645,-0.000000,9622.677246
1520.692219,1685.410096,-74.020594,9548.656652
1520.692536,1378.971896,148.041188,9474.636058
1520.692854,2145.067394,444.123565,9104.533087
1520.693171,2374.896044,296.082377,9326.594869
1520.693488,2068.457845,444.123565,9178.553681
1520.693806,2145.067394,592.164754,9178.553681
1520.694123,1455.581446,222.061783,9474.636058
1520.694440,995.924147,-74.020594,10214.842000
1520.694757,766.095498,-148.041188,10881.027347
1520.695075,459.657299,-0.000000,10955.047942
1520.695392,612.876398,-0.000000,11103.089130
1520.695709,229.828649,148.041188,10732.986159
1520.696027,229.828649,666.185348,10214.842000
1520.696344,612.876398,1184.329507,9474.636058
1520.696661,766.095498,1036.288319,9252.574275
1520.696979,689.485948,518.144159,9178.553681
1520.697296,383.047749,-0.000000,9252.574275
1520.697613,459.657299,-0.000000,9326.594869
1520.697931,153.219100,-296.082377,9474.636058
1520.698248,76.609550,-148.041188,9918.759623
1520.698565,0.000000,148.041188,9918.759623
1520.698883,229.828649,592.164754,10066.800811
1520.699200,306.438199,592.164754,9548.656652
1520.699517,229.828649,1036.288319,9474.636058
1520.699835,459.657299,1036.288319,9252.574275
1520.700152,612.876398,740.205942,9178.553681
1520.700469,536.266849,666.185348,9252.574275
1520.700786,919.314598,518.144159,9178.553681
1520.701104,1072.533697,518.144159,8956.491898
1520.701421,1302.362347,444.123565,9326.594869
1520.701738,612.876398,-0.000000,8808.450710
1520.702056,1225.752797,370.102971,8586.388927
1520.702373,842.705048,-0.000000,8808.450710
1520.702690,919.314598,-74.020594,9030.512492
1520.703008,919.314598,-444.123565,8882.471304
1520.703325,229.828649,-370.102971,8956.491898
1520.703642,-76.609550,-666.185348,9400.615463
1520.703960,-306.438199,-592.164754,9992.780217
1520.704277,-153.219100,-888.247130,10436.903782
1520.704594,-229.828649,-518.144159,10584.944971
1520.704912,0.000000,-296.082377,10658.965565
1520.705229,536.266849,370.102971,10362.883188
1520.705546,1072.533697,888.247130,9030.512492
